[{"success":true,"trial_type":"fullscreen","trial_index":0,"time_elapsed":24865,"internal_node_id":"0.0-0.0","protocol_sum":"","subject_identifier":310,"subject_sum":[33,14,59,22,12,53,88,24,80,148,37,185,217,233,253,62,162,226,135,242,196,58,19,229,190,136,23,20,13,176,185,230],"subject_pair":155,"STUDY_ID":"66a0b3911f23dfc7665bb169","PROLIFIC_PID":"6687e7ab774852dc74bdca19","SESSION_ID":"66a11af7e345d5f135598791","practice_instructions":1,"leaderboard_instructions":1,"bonus":0,"reveal_word":false,"self_rating":"3","confidence":"63"},{"view_history":"[{\"page_index\":0,\"viewing_time\":2976}]","rt":2977,"trial_type":"instructions","trial_index":1,"time_elapsed":27846,"internal_node_id":"0.0-1.0","protocol_sum":"","subject_identifier":310,"subject_sum":[33,14,59,22,12,53,88,24,80,148,37,185,217,233,253,62,162,226,135,242,196,58,19,229,190,136,23,20,13,176,185,230],"subject_pair":155,"STUDY_ID":"66a0b3911f23dfc7665bb169","PROLIFIC_PID":"6687e7ab774852dc74bdca19","SESSION_ID":"66a11af7e345d5f135598791","practice_instructions":1,"leaderboard_instructions":1,"bonus":0,"reveal_word":false,"self_rating":"3","confidence":"63"},{"view_history":"[{\"page_index\":0,\"viewing_time\":2741}]","rt":2741,"trial_type":"instructions","trial_index":2,"time_elapsed":30603,"internal_node_id":"0.0-2.0-0.0","protocol_sum":"","subject_identifier":310,"subject_sum":[33,14,59,22,12,53,88,24,80,148,37,185,217,233,253,62,162,226,135,242,196,58,19,229,190,136,23,20,13,176,185,230],"subject_pair":155,"STUDY_ID":"66a0b3911f23dfc7665bb169","PROLIFIC_PID":"6687e7ab774852dc74bdca19","SESSION_ID":"66a11af7e345d5f135598791","practice_instructions":1,"leaderboard_instructions":1,"bonus":0,"reveal_word":false,"self_rating":"3","confidence":"63"},{"rt":11571,"responses":"{\"Q0\":\"... reveal the word with as <b>few letter guesses</b> as possible\"}","question_order":"[0]","trial_type":"survey-multi-choice","trial_index":3,"time_elapsed":42200,"internal_node_id":"0.0-2.0-1.0","protocol_sum":"","subject_identifier":310,"subject_sum":[33,14,59,22,12,53,88,24,80,148,37,185,217,233,253,62,162,226,135,242,196,58,19,229,190,136,23,20,13,176,185,230],"subject_pair":155,"correct":true,"test_part":"multichoice_nonpretend","STUDY_ID":"66a0b3911f23dfc7665bb169","PROLIFIC_PID":"6687e7ab774852dc74bdca19","SESSION_ID":"66a11af7e345d5f135598791","practice_instructions":1,"leaderboard_instructions":1,"bonus":0,"reveal_word":false,"self_rating":"3","confidence":"63"},{"view_history":"[{\"page_index\":0,\"viewing_time\":1354}]","rt":1356,"trial_type":"instructions","trial_index":4,"time_elapsed":43558,"internal_node_id":"0.0-3.0","protocol_sum":"","subject_identifier":310,"subject_sum":[33,14,59,22,12,53,88,24,80,148,37,185,217,233,253,62,162,226,135,242,196,58,19,229,190,136,23,20,13,176,185,230],"subject_pair":155,"STUDY_ID":"66a0b3911f23dfc7665bb169","PROLIFIC_PID":"6687e7ab774852dc74bdca19","SESSION_ID":"66a11af7e345d5f135598791","practice_instructions":1,"leaderboard_instructions":1,"bonus":0,"reveal_word":false,"self_rating":"3","confidence":"63"},{"word":"ZEBRA","click_log":{"letter":["","Z","E","B","R","A"],"t":[0,9022,11597,15446,19596,20621],"hit":[null,1,1,1,1,1],"asked":["","Z","ZE","ZEB","ZEBR","ZEBRA"],"word_state":["_____","Z____","ZE___","ZEB__","ZEBR_","ZEBRA"]},"hover_log":{"letter":["?","?","?","?","?","?","?","?","?","?","?","?","?","?","?","?","?","?","?","?","?","?","?","?","?","?","?","?","?","?","?","?","?","?","?","?","?","?","?","?","?","?","?","?","?","?","?","?","?","?","?","?","?","?","?","?","?","?","?","?","?","?","?","?","?","?","?","?","?","?","?","?","?","?","?","?","?","?","?","?","?","?","?","?","?","?","?","?","?","?","?","?","?","?","?","?","?","?","?","?","?","?","?","?","?","?","?","?","?","?","?","?","?","?","?","?","?","?","?","?","?","?","?","?","?","?","?","?","?","?","?","?","?","?","?","?","?","T","?","?","?","C","C","C","?","?","?","?","?","?","?","?","?","?","?","?","?","E","F","F","F","F","F","F","F","F","?","?","?","N","N","N","?","?","?","?","?","?","?","?","?","?","?","?","?","?","?","?","?","?","W","?","V","?","U","U","?","?","?","?","?","?","?","?","?","E","?","?","?","?","?","?","H","?","R","R","R","R","R","R","R","R","Q","Q","Q","?","?","P","P","P","P","P","P","P","P","P","P","O","O","N","?","M","M","M","M","M","M","M","M","M","M","M","M","M","M","M","M","M","M","M","M","M","N","N","O","P","P","P","P","P","P","P","P","P","P","P","?","?","?","?","?","?","?","?","?","?","?","?","?","Y","Y","Y","Y","?","?","?","?","?","?","Y","Y","Y","Y","X","X","X","?","?","?","?","?","X","X","X","?","Y","Y","Y","Y","Y","?","?","?","?","?","?","?","?","?","?","?","?","?","?","?","Z","Z","Z","Z","Z","Z","Z","Z","Z","Z","Z","Z","Z","Z","Z","Z","Z","Z","Z","Z","Z","Z","Z","Z","Z","Z","Z","Z","Z","Z","Z","Z","Z","Z","Z","Z","Z","Z","Z","Z","Z","Z","Z","Z","Z","Z","?","Y","Y","Y","?","?","?","?","?","?","?","?","?","?","?","?","?","?","?","?","?","?","?","N","N","?","?","?","?","D","D","D","?","?","?","?","?","?","?","?","C","C","C","C","C","?","?","D","D","D","?","?","?","?","?","?","?","?","?","?","?","?","?","?","?","?","?","?","?","?","?","?","?","?","?","?","?","?","?","?","?","?","?","?","?","?","?","E","E","E","E","E","E","E","E","E","E","E","E","E","E","E","E","E","E","E","E","E","E","E","E","E","E","E","E","E","E","E","E","E","E","E","E","E","E","E","E","E","E","?","N","?","W","W","W","W","W","W","W","?","V","V","V","V","V","V","?","?","?","?","?","?","L","L","L","L","L","L","L","?","?","?","?","?","?","?","?","?","C","C","C","?","?","?","?","?","O","O","O","O","O","O","O","O","O","O","O","O","?","?","P","P","P","P","P","P","P","P","P","P","?","?","Y","?","?","?","?","?","?","?","?","?","?","?","?","?","X","X","?","?","?","?","?","?","?","?","?","?","W","V","?","?","?","?","?","?","?","?","?","?","?","T","?","?","?","?","L","L","M","M","?","?","?","?","?","?","?","?","?","?","L","L","L","L","L","L","L","?","?","?","?","?","?","?","?","?","?","?","B","B","B","B","B","B","B","B","B","B","B","B","B","B","B","B","B","B","B","B","B","B","B","B","B","B","B","B","B","B","B","B","B","B","B","B","B","B","B","B","B","?","?","?","L","?","?","?","?","?","?","?","?","?","?","?","?","?","?","?","?","?","?","?","?","?","?","?","O","O","?","?","N","?","?","?","?","?","?","?","?","F","F","F","F","?","O","O","?","W","V","V","V","?","U","U","?","?","?","?","U","?","?","W","W","?","X","X","?","P","?","?","I","I","I","?","?","?","?","?","P","P","?","?","O","O","O","O","?","P","P","P","P","P","?","?","?","?","?","?","?","?","V","M","M","M","?","?","?","?","?","?","?","?","V","?","?","?","?","?","?","?","W","?","?","?","?","X","X","X","?","?","?","?","?","?","?","?","X","?","P","H","?","?","?","?","?","?","?","?","?","R","R","R","R","R","R","R","R","R","R","R","R","R","R","R","R","R","R","R","R","R","R","R","R","R","R","R","R","R","R","R","R","R","R","R","R","R","R","R","Q","Q","?","?","?","?","E","D","D","D","D","D","D","D","D","D","D","D","D","C","C","B","A","A","A","A","A","A","A","A","A","A","A","A","A","A","A","A","A","A","A","A","A","A","A","A","A","A","A","A","A","A","A","A","A","A","A","A","A","A","A","A","A","A","A","A","A","A","A","A","A","A","A","A","J","?","S","?","?","?","?","?","?","?","?","?","?","?","?","?","?","?","?","?","?","?","?","?","?","?","?","?","?","?","?","?","?","?","?","?","?","?","?","?","?","P","?","?","?","?","?","?","?","?","?","?","?","?","?","?","?","?","?","?","?","?","?","?","?","?","?","?","?","?","?","?","?","?","?","?","?","?","?","?","?","?","?","?","?","?","?","?","?","?","?"],"t":[150,1201,1207,1263,1307,1338,1359,1373,1394,1407,1428,1443,1457,1481,1498,1527,1590,1626,1643,1729,1753,1809,1827,1845,1861,1875,1893,1924,1993,1996,2023,2045,2103,2125,2138,2178,2194,2207,2223,2239,2256,2273,2290,2303,2324,2341,2358,2382,2409,2430,2473,2476,2499,2521,2537,2555,2780,2822,2848,2873,2907,2923,2945,2962,2980,3006,3111,3144,3173,3197,3228,3244,3278,3304,3330,3346,3377,3412,3447,3488,3514,3524,3553,3563,3611,3640,3673,3704,3713,3747,3795,3838,3869,3879,3901,3910,3936,3943,3960,3979,4003,4010,4028,4053,4062,4076,4112,4134,4180,4212,4230,4252,4270,4291,4297,4330,4344,4358,4363,4378,4398,4410,4430,4455,4463,4492,4505,4513,4531,4547,4564,4581,4613,4637,4657,4676,4706,4729,4745,4773,4779,4806,4823,4874,4905,4927,4941,4946,4961,4980,4997,5013,5031,5053,5058,5086,5128,5169,5178,5206,5212,5240,5257,5278,5306,5328,5347,5372,5394,5414,5440,5459,5479,5497,5512,5539,5547,5564,5590,5612,5630,5645,5671,5686,5706,5725,5755,5763,5790,5806,5827,5845,5873,5887,5910,5930,5944,5970,5975,5996,6012,6042,6062,6077,6094,6113,6179,6189,6219,6237,6261,6289,6308,6345,6375,6395,6413,6427,6446,6474,6490,6511,6538,6544,6572,6595,6627,6640,6660,6675,6680,6705,6725,6740,6763,6781,6822,6841,6859,6877,6897,6914,6941,6960,6974,6993,7005,7012,7030,7046,7086,7108,7114,7137,7143,7157,7178,7203,7208,7230,7246,7280,7295,7312,7327,7357,7373,7391,7397,7423,7439,7445,7470,7496,7514,7542,7547,7575,7613,7628,7646,7672,7679,7696,7714,7728,7754,7760,7780,7796,7826,7847,7861,7889,7895,7911,7930,7956,7962,7989,7996,8021,8028,8056,8070,8080,8129,8146,8172,8177,8207,8223,8239,8260,8280,8307,8313,8337,8344,8364,8389,8397,8412,8430,8445,8463,8494,8512,8523,8551,8557,8588,8597,8644,8675,8692,8726,8731,8762,8788,8790,8872,8899,8944,8958,8976,8990,8995,9061,9075,9097,9125,9146,9163,9194,9207,9212,9230,9243,9263,9280,9296,9311,9328,9342,9359,9379,9394,9408,9427,9442,9460,9477,9496,9510,9526,9542,9561,9576,9598,9618,9640,9654,9669,9691,9701,9714,9738,9758,9763,9791,9794,9807,9830,9846,9862,9877,9902,9907,9929,9941,9979,9992,10033,10045,10102,10124,10144,10173,10196,10213,10228,10238,10264,10278,10295,10318,10334,10345,10366,10377,10396,10412,10430,10459,10480,10496,10513,10530,10544,10563,10575,10611,10629,10651,10656,10676,10695,10714,10728,10745,10767,10775,10796,10811,10828,10844,10862,10875,10894,10918,10959,10991,11013,11050,11063,11095,11111,11130,11144,11161,11176,11196,11211,11234,11244,11263,11279,11299,11325,11345,11367,11376,11393,11412,11433,11437,11466,11476,11492,11514,11535,11546,11560,11580,11594,11614,11628,11644,11660,11679,11694,11712,11728,11745,11760,11788,11795,11812,11830,11854,11861,11879,11895,11918,11926,11947,11962,11985,11989,12024,12030,12079,12237,12261,12295,12312,12330,12346,12399,12413,12430,12456,12464,12490,12520,12529,12547,12560,12584,12613,12628,12650,12658,12677,12701,12713,12730,12753,12762,12782,12795,12813,12831,12847,12879,12895,12916,12929,12948,12960,12981,12996,13016,13038,13055,13082,13125,13143,13155,13162,13181,13194,13218,13242,13260,13276,13293,13307,13327,13345,13359,13374,13387,13398,13423,13439,13451,13473,13489,13497,13518,13538,13559,13578,13595,13619,13629,13645,13667,13677,13697,13711,13733,13741,13762,13779,13798,13813,13839,13859,13869,13878,13894,13912,13927,13942,13962,13980,14001,14030,14048,14081,14101,14145,14162,14179,14201,14213,14234,14280,14306,14327,14346,14370,14386,14396,14423,14438,14457,14481,14504,14526,14545,14566,14579,14598,14634,14656,14673,14680,14700,14713,14735,14744,14766,14778,14801,14813,14830,14847,14873,14897,14920,14929,14951,14974,14987,15006,15025,15036,15053,15081,15102,15125,15140,15162,15178,15195,15228,15259,15276,15300,15307,15334,15346,15373,15397,15413,15427,15445,15468,15479,15496,15513,15530,15543,15562,15577,15594,15613,15627,15642,15661,15675,15697,15710,15727,15743,15767,15772,15796,15813,15833,15842,15863,15877,15897,15912,15934,15953,15964,15992,16003,16027,16046,16077,16102,16110,16127,16158,16174,16193,16225,16239,16255,16275,16291,16309,16330,16346,16370,16391,16406,16427,16444,16459,16480,16501,16522,16529,16541,16563,16579,16604,16608,16643,16664,16680,16703,16713,16739,16758,16772,16780,16802,16810,16827,16843,16869,16889,16907,16914,16939,16960,16974,16994,17009,17026,17055,17096,17113,17142,17162,17177,17204,17224,17289,17306,17335,17360,17376,17441,17447,17463,17471,17495,17513,17520,17545,17564,17584,17617,17627,17649,17676,17696,17719,17740,17755,17788,17818,17839,17856,17877,17905,17925,17940,17945,17980,18007,18030,18102,18123,18144,18163,18183,18210,18229,18252,18260,18285,18303,18325,18345,18360,18383,18394,18413,18440,18446,18476,18505,18520,18546,18580,18658,18724,18755,18808,18895,18925,18955,18988,18990,19016,19028,19050,19070,19080,19107,19139,19158,19171,19176,19193,19212,19228,19245,19262,19278,19296,19311,19327,19345,19363,19375,19391,19410,19425,19441,19457,19478,19497,19525,19541,19559,19576,19595,19613,19628,19643,19658,19676,19692,19710,19727,19745,19762,19779,19800,19809,19830,19846,19861,19882,19901,19924,19940,19950,19976,19993,20009,20026,20046,20061,20085,20112,20128,20147,20168,20179,20205,20219,20235,20247,20269,20277,20295,20308,20328,20344,20367,20390,20410,20428,20437,20460,20476,20503,20509,20527,20543,20560,20579,20591,20610,20631,20638,20661,20676,20693,20709,20727,20742,20759,20776,20792,20810,20826,20843,20861,20876,20893,20910,20926,20940,20960,20977,20992,21010,21030,21054,21094,21109,21132,21143,21162,21180,21196,21212,21230,21246,21263,21295,21311,21329,21337,21359,21377,21393,21410,21426,21444,21461,21483,21490,21510,21524,21544,21560,21577,21593,21611,21627,21642,21661,21677,21693,21710,21728,21746,21762,21777,21796,21809,21835,21854,21861,21879,21897,21908,21926,21944,21959,21975,21992,22019,22029,22074,22079,22097,22125,22151,22160,22178,22206,22212,22229,22256,22261,22287,22292,22314,22328,22346,22359,22376,22397,22409,22427,22444,22459,22482,22492,22510,22535,22543,22560,22577,22594,22613,22627,22639],"hit":[null],"x":[-1.5952380952380953,-1.5952380952380953,-1.5952380952380953,-1.5952380952380953,-1.5952380952380953,-1.5952380952380953,-1.5952380952380953,-1.5952380952380953,-1.5952380952380953,-1.5952380952380953,-1.5952380952380953,-1.5952380952380953,-1.5952380952380953,-1.5952380952380953,-1.5952380952380953,-1.5952380952380953,-1.5952380952380953,-1.5952380952380953,-1.5952380952380953,-1.5952380952380953,-1.5952380952380953,-1.5952380952380953,-1.5952380952380953,-1.5952380952380953,-1.5952380952380953,-1.5952380952380953,-1.5952380952380953,-1.5952380952380953,-1.5952380952380953,-1.5952380952380953,-1.5952380952380953,-1.5952380952380953,-1.5952380952380953,-1.5952380952380953,-1.5952380952380953,-1.5952380952380953,-1.5952380952380953,-1.5952380952380953,-1.5952380952380953,-1.5952380952380953,-1.5952380952380953,-1.5952380952380953,-1.5952380952380953,-1.5952380952380953,-1.5952380952380953,-1.5952380952380953,-1.5952380952380953,-0.45736959029217156,-0.702267549475845,-0.7396825154622396,-0.7975056447139403,-0.8043083658023756,-0.8043083658023756,-0.8043083658023756,-0.8043083658023756,-0.8043083658023756,-0.8043083658023756,-0.8043083658023756,-0.8043083658023756,-0.8043083658023756,-0.8043083658023756,-0.8043083658023756,-0.8043083658023756,-0.8043083658023756,-0.8043083658023756,-0.8043083658023756,-0.8043083658023756,-0.5219954406323076,-0.4981859168227838,-0.4777777535574777,-0.4777777535574777,-0.4777777535574777,-0.4777777535574777,-0.4777777535574777,-0.4777777535574777,-0.4777777535574777,-0.4777777535574777,-0.4777777535574777,-0.3791382977751648,-0.2056689100200627,-0.06621312770713754,-0.04580496444183142,-0.04580496444183142,-0.04580496444183142,-0.04580496444183142,-0.04580496444183142,-0.04580496444183142,-0.04580496444183142,-0.04580496444183142,-0.04580496444183142,0.03582768861939307,0.14126986549014137,0.19569163419762436,0.21609979746293048,0.21950115800714817,0.22290251855136586,0.22290251855136586,0.22630387909558355,0.22630387909558355,0.22630387909558355,0.22630387909558355,0.2331066001840189,0.2331066001840189,0.2331066001840189,0.2331066001840189,0.2331066001840189,0.2331066001840189,0.2365079607282366,0.2637188450819781,0.3181406137894611,0.33174605596633183,0.33174605596633183,0.3351474165105495,0.3351474165105495,0.3351474165105495,0.3351474165105495,0.3351474165105495,0.3351474165105495,0.3351474165105495,0.3351474165105495,0.3351474165105495,0.3351474165105495,0.3351474165105495,0.3351474165105495,0.32834469542211414,0.2943310899799373,0.2671202056261958,0.25691612399354274,0.25011340290510736,0.24671204236088967,0.24671204236088967,0.24331068181667198,0.2365079607282366,0.22630387909558355,0.21609979746293048,0.20249435528605975,0.19909299474184206,0.19909299474184206,0.2092970763744951,0.2365079607282366,0.26031748453776044,0.27732428725884883,0.2807256478030665,0.297732450524155,0.32834469542211414,0.32834469542211414,0.32834469542211414,0.32834469542211414,0.32834469542211414,0.32834469542211414,0.32834469542211414,0.32834469542211414,0.32834469542211414,0.32834469542211414,0.32834469542211414,0.3351474165105495,0.38276646412959714,0.6276644233132707,0.6854875525649713,0.699092994741842,0.7024943552860597,0.7058957158302774,0.7058957158302774,0.7092970763744951,0.7092970763744951,0.7092970763744951,0.6684807498438828,0.634467144401706,0.6140589811363999,0.5868480967826584,0.5698412940615699,0.5494331307962638,0.52562360698674,0.5018140831772162,0.48820864100034544,0.48820864100034544,0.48820864100034544,0.48820864100034544,0.48820864100034544,0.5018140831772162,0.5222222464425224,0.5562358518846992,0.6106576205921822,0.6174603416806176,0.6412698654901414,0.644671226034359,0.6548753076670121,0.6582766682112298,0.6582766682112298,0.6208617022248353,0.5528344913404815,0.46780047773503936,0.43038551174864476,0.3351474165105495,0.2841270083472842,0.24331068181667198,0.22290251855136586,0.2092970763744951,0.20589571583027744,0.20249435528605975,0.20249435528605975,0.2092970763744951,0.2671202056261958,0.36235830086429105,0.42698415120442706,0.5222222464425224,0.6174603416806176,0.7671202056261958,0.8555555797758556,0.9031746273949033,0.9031746273949033,0.9507936750139508,0.9916100015445631,1.0494331307962639,1.1242630627690529,1.1412698654901414,1.1480725865785768,1.1514739471227944,1.1514739471227944,1.1412698654901414,1.110657620592182,1.0936508178710938,1.046031770252046,1.0052154437214338,0.9678004777350393,0.9405895933812979,0.9235827906602094,0.906575987939121,0.9031746273949033,0.8929705457622502,0.8895691852180325,0.8861678246738148,0.8861678246738148,0.8827664641295971,0.8793651035853794,0.8589569403200733,0.8317460559663319,0.7195011580071482,0.6854875525649713,0.5970521784153114,0.5188208858983047,0.43718823283708014,0.4235827906602094,0.3997732668506856,0.3929705457622502,0.38616782467381483,0.38616782467381483,0.38616782467381483,0.38616782467381483,0.38616782467381483,0.38616782467381483,0.38616782467381483,0.38616782467381483,0.38616782467381483,0.38616782467381483,0.38616782467381483,0.38616782467381483,0.38616782467381483,0.38616782467381483,0.38616782467381483,0.3997732668506856,0.41337870902755636,0.5664399335173522,0.6174603416806176,0.7126984369187128,0.807936532156808,0.8181406137894611,0.8351474165105496,0.841950137598985,0.8453514981432025,0.8487528586874202,0.8487528586874202,0.8521542192316379,0.8521542192316379,0.8521542192316379,0.8521542192316379,0.8521542192316379,0.8521542192316379,0.841950137598985,0.807936532156808,0.8045351716125904,0.8011338110683727,0.7943310899799373,0.7943310899799373,0.7943310899799373,0.7943310899799373,0.797732450524155,0.8283446954221142,0.862358300864291,0.8725623824969441,0.8895691852180325,0.9031746273949033,0.906575987939121,0.9133787090275564,0.9133787090275564,0.9133787090275564,0.9133787090275564,0.9133787090275564,0.8963719063064679,0.862358300864291,0.8521542192316379,0.8215419743336788,0.8011338110683727,0.743310681816672,0.7024943552860597,0.6786848314765359,0.6616780287554475,0.6548753076670121,0.6548753076670121,0.6548753076670121,0.6582766682112298,0.6922902736534067,0.7058957158302774,0.7467120423608896,0.797732450524155,0.8283446954221142,0.8759637430411618,0.8895691852180325,0.9031746273949033,0.906575987939121,0.916780069571774,0.9201814301159917,0.9235827906602094,0.9235827906602094,0.9235827906602094,0.9235827906602094,0.9235827906602094,0.9235827906602094,0.9235827906602094,0.9235827906602094,0.9235827906602094,0.9235827906602094,0.9235827906602094,0.9235827906602094,0.9371882328370802,0.9609977566466039,0.971201838279257,0.9814059199119101,0.9848072804561278,0.9848072804561278,0.9882086410003454,0.9882086410003454,0.9882086410003454,0.9916100015445631,0.9916100015445631,0.9916100015445631,0.9916100015445631,0.9916100015445631,0.9916100015445631,0.9916100015445631,0.9916100015445631,0.9916100015445631,0.9916100015445631,0.9916100015445631,0.9916100015445631,0.9916100015445631,0.9916100015445631,0.9916100015445631,0.9916100015445631,0.9916100015445631,0.9916100015445631,0.9916100015445631,0.9916100015445631,0.9916100015445631,0.9916100015445631,0.9916100015445631,0.9916100015445631,0.9916100015445631,0.9916100015445631,0.9916100015445631,0.9916100015445631,0.9916100015445631,0.9916100015445631,0.9916100015445631,0.9916100015445631,0.9916100015445631,0.9916100015445631,0.9916100015445631,0.9916100015445631,0.9848072804561278,0.9678004777350393,0.9371882328370802,0.8997732668506856,0.8521542192316379,0.8283446954221142,0.7943310899799373,0.7875283688915019,0.7671202056261958,0.7637188450819781,0.7603174845377604,0.7603174845377604,0.7603174845377604,0.7603174845377604,0.7603174845377604,0.7603174845377604,0.7603174845377604,0.7603174845377604,0.7603174845377604,0.7603174845377604,0.7603174845377604,0.7603174845377604,0.7229025185513659,0.688888913109189,0.6650793892996651,0.6072562600479645,0.5494331307962638,0.5120181648098693,0.48140591991191006,0.46439911719082166,0.43718823283708014,0.42698415120442706,0.41678006957177405,0.40997734848333867,0.3963719063064679,0.3895691852180325,0.37936510358537945,0.36575966140850874,0.3487528586874203,0.3453514981432026,0.3351474165105495,0.32834469542211414,0.32154197433367876,0.3181406137894611,0.31133789270102574,0.31133789270102574,0.31133789270102574,0.33174605596633183,0.3691610219527264,0.38616782467381483,0.42698415120442706,0.46439911719082166,0.48480728045612775,0.5188208858983047,0.5596372124289168,0.5766440151500053,0.5868480967826584,0.5902494573268761,0.6038548995037468,0.6174603416806176,0.6208617022248353,0.634467144401706,0.6412698654901414,0.6480725865785767,0.6582766682112298,0.6650793892996651,0.6650793892996651,0.6684807498438828,0.6752834709323182,0.6752834709323182,0.6752834709323182,0.6752834709323182,0.6752834709323182,0.6752834709323182,0.644671226034359,0.6412698654901414,0.634467144401706,0.6276644233132707,0.6276644233132707,0.6276644233132707,0.6276644233132707,0.624263062769053,0.624263062769053,0.624263062769053,0.624263062769053,0.624263062769053,0.6208617022248353,0.6174603416806176,0.6140589811363999,0.6106576205921822,0.6072562600479645,0.6072562600479645,0.6004535389595291,0.6004535389595291,0.6004535389595291,0.5970521784153114,0.5936508178710938,0.5936508178710938,0.5936508178710938,0.5902494573268761,0.5902494573268761,0.5902494573268761,0.5868480967826584,0.5868480967826584,0.5868480967826584,0.5868480967826584,0.5868480967826584,0.5834467362384407,0.5834467362384407,0.5834467362384407,0.5834467362384407,0.5834467362384407,0.5834467362384407,0.5834467362384407,0.5834467362384407,0.5834467362384407,0.5834467362384407,0.5834467362384407,0.5834467362384407,0.5834467362384407,0.5834467362384407,0.5834467362384407,0.5834467362384407,0.5834467362384407,0.5834467362384407,0.5834467362384407,0.5834467362384407,0.5834467362384407,0.5834467362384407,0.5766440151500053,0.5732426546057876,0.5732426546057876,0.5698412940615699,0.5698412940615699,0.5732426546057876,0.5766440151500053,0.5766440151500053,0.5766440151500053,0.5766440151500053,0.5732426546057876,0.5290249675309577,0.4984127226329985,0.4575963961023863,0.42698415120442706,0.41337870902755636,0.40997734848333867,0.3963719063064679,0.37936510358537945,0.36235830086429105,0.352154219231638,0.3453514981432026,0.3351474165105495,0.32494333487789645,0.3181406137894611,0.31473925324524343,0.31133789270102574,0.31133789270102574,0.31133789270102574,0.30453517161259036,0.297732450524155,0.2909297294357196,0.2807256478030665,0.27392292671463114,0.27052156617041345,0.2671202056261958,0.2671202056261958,0.2637188450819781,0.2637188450819781,0.2637188450819781,0.2637188450819781,0.27052156617041345,0.2807256478030665,0.30793653215680805,0.32154197433367876,0.37936510358537945,0.4541950355581686,0.48820864100034544,0.624263062769053,0.6854875525649713,0.7297052396398013,0.7365079607282367,0.7399093212724543,0.7399093212724543,0.743310681816672,0.753514763449325,0.7569161239935427,0.7569161239935427,0.7603174845377604,0.7637188450819781,0.7671202056261958,0.7739229267146311,0.7841270083472842,0.797732450524155,0.807936532156808,0.8147392532452434,0.8249433348778965,0.8317460559663319,0.8385487770547673,0.8453514981432025,0.8487528586874202,0.8521542192316379,0.8521542192316379,0.8521542192316379,0.8521542192316379,0.8521542192316379,0.8453514981432025,0.8351474165105496,0.8249433348778965,0.8215419743336788,0.8181406137894611,0.8113378927010257,0.7875283688915019,0.7603174845377604,0.753514763449325,0.7365079607282367,0.733106600184019,0.7297052396398013,0.7126984369187128,0.7024943552860597,0.7024943552860597,0.7024943552860597,0.7024943552860597,0.7058957158302774,0.7058957158302774,0.7092970763744951,0.7126984369187128,0.7126984369187128,0.7126984369187128,0.7058957158302774,0.6650793892996651,0.5936508178710938,0.43718823283708014,0.38276646412959714,0.24671204236088967,0.16848074984388287,0.12426306276905294,0.11065762059218219,0.09705217841531144,0.09365081787109375,0.080045375694223,0.07664401515000531,0.06303857297313456,0.06303857297313456,0.08684809678265838,0.11746034168061756,0.13446714440170598,0.17528347093231825,0.19229027365340667,0.2671202056261958,0.3351474165105495,0.3997732668506856,0.4473923144697332,0.47800455936769237,0.4984127226329985,0.5052154437214339,0.5052154437214339,0.5052154437214339,0.48140591991191006,0.40997734848333867,0.37936510358537945,0.36235830086429105,0.3351474165105495,0.32834469542211414,0.31473925324524343,0.30453517161259036,0.30113381106837267,0.2943310899799373,0.2943310899799373,0.2841270083472842,0.27052156617041345,0.2637188450819781,0.25691612399354274,0.25351476344932505,0.2365079607282366,0.2365079607282366,0.22290251855136586,0.21609979746293048,0.2092970763744951,0.19569163419762436,0.18888891310918898,0.17188211038810056,0.16507938929966517,0.16167802875544748,0.15487530766701213,0.15487530766701213,0.15147394712279444,0.15147394712279444,0.15147394712279444,0.15147394712279444,0.15147394712279444,0.15147394712279444,0.14807258657857675,0.14807258657857675,0.14807258657857675,0.14807258657857675,0.14807258657857675,0.14807258657857675,0.14807258657857675,0.14807258657857675,0.14807258657857675,0.14807258657857675,0.14807258657857675,0.14807258657857675,0.14807258657857675,0.14807258657857675,0.14807258657857675,0.14807258657857675,0.14807258657857675,0.14807258657857675,0.14807258657857675,0.14807258657857675,0.14807258657857675,0.14807258657857675,0.14807258657857675,0.14807258657857675,0.14807258657857675,0.14807258657857675,0.14807258657857675,0.14807258657857675,0.14807258657857675,0.15147394712279444,0.15487530766701213,0.1820861920207536,0.21950115800714817,0.2875283688915019,0.3419501375989849,0.4507936750139509,0.4950113620887808,0.580045375694223,0.6922902736534067,0.753514763449325,0.807936532156808,0.8453514981432025,0.8555555797758556,0.8589569403200733,0.8657596614085087,0.8657596614085087,0.8657596614085087,0.8657596614085087,0.8657596614085087,0.8657596614085087,0.8657596614085087,0.8657596614085087,0.8657596614085087,0.8657596614085087,0.8555555797758556,0.8317460559663319,0.7637188450819781,0.7160997974629305,0.6718821103881005,0.6514739471227944,0.6038548995037468,0.580045375694223,0.5698412940615699,0.5664399335173522,0.5596372124289168,0.5596372124289168,0.5596372124289168,0.5698412940615699,0.6650793892996651,0.688888913109189,0.7126984369187128,0.7160997974629305,0.7160997974629305,0.7229025185513659,0.7263038790955836,0.7263038790955836,0.6922902736534067,0.6378685049459237,0.5358276886193931,0.4439909539255155,0.41678006957177405,0.37936510358537945,0.3351474165105495,0.30453517161259036,0.2875283688915019,0.27392292671463114,0.27052156617041345,0.27052156617041345,0.27052156617041345,0.30113381106837267,0.46439911719082166,0.5460317702520461,0.6072562600479645,0.6174603416806176,0.644671226034359,0.6684807498438828,0.7126984369187128,0.753514763449325,0.8385487770547673,0.9235827906602094,1.0324263280751753,1.134467144401706,1.1480725865785768,1.1548753076670122,1.1548753076670122,1.1548753076670122,1.1412698654901414,1.0868480967826584,0.9201814301159917,0.8963719063064679,0.8113378927010257,0.7909297294357196,0.7875283688915019,0.7705215661704135,0.7705215661704135,0.7705215661704135,0.7705215661704135,0.7909297294357196,0.8045351716125904,0.8385487770547673,0.8759637430411618,0.9031746273949033,0.906575987939121,0.9371882328370802,0.9371882328370802,0.9269841512044271,0.8521542192316379,0.7467120423608896,0.6004535389595291,0.5120181648098693,0.460997756646604,0.4031746273949033,0.3963719063064679,0.4031746273949033,0.41678006957177405,0.43718823283708014,0.471201838279257,0.48820864100034544,0.48820864100034544,0.4746031988234747,0.471201838279257,0.46780047773503936,0.46780047773503936,0.48140591991191006,0.5052154437214339,0.5222222464425224,0.52562360698674,0.5392290491636108,0.5494331307962638,0.5664399335173522,0.5732426546057876,0.5970521784153114,0.624263062769053,0.6276644233132707,0.644671226034359,0.6650793892996651,0.7160997974629305,0.7399093212724543,0.7671202056261958,0.7807256478030665,0.7909297294357196,0.7943310899799373,0.7807256478030665,0.7195011580071482,0.6854875525649713,0.6684807498438828,0.6650793892996651,0.7126984369187128,0.7841270083472842,0.8861678246738148,1.0188208858983046,1.0766440151500054,1.0936508178710938,1.1038548995037467,1.1174603416806175,1.1208617022248353,1.1208617022248353,1.1208617022248353,1.1208617022248353,1.1208617022248353,1.1208617022248353,1.1208617022248353,1.1208617022248353,1.1208617022248353,1.1208617022248353,1.1208617022248353,1.1208617022248353,1.1208617022248353,1.1208617022248353,1.1208617022248353,1.1208617022248353,1.1208617022248353,1.1208617022248353,1.1208617022248353,1.1208617022248353,1.1208617022248353,1.1208617022248353,1.1208617022248353,1.1208617022248353,1.1208617022248353,1.1208617022248353,1.1208617022248353,1.1208617022248353,1.1208617022248353,1.1208617022248353,1.1208617022248353,1.1208617022248353,1.1208617022248353,1.1208617022248353,1.1208617022248353,1.1208617022248353,1.1208617022248353,1.1208617022248353,1.1208617022248353,1.1208617022248353,1.1208617022248353,1.1208617022248353,1.1208617022248353,1.0970521784153113,1.0324263280751753,0.9916100015445631,0.8929705457622502,0.8487528586874202,0.7637188450819781,0.6310657838574883,0.5188208858983047,0.48140591991191006,0.44058959338129783,0.4235827906602094,0.4235827906602094,0.4235827906602094,0.4235827906602094,0.4235827906602094,0.4235827906602094,0.4235827906602094,0.4235827906602094,0.4235827906602094,0.41678006957177405,0.33174605596633183,0.2365079607282366,0.13106578385748832,0.046031770252046134,0.02562360698674001,-0.001587277367001488,-0.004988637911219175,-0.01179135899965455,-0.015192719543872236,-0.018594080088089923,-0.018594080088089923,-0.018594080088089923,-0.018594080088089923,-0.02199544063230761,-0.02199544063230761,-0.02199544063230761,-0.02199544063230761,-0.02199544063230761,-0.02199544063230761,-0.02199544063230761,-0.02199544063230761,-0.02199544063230761,-0.02199544063230761,-0.02199544063230761,-0.02199544063230761,-0.02199544063230761,-0.02199544063230761,-0.02199544063230761,-0.02199544063230761,-0.02199544063230761,-0.02199544063230761,-0.02199544063230761,-0.02199544063230761,-0.02199544063230761,-0.02199544063230761,-0.02199544063230761,-0.02199544063230761,-0.02199544063230761,-0.02199544063230761,-0.02199544063230761,-0.02199544063230761,-0.02199544063230761,-0.02199544063230761,-0.02199544063230761,-0.02199544063230761,-0.02199544063230761,-0.02199544063230761,-0.02199544063230761,-0.02199544063230761,-0.02199544063230761,-0.02199544063230761,-0.02199544063230761,-0.02199544063230761,-0.02199544063230761,-0.02199544063230761,-0.02199544063230761,-0.02199544063230761,0.008616804265651572,0.015419525354086947,0.03582768861939307,0.046031770252046134,0.06303857297313456,0.08684809678265838,0.11065762059218219,0.12426306276905294,0.14467122603435906,0.17528347093231825,0.19569163419762436,0.20589571583027744,0.22970523963980125,0.2399093212724543,0.2399093212724543,0.2399093212724543,0.2399093212724543,0.2399093212724543,0.2399093212724543,0.2399093212724543,0.2399093212724543,0.2399093212724543,0.2399093212724543,0.2399093212724543,0.2399093212724543,0.2399093212724543,0.2399093212724543,0.2399093212724543,0.2399093212724543,0.2399093212724543,0.2399093212724543,0.2399093212724543,0.2399093212724543,0.2399093212724543,0.2399093212724543,0.2399093212724543,0.27392292671463114,0.32834469542211414,0.6004535389595291,0.8827664641295971,0.9814059199119101,1.0732426546057876,1.1480725865785768,1.188888913109189,1.2024943552860596,1.209297076374495,1.209297076374495,1.209297076374495,1.209297076374495,1.209297076374495,1.209297076374495,1.209297076374495,1.209297076374495,1.209297076374495,1.209297076374495,1.209297076374495,1.209297076374495,1.209297076374495,1.209297076374495,1.209297076374495,1.209297076374495,1.209297076374495,1.209297076374495,1.209297076374495,1.209297076374495,1.209297076374495,1.209297076374495,1.209297076374495,1.209297076374495,1.209297076374495,1.209297076374495,1.209297076374495,1.209297076374495,1.209297076374495,1.209297076374495,1.209297076374495,1.209297076374495,1.209297076374495,1.209297076374495,1.209297076374495,1.209297076374495,1.209297076374495,1.209297076374495,1.209297076374495,1.209297076374495,1.209297076374495,1.209297076374495,1.209297076374495,1.209297076374495],"y":[-2.841269841269841,-2.841269841269841,-2.841269841269841,-2.841269841269841,-2.841269841269841,-2.841269841269841,-2.841269841269841,-2.841269841269841,-2.841269841269841,-2.841269841269841,-2.841269841269841,-2.841269841269841,-2.841269841269841,-2.841269841269841,-2.841269841269841,-2.841269841269841,-2.841269841269841,-2.841269841269841,-2.841269841269841,-2.841269841269841,-2.841269841269841,-2.841269841269841,-2.841269841269841,-2.841269841269841,-2.841269841269841,-2.841269841269841,-2.841269841269841,-2.841269841269841,-2.841269841269841,-2.841269841269841,-2.841269841269841,-2.841269841269841,-2.841269841269841,-2.841269841269841,-2.841269841269841,-2.841269841269841,-2.841269841269841,-2.841269841269841,-2.841269841269841,-2.841269841269841,-2.841269841269841,-2.841269841269841,-2.841269841269841,-2.841269841269841,-2.841269841269841,-2.841269841269841,-2.841269841269841,2.2793651278056797,2.1841270325675843,2.155555603996156,2.117460365900918,2.117460365900918,2.117460365900918,2.117460365900918,2.117460365900918,2.117460365900918,2.117460365900918,2.117460365900918,2.117460365900918,2.117460365900918,2.117460365900918,2.117460365900918,2.117460365900918,2.117460365900918,2.117460365900918,2.117460365900918,2.117460365900918,1.6984127468532988,1.6698413182818703,1.6507936992342511,1.6507936992342511,1.6507936992342511,1.6507936992342511,1.6507936992342511,1.6507936992342511,1.6507936992342511,1.6507936992342511,1.6507936992342511,1.6222222706628227,1.5365079849485368,1.5174603659009178,1.5079365563771083,1.5079365563771083,1.5079365563771083,1.5079365563771083,1.5079365563771083,1.5079365563771083,1.5079365563771083,1.5079365563771083,1.5079365563771083,1.4984127468532988,1.4698413182818701,1.4603175087580607,1.4603175087580607,1.4603175087580607,1.4603175087580607,1.4603175087580607,1.4603175087580607,1.4603175087580607,1.4603175087580607,1.4603175087580607,1.4603175087580607,1.4603175087580607,1.4603175087580607,1.4603175087580607,1.4603175087580607,1.4603175087580607,1.4507936992342512,1.4031746516152035,1.3365079849485368,1.3365079849485368,1.3269841754247274,1.3269841754247274,1.3269841754247274,1.3269841754247274,1.3269841754247274,1.3269841754247274,1.3269841754247274,1.3269841754247274,1.3269841754247274,1.3269841754247274,1.3269841754247274,1.3269841754247274,1.3269841754247274,1.3269841754247274,1.3079365563771084,1.2793651278056797,1.2793651278056797,1.2603175087580607,1.2507936992342512,1.2507936992342512,1.2412698897104417,1.2317460801866322,1.2222222706628225,1.2031746516152035,1.1555556039961559,1.1269841754247274,1.0412698897104415,0.7079365563771083,0.393650842091394,0.1841270325675845,0.07936512780567974,0.0222222706628226,-0.15873011028955836,-0.39682534838479644,-0.39682534838479644,-0.39682534838479644,-0.39682534838479644,-0.39682534838479644,-0.39682534838479644,-0.39682534838479644,-0.39682534838479644,-0.39682534838479644,-0.39682534838479644,-0.39682534838479644,-0.39682534838479644,-0.3492063007657488,-0.05396820552765359,0.03174608018663212,0.04126988971044165,0.05079369923425117,0.05079369923425117,0.060317508758060696,0.060317508758060696,0.06984131828187022,0.1365079849485369,0.2222222706628226,0.27936512780567974,0.3079365563771083,0.3460317944723464,0.393650842091394,0.45079369923425117,0.6317460801866321,0.9079365563771084,1.1555556039961559,1.2603175087580607,1.3079365563771084,1.3174603659009179,1.3269841754247274,1.3269841754247274,1.3269841754247274,1.2984127468532989,1.212698461139013,1.2031746516152035,1.174603223043775,1.1650794135199654,1.1650794135199654,1.1650794135199654,1.1555556039961559,1.1460317944723464,1.1269841754247274,1.1269841754247274,1.1269841754247274,1.1269841754247274,1.1269841754247274,1.1079365563771084,1.1079365563771084,1.0984127468532987,1.0984127468532987,1.0793651278056797,1.0507936992342513,0.9555556039961559,0.755555603996156,0.4698413182818702,0.3079365563771083,0.07936512780567974,-0.12063487219432026,-0.35873011028955837,-0.3777777293371774,-0.36825391981336786,-0.36825391981336786,-0.26349201505146314,-0.10158725314670121,0.17460322304377499,0.4126984611390131,0.4412698897104417,0.4603175087580607,0.47936512780567975,0.47936512780567975,0.4888889373294893,0.4888889373294893,0.4888889373294893,0.4888889373294893,0.4888889373294893,0.4698413182818702,0.45079369923425117,0.4412698897104417,0.43174608018663213,0.43174608018663213,0.4222222706628226,0.4222222706628226,0.4222222706628226,0.4222222706628226,0.4222222706628226,0.4222222706628226,0.4222222706628226,0.43174608018663213,0.4984127468532988,0.5365079849485369,0.6031746516152036,0.6412698897104416,0.6412698897104416,0.6412698897104416,0.6222222706628227,0.612698461139013,0.6031746516152036,0.6031746516152036,0.6031746516152036,0.6031746516152036,0.6031746516152036,0.6031746516152036,0.6031746516152036,0.6031746516152036,0.6031746516152036,0.6031746516152036,0.6031746516152036,0.6031746516152036,0.6031746516152036,0.6031746516152036,0.6031746516152036,0.6031746516152036,0.6031746516152036,0.5555556039961559,0.5365079849485369,0.5365079849485369,0.5365079849485369,0.5365079849485369,0.5365079849485369,0.5365079849485369,0.5365079849485369,0.5365079849485369,0.5365079849485369,0.5365079849485369,0.5365079849485369,0.574603223043775,0.6222222706628227,0.6888889373294893,0.7079365563771083,0.8222222706628226,1.2888889373294892,1.3650794135199655,1.4412698897104417,1.4888889373294893,1.4984127468532988,1.4984127468532988,1.4984127468532988,1.4888889373294893,1.355555603996156,1.193650842091394,1.1555556039961559,1.0603175087580607,0.993650842091394,0.9365079849485369,0.8888889373294893,0.8888889373294893,0.8793651278056798,0.8793651278056798,0.8698413182818702,0.8698413182818702,0.8698413182818702,0.8698413182818702,0.9174603659009178,0.9460317944723464,1.0031746516152036,1.0698413182818702,1.0888889373294892,1.1365079849485369,1.1555556039961559,1.1555556039961559,1.1555556039961559,1.1555556039961559,1.0984127468532987,1.0793651278056797,1.0412698897104415,0.974603223043775,0.9555556039961559,0.9555556039961559,0.9555556039961559,0.9555556039961559,0.9555556039961559,0.9555556039961559,0.9555556039961559,0.9555556039961559,0.9555556039961559,0.9555556039961559,0.9555556039961559,0.9555556039961559,0.9555556039961559,0.9555556039961559,0.9555556039961559,0.9555556039961559,0.9555556039961559,0.9555556039961559,0.9555556039961559,0.9555556039961559,0.9555556039961559,0.974603223043775,0.993650842091394,0.993650842091394,0.993650842091394,0.993650842091394,1.0031746516152036,1.0031746516152036,1.0031746516152036,1.0031746516152036,1.0031746516152036,1.0031746516152036,1.0031746516152036,1.0031746516152036,1.0031746516152036,1.0031746516152036,1.0031746516152036,1.0031746516152036,1.0031746516152036,1.0031746516152036,1.0031746516152036,1.0031746516152036,1.0031746516152036,1.0031746516152036,1.0031746516152036,1.0031746516152036,1.0031746516152036,1.0031746516152036,1.0031746516152036,1.0031746516152036,1.0031746516152036,1.0031746516152036,1.0031746516152036,1.0031746516152036,1.0031746516152036,1.0031746516152036,1.0031746516152036,1.0031746516152036,1.0031746516152036,1.0031746516152036,1.0031746516152036,1.0031746516152036,1.0031746516152036,1.0031746516152036,1.0031746516152036,1.0031746516152036,1.0031746516152036,0.9841270325675845,0.9460317944723464,0.9269841754247273,0.8888889373294893,0.8698413182818702,0.8603175087580607,0.8507936992342512,0.8412698897104417,0.8412698897104417,0.8412698897104417,0.8412698897104417,0.8412698897104417,0.8412698897104417,0.8412698897104417,0.8412698897104417,0.8412698897104417,0.8412698897104417,0.8412698897104417,0.8412698897104417,0.793650842091394,0.7365079849485369,0.6888889373294893,0.5460317944723464,0.37460322304377497,0.2888889373294893,0.23174608018663212,0.20317465161520357,0.17460322304377499,0.15555560399615592,0.15555560399615592,0.15555560399615592,0.1460317944723464,0.1460317944723464,0.12698417542472737,0.11746036590091784,0.11746036590091784,0.11746036590091784,0.11746036590091784,0.11746036590091784,0.11746036590091784,0.11746036590091784,0.11746036590091784,0.11746036590091784,0.11746036590091784,0.10793655637710832,0.10793655637710832,0.10793655637710832,0.10793655637710832,0.10793655637710832,0.12698417542472737,0.15555560399615592,0.17460322304377499,0.1841270325675845,0.1841270325675845,0.19365084209139402,0.19365084209139402,0.21269846113901308,0.21269846113901308,0.2222222706628226,0.2222222706628226,0.2222222706628226,0.2222222706628226,0.23174608018663212,0.23174608018663212,0.23174608018663212,0.23174608018663212,0.23174608018663212,0.23174608018663212,0.23174608018663212,0.23174608018663212,0.23174608018663212,0.19365084209139402,0.1841270325675845,0.17460322304377499,0.15555560399615592,0.15555560399615592,0.15555560399615592,0.15555560399615592,0.15555560399615592,0.15555560399615592,0.15555560399615592,0.15555560399615592,0.15555560399615592,0.15555560399615592,0.1460317944723464,0.12698417542472737,0.11746036590091784,0.10793655637710832,0.08888893732948927,0.08888893732948927,0.07936512780567974,0.07936512780567974,0.06984131828187022,0.060317508758060696,0.05079369923425117,0.04126988971044165,0.04126988971044165,0.04126988971044165,0.03174608018663212,0.03174608018663212,0.03174608018663212,0.03174608018663212,0.03174608018663212,0.0222222706628226,0.0222222706628226,0.0222222706628226,0.0222222706628226,0.0222222706628226,0.0222222706628226,0.0222222706628226,0.0222222706628226,0.0222222706628226,0.0222222706628226,0.0222222706628226,0.0222222706628226,0.0222222706628226,0.0222222706628226,0.0222222706628226,0.0222222706628226,0.0222222706628226,0.0222222706628226,0.0222222706628226,0.0222222706628226,0.0222222706628226,0.0222222706628226,0.0222222706628226,0.06984131828187022,0.1460317944723464,0.25079369923425116,0.5079365563771083,0.6984127468532988,0.9079365563771084,1.031746080186632,1.031746080186632,1.031746080186632,1.031746080186632,1.031746080186632,1.031746080186632,1.0222222706628226,0.993650842091394,0.9555556039961559,0.9365079849485369,0.9365079849485369,0.9269841754247273,0.9079365563771084,0.8984127468532987,0.8888889373294893,0.8603175087580607,0.8317460801866321,0.7841270325675845,0.6888889373294893,0.6317460801866321,0.5841270325675845,0.5365079849485369,0.5174603659009178,0.4603175087580607,0.4126984611390131,0.3650794135199655,0.2888889373294893,0.26984131828187025,0.23174608018663212,0.19365084209139402,0.19365084209139402,0.17460322304377499,0.17460322304377499,0.17460322304377499,0.16507941351996547,0.15555560399615592,0.15555560399615592,0.1460317944723464,0.1460317944723464,0.15555560399615592,0.20317465161520357,0.2603175087580607,0.40317465161520355,0.47936512780567975,0.5365079849485369,0.5365079849485369,0.5365079849485369,0.5365079849485369,0.5365079849485369,0.5365079849485369,0.5365079849485369,0.5365079849485369,0.5365079849485369,0.5365079849485369,0.5365079849485369,0.5365079849485369,0.5079365563771083,0.4984127468532988,0.4888889373294893,0.4888889373294893,0.4888889373294893,0.4984127468532988,0.5365079849485369,0.5555556039961559,0.574603223043775,0.5936508420913941,0.6031746516152036,0.6698413182818702,0.755555603996156,1.0698413182818702,1.193650842091394,1.2603175087580607,1.3079365563771084,1.3174603659009179,1.3365079849485368,1.3460317944723463,1.3841270325675845,1.393650842091394,1.4031746516152035,1.4031746516152035,1.4031746516152035,1.4031746516152035,1.355555603996156,1.0412698897104415,0.9460317944723464,0.7841270325675845,0.7174603659009179,0.6984127468532988,0.6888889373294893,0.6888889373294893,0.6793651278056797,0.6793651278056797,0.6793651278056797,0.6888889373294893,0.793650842091394,0.9174603659009178,1.1555556039961559,1.2317460801866322,1.412698461139013,1.4698413182818701,1.4888889373294893,1.4888889373294893,1.4888889373294893,1.4888889373294893,1.4888889373294893,1.4888889373294893,1.4603175087580607,1.2222222706628225,1.031746080186632,0.8317460801866321,0.7746032230437749,0.6507936992342511,0.6222222706628227,0.5555556039961559,0.5460317944723464,0.5460317944723464,0.5841270325675845,0.6603175087580607,0.7269841754247274,0.7746032230437749,0.8126984611390131,0.8222222706628226,0.8317460801866321,0.8222222706628226,0.7650794135199654,0.6984127468532988,0.6031746516152036,0.5555556039961559,0.47936512780567975,0.43174608018663213,0.4126984611390131,0.393650842091394,0.3841270325675845,0.3460317944723464,0.3079365563771083,0.2888889373294893,0.25079369923425116,0.23174608018663212,0.19365084209139402,0.1841270325675845,0.16507941351996547,0.15555560399615592,0.15555560399615592,0.1365079849485369,0.12698417542472737,0.09841274685329879,0.08888893732948927,0.07936512780567974,0.07936512780567974,0.07936512780567974,0.06984131828187022,0.06984131828187022,0.06984131828187022,0.06984131828187022,0.06984131828187022,0.06984131828187022,0.06984131828187022,0.06984131828187022,0.06984131828187022,0.06984131828187022,0.06984131828187022,0.06984131828187022,0.06984131828187022,0.06984131828187022,0.06984131828187022,0.06984131828187022,0.06984131828187022,0.06984131828187022,0.06984131828187022,0.06984131828187022,0.06984131828187022,0.06984131828187022,0.06984131828187022,0.06984131828187022,0.06984131828187022,0.06984131828187022,0.06984131828187022,0.06984131828187022,0.06984131828187022,0.06984131828187022,0.06984131828187022,0.06984131828187022,0.06984131828187022,0.06984131828187022,0.06984131828187022,0.12698417542472737,0.17460322304377499,0.27936512780567974,0.3841270325675845,0.5555556039961559,0.6317460801866321,0.7460317944723465,0.7841270325675845,0.8222222706628226,0.8317460801866321,0.8126984611390131,0.755555603996156,0.7269841754247274,0.7174603659009179,0.7174603659009179,0.7174603659009179,0.7174603659009179,0.7174603659009179,0.7174603659009179,0.7174603659009179,0.7174603659009179,0.7174603659009179,0.7174603659009179,0.7174603659009179,0.7174603659009179,0.7079365563771083,0.6888889373294893,0.6031746516152036,0.5460317944723464,0.4412698897104417,0.4222222706628226,0.35555560399615593,0.3365079849485369,0.32698417542472735,0.32698417542472735,0.32698417542472735,0.31746036590091786,0.2888889373294893,0.26984131828187025,0.16507941351996547,0.15555560399615592,0.15555560399615592,0.15555560399615592,0.15555560399615592,0.15555560399615592,0.19365084209139402,0.35555560399615593,0.5555556039961559,0.7174603659009179,0.9079365563771084,0.993650842091394,1.031746080186632,1.0603175087580607,1.0984127468532987,1.1365079849485369,1.1555556039961559,1.1650794135199654,1.1650794135199654,1.1650794135199654,1.1650794135199654,1.0603175087580607,0.8031746516152035,0.8031746516152035,0.8698413182818702,0.9079365563771084,0.9365079849485369,0.9365079849485369,0.8698413182818702,0.755555603996156,0.5365079849485369,0.32698417542472735,0.1460317944723464,0.08888893732948927,0.09841274685329879,0.12698417542472737,0.1841270325675845,0.19365084209139402,0.2888889373294893,0.40317465161520355,0.4984127468532988,0.4984127468532988,0.4984127468532988,0.4984127468532988,0.4984127468532988,0.4984127468532988,0.4984127468532988,0.4888889373294893,0.47936512780567975,0.45079369923425117,0.43174608018663213,0.4126984611390131,0.4126984611390131,0.4126984611390131,0.4222222706628226,0.6888889373294893,0.9555556039961559,1.0507936992342513,1.3365079849485368,1.4412698897104417,1.4888889373294893,1.4222222706628227,1.3079365563771084,0.9650794135199655,0.5555556039961559,0.45079369923425117,0.35555560399615593,0.29841274685329877,0.3460317944723464,0.7079365563771083,0.8698413182818702,1.2888889373294892,1.355555603996156,1.3650794135199655,1.3650794135199655,1.0603175087580607,0.8984127468532987,0.7746032230437749,0.7365079849485369,0.7174603659009179,0.7174603659009179,0.7746032230437749,0.8317460801866321,0.9650794135199655,1.1365079849485369,1.1650794135199654,1.193650842091394,1.193650842091394,1.1079365563771084,1.0507936992342513,0.9555556039961559,0.9365079849485369,0.8984127468532987,0.8888889373294893,0.8031746516152035,0.7841270325675845,0.7841270325675845,0.8126984611390131,0.8317460801866321,0.8698413182818702,0.7079365563771083,0.3841270325675845,0.15555560399615592,0.15555560399615592,0.15555560399615592,0.15555560399615592,0.16507941351996547,0.17460322304377499,0.19365084209139402,0.2222222706628226,0.29841274685329877,0.31746036590091786,0.3650794135199655,0.393650842091394,0.40317465161520355,0.4126984611390131,0.4126984611390131,0.4126984611390131,0.4126984611390131,0.4126984611390131,0.4222222706628226,0.4222222706628226,0.4412698897104417,0.4698413182818702,0.4698413182818702,0.47936512780567975,0.47936512780567975,0.4888889373294893,0.4888889373294893,0.4888889373294893,0.4888889373294893,0.4888889373294893,0.4888889373294893,0.4888889373294893,0.4888889373294893,0.4888889373294893,0.4888889373294893,0.4888889373294893,0.4888889373294893,0.4888889373294893,0.4888889373294893,0.4888889373294893,0.4888889373294893,0.4888889373294893,0.4888889373294893,0.4888889373294893,0.4888889373294893,0.4888889373294893,0.4888889373294893,0.4888889373294893,0.4888889373294893,0.4412698897104417,0.4222222706628226,0.35555560399615593,0.29841274685329877,0.19365084209139402,0.03174608018663212,-0.05396820552765359,-0.07301582457527264,-0.11111106267051073,-0.13015868171812978,-0.1396824912419393,-0.1396824912419393,-0.1396824912419393,-0.1396824912419393,-0.1396824912419393,-0.1396824912419393,-0.1396824912419393,-0.1396824912419393,-0.1396824912419393,-0.09206344362289169,-0.03492058648003454,0.0031746516152035536,0.0031746516152035536,0.0031746516152035536,0.0031746516152035536,0.0031746516152035536,0.0031746516152035536,0.0031746516152035536,0.0031746516152035536,0.0031746516152035536,0.0031746516152035536,0.0031746516152035536,0.0031746516152035536,0.0031746516152035536,0.0031746516152035536,-0.00634915790860597,-0.00634915790860597,-0.00634915790860597,-0.00634915790860597,-0.00634915790860597,-0.00634915790860597,-0.00634915790860597,-0.00634915790860597,-0.00634915790860597,-0.00634915790860597,-0.00634915790860597,-0.00634915790860597,-0.00634915790860597,-0.00634915790860597,-0.00634915790860597,-0.00634915790860597,-0.00634915790860597,-0.00634915790860597,-0.00634915790860597,-0.00634915790860597,-0.00634915790860597,-0.00634915790860597,-0.00634915790860597,-0.00634915790860597,-0.00634915790860597,-0.00634915790860597,-0.00634915790860597,-0.00634915790860597,-0.00634915790860597,-0.00634915790860597,-0.00634915790860597,-0.00634915790860597,-0.00634915790860597,-0.00634915790860597,-0.00634915790860597,-0.00634915790860597,-0.00634915790860597,0.0222222706628226,0.09841274685329879,0.4126984611390131,0.8222222706628226,1.1269841754247274,1.1841270325675846,1.2793651278056797,1.3174603659009179,1.3841270325675845,1.4507936992342512,1.4888889373294893,1.4984127468532988,1.5079365563771083,1.5269841754247273,1.5269841754247273,1.5269841754247273,1.5269841754247273,1.5079365563771083,1.5079365563771083,1.5079365563771083,1.5079365563771083,1.5079365563771083,1.5079365563771083,1.5079365563771083,1.5079365563771083,1.5079365563771083,1.5079365563771083,1.5079365563771083,1.5079365563771083,1.5079365563771083,1.5079365563771083,1.5079365563771083,1.5079365563771083,1.5079365563771083,1.5079365563771083,1.5079365563771083,1.5079365563771083,1.5079365563771083,1.5079365563771083,1.5079365563771083,1.4507936992342512,1.3365079849485368,0.8317460801866321,0.3841270325675845,0.29841274685329877,0.20317465161520357,0.19365084209139402,0.19365084209139402,0.19365084209139402,0.19365084209139402,0.19365084209139402,0.19365084209139402,0.19365084209139402,0.19365084209139402,0.19365084209139402,0.19365084209139402,0.19365084209139402,0.19365084209139402,0.19365084209139402,0.19365084209139402,0.19365084209139402,0.19365084209139402,0.19365084209139402,0.19365084209139402,0.19365084209139402,0.19365084209139402,0.19365084209139402,0.19365084209139402,0.19365084209139402,0.19365084209139402,0.19365084209139402,0.19365084209139402,0.19365084209139402,0.19365084209139402,0.19365084209139402,0.19365084209139402,0.19365084209139402,0.19365084209139402,0.19365084209139402,0.19365084209139402,0.19365084209139402,0.19365084209139402,0.19365084209139402,0.19365084209139402,0.19365084209139402,0.19365084209139402,0.19365084209139402,0.19365084209139402,0.19365084209139402,0.19365084209139402,0.19365084209139402,0.19365084209139402,0.19365084209139402]},"final_keyboard_state":["Z","E","B","R","A"],"num_clicks":5,"points":15,"cheat":false,"trial_type":"Hangman","trial_index":5,"time_elapsed":66295,"internal_node_id":"0.0-4.0","protocol_sum":"","subject_identifier":310,"subject_sum":[33,14,59,22,12,53,88,24,80,148,37,185,217,233,253,62,162,226,135,242,196,58,19,229,190,136,23,20,13,176,185,230],"subject_pair":155,"STUDY_ID":"66a0b3911f23dfc7665bb169","PROLIFIC_PID":"6687e7ab774852dc74bdca19","SESSION_ID":"66a11af7e345d5f135598791","practice_instructions":1,"leaderboard_instructions":1,"bonus":0,"reveal_word":false,"self_rating":"3","confidence":"63"},{"view_history":"[{\"page_index\":0,\"viewing_time\":1532},{\"page_index\":1,\"viewing_time\":1671}]","rt":3203,"trial_type":"instructions","trial_index":6,"time_elapsed":69499,"internal_node_id":"0.0-5.0","protocol_sum":"","subject_identifier":310,"subject_sum":[33,14,59,22,12,53,88,24,80,148,37,185,217,233,253,62,162,226,135,242,196,58,19,229,190,136,23,20,13,176,185,230],"subject_pair":155,"STUDY_ID":"66a0b3911f23dfc7665bb169","PROLIFIC_PID":"6687e7ab774852dc74bdca19","SESSION_ID":"66a11af7e345d5f135598791","practice_instructions":1,"leaderboard_instructions":1,"bonus":0,"reveal_word":false,"self_rating":"3","confidence":"63"},{"rt":5126,"responses":"{\"Q0\":\"...from <b>a previous session</b> that is not part of the upcoming tournament.\"}","question_order":"[0]","trial_type":"survey-multi-choice","trial_index":7,"time_elapsed":74628,"internal_node_id":"0.0-6.0","protocol_sum":"","subject_identifier":310,"subject_sum":[33,14,59,22,12,53,88,24,80,148,37,185,217,233,253,62,162,226,135,242,196,58,19,229,190,136,23,20,13,176,185,230],"subject_pair":155,"correct":true,"test_part":"multichoice_leaderboard","STUDY_ID":"66a0b3911f23dfc7665bb169","PROLIFIC_PID":"6687e7ab774852dc74bdca19","SESSION_ID":"66a11af7e345d5f135598791","practice_instructions":1,"leaderboard_instructions":1,"bonus":0,"reveal_word":false,"self_rating":"3","confidence":"63"},{"view_history":"[{\"page_index\":0,\"viewing_time\":1276}]","rt":1276,"trial_type":"instructions","trial_index":8,"time_elapsed":75907,"internal_node_id":"0.0-8.0","protocol_sum":"","subject_identifier":310,"subject_sum":[33,14,59,22,12,53,88,24,80,148,37,185,217,233,253,62,162,226,135,242,196,58,19,229,190,136,23,20,13,176,185,230],"subject_pair":155,"STUDY_ID":"66a0b3911f23dfc7665bb169","PROLIFIC_PID":"6687e7ab774852dc74bdca19","SESSION_ID":"66a11af7e345d5f135598791","practice_instructions":1,"leaderboard_instructions":1,"bonus":0,"reveal_word":false,"self_rating":"3","confidence":"63"},{"rt":6180,"responses":"{\"Q0\":\"...how well players did (in terms of <b>points</b>) in <b>previous games.</b>\"}","question_order":"[0]","trial_type":"survey-multi-choice","trial_index":9,"time_elapsed":82091,"internal_node_id":"0.0-9.0","protocol_sum":"","subject_identifier":310,"subject_sum":[33,14,59,22,12,53,88,24,80,148,37,185,217,233,253,62,162,226,135,242,196,58,19,229,190,136,23,20,13,176,185,230],"subject_pair":155,"correct":false,"test_part":"multichoice_tournament","STUDY_ID":"66a0b3911f23dfc7665bb169","PROLIFIC_PID":"6687e7ab774852dc74bdca19","SESSION_ID":"66a11af7e345d5f135598791","practice_instructions":1,"leaderboard_instructions":1,"bonus":0,"reveal_word":false,"self_rating":"3","confidence":"63"},{"view_history":"[{\"page_index\":0,\"viewing_time\":2120}]","rt":2122,"trial_type":"instructions","trial_index":10,"time_elapsed":84216,"internal_node_id":"0.0-10.0-0.0","protocol_sum":"","subject_identifier":310,"subject_sum":[33,14,59,22,12,53,88,24,80,148,37,185,217,233,253,62,162,226,135,242,196,58,19,229,190,136,23,20,13,176,185,230],"subject_pair":155,"STUDY_ID":"66a0b3911f23dfc7665bb169","PROLIFIC_PID":"6687e7ab774852dc74bdca19","SESSION_ID":"66a11af7e345d5f135598791","practice_instructions":1,"leaderboard_instructions":1,"bonus":0,"reveal_word":false,"self_rating":"3","confidence":"63"},{"rt":3016,"responses":"{\"Q0\":\"...players' leaderboard position (in terms of <b>points</b>) in an <b>upcoming tournament.</b>\"}","question_order":"[0]","trial_type":"survey-multi-choice","trial_index":11,"time_elapsed":87237,"internal_node_id":"0.0-10.0-1.0","protocol_sum":"","subject_identifier":310,"subject_sum":[33,14,59,22,12,53,88,24,80,148,37,185,217,233,253,62,162,226,135,242,196,58,19,229,190,136,23,20,13,176,185,230],"subject_pair":155,"correct":true,"test_part":"multichoice_tournament","STUDY_ID":"66a0b3911f23dfc7665bb169","PROLIFIC_PID":"6687e7ab774852dc74bdca19","SESSION_ID":"66a11af7e345d5f135598791","practice_instructions":1,"leaderboard_instructions":1,"bonus":0,"reveal_word":false,"self_rating":"3","confidence":"63"},{"view_history":"[{\"page_index\":0,\"viewing_time\":24270}]","rt":24272,"trial_type":"instructions","trial_index":12,"time_elapsed":111513,"internal_node_id":"0.0-11.0","protocol_sum":"","subject_identifier":310,"subject_sum":[33,14,59,22,12,53,88,24,80,148,37,185,217,233,253,62,162,226,135,242,196,58,19,229,190,136,23,20,13,176,185,230],"subject_pair":155,"STUDY_ID":"66a0b3911f23dfc7665bb169","PROLIFIC_PID":"6687e7ab774852dc74bdca19","SESSION_ID":"66a11af7e345d5f135598791","practice_instructions":1,"leaderboard_instructions":1,"bonus":0,"reveal_word":false,"self_rating":"3","confidence":"63"},{"view_history":"[{\"page_index\":0,\"viewing_time\":1172}]","rt":1175,"trial_type":"instructions","trial_index":13,"time_elapsed":112691,"internal_node_id":"0.0-12.0-0.0","protocol_sum":"","subject_identifier":310,"subject_sum":[33,14,59,22,12,53,88,24,80,148,37,185,217,233,253,62,162,226,135,242,196,58,19,229,190,136,23,20,13,176,185,230],"subject_pair":155,"STUDY_ID":"66a0b3911f23dfc7665bb169","PROLIFIC_PID":"6687e7ab774852dc74bdca19","SESSION_ID":"66a11af7e345d5f135598791","practice_instructions":1,"leaderboard_instructions":1,"bonus":0,"reveal_word":false,"self_rating":"3","confidence":"63"},{"word":"HAWAII","click_log":{"letter":["","R","O","E","A","M","N","K","S","T","Y","H","W","I"],"t":[0,5562,7383,9333,11083,17920,18953,27144,33454,37052,39423,41304,43640,45374],"hit":[null,0,0,0,2,0,0,0,0,0,0,1,1,2],"asked":["","R","RO","ROE","ROEA","ROEAM","ROEAMN","ROEAMNK","ROEAMNKS","ROEAMNKST","ROEAMNKSTY","ROEAMNKSTYH","ROEAMNKSTYHW","ROEAMNKSTYHWI"],"word_state":["______","______","______","______","_A_A__","_A_A__","_A_A__","_A_A__","_A_A__","_A_A__","_A_A__","HA_A__","HAWA__","HAWAII"]},"hover_log":{"letter":["?","?","?","?","?","?","?","?","?","?","?","?","?","?","?","?","?","?","?","?","?","?","?","?","?","?","?","?","?","?","?","?","?","?","?","?","?","?","?","?","?","?","?","?","?","?","?","?","?","?","?","?","?","?","?","?","?","?","?","?","?","?","?","?","?","?","?","?","?","?","?","?","?","?","?","?","?","?","?","?","?","?","?","?","?","?","?","?","?","?","?","?","?","?","?","?","?","?","?","?","?","?","?","?","?","?","?","?","?","?","?","?","?","J","?","?","?","?","?","?","?","?","?","?","?","?","?","?","?","?","?","?","?","?","?","?","?","?","?","?","K","?","?","?","?","?","?","?","?","?","?","?","?","?","?","?","?","?","?","?","?","?","?","?","?","?","?","L","?","?","?","?","?","?","?","?","?","?","?","?","?","?","?","?","?","?","?","?","?","?","?","?","?","L","?","?","?","?","?","?","?","?","?","?","?","?","?","?","?","?","?","?","?","?","?","?","?","?","?","L","?","?","?","?","?","?","?","?","?","?","?","?","?","?","?","?","?","?","?","?","?","?","?","?","?","L","?","?","?","?","?","?","?","?","?","?","?","?","?","?","?","?","?","?","?","?","?","?","?","?","?","L","?","?","?","?","?","?","?","?","?","?","?","?","?","?","?","?","?","?","?","?","?","?","?","?","?","L","?","?","?","?","?","?","?","?","?","?","?","?","?","?","?","?","?","?","?","?","?","?","?","?","?","L","?","?","?","?","?","?","?","?","?","?","?","?","?","?","?","?","?","?","?","?","?","?","?","?","?","L","?","?","?","?","?","?","?","?","?","?","?","?","?","?","?","?","?","?","?","?","?","?","?","?","?","?","?","?","?","?","?","?","?","?","?","?","?","?","?","?","?","?","?","?","?","?","?","?","?","?","?","?","?","?","?","?","?","?","?","?","?","?","?","?","?","?","?","?","?","?","?","?","?","?","?","?","?","?","?","?","?","?","?","?","?","?","?","?","?","?","?","?","?","?","?","?","?","?","?","?","?","?","?","?","?","?","?","?","?","?","?","?","?","?","?","?","?","?","?","?","?","?","?","?","?","?","?","?","?","?","?","?","?","?","?","?","?","?","?","?","?","?","?","?","?","?","?","?","?","?","?","?","?","?","?","?","?","?","?","?","?","?","?","?","?","?","?","?","?","?","?","?","?","?","?","?","?","?","?","?","?","?","?","?","?","?","?","?","?","?","?","?","?","?","?","?","?","?","?","?","?","?","?","?","?","?","?","?","?","?","?","?","?","?","?","?","?","?","?","?","?","?","?","?","?","?","?","?","?","?","?","?","?","?","?","?","?","?","?","?","?","?","?","?","?","?","?","?","?","?","?","?","?","?","?","?","?","?","?","?","?","?","?","?","?","?","?","?","?","?","?","?","?","?","?","?","?","?","?","?","?","?","?","?","?","?","?","?","?","?","?","?","?","?","?","?","?","?","?","?","?","?","?","?","?","?","?","?","?","?","?","?","?","?","?","?","?","?","?","?","?","?","?","?","?","?","?","?","?","?","?","?","?","?","?","?","?","?","?","?","?","?","?","?","?","?","?","?","?","?","?","?","?","?","?","?","?","?","?","?","?","?","?","?","?","?","?","?","?","?","?","?","?","?","?","?","?","?","?","?","?","?","?","?","?","?","?","?","?","?","?","?","?","?","?","?","?","?","?","?","?","?","?","?","?","?","?","?","?","?","?","?","?","?","?","?","?","?","?","?","?","?","?","?","?","?","?","?","?","?","?","?","?","?","?","?","?","?","?","?","?","?","?","?","?","?","?","?","?","?","?","?","?","?","?","?","?","?","?","?","?","?","?","?","?","?","?","?","?","?","?","?","?","?","?","?","?","?","?","?","?","?","?","?","?","?","?","?","?","?","?","?","?","?","?","?","?","?","?","?","?","?","?","?","?","?","?","?","?","?","?","?","?","?","?","?","?","?","?","?","?","?","?","?","?","?","?","?","?","?","?","?","?","?","?","?","?","?","?","?","?","?","?","?","?","?","?","?","?","?","?","?","?","?","?","?","?","?","?","?","?","?","?","?","?","F","?","?","?","?","?","?","?","?","?","?","?","?","?","?","?","?","?","?","?","?","?","?","?","?","?","?","?","?","?","?","?","?","?","?","?","?","?","?","?","?","?","?","?","?","?","?","?","?","?","?","?","?","?","?","?","?","?","?","?","?","?","?","?","?","?","?","?","?","?","?","?","?","?","?","?","?","?","?","?","?","?","?","?","?","?","?","?","?","?","?","?","?","?","?","?","?","?","?","?","?","?","?","?","?","?","?","?","?","?","?","?","?","?","?","?","?","?","?","?","?","?","?","?","?","?","?","?","?","?","?","?","?","?","?","?","?","?","?","?","?","?","?","?","?","?","?","?","?","?","?","?","?","?","?","?","?","?","?","?","?","?","?","?","?","?","?","?","?","?","?","?","?","?","?","?","?","?","?","?","?","?","?","?","?","?","?","?","?","?","?","?","?","?","?","?","?","?","?","?","?","?","?","?","?","?","?","?","?","?","?","?","?","?","?","?","?","?","?","?","?","?","?","?","?","?","?","?","?","?","?","?","?","?","?","?","?","?","?","?","?","?","?","?","?","?","?","?","?","?","?","?","?","?","?","?","?","?","?","?","?","?","?","?","?","?","?","?","?","?","?","?","?","?","?","?","?","?","?","?","?","?","?","?","?","?","?","?","?","?","?","?","?","?","?","?","?","?","?","?","?","?","?","?","?","?","?","?","?","?","?","?","?","?","?","?","?","?","?","?","?","?","?","?","?","?","?","?","?","?","?","?","?","?","?","?","?","?","?","?","?","?","?","?","?","?","?","?","?","?","?","?","?","?","?","?","?","?","?","?","?","?","?","?","?","?","?","?","?","?","?","?","?","?","?","?","?","?","?","?","?","?","?","?","?","?","?","?","?","?","?","?","?","?","?","?","?","?","?","?","?","?","?","?","?","?","?","?","?","?","?","?","?","?","?","?","?","?","?","?","?","?","?","?","?","?","?","?","?","?","?","?","?","?","?","?","?","?","?","?","?","?","?","?","?","?","?","?","?","?","?","?","?","?","?","?","?","?","?","?","?","?","?","?","?","?","?","?","?","?","?","?","?","?","?","?","?","?","?","?","?","?","?","?","?","?","?","?","?","?","?","?","?","?","?","?","?","?","?","?","?","?","?","?","?","?","?","?","?","?","?","?","?","?","?","?","?","?","?","?","?","?","?","?","?","?","?","?","?","?","?","?","?","?","?","?","?","?","?","?","?","?","?","?","?","?","?","?","?","?","?","?","?","?","?","?","?","?","?","?","?","?","?","?","?","?","?","?","?","?","?","?","?","?","?","?","?","?","?","?","?","?","?","?","?","?","?","?","?","?","?","?","?","?","?","?","?","?","?","?","?","?","?","?","?","?","?","?","?","?","?","?","?","?","?","?","?","?","?","?","?","?","?","?","?","?","?","?","?","?","?","?","?","?","?","?","?","?","?","?","?","?","?","?","?","?","?","?","?","?","?","?","?","?","?","?","?","?","?","?","?","?","?","?","?","?","?","?","?","?","?","?","?","?","?","?","?","?","?","?","?","?","?","?","?","?","?","?","?","?","?","?","?","?","?","?","?","?","?","?","?","?","?","?","?","?","?","?","?","?","?","?","?","?","?","?","?","?","?","?","?","?","?","?","?","?","?","?","?","?","?","?","?","?","?","?","?","?","?","?","?","?","?","?","?","?","?","?","?","?","?","?","?","?","?","?","?","?","?","?","?","?","?","?","?","?","?","?","?","?","?","?","?","?","?","?","?","?","?","?","?","?","?","?","?","?","?","?","?","?","?","?","?","?","?","?","?","?","?","?","?","?","?","?","?","?","?","?","?","?","?","?","?","?","?","?","?","?","?","?","?","?","?","?","?","?","?","?","?","?","?","?","?","?","?","?","?","?","?","?","?","?","?","?","?","?","?","?","?","?","?","?","?","?","?","?","?","?","?","?","?","?","?","?","?","?","?","?","?","?","?","?","?","?","?","?","?","?","?","?","?","?","?","?","?","?","?","?","?","?","?","?","?","?","?","?","?","?","?","?","?","?","?","?","?","?","?","?","?","?","?","?","?","?","?","?","?","?","?","?","?","?","?","?","?","?","?","?","?","?","?","?","?","?","?","?","?","?","?","?","?","?","?","?","?","?","?","?","?","?","?","?","?","?","?","?","?","?","?","?","?","?","?","?","?","?","?","?","?","?","?","?","?","?","?","?","?","?","?","?","?","?","?","?","?","?","?","?","?","?","?","?","?","?","?","?","?","?","?","?","?","?","?","?","?","?","?","?","?","?","?","?","?","?","?","?","?","?","?","?","?","?","?","?","?","?","?","?","?","?","?","?","?","?","?","?","?","?","?","?","?","?","?","?","?","?","?","?","?","?","?","?","?","?","?","?","?","?","?","?","?","?","?","?","?","?","?","?","?","?","?","?","?","?","?","?","?","?","?","?","?","?","?","?","?","?","?","?","?","?","?","?","?","?","?","?","?","?","?","?","?","?","?","?","?","?","?","?","?","?","?","?","?","?","?","?","?","?","?","?","?","?","?","?","?","?","?","?","?","?","?","?","?","?","?","?","?","?","?","?","?","?","?","?","?","?","?","?","?","?","?","?","?","?","?","?","?","?","?","?","?","?","?","?","?","?","?","?","?","?","?","?","?","?","?","?","?","?","?","?","?","?","?","?","?","?","?","?","?","?","?","?","?","?","?","?","?","?","?","?","?","?","?","?","?","?","?","?","?","?","?","?","?","?","?","?","?","?","?","?","?","?","?","?","?","?","?","?","?","?","?","?","?","?","?","?","?","?","?","?","?","?","?","?","?","?","?","?","?","?","?","?","?","?","?","?","?","?","?","?","?","?","?","?","?","?","?","?","?","?","?","?","?","?","?","?","?","?","?","?","?","?","?","?","?","?","?","?","?","?","?","?","?","?","?","?","?","?","?","?","?","?","?","?","?","?","?","?","?","?","?","?","?","?","?","?","?","?","?","?","?","?","?","?","?","?","?","?","?","?","?","?","?","?","?","?","?","?","?","?","?","?","?","?","?","?","?","?","?","?","?","?","?","?","?","?","?","?","?","?","?","?","?","?","?","?","?","?","?","?","?","?","?","?","?","?","?","?","?","?","?","?","?","?","?","?","?","?","?","?","?","?","?","?","?","?","?","?","?","?","?","?","?","?","?","?","?","?","?","?","?","?","?","?","?","?","?","?","?","?","?","?","?","?","?","?","?","?","?","?","?","?","?","?","?","?","?","?","?","?","?","?","?","?","?","?","?","?","?","?","?","?","?","?","?","?","?","?","?","?","?","?","?","?","?","?","?","?","?","?","?","?","?","?","?","?","?","?","?","?","?","?","?","?","?","?","?","?","?","?","?","?","?","?","?","?","?","?","?","?","?","?","?","?","?","?","?","?","?","?","?","?","?","?","?","?","?","?","?","?","?","?","?","?","?","?","?","?","?","?","?","?","?","?","?","?","?","?","?","?","?","?","?","?","?","?","?","?","?","?","?","?","?","?","?","?","?","?","?","?","?","?","?","?","?","?","?","?","?","?","?","?","?","?","?","?","?","?","?","?","?","?","?","?","?","?","?","?","?","?","?","?","?","?","?","?","?","?","?","?","?","?","?","?","?","?","?","?","?","?","?","?","?","?","?","?","?","?","?","?","?","?","?","?","?","?","?","?","?","?","?","?","?","?","?","?","?","?","?","?","?","?","?","?","?","?","?","?","?","?","?","?","?","?","?","?","?","?","?","?","?","?","?","?","?","?","?","?","?","?","?","?","?","?","?","?","?","?","?","?","?","?","?","?","?","?","?","?","?","?","?","?","?","?","?","?","?","?","?","?","?","?","?","?","?","?","?","?","?","?","?","?","?","?","?","?","?","?","?","?","?","?","?","?","?","?","?","?","?","?","?","?","?","?","?","?","?","?","?","?","?","?","?","?","?","?","?","?","?","?","?","?","?","?","?","?","?","?","?","?","?","?","?","?","?","?","?","?","?","?","?","?","?","?","?","?","?","?","?","?","?","?","?","?","?","?","?","?","?","?","?","?","?","?","?","?","?","?","?","?","?","?","?","?","?","?","?","?","?","?","?","?","?","?","?","?","?","?","?","?","?","?","?","?","?","?","?","?","?","?","?","?","?","?","?","?","?","?","?","?","?","?","?","?","?","?","?","?","?","?","?","?","?","?","?","?","?","?","?","?","?","?","?","?","?","?","?","?","?","?","?","?","?","?","?","?","?","?","?","?","?","?","?","?","?","?","?","?","?","?","?","?","?","?","?","?","?","?","?","?","?","?","?","?","?","?","?","?","?","?","?","?","?","?","?","?","?","?","?","?","?","?","?","?","?","?","?","?","?","?","?","?","?","?","?","?","?","?","?","?","?","?","?","?","?","?","?","?","?","?","?","?","?","?","?","?","?","?","?","?","?","?","?","?","?","?","?","?","?","?","?","?","?","?","?","?","?","?","?","?","?","?","?","?","?","?","?","?","?","?","?","?","?","?","?","?","?","?","?","?","?","?","?","?","?","?","?","?","?","?","?","?","?","?","?","?","?","?","?","?","?","?","?","?","?","?","?","?","?","?","?","?","?","?","?","?","?","?","?","?","?","?","?","?","?","?","?","?","?","?","?","?","?","?","?","?","?","?","?","?","?","?","?","?","?","?","?","?","?","?","?","?","?","?","?","?","?","?","?","?","?","?","?","?","?","?","?","?","?","?","?","?","?","?","?","?","?","?","?","?","?","?","?","?","?","?","?","?","?","?","?","?","?","?","?","?","?","?","?","?","?","?","?","?","?","?","?","?","?","?","?","?","?","?","?","?","?","?","?","?","?","?","?","?","?","?","?","?","?","?","?","?","?","?","?","?","?","?","?","?","?","?","?","?","?","?","?","?","?","?","?","?","?","?","?","?","?","?","?","?","?","?","?","?","?","?","?","?","?","?","?","?","?","?","?","?","?","?","?","?","?","?","?","?","?","?","?","?","?","?","?","?","?","?","?","?","?","?","?","?","?","?","?","?","?","?","?","?","?","?","?","?","?","?","?","?","?","?","?","?","?","?","?","?","?","?","?","?","?","?","?","?","?","?","?","?","?","?","?","?","?","?","?","?","?","?","?","?","?","?","?","?","?","?","?","?","?","?","?","?","?","?","?","?","?","?","?","?","?","?","?","?","?","?","?","?","?","?","?","?","?","?","?","?","?","?","?","?","?","?","?","?","?","?","?","?","?","?","?","?","?","?","?","?","?","?","?","?","?","?","?","?","?","?","?","?","?","?","?","?","?","?","?","?","?","?","?","?","?","?","?","?","?","?","?","?","?","?","?","?","?","?","?","?","?","?","?","?","?","?","?","?","?","?","?","?","?","?","?","?","?","?","?","?","?","?","?","?","?","?","?","?","?","?","?","?","?","?","?","?","?","?","?","?","?","?","?","?","?","?","?","?","?","?","?","?","?","?","?","?","?","?","?","?","?","?","?","?","?","?","?","?","?","?","?","?","?","?","?","?","?","?","?","?","?","?","?","?","?","?","?","?","?","?","?","?","?","?","?","?","?","?","?","?","?","?","?","?","?","?","?","?","?","?","?","?","?","?","?","?","?","?","?","?","?","?","?","?","?","?","?","?","?","?","?","?","?","?","?","?","?","?","?","?","?","?","?","?","?","?","?","?","?","?","?","?","?","?","?","?","?","?","?","?","?","?","?","?","?","?","?","?","?","?","?","?","?","?","?","?","?","?","?","?","?","?","?","?","?","?","?","?","?","?","?","?","?","?","?","?","?","?","?","?","?","?","?","?","?","?","?","?","?","?","?","?","?","?","?","?","?","?","?","?","?","?","?","?","?","?","?","?","?","?","?","?","?","?","?","?","?","?","?","?","?","?","?","?","?","?","?","?","?","?","?","?","?","?","?","?","?","?","?","?","?","?","?","?","?","?","?","?","?","?","?","?","?","?","?","?","?","?","?","?","?","?","?","?","?","?","?","?","?","?","?","?","?","?","?","?","?","?","?","?","?","?","?","?","?","?","?","?","?","?","?","?","?","?","?","?","?","?","?","?","?","?","?","?","?","?","?","?","?","?","?","?","?","?","?","?","?","?","?","?","?","?","?","?","?","?","?","?","?","?","?","?","?","?","?","?","?","?","?","?","?","?","?","?","?","?","?","?","?","?","?","?","?","?","?","?","?","?","?","?","?","?","?","?","?","?","?","?","?","?","?","?","?","?","?","?","?","?","?","?","?","?","?","?","?","?","?","?","?","?","?","?","?","?","?","?","?","?","?","?","?","?","?","?","?","?","?","?","?","?","?","?","?","?","?","?","?","?","?","?","?","?","?","?","?","?","?","?","?","?","?","?","?","?","?","?","?","?","?","?","?","?","?","?","?","?","?","?","?","?","?","?","?","?","?","?","?","?","?","?","?","?","?","?","?","?","?","?","?","?","?","?","?","?","?","?","?","?","?","?","?","?","?","?","?","?","?","?","?","?","?","?","?","?","?","?","?","?","?","?","?","?","?","?","?","?","?","?","?","?","?","?","?","?","?","?","?","?","?","?","?","?","?","?","?","?","?","?","?","?","?","?","?","?","?","?","?","?","?","?","?","?","?","?","?","?","?","?","?","?","?","?","?","?","?","?","?","?","?","?","?","?","?","?","?","?","?","?","?","?","?","?","?","?","?","?","?","?","?","?","?","?","?","?","?","?","?","?","?","?","?","?","?","?","?","?","?","?","?","?","?","?","?","?","?","?","?","?","?","?","?","?","?","?","?","?","?","?","?","?","?","?","?","?","?","?","?","?","?","?","?","?","?","?","?","?","?","?","?","?","?","?","?","?","?","?","?","?","?","?","?","?","?","?","?","?","?","?","?","?","?","?","?","?","?","?","?","?","?","?","?","?","?","?","?","?","?","?","?","?","?","?","?","?","?","?","?","?","?","?","?","?","?","?","?","?","?","?","?","?","?","?","?","?","?","?","?","?","?","?","?","?","?","?","?","?","?","?","?","?","?","?","?","?","?","?","?","?","?","?","?","?","?","?","?","?","?","?","?","?","?","?","?","?","?","?","?","?","?","?","?","?","?","?","?","?","?","?","?","?","?","?","?","?","?","?","?","?","?","?","?","?","?","?","?","?","?","?","?","?","?","?","?","?","?","?","?","?","?","?","?","?","?","?","?","?","?","?","?","?","?","?","?","?","?","?","?","?","?","?","?","?","?","?","?","?","?","?","?","?","?","?","?","?","?","?","?","?","?","?","?","?","?","?","?","?","?","?","?","?","?","?","?","?","?","?","?","?","?","?","?","?","?","?","?","?","?","?","?","?","?","?","?","?","?","?","?","?","?","?","?","?","?","?","?","?","?","?","?","?","?","?","?","?","?","?","?","?","?","?","?","?","?","?","?","?","?","?","?","?","?","?","?","?","?","?","?","?","?","?","?","?","?","?","?","?","?","?","?","?","?","?","?","?","?","?","?","?","?","?","?","?","?","?","?","?","?","?","?","?","?","?","?","?","?","?","?","?","?","?","?","?","?","?","?","?","?","?","?","?","?","?","?","?","?","?","?","?","?","?","?","?","?","?","?","?","?","?","?","?","?","?","?","?","?","?","?","?","?","?","?","?","?","?","?","?","?","?","?","?","?","?","?","?","?","?","?","?","?","?","?","?","?","?","?","?","?","?","?","?","?","?","?","?","?","?","?","?","?","?","?","?","?","?","?","?","?","?","?","?","?","?","?","?","?","?","?","?","?","?","?","?","?","?","?","?","?","?","?","?","?","?","?","?","?","?","?","?","?","?","?","?","?","?","?","?","?","?","?","?","?","?","?","?","?","?","?","?","?","?","?","?","?","?","?","?","?","?","?","?","?","?","?","?","?","?","?","?","?","?","?","?","?","?","?","?","?","?","?","?","?","?","?","?","?","?","?","?","?","?","?","?","?","?","?","?","?","?","?","?","?","?","?","?","?","?","?","?","?","?","?","?","?","?","?","?","?","?","?","?","?","?","?","?","?","?","?","?","?","?","?","?","?","?","?","?","?","?","?","?","?","?","?","?","?","?","?","?","?","?","?","?","?","?","?","?","?","?","?","?","?","?","?","?","?","?","?","?","?","?","?","?","?","?","?","?","?","?","?","?","?","?","?","?","?","?","?","?","?","?","?","?","?","?","?","?","?","?","?","?","?","?","?","?","?","?","?","?","?","?","?","?","?","?","?","?","?","?","?","?","?","?","?","?","?","?","?","?","?","?","?","?","?","?","?","?","?","?","?","?","?","?","?","?","?","?","?","?","?","?","?","?","?","?","?","?","?","?","?","?","?","?","?","?","?","?","?","?","?","?","?","?","?","?","?","?","?","?","?","?","?","?","?","?","?","?","?","?","?","?","?","?","?","?","?","?","?","?","?","?","?","?","?","?","?","?","?","?","?","?","?","?","?","?","?","?","?","?","?","?","?","?","?","?","?","?","?","?","?","?","?","?","?","?","?","?","?","?","?","?","?","?","?","?","?","?","?","?","?","?","?","?","?","?","?","?","?","?","?","?","?","?","?","?","?","?","?","?","?","?","?","?","?","?","?","?","?","?","?","?","?","?","?","?","?","?","?","?","?","?","?","?","?","?","?","?","?","?","?","?","?","?","?","?","?","?","?","?","?","?","?","?","?","?","?","?","?","?","?","?","?","?","?","?","?","?","?","?","?","?","?","?","?","?","?","?","?","?","?","?","?","?","?","?","?","?","?","?","?","?","?","?","?","?","?","?","?","?","?","?","?","?","?","?","?","?","?","?","?","?","?","?","?","?","?","?","?","?","?","?","?","?","?","?","?","?","?","?","?","?","?","?","?","?","?","?","?","?","?","?","?","?","?","?","?","?","?","?","?","?","?","?","?","?","?","?","?","?","?","?","?","?","?","?","?","?","?","?","?","?","?","?","?","?","?","?","?","?","?","?","?","?","?","?","?","?","?","?","?","?","?","?","?","?","?","?","?","?","?","?","?","?","?","?","?","?","?","?","?","?","?","?","?","?","?","?","?","?","?","?","?","?","?","?","?","?","?","?","?","?","?","?","?","?","?","?","?","?","?","?","?","?","?","?","?","?","?","?","?","?","?","?","?","?","?","?","?","?","?","?","?","?","?","?","?","?","?","?","?","?","?","?","?","?","?","?","?","?","?","?","?","?","?","?","?","?","?","?","?","?","?","?","?","?","?","?","?","?","?","?","?","?","?","?","?","?","?","?","?","?","?","?","?","?","?","?","?","?","?","?","?","?","?","?","?","?","?","?","?","?","?","?","?","?","?","?","?","?","?","?","?","?","?","?","?","?","?","?","?","?","?","?","?","?","?","?","?","?","?","?","?","?","?","?","?","?","?","?","?","?","?","?","?","?","?","?","?","?","?","?","?","?","?","?","?","?","?","?","?","?","?","?","?","?","?","?","?","?","?","?","?","?","?","?","?","?","?","?","?","?","?","?","?","?","?","?","?","?","?","?","?","?","?","?","?","?","?","?","?","?","?","?","?","?","?","?","?","?","?","?","?","?","?","?","?","?","?","?","?","?","?","?","?","?","?","?","?","?","?","?","?","?","?","?","?","?","?","?","?","?","?","?","?","?","?","?","?","?","?","?","?","?","?","?","?","?","?","?","?","?","?","?","?","?","?","?","?","?","?","?","?","?","?","?","?","?","?","?","?","?","?","?","?","?","?","?","?","?","?","?","?","?","?","?","?","?","?","?","?","?","?","?","?","?","?","?","?","?","?","?","?","?","?","?","?","?","?","?","?","?","?","?","?","?","?","?","?","?","?","?","?","?","?","?","?","?","?","?","?","?","?","?","?","?","?","?","?","?","?","?","?","?","?","?","?","?","?","?","?","?","?","?","?","?","?","?","?","?","?","?","?","?","?","?","?","?","?","?","?","?","?","?","?","?","?","?","?","?","?","?","?","?","?","?","?","?","?","?","?","?","?","?","?","?","?","?","?","?","?","?","?","?","?","?","?","?","?","?","?","?","?","?","?","?","?","?","?","?","?","?","?","?","?","?","?","?","?","?","?","?","?","?","?","?","?","?","?","?","?","?","?","?","?","?","?","?","?","?","?","?","?","?","?","?","?","?","?","?","?","?","?","?","?","?","?","?","?","?","?","?","?","?","?","?","?","?","?","?","?","?","?","?","?","?","?","?","?","?","?","?","?","?","?","?","?","?","?","?","?","?","?","?","?","?","?","?","?","?","?","?","?","?","?","?","?","?","?","?","?","?","?","?","?","?","?","?","?","?","?","?","?","?","?","?","?","?","?","?","?","?","?","?","?","?","?","?","?","?","?","?","?","?","?","?","?","?","?","?","?","?","?","?","?","?","?","?","?","?","?","?","?","?","?","?","?","?","?","?","?","?","?","?","?","?","?","?","?","?","?","?","?","?","?","?","?","?","?","?","?","?","?","?","?","?","?","?","?","?","?","?","?","?","?","?","?","?","?","?","?","?","?","?","?","?","?","?","?","?","?","?","?","?","?","?","?","?","?","?","?","?","?","?","?","?","?","?","?","?","?","?","?","?","?","?","?","?","?","?","?","?","?","?","?","?","?","?","?","?","?","?","?","?","?","?","?","?","?","?","?","?","?","?","?","?","?","?","?","?","?","?","?","?","?","?","?","?","?","?","?","?","?","?","?","?","?","?","?","?","?","?","?","?","?","?","?","?","?","?","?","?","?","?","?","?","?","?","?","?","?","?","?","?","?","?","?","?","?","?","?","?","?","?","?","?","?","?","?","?","?","?","?","?","?","?","?","?","?","?","?","?","?","?","?","?","?","?","?","?","?","?","?","?","?","?","?","?","?","?","?","?","?","?","?","?","?","?","?","?","?","?","?","?","?","?","?","?","?","?","?","?","?","?","?","?","?","?","?","?","?","?","?","?","?","?","?","?","?","?","?","?","?","?","?","?","?","?","?","?","?","?","?","?","?","?","?","?","?","?","?","?","?","?","?","?","?","?","?","?","?","?","?","?","?","?","?","?","?","?","?","?","?","?","?","?","?","?","?","?","?","?","?","?","?","?","?","?","?","?","?","?","?","?","?","?","?","?","?","?","?","?","?","?","?","?","?","?","?","?","?","?","?","?","?","?","?","?","?","?","?","?","?","?","?","?","?","?","?","?","?","?","?","?","?","?","?","?","?","?","?","?","?","?","?","?","?","?","?","?","?","?","?","?","?","?","?","?","?","?","?","?","?","?","?","?","?","?","?","?","?","?","?","?","?","?","?","?","?","?","?","?","?","?","?","?","?","?","?","?","?","?","?","?","?","?","?","?","?","?","?","?","?","?","?","?","?","?","?","?","?","?","?","?","?","?","?","?","?","?","?","?","?","?","?","?","?","?","?","?","?","?","?","?","?","?","?","?","?","?","?","?","?","?","?","?","?","?","?","?","?","?","?","?","?","?","?","?","?","?","?","?","?","?","?","?","?","?","?","?","?","?","?","?","?","?","?","?","?","?","?","?","?","?","?","?","?","?","?","?","?","?","?","?","?","?","?","?","?","?","?","?","?","?","?","?","?","?","?","?","?","?","?","?","?","?","?","?","?","?","?","?","?","?","?","?","?","?","?","?","?","?","?","?","?","?","?","?","?","?","?","?","?","?","?","?","?","?","?","?","?","?","?","?","?","?","?","?","?","?","?","?","?","?","?","?","?","?","?","?","?","?","?","?","?","?","?","?","?","?","?","?","?","?","?","?","?","?","?","?","?","?","?","?","?","?","?","?","?","?","?","?","?","?","?","?","?","?","?","?","?","?","?","?","?","?","?","?","?","?","?","?","?","?","?","?","?","?","?","?","?","?","?","?","?","?","?","?","?","?","?","?","?","?","?","?","?","?","?","?","?","?","?","?","?","?","?","?","?","?","?","?","?","?","?","?","?","?","?","?","?","?","?","?","?","?","?","?","?","?","?","?","?","?","?","?","?","?","?","?","?","?","?","?","?","?","?","?","?","?","?","?","?","?","?","?","?","?","?","?","?","?","?","?","?","?","?","?","?","?","?","?","?","?","?","?","?","?","?","?","?","?","?","?","?","?","?","?","?","?","?","?","?","?","?","?","?","?","?","?","?","?","?","?","?","?","?","?","?","?","?","?","?","?","?","?","?","?","?","?","?","?","?","?","?","?","?","?","?","?","?","?","?","?","?","?","?","?","?","?","?","?","?","?","?","?","?","?","?","?","?","?","?","?","?","?","?","?","?","?","?","?","?","?","?","?","?","?","?","?","?","?","?","?","?","?","?","?","?","?","?","?","?","?","?","?","?","?","?","?","?","?","?","?","?","?","?","?","?","?","?","?","?","?","?","?","?","?","?","?","?","?","?","?","?","?","?","?","?","?","?","?","?","?","?","?","?","?","?","?","?","?","?","?","?","?","?","?","?","?","?","?","?","?","?","?","?","?","?","?","?","?","?","?","?","?","?","?","?","?","?","?","?","?","?","?","?","?","?","?","?","?","?","?","?","?","?","?","?","?","?","?","?","?","?","?","?","?","?","?","?","?","?","?","?","?","?","?","?","?","?","?","?","?","?","?","?","?","?","?","?","?","?","?","?","?","?","?","?","?","?","?","?","?","?","?","?","?","?","?","?","?","?","?","?","?","?","?","?","?","?","?","?","?","?","?","?","?","?","?","?","?","?","?","?","?","?","?","?","?","?","?","?","?","?","?","?","?","?","?","?","?","?","?","?","?","?","?","?","?","?","?","?","?","?","?","?","?","?","?","?","?","?","?","?","?","?","?","?","?","?","?","?","?","?","?","?","?","?","?","?","?","?","?","?","?","?","?","?","?","?","?","?","?","?","?","?","?","?","?","?","?","?","?","?","?","?","?","?","?","?","?","?","?","?","?","?","?","?","?","?","?","?","?","?","?","?","?","?","?","?","?","?","?","?","?","?","?","?","?","?","?","?","?","?","?","?","?","?","?","?","?","?","?","?","?","?","?","?","?","?","?","?","?","?","?","?","?","?","?","?","?","?","?","?","?","?","?","?","?","?","?","?","?","?","?","?","?","?","?","?","?","?","?","?","?","?","?","?","?","?","?","?","?","?","?","?","?","?","?","?","?","?","?","?","?","?","?","?","?","?","?","?","?","?","?","?","?","?","?","?","?","?","?","?","?","?","?","?","?","?","?","?","?","?","?","?","?","?","?","?","?","?","?","?","?","?","?","?","?","?","?","?","?","?","?","?","?","?","?","?","?","?","?","?","?","?","?","?","?","?","?","?","?","?","?","?","?","?","?","?","?","?","?","?","?","?","?","?","?","?","?","?","?","?","?","?","?","?","?","?","?","?","?","?","?","?","?","?","?","?","?","?","?","?","?","?","?","?","?","?","?","?","?","?","?","?","?","?","?","?","?","?","?","?","?","?","?","?","?","?","?","?","?","?","?","?","?","?","?","?","?","?","?","?","?","?","?","?","?","?","?","?","?","?","?","?","?","?","?","?","?","?","?","?","?","?","?","?","?","?","?","?","?","?","?","?","?","?","?","?","?","?","?","?","?","?","?","?","?","?","?","?","?","?","?","?","?","?","?","?","?","?","?","?","?","?","?","?","?","?","?","?","?","?","?","?","?","?","?","?","?","?","?","?","?","?","?","?","?","?","?","?","?","?","?","?","?","?","?","?","?","?","?","?","?","?","?","?","?","?","?","?","?","?","?","?","?","?","?","?","?","?","?","?","?","?","?","?","?","?","?","?","?","?","?","?","?","?","?","?","?","?","?","?","?","?","?","?","?","?","?","?","?","?","?","?","?","?","?","?","?","?","?","?","?","?","?","?","?","?","?","?","?","?","?","?","?","?","?","?","?","?","?","?","?","?","?","?","?","?","?","?","?","?","?","?","?","?","?","?","?","?","?","?","?","?","?","?","?","?","?","?","?","?","?","?","?","?","?","?","?","?","?","?","?","?","?","?","?","?","?","?","?","?","?","?","?","?","?","?","?","?","?","?","?","?","?","?","?","?","?","?","?","?","?","?","?","?","?","?","?","?","?","?","?","?","?","?","?","?","?","?","?","?","?","?","?","?","?","?","?","?","?","?","?","?","?","?","?","?","?","?","?","?","?","?","?","?","?","?","?","?","?","?","?","?","?","?","?","?","?","?","?","?","?","?","?","?","?","?","?","?","?","?","?","?","?","?","?","?","?","?","?","?","?","?","?","?","?","?","?","?","?","?","?","?","?","?","?","?","?","?","?","?","?","?","?","?","?","?","?","?","?","?","?","?","?","?","?","?","?","?","?","?","?","?","?","?","?","?","?","?","?","?","?","?","?","?","?","?","?","?","?","?","?","?","?","?","?","?","?","?","?","?","?","?","?","?","?","?","?","?","?","?","?","?","?","?","?","?","?","?","?","?","?","?","?","?","?","?","?","?","?","?","?","?","?","?","?","?","?","?","?","?","?","?","?","?","?","?","?","?","?","?","?","?","?","?","?","?","?","?","?","?","?","?","?","?","?","?","?","?","?","?","?","?","?","?","?","?","?","?","?","?","?","?","?","?","?","?","?","?","?","?","?","?","?","?","?","?","?","?","?","?","?","?","?","?","?","?","?","?","?","?","?","?","?","?","?","?","?","?","?","?","?","?","?","?","?","?","?","?","?","?","?","?","?","?","?","?","?","?","?","?","?","?","?","?","?","?","?","?","?","?","?","?","?","?","?","?","?","?","?","?","?","?","?","?","?","?","?","?","?","?","?","?","?","?","?","?","?","?","?","?","?","?","?","?","?","?","?","?","?","?","?","?","?","?","?","?","?","?","?","?","?","?","?","?","?","?","?","?","?","?","?","?","?","?","?","?","?","?","?","?","?","?","?","?","?","?","?","?","?","?","?","?","?","?","?","?","?","?","?","?","?","?","?","?","?","?","?","?","?","?","?","?","?","?","?","?","?","?","?","?","?","?","?","?","?","?","?","?","?","?","?","?","?","?","?","?","?","?","?","?","?","?","?","?","?","?","?","?","?","?","?","?","?","?","?","?","?","?","?","?","?","?","?","?","?","?","?","?","?","?","?","?","?","?","?","?","?","?","?","?","?","?","?","?","?","?","?","?","?","?","?","?","?","?","?","?","?","?","?","?","?","?","?","?","?","?","?","?","?","?","?","?","?","?","?","?","?","?","?","?","?","?","?","?","?","?","?","?","?","?","?","?","?","?","?","?","?","?","?","?","?","?","?","?","?","?","?","?","?","?","?","?","?","?","?","?","?","?","?","?","?","?","?","?","?","?","?","?","?","?","?","?","?","?","?","?","?","?","?","?","?","?","?","?","?","?","?","?","?","?","?","?","?","?","?","?","?","?","?","?","?","?","?","?","?","?","?","?","?","?","?","?","?","?","?","?","?","?","?","?","?","?","?","?","?","?","?","?","?","?","?","?","?","?","?","?","?","?","?","?","?","?","?","?","?","?","?","?","?","?","?","?","?","?","?","?","?","?","?","?","?","?","?","?","?","?","?","?","?","?","?","?","?","?","?","?","?","?","?","?","?","?","?","?","?","?","?","?","?","?","?","?","?","?","?","?","?","?","?","?","?","?","?","?","?","?","?","?","?","?","?","?","?","?","?","?","?","?","?","?","?","?","?","?","?","?","?","?","?","?","?","?","?","?","?","?","?","?","?","?","?","?","?","?","?","?","?","?","?","?","?","?","?","?","?","?","?","?","?","?","?","?","?","?","?","?","?","?","?","?","?","?","?","?","?","?","?","?","?","?","?","?","?","?","?","?","?","?","?","?","?","?","?","?","?","?","?","?","?","?","?","?","?","?","?","?","?","?","?","?","?","?","?","?","?","?","?","?","?","?","?","?","?","?","?","?","?","?","?","?","?","?","?","?","?","?","?","?","?","?","?","?","?","?","?","?","?","?","?","?","?","?","?","?","?","?","?","?","?","?","?","?","?","?","?","?","?","?","?","?","?","?","?","?","?","?","?","?","?","?","?","?","?","?","?","?","?","?","?","?","?","?","?","?","?","?","?","?","?","?","?","?","?","?","?","?","?","?","?","?","?","?","?","?","?","?","?","?","?","?","?","?","?","?","?","?","?","?","?","?","?","?","?","?","?","?","?","?","?","?","?","?","?","?","?","?","?","?","?","?","?","?","?","?","?","?","?","?","?","?","?","?","?","?","?","?","?","?","?","?","?","?","?","?","?","?","?","?","?","?","?","?","?","?","?","?","?","?","?","?","?","?","?","?","?","?","?","?","?","?","?","?","?","?","?","?","?","?","?","?","?","?","?","?","?","?","?","?","?","?","?","?","?","?","?","?","?","?","?","?","?","?","?","?","?","?","?","?","?","?","?","?","?","?","?","?","?","?","?","?","?","?","?","?","?","?","?","?","?","?","?","?","?","?","?","?","?","?","?","?","?","?","?","?","?","?","?","?","?","?","?","?","?","?","?","?","?","?","?","?","?","?","?","?","?","?","?","?","?","?","?","?","?","?","?","?","?","?","?","?","?","?","?","?","?","?","?","?","?","?","?","?","?","?","?","?","?","?","?","?","?","?","?","?","?","?","?","?","?","?","?","?","?","?","?","?","?","?","?","?","?","?","?","?","?","?","?","?","?","?","?","?","?","?","?","?","?","?","?","?","?","?","?","?","?","?","?","?","?","?","?","?","?","?","?","?","?","?","?","?","?","?","?","?","?","?","?","?","?","?","?","?","?","?","?","?","?","?","?","?","?","?","?","?","?","?","?","?","?","?","?","?","?","?","?","?","?","?","?","?","?","?","?","?","?","?","?","?","?","?","?","?","?","?","?","?","?","?","?","?","?","?","?","?","?","?","?","?","?","?","?","?","?","?","?","?","?","?","?","?","?","?","?","?","?","?","?","?","?","?","?","?","?","?","?","?","?","?","?","?","?","?","?","?","?","?","?","?","?","?","?","?","?","?","?","?","?","?","?","?","?","?","?","?","?","?","?","?","?","?","?","?","?","?","?","?","?","?","?","?","?","?","?","?","?","?","?","?","?","?","?","?","?","?","?","?","?","?","?","?","?","?","?","?","?","?","?","?","?","?","?","?","?","?","?","?","?","?","?","?","?","?","?","?","?","?","?","?","?","?","?","?","?","?","?","?","?","?","?","?","?","?","?","?","?","?","?","?","?","?","?","?","?","?","?","?","?","?","?","?","?","?","?","?","?","?","?","?","?","?","?","?","?","?","?","?","?","?","?","?","?","?","?","?","?","?","?","?","?","?","?","?","?","?","?","?","?","?","?","?","?","?","?","?","?","?","?","?","?","?","?","?","?","?","?","?","?","?","?","?","?","?","?","?","?","?","?","?","?","?","?","?","?","?","?","?","?","?","?","?","?","?","?","?","?","?","?","?","?","?","?","?","?","?","?","?","?","?","?","?","?","?","?","?","?","?","?","?","?","?","?","?","?","?","?","?","?","?","?","?","?","?","?","?","?","?","?","?","?","?","?","?","?","?","?","?","?","?","?","?","?","?","?","?","?","?","?","?","?","?","?","?","?","?","?","?","?","?","?","?","?","?","?","?","?","?","?","?","?","?","?","?","?","?","?","?","?","?","?","?","?","?","?","?","?","?","?","?","?","?","?","?","?","?","?","?","?","?","?","?","?","?","?","?","?","?","?","?","?","?","?","?","?","?","?","?","?","?","?","?","?","?","?","?","?","?","?","?","?","?","?","?","?","?","?","?","?","?","?","?","?","?","?","?","?","?","?","?","?","?","?","?","?","?","?","?","?","?","?","?","?","?","?","?","?","?","?","?","?","?","?","?","?","?","?","?","?","?","?","?","?","?","?","?","?","?","?","?","?","?","?","?","?","?","?","?","?","?","?","?","?","?","?","?","?","?","?","?","?","?","?","?","?","?","?","?","?","?","?","?","?","?","?","?","?","?","?","?","?","?","?","?","?","?","?","?","?","?","?","?","?","?","?","?","?","?","?","?","?","?","?","?","?","?","?","?","?","?","?","?","?","?","?","?","?","?","?","?","?","?","?","?","?","?","?","?","?","?","?","?","?","?","?","?","?","?","?","?","?","?","?","?","?","?","?","?","?","?","?","?","?","?","?","?","?","?","?","?","?","?","?","?","?","?","?","?","?","?","?","?","?","?","?","?","?","?","?","?","?","?","?","?","?","?","?","?","?","?","?","?","?","?","?","?","?","?","?","?","?","?","?","?","?","?","?","?","?","?","?","?","?","?","?","?","?","?","?","?","?","?","?","?","?","?","?","?","?","?","?","?","?","?","?","?","?","?","?","?","?","?","?","?","?","?","?","?","?","?","?","?","?","?","?","?","?","?","?","?","?","?","?","?","?","?","?","?","?","?","?","?","?","?","?","?","?","?","?","?","?","?","?","?","?","?","?","?","?","?","?","?","?","?","?","?","?","?","?","?","?","?","?","?","?","?","?","?","?","?","?","?","?","?","?","?","?","?","?","?","?","?","?","?","?","?","?","?","?","?","?","?","?","?","?","?","?","?","?","?","?","?","?","?","?","?","?","?","?","?","?","?","?","?","?","?","?","?","?","?","?","?","?","?","?","?","?","?","?","?","?","?","?","?","?","?","?","?","?","?","?","?","?","?","?","?","?","?","?","?","?","?","?","?","?","?","?","?","?","?","?","?","?","?","?","?","?","?","?","?","?","?","?","?","?","?","?","?","?","?","?","?","?","?","?","?","?","?","?","?","?","?","?","?","?","?","?","?","?","?","?","?","?","?","?","?","?","?","?","?","?","?","?","?","?","?","?","?","?","?","?","?","?","?","?","?","?","?","?","?","?","?","?","?","?","?","?","?","?","?","?","?","?","?","?","?","?","?","?","?","?","?","?","?","?","?","?","?","?","?","?","?","?","?","?","?","?","?","?","?","?","?","?","?","?","?","?","?","?","?","?","?","?","?","?","?","?","?","?","?","?","?","?","?","?","?","?","?","?","?","?","?","?","?","?","?","?","?","?","?","?","?","?","?","?","?","?","?","?","?","?","?","?","?","?","?","?","?","?","?","?","?","?","?","?","?","?","?","?","?","?","?","?","?","?","?","?","?","?","?","?","?","?","?","?","?","?","?","?","?","?","?","?","?","?","?","?","?","?","?","?","?","?","?","?","?","?","?","?","?","?","?","?","?","?","?","?","?","?","?","?","?","?","?","?","?","?","?","?","?","?","?","?","?","?","?","?","?","?","?","?","?","?","?","?","?","?","?","?","?","?","?","?","?","?","?","?","?","?","?","?","?","?","?","?","?","?","?","?","?","?","?","?","?","?","?","?","?","?","?","?","?","?","?","?","?","?","?","?","?","?","?","?","?","?","?","?","?","?","?","?","?","?","?","?","?","?","?","?","?","?","?","?","?","?","?","?","?","?","?","?","?","?","?","?","?","?","?","?","?","?","?","?","?","?","?","?","?","?","?","?","?","?","?","?","?","?","?","?","?","?","?","?","?","?","?","?","?","?","?","?","?","?","?","?","?","?","?","?","?","?","?","?","?","?","?","?","?","?","?","?","?","?","?","?","?","?","?","?","?","?","?","?","?","?","?","?","?","?","?","?","?","?","?","?","?","?","?","?","?","?","?","?","?","?","?","?","?","?","?","?","?","?","?","?","?","?","?","?","?","?","?","?","?","?","?","?","?","?","?","?","?","?","?","?","?","?","?","?","?","?","?","?","?","?","?","?","?","?","?","?","?","?","?","?","?","?","?","?","?","?","?","?","?","?","?","?","?","?","?","?","?","?","?","?","?","?","?","?","?","?","?","?","?","?","?","?","?","?","?","?","?","?","?","?","?","?","?","?","?","?","?","?","?","?","?","?","?","?","?","?","?","?","?","?","?","?","?","?","?","?","?","?","?","?","?","?","?","?","?","?","?","?","?","?","?","?","?","?","?","?","?","?","?","?","?","?","?","?","?","?","?","?","?","?","?","?","?","?","?","?","?","?","?","?","?","?","?","?","?","?","?","?","?","?","?","?","?","?","?","?","?","?","?","?","?","?","?","?","?","?","?","?","?","?","?","?","?","?","?","?","?","?","?","?","?","?","?","?","?","?","?","?","?","?","?","?","?","?","?","?","?","?","?","?","?","?","?","?","?","?","?","?","?","?","?","?","?","?","?","?","?","?","?","?","?","?","?","?","?","?","?","?","?","?","?","?","?","?","