[{"success":true,"trial_type":"fullscreen","trial_index":0,"time_elapsed":3110,"internal_node_id":"0.0-0.0","protocol_sum":"","subject_identifier":210,"subject_sum":[18,83,233,55,62,120,27,117,0,38,108,170,85,21,14,8,226,16,188,140,216,204,112,216,153,133,227,96,1,85,232,96],"subject_pair":105,"STUDY_ID":"669eec2e4270c76bc184a38e","PROLIFIC_PID":"6693ba811180149dc7f652c7","SESSION_ID":"669f90054d07dc2842aef76f","practice_instructions":1,"leaderboard_instructions":0,"bonus":1,"reveal_word":false,"self_rating":"1","confidence":"90"},{"view_history":"[{\"page_index\":0,\"viewing_time\":4510.600000023842}]","rt":4511.200000047684,"trial_type":"instructions","trial_index":1,"time_elapsed":7623,"internal_node_id":"0.0-1.0","protocol_sum":"","subject_identifier":210,"subject_sum":[18,83,233,55,62,120,27,117,0,38,108,170,85,21,14,8,226,16,188,140,216,204,112,216,153,133,227,96,1,85,232,96],"subject_pair":105,"STUDY_ID":"669eec2e4270c76bc184a38e","PROLIFIC_PID":"6693ba811180149dc7f652c7","SESSION_ID":"669f90054d07dc2842aef76f","practice_instructions":1,"leaderboard_instructions":0,"bonus":1,"reveal_word":false,"self_rating":"1","confidence":"90"},{"view_history":"[{\"page_index\":0,\"viewing_time\":3264.399999976158}]","rt":3265,"trial_type":"instructions","trial_index":2,"time_elapsed":10889,"internal_node_id":"0.0-2.0-0.0","protocol_sum":"","subject_identifier":210,"subject_sum":[18,83,233,55,62,120,27,117,0,38,108,170,85,21,14,8,226,16,188,140,216,204,112,216,153,133,227,96,1,85,232,96],"subject_pair":105,"STUDY_ID":"669eec2e4270c76bc184a38e","PROLIFIC_PID":"6693ba811180149dc7f652c7","SESSION_ID":"669f90054d07dc2842aef76f","practice_instructions":1,"leaderboard_instructions":0,"bonus":1,"reveal_word":false,"self_rating":"1","confidence":"90"},{"rt":21853.299999952316,"responses":"{\"Q0\":\"... reveal the word with as <b>few letter guesses</b> as possible\"}","question_order":"[0]","trial_type":"survey-multi-choice","trial_index":3,"time_elapsed":32745,"internal_node_id":"0.0-2.0-1.0","protocol_sum":"","subject_identifier":210,"subject_sum":[18,83,233,55,62,120,27,117,0,38,108,170,85,21,14,8,226,16,188,140,216,204,112,216,153,133,227,96,1,85,232,96],"subject_pair":105,"correct":true,"test_part":"multichoice_nonpretend","STUDY_ID":"669eec2e4270c76bc184a38e","PROLIFIC_PID":"6693ba811180149dc7f652c7","SESSION_ID":"669f90054d07dc2842aef76f","practice_instructions":1,"leaderboard_instructions":0,"bonus":1,"reveal_word":false,"self_rating":"1","confidence":"90"},{"view_history":"[{\"page_index\":0,\"viewing_time\":2462.399999976158}]","rt":2462.7000000476837,"trial_type":"instructions","trial_index":4,"time_elapsed":35209,"internal_node_id":"0.0-3.0","protocol_sum":"","subject_identifier":210,"subject_sum":[18,83,233,55,62,120,27,117,0,38,108,170,85,21,14,8,226,16,188,140,216,204,112,216,153,133,227,96,1,85,232,96],"subject_pair":105,"STUDY_ID":"669eec2e4270c76bc184a38e","PROLIFIC_PID":"6693ba811180149dc7f652c7","SESSION_ID":"669f90054d07dc2842aef76f","practice_instructions":1,"leaderboard_instructions":0,"bonus":1,"reveal_word":false,"self_rating":"1","confidence":"90"},{"word":"ZEBRA","click_log":{"letter":["","Z","E","B","R","A"],"t":[0,4853.5,6903.5,9612.5,11034.200000047684,12112],"hit":[null,1,1,1,1,1],"asked":["","Z","ZE","ZEB","ZEBR","ZEBRA"],"word_state":["_____","Z____","ZE___","ZEB__","ZEBR_","ZEBRA"]},"hover_log":{"letter":["?","?","?","?","?","?","?","?","?","?","?","?","?","?","?","?","?","?","?","?","?","?","?","?","?","?","?","?","?","?","?","?","?","?","?","?","?","?","?","?","?","?","?","?","?","?","?","?","?","?","?","?","?","?","?","?","?","?","?","?","?","?","?","?","?","?","?","?","?","?","?","?","?","?","?","?","?","?","?","?","?","?","?","?","?","?","?","?","?","?","?","?","?","?","?","?","?","?","?","?","?","?","?","?","?","?","?","?","?","?","?","?","?","?","?","?","?","?","?","?","?","?","?","?","?","?","?","?","?","?","?","?","?","?","?","?","?","?","?","?","?","?","?","?","?","?","?","?","?","?","?","?","A","?","?","?","?","?","?","?","?","?","?","?","?","?","?","?","?","?","?","?","?","?","?","?","?","?","?","?","?","?","?","?","?","?","?","?","?","K","K","?","?","?","?","?","?","?","?","?","?","?","?","?","?","U","U","V","?","?","?","?","?","?","?","?","?","?","?","?","?","?","?","?","?","?","?","?","?","?","?","?","Y","Y","?","?","?","Z","Z","Z","Z","Z","Z","Z","Z","Z","Z","Z","Z","Z","Z","Z","Z","Z","Z","Z","Z","Z","Z","Z","Z","Z","Z","Z","Z","Z","Z","Z","Z","Z","Z","Z","Z","Z","Z","Z","Z","Z","Z","Z","Z","Z","Z","Z","Z","Z","Z","Z","Z","Z","Z","Z","Z","Z","Z","Z","Z","Z","Z","Z","Z","Z","Z","Z","Z","Z","Z","Z","Z","Z","Z","Z","Z","Z","Z","Z","?","P","F","?","?","?","?","?","?","?","?","?","?","?","?","?","?","?","?","?","?","?","?","?","?","?","?","?","?","?","?","?","?","?","?","?","?","?","?","?","E","?","F","F","F","F","F","F","F","F","F","F","F","F","F","F","F","?","E","E","E","E","E","E","E","E","E","E","E","E","E","E","E","E","E","E","E","E","E","E","E","E","E","E","E","E","E","E","E","E","E","E","E","E","E","E","E","E","E","E","E","E","E","E","E","E","E","E","E","E","E","E","E","E","E","E","E","E","E","E","E","E","E","E","E","E","E","E","E","E","E","E","E","E","E","E","E","E","?","?","N","N","N","N","N","N","N","N","N","N","N","?","?","?","?","?","?","?","?","?","?","?","?","?","L","L","?","C","C","C","C","?","?","?","?","?","?","?","?","?","?","?","?","?","?","?","?","?","?","?","?","?","?","?","?","?","?","?","?","?","?","?","?","?","?","?","?","?","?","?","?","?","?","?","?","?","?","?","B","B","B","B","B","B","B","B","B","B","B","B","B","B","B","B","B","B","B","B","B","B","B","B","B","B","B","B","B","B","B","B","B","B","B","B","B","B","B","B","B","B","B","B","B","B","B","B","B","B","B","B","B","B","B","B","B","B","B","B","B","B","B","B","B","B","B","B","B","B","B","B","B","B","B","B","B","B","B","B","B","B","B","B","B","B","B","B","B","B","B","B","B","B","B","B","B","B","B","B","B","B","B","B","B","B","B","B","B","B","B","B","B","B","B","B","B","B","B","B","B","B","B","B","B","R","R","R","R","R","R","R","R","R","R","R","R","R","R","R","R","R","R","R","R","R","R","R","R","R","R","R","R","R","R","R","R","R","R","R","R","R","R","R","R","R","R","R","R","R","R","R","R","R","R","R","R","R","R","R","R","R","R","R","R","R","R","R","R","A","A","A","A","A","A","A","A","A","A","A","A","A","A","A","A","A","A","A","A","A","A","A","A","A","A","A","A","A","A","A","A","A","A","A","A","A","A","A","A","A","A","A","A","A","A","A","A","A","A","A","A","A","A","A","A","A","A","A","A","A","A","A","A","A","A","A","A","A","A","A","A","A","A","A","A","A","A","A","A","A","A","A","A","A","A","A","A","A","A","A","A","A","A","A","A","A","A","A","A","A","A","A","A","A","A","A","A","A","A","A","A","A","A","A","A","A","A","A","A","A","A","A","A","A"],"t":[30,37,52,68,85,102,120,135,152,168,185,202,219,236,253,270,286,304,320,336,353,369,386,402,419,436,452,469,486,502,519,536,552,569,586,603,619,635,652,669,686,702,719,736,752,769,786,802,819,835,852,869,886,902,918,936,953,968,986,1002,1019,1035,1052,1069,1086,1103,1120,1135,1151,1168,1185,1202,1219,1236,1252,1268,1285,1302,1319,1336,1353,1369,1386,1402,1419,1436,1452,1468,1486,1502,1518,1536,1552,1570,1584,1600,1617,1634,1651,1667,1685,1702,1718,1735,1752,1768,1785,1801,1818,1835,1851,1868,1885,1901,1918,1935,1952,1968,1985,2001,2018,2035,2051,2068,2085,2101,2118,2134,2151,2168,2185,2201,2217,2233,2251,2267,2285,2301,2319,2335,2351,2368,2384,2401,2418,2435,2451,2468,2484,2501,2518,2535,2557,2568,2584,2601,2617,2634,2651,2668,2685,2702,2718,2736,2752,2768,2785,2800,2818,2835,2852,2869,2886,2900,2917,2934,2951,2968,2985,3000,3017,3033,3050,3067,3083,3101,3119,3136,3150,3166,3182,3199,3216,3232,3249,3266,3284,3300,3317,3333,3350,3367,3383,3400,3417,3435,3451,3468,3484,3499,3516,3534,3550,3567,3584,3601,3617,3634,3651,3667,3684,3701,3717,3734,3750,3768,3784,3800,3817,3834,3851,3867,3886,3899,3915,3932,3949,3965,3981,3999,4014,4032,4048,4066,4082,4099,4116,4133,4151,4166,4181,4198,4215,4231,4248,4265,4282,4299,4316,4333,4351,4366,4383,4399,4414,4431,4449,4466,4483,4500,4516,4533,4552,4568,4582,4598,4614,4631,4649,4666,4682,4699,4715,4732,4749,4765,4781,4797,4815,4832,4848,4865,4882,4898,4915,4932,4949,4965,4982,4998,5015,5032,5048,5065,5081,5097,5115,5131,5148,5164,5181,5199,5216,5232,5250,5266,5284,5301,5317,5333,5350,5367,5383,5400,5417,5433,5449,5466,5483,5500,5517,5533,5549,5567,5583,5601,5616,5632,5649,5666,5683,5699,5716,5733,5749,5766,5783,5800,5815,5830,5847,5864,5881,5898,5914,5932,5948,5966,5982,5998,6014,6030,6048,6064,6081,6098,6115,6132,6148,6165,6180,6196,6213,6230,6246,6265,6280,6297,6314,6331,6348,6365,6380,6398,6414,6432,6448,6466,6481,6497,6514,6532,6548,6565,6580,6597,6615,6631,6648,6665,6681,6698,6714,6731,6748,6767,6781,6798,6815,6831,6848,6865,6882,6898,6915,6931,6948,6965,6981,6998,7015,7031,7049,7065,7081,7098,7115,7131,7148,7165,7181,7196,7212,7230,7246,7262,7279,7297,7314,7331,7347,7364,7381,7397,7414,7430,7447,7464,7481,7499,7514,7534,7546,7562,7579,7595,7612,7629,7646,7663,7679,7697,7715,7731,7749,7764,7780,7796,7812,7829,7847,7865,7879,7895,7912,7928,7945,7961,7978,7995,8012,8028,8045,8062,8079,8095,8113,8130,8146,8162,8180,8195,8211,8228,8245,8261,8278,8294,8312,8328,8344,8361,8378,8395,8411,8429,8446,8463,8479,8495,8512,8531,8544,8561,8578,8594,8611,8628,8645,8661,8679,8696,8713,8730,8747,8763,8779,8797,8813,8830,8847,8863,8880,8899,8912,8928,8944,8963,8979,8995,9013,9029,9046,9062,9079,9097,9113,9128,9144,9161,9178,9196,9211,9228,9245,9261,9279,9296,9313,9329,9346,9363,9379,9396,9413,9429,9447,9463,9479,9496,9513,9529,9546,9562,9579,9594,9611,9628,9645,9662,9679,9696,9713,9729,9746,9762,9779,9795,9812,9829,9846,9862,9879,9895,9912,9929,9944,9960,9977,9994,10011,10028,10045,10062,10079,10096,10112,10129,10145,10161,10176,10193,10209,10226,10243,10260,10276,10293,10310,10327,10346,10362,10378,10395,10412,10428,10446,10462,10478,10496,10512,10528,10545,10562,10580,10595,10612,10629,10646,10662,10679,10696,10711,10728,10745,10762,10778,10795,10811,10828,10845,10861,10878,10895,10911,10929,10945,10961,10977,10994,11010,11027,11042,11059,11076,11093,11110,11127,11145,11161,11179,11196,11211,11227,11244,11261,11276,11293,11310,11327,11344,11361,11380,11396,11410,11427,11443,11460,11477,11495,11513,11529,11546,11563,11579,11595,11611,11629,11645,11663,11680,11696,11712,11729,11743,11760,11777,11795,11811,11829,11845,11861,11878,11895,11911,11928,11945,11962,11979,11994,12012,12029,12046,12059,12076,12093,12110,12127,12144,12160,12178,12194,12211,12227,12242,12259,12276,12292,12310,12326,12343,12360,12379,12395,12412,12428,12446,12463,12480,12496,12512,12529,12545,12562,12579,12592,12609,12626,12643,12660,12678,12694,12712,12727,12743,12760,12778,12795,12812,12828,12845,12861,12878,12894,12910,12929,12944,12961,12978,12994,13009,13026,13042,13060,13077,13094,13111,13129,13147,13161,13176,13193,13209,13228,13242,13258,13275,13291,13308,13325,13342,13359,13378,13393,13409,13426,13444,13459,13476,13493,13509,13527,13544,13560,13576,13592,13610,13626,13642,13658,13674,13692,13709,13727,13744,13760,13775,13792,13810,13827,13842,13857,13874,13891,13908,13925,13943,13959,13976,13993,14009,14026,14043,14060,14076,14094,14110,14130],"hit":[null],"x":[-1.6054421768707483,-1.6054421768707483,-1.6054421768707483,-1.6054421768707483,-1.6054421768707483,-1.6054421768707483,-1.6054421768707483,-1.6054421768707483,-1.6054421768707483,-1.6054421768707483,-1.6054421768707483,-1.6054421768707483,-1.6054421768707483,-1.6054421768707483,-1.6054421768707483,-1.6054421768707483,-1.6054421768707483,-1.6054421768707483,-1.6054421768707483,-1.6054421768707483,-1.6054421768707483,-1.6054421768707483,-1.6054421768707483,-1.6054421768707483,-1.6054421768707483,-1.6054421768707483,-1.6054421768707483,-1.6054421768707483,-1.6054421768707483,-1.6054421768707483,-1.6054421768707483,-1.6054421768707483,-1.6054421768707483,-1.6054421768707483,-1.6054421768707483,-1.6054421768707483,-1.6054421768707483,-1.6054421768707483,-1.6054421768707483,-1.6054421768707483,-1.6054421768707483,-1.6054421768707483,-1.6054421768707483,-1.6054421768707483,-1.6054421768707483,-1.6054421768707483,-1.6054421768707483,-1.6054421768707483,-1.6054421768707483,-1.6054421768707483,-1.6054421768707483,-1.6054421768707483,-1.6054421768707483,-1.6054421768707483,-1.6054421768707483,-1.6054421768707483,-1.6054421768707483,-1.6054421768707483,-1.6054421768707483,-1.6054421768707483,-1.6054421768707483,-1.6054421768707483,-1.6054421768707483,-1.6054421768707483,-1.6054421768707483,-1.6054421768707483,-1.6054421768707483,-1.6054421768707483,-1.6054421768707483,-1.6054421768707483,-1.6054421768707483,-1.6054421768707483,-1.6054421768707483,-1.6054421768707483,-1.6054421768707483,-1.6054421768707483,-1.6054421768707483,-1.6054421768707483,-1.6054421768707483,-1.6054421768707483,-1.6054421768707483,-1.6054421768707483,-1.6054421768707483,-1.6054421768707483,-1.6054421768707483,-1.6054421768707483,-1.6054421768707483,-1.6054421768707483,-1.6054421768707483,-1.6054421768707483,-1.6054421768707483,-1.6054421768707483,-1.6054421768707483,-1.6054421768707483,-1.6054421768707483,-1.6054421768707483,-1.6054421768707483,-1.6054421768707483,-1.6054421768707483,-1.6054421768707483,-1.6054421768707483,-1.6054421768707483,-1.6054421768707483,-1.6054421768707483,-1.6054421768707483,-1.6054421768707483,-1.6054421768707483,-1.6054421768707483,-1.6054421768707483,-1.6054421768707483,-1.6054421768707483,-1.6054421768707483,-1.6054421768707483,-1.6054421768707483,-1.6054421768707483,-1.6054421768707483,-1.6054421768707483,-1.6054421768707483,-1.6054421768707483,-1.6054421768707483,-1.6054421768707483,-1.6054421768707483,-1.6054421768707483,-1.6054421768707483,-1.6054421768707483,-1.6054421768707483,-1.6054421768707483,-1.6054421768707483,-1.6054421768707483,-1.6054421768707483,-1.6054421768707483,-1.6054421768707483,-1.6054421768707483,-1.6054421768707483,-1.6054421768707483,-1.6054421768707483,-1.6054421768707483,-1.6054421768707483,-1.6054421768707483,-1.6054421768707483,-1.6054421768707483,-1.6054421768707483,-1.6054421768707483,-1.6054421768707483,-1.6054421768707483,-1.6054421768707483,-1.6054421768707483,-1.6054421768707483,-1.6054421768707483,-1.6054421768707483,-1.6054421768707483,-1.6054421768707483,0.027210884353741496,0.034013605442176874,0.03741496598639456,0.04081632653061224,0.04081632653061224,0.04081632653061224,0.04081632653061224,0.04421768707482993,0.04421768707482993,0.047619047619047616,0.047619047619047616,0.047619047619047616,0.047619047619047616,0.047619047619047616,0.047619047619047616,0.047619047619047616,0.047619047619047616,0.047619047619047616,0.047619047619047616,0.047619047619047616,0.047619047619047616,0.047619047619047616,0.047619047619047616,0.047619047619047616,0.047619047619047616,0.047619047619047616,0.047619047619047616,0.047619047619047616,0.047619047619047616,0.047619047619047616,0.047619047619047616,0.047619047619047616,0.047619047619047616,0.05442176870748299,0.06802721088435375,0.08163265306122448,0.11224489795918367,0.1360544217687075,0.17006802721088435,0.19387755102040816,0.19727891156462585,0.20408163265306123,0.20408163265306123,0.20408163265306123,0.20408163265306123,0.20408163265306123,0.20408163265306123,0.20408163265306123,0.20408163265306123,0.20408163265306123,0.20408163265306123,0.20408163265306123,0.22448979591836735,0.272108843537415,0.336734693877551,0.45918367346938777,0.5578231292517006,0.6462585034013606,0.7210884353741497,0.7210884353741497,0.7210884353741497,0.7210884353741497,0.7210884353741497,0.7210884353741497,0.7210884353741497,0.7210884353741497,0.7210884353741497,0.7210884353741497,0.7210884353741497,0.7210884353741497,0.7210884353741497,0.7210884353741497,0.7210884353741497,0.7210884353741497,0.7210884353741497,0.7210884353741497,0.7210884353741497,0.7210884353741497,0.7414965986394558,0.8163265306122449,0.8843537414965986,0.9047619047619048,0.9251700680272109,0.9285714285714286,0.9319727891156463,0.9421768707482994,0.9455782312925171,0.9523809523809523,0.9591836734693877,0.9625850340136054,0.9659863945578231,0.9727891156462585,0.9863945578231292,0.9863945578231292,0.9863945578231292,0.9897959183673469,0.9897959183673469,0.9931972789115646,0.9931972789115646,0.9931972789115646,0.9931972789115646,0.9931972789115646,0.9931972789115646,0.9931972789115646,0.9931972789115646,0.9931972789115646,0.9931972789115646,0.9931972789115646,0.9931972789115646,0.9931972789115646,0.9931972789115646,0.9931972789115646,0.9931972789115646,0.9931972789115646,0.9931972789115646,0.9931972789115646,0.9931972789115646,0.9931972789115646,0.9931972789115646,0.9931972789115646,0.9931972789115646,0.9931972789115646,0.9931972789115646,0.9931972789115646,0.9931972789115646,0.9931972789115646,0.9931972789115646,0.9931972789115646,0.9931972789115646,0.9931972789115646,0.9931972789115646,0.9931972789115646,0.9931972789115646,0.9931972789115646,0.9931972789115646,0.9931972789115646,0.9931972789115646,0.9931972789115646,0.9931972789115646,0.9931972789115646,0.9931972789115646,0.9931972789115646,0.9931972789115646,0.9931972789115646,0.9931972789115646,0.9931972789115646,0.9931972789115646,0.9931972789115646,0.9931972789115646,0.9931972789115646,0.9931972789115646,0.9931972789115646,0.9931972789115646,0.9931972789115646,0.9931972789115646,0.9931972789115646,0.9931972789115646,0.9931972789115646,0.9931972789115646,0.9931972789115646,0.9931972789115646,0.9931972789115646,0.9931972789115646,0.9931972789115646,0.9659863945578231,0.891156462585034,0.7482993197278912,0.6666666666666666,0.5578231292517006,0.4489795918367347,0.37755102040816324,0.3401360544217687,0.3231292517006803,0.30952380952380953,0.30612244897959184,0.29931972789115646,0.2891156462585034,0.2755102040816326,0.2619047619047619,0.2619047619047619,0.2619047619047619,0.2619047619047619,0.2619047619047619,0.2619047619047619,0.2619047619047619,0.2619047619047619,0.2619047619047619,0.2619047619047619,0.2619047619047619,0.2619047619047619,0.2619047619047619,0.2619047619047619,0.2619047619047619,0.2619047619047619,0.2619047619047619,0.2619047619047619,0.21768707482993196,0.2108843537414966,0.20408163265306123,0.20408163265306123,0.22789115646258504,0.2925170068027211,0.3673469387755102,0.5238095238095238,0.5918367346938775,0.6428571428571429,0.6700680272108843,0.6802721088435374,0.6904761904761905,0.6938775510204082,0.6972789115646258,0.7006802721088435,0.7006802721088435,0.7040816326530612,0.7040816326530612,0.7040816326530612,0.7040816326530612,0.7040816326530612,0.6870748299319728,0.673469387755102,0.6598639455782312,0.6326530612244898,0.608843537414966,0.5952380952380952,0.5918367346938775,0.5850340136054422,0.5850340136054422,0.5850340136054422,0.5816326530612245,0.5816326530612245,0.5816326530612245,0.5816326530612245,0.5816326530612245,0.5816326530612245,0.5816326530612245,0.5816326530612245,0.5816326530612245,0.5816326530612245,0.5816326530612245,0.5816326530612245,0.5816326530612245,0.5816326530612245,0.5816326530612245,0.5816326530612245,0.5816326530612245,0.5816326530612245,0.5816326530612245,0.5816326530612245,0.5816326530612245,0.5816326530612245,0.5816326530612245,0.5816326530612245,0.5816326530612245,0.5816326530612245,0.5816326530612245,0.5816326530612245,0.5816326530612245,0.5816326530612245,0.5816326530612245,0.5816326530612245,0.5816326530612245,0.5816326530612245,0.5816326530612245,0.5816326530612245,0.5816326530612245,0.5816326530612245,0.5816326530612245,0.5816326530612245,0.5816326530612245,0.5816326530612245,0.5816326530612245,0.5816326530612245,0.5816326530612245,0.5816326530612245,0.5816326530612245,0.5816326530612245,0.5816326530612245,0.5816326530612245,0.5816326530612245,0.5816326530612245,0.5816326530612245,0.5816326530612245,0.5816326530612245,0.5816326530612245,0.5816326530612245,0.5816326530612245,0.5816326530612245,0.5816326530612245,0.5816326530612245,0.5816326530612245,0.5816326530612245,0.5816326530612245,0.5816326530612245,0.5816326530612245,0.5816326530612245,0.5816326530612245,0.5816326530612245,0.5816326530612245,0.5816326530612245,0.5816326530612245,0.5816326530612245,0.5816326530612245,0.5918367346938775,0.5918367346938775,0.5918367346938775,0.5952380952380952,0.5952380952380952,0.5952380952380952,0.5952380952380952,0.5952380952380952,0.5952380952380952,0.5952380952380952,0.5952380952380952,0.5918367346938775,0.5748299319727891,0.5306122448979592,0.5102040816326531,0.4897959183673469,0.47278911564625853,0.46258503401360546,0.4489795918367347,0.43197278911564624,0.41496598639455784,0.3979591836734694,0.3741496598639456,0.35374149659863946,0.3469387755102041,0.3231292517006803,0.29931972789115646,0.272108843537415,0.2585034013605442,0.2585034013605442,0.2585034013605442,0.25510204081632654,0.24489795918367346,0.24149659863945577,0.23809523809523808,0.23129251700680273,0.22448979591836735,0.21768707482993196,0.21768707482993196,0.21768707482993196,0.21768707482993196,0.21428571428571427,0.21428571428571427,0.21428571428571427,0.19727891156462585,0.1836734693877551,0.17346938775510204,0.16666666666666666,0.16326530612244897,0.16326530612244897,0.16326530612244897,0.16326530612244897,0.16326530612244897,0.16326530612244897,0.16326530612244897,0.16326530612244897,0.16326530612244897,0.16326530612244897,0.16326530612244897,0.16326530612244897,0.16326530612244897,0.16326530612244897,0.16326530612244897,0.16326530612244897,0.16326530612244897,0.16326530612244897,0.16326530612244897,0.16326530612244897,0.16326530612244897,0.16326530612244897,0.16326530612244897,0.16326530612244897,0.16326530612244897,0.16326530612244897,0.16326530612244897,0.16326530612244897,0.16326530612244897,0.16326530612244897,0.16326530612244897,0.16326530612244897,0.16326530612244897,0.1598639455782313,0.1598639455782313,0.1598639455782313,0.1598639455782313,0.1598639455782313,0.1598639455782313,0.1564625850340136,0.1564625850340136,0.1564625850340136,0.1564625850340136,0.1564625850340136,0.14965986394557823,0.14625850340136054,0.13945578231292516,0.13945578231292516,0.13945578231292516,0.13945578231292516,0.13945578231292516,0.13945578231292516,0.13945578231292516,0.13945578231292516,0.13945578231292516,0.13945578231292516,0.13945578231292516,0.13945578231292516,0.13945578231292516,0.13945578231292516,0.13945578231292516,0.13945578231292516,0.13945578231292516,0.13945578231292516,0.13945578231292516,0.13945578231292516,0.13945578231292516,0.13945578231292516,0.13945578231292516,0.13945578231292516,0.13945578231292516,0.13945578231292516,0.13945578231292516,0.13945578231292516,0.13945578231292516,0.13945578231292516,0.13945578231292516,0.13945578231292516,0.13945578231292516,0.13945578231292516,0.13945578231292516,0.13945578231292516,0.13945578231292516,0.13945578231292516,0.13945578231292516,0.13945578231292516,0.13945578231292516,0.13945578231292516,0.13945578231292516,0.13945578231292516,0.13945578231292516,0.13945578231292516,0.13945578231292516,0.13945578231292516,0.13945578231292516,0.13945578231292516,0.13945578231292516,0.13945578231292516,0.13945578231292516,0.13945578231292516,0.13945578231292516,0.13945578231292516,0.13945578231292516,0.13945578231292516,0.13945578231292516,0.13945578231292516,0.13945578231292516,0.13945578231292516,0.13945578231292516,0.13945578231292516,0.13945578231292516,0.13945578231292516,0.13945578231292516,0.13945578231292516,0.13945578231292516,0.13945578231292516,0.13945578231292516,0.13945578231292516,0.13945578231292516,0.13945578231292516,0.13945578231292516,0.13945578231292516,0.13945578231292516,0.13945578231292516,0.13945578231292516,0.13945578231292516,0.13945578231292516,0.13945578231292516,0.13945578231292516,0.13945578231292516,0.13945578231292516,0.13945578231292516,0.13945578231292516,0.13945578231292516,0.13945578231292516,0.13945578231292516,0.13945578231292516,0.13945578231292516,0.13945578231292516,0.13945578231292516,0.13945578231292516,0.13945578231292516,0.13945578231292516,0.13945578231292516,0.13945578231292516,0.13945578231292516,0.13945578231292516,0.13945578231292516,0.13945578231292516,0.13945578231292516,0.13945578231292516,0.13945578231292516,0.13945578231292516,0.13945578231292516,0.13945578231292516,0.13945578231292516,0.13945578231292516,1.1791383911963222,1.1791383911963222,1.1791383911963222,1.1768707482993197,1.1768707482993197,1.1768707482993197,1.1768707482993197,1.1768707482993197,1.1768707482993197,1.1768707482993197,1.1768707482993197,1.1768707482993197,1.1768707482993197,1.1768707482993197,1.1768707482993197,1.1768707482993197,1.1768707482993197,1.1768707482993197,1.1768707482993197,1.1768707482993197,1.1768707482993197,1.1768707482993197,1.1768707482993197,1.1768707482993197,1.1768707482993197,1.1768707482993197,1.1768707482993197,1.1768707482993197,1.1768707482993197,1.1768707482993197,1.1768707482993197,1.1768707482993197,1.1768707482993197,1.1768707482993197,1.1768707482993197,1.1768707482993197,1.1768707482993197,1.1768707482993197,1.1768707482993197,1.1768707482993197,1.1768707482993197,1.1768707482993197,1.1768707482993197,1.1768707482993197,1.1768707482993197,1.1768707482993197,1.1768707482993197,1.1768707482993197,1.1768707482993197,1.1768707482993197,1.1768707482993197,1.1768707482993197,1.1768707482993197,1.1768707482993197,1.1768707482993197,1.1768707482993197,1.1768707482993197,1.1768707482993197,1.1768707482993197,1.1768707482993197,1.1768707482993197,1.1768707482993197,1.1768707482993197,1.1768707482993197,0.006802721088435374,0.006802721088435374,0.006802721088435374,0.006802721088435374,0.006802721088435374,0.006802721088435374,0.006802721088435374,0.006802721088435374,0.006802721088435374,0.006802721088435374,0.006802721088435374,0.006802721088435374,0.006802721088435374,0.006802721088435374,0.006802721088435374,0.006802721088435374,0.006802721088435374,0.006802721088435374,0.006802721088435374,0.006802721088435374,0.006802721088435374,0.006802721088435374,0.006802721088435374,0.006802721088435374,0.006802721088435374,0.006802721088435374,0.006802721088435374,0.006802721088435374,0.006802721088435374,0.006802721088435374,0.006802721088435374,0.006802721088435374,0.006802721088435374,0.006802721088435374,0.006802721088435374,0.006802721088435374,0.006802721088435374,0.006802721088435374,0.006802721088435374,0.006802721088435374,0.006802721088435374,0.006802721088435374,0.006802721088435374,0.006802721088435374,0.006802721088435374,0.006802721088435374,0.006802721088435374,0.006802721088435374,0.006802721088435374,0.006802721088435374,0.006802721088435374,0.006802721088435374,0.006802721088435374,0.006802721088435374,0.006802721088435374,0.006802721088435374,0.006802721088435374,0.006802721088435374,0.006802721088435374,0.006802721088435374,0.006802721088435374,0.006802721088435374,0.006802721088435374,0.006802721088435374,0.006802721088435374,0.006802721088435374,0.006802721088435374,0.006802721088435374,0.006802721088435374,0.006802721088435374,0.006802721088435374,0.006802721088435374,0.006802721088435374,0.006802721088435374,0.006802721088435374,0.006802721088435374,0.006802721088435374,0.006802721088435374,0.006802721088435374,0.006802721088435374,0.006802721088435374,0.006802721088435374,0.006802721088435374,0.006802721088435374,0.006802721088435374,0.006802721088435374,0.006802721088435374,0.006802721088435374,0.006802721088435374,0.006802721088435374,0.006802721088435374,0.006802721088435374,0.006802721088435374,0.006802721088435374,0.006802721088435374,0.006802721088435374,0.006802721088435374,0.006802721088435374,0.006802721088435374,0.006802721088435374,0.006802721088435374,0.006802721088435374,0.006802721088435374,0.006802721088435374,0.006802721088435374,0.006802721088435374,0.006802721088435374,0.006802721088435374,0.006802721088435374,0.006802721088435374,0.006802721088435374,0.006802721088435374,0.006802721088435374,0.006802721088435374,0.006802721088435374,0.006802721088435374,0.006802721088435374,0.006802721088435374,0.006802721088435374,0.006802721088435374,0.006802721088435374,0.006802721088435374,0.006802721088435374,0.006802721088435374,0.006802721088435374],"y":[-2.857142857142857,-2.857142857142857,-2.857142857142857,-2.857142857142857,-2.857142857142857,-2.857142857142857,-2.857142857142857,-2.857142857142857,-2.857142857142857,-2.857142857142857,-2.857142857142857,-2.857142857142857,-2.857142857142857,-2.857142857142857,-2.857142857142857,-2.857142857142857,-2.857142857142857,-2.857142857142857,-2.857142857142857,-2.857142857142857,-2.857142857142857,-2.857142857142857,-2.857142857142857,-2.857142857142857,-2.857142857142857,-2.857142857142857,-2.857142857142857,-2.857142857142857,-2.857142857142857,-2.857142857142857,-2.857142857142857,-2.857142857142857,-2.857142857142857,-2.857142857142857,-2.857142857142857,-2.857142857142857,-2.857142857142857,-2.857142857142857,-2.857142857142857,-2.857142857142857,-2.857142857142857,-2.857142857142857,-2.857142857142857,-2.857142857142857,-2.857142857142857,-2.857142857142857,-2.857142857142857,-2.857142857142857,-2.857142857142857,-2.857142857142857,-2.857142857142857,-2.857142857142857,-2.857142857142857,-2.857142857142857,-2.857142857142857,-2.857142857142857,-2.857142857142857,-2.857142857142857,-2.857142857142857,-2.857142857142857,-2.857142857142857,-2.857142857142857,-2.857142857142857,-2.857142857142857,-2.857142857142857,-2.857142857142857,-2.857142857142857,-2.857142857142857,-2.857142857142857,-2.857142857142857,-2.857142857142857,-2.857142857142857,-2.857142857142857,-2.857142857142857,-2.857142857142857,-2.857142857142857,-2.857142857142857,-2.857142857142857,-2.857142857142857,-2.857142857142857,-2.857142857142857,-2.857142857142857,-2.857142857142857,-2.857142857142857,-2.857142857142857,-2.857142857142857,-2.857142857142857,-2.857142857142857,-2.857142857142857,-2.857142857142857,-2.857142857142857,-2.857142857142857,-2.857142857142857,-2.857142857142857,-2.857142857142857,-2.857142857142857,-2.857142857142857,-2.857142857142857,-2.857142857142857,-2.857142857142857,-2.857142857142857,-2.857142857142857,-2.857142857142857,-2.857142857142857,-2.857142857142857,-2.857142857142857,-2.857142857142857,-2.857142857142857,-2.857142857142857,-2.857142857142857,-2.857142857142857,-2.857142857142857,-2.857142857142857,-2.857142857142857,-2.857142857142857,-2.857142857142857,-2.857142857142857,-2.857142857142857,-2.857142857142857,-2.857142857142857,-2.857142857142857,-2.857142857142857,-2.857142857142857,-2.857142857142857,-2.857142857142857,-2.857142857142857,-2.857142857142857,-2.857142857142857,-2.857142857142857,-2.857142857142857,-2.857142857142857,-2.857142857142857,-2.857142857142857,-2.857142857142857,-2.857142857142857,-2.857142857142857,-2.857142857142857,-2.857142857142857,-2.857142857142857,-2.857142857142857,-2.857142857142857,-2.857142857142857,-2.857142857142857,-2.857142857142857,-2.857142857142857,-2.857142857142857,-2.857142857142857,-2.857142857142857,-2.857142857142857,-2.857142857142857,-2.857142857142857,-2.857142857142857,0.14761904761904762,0.15714285714285714,0.15714285714285714,0.16666666666666666,0.16666666666666666,0.16666666666666666,0.16666666666666666,0.1761904761904762,0.1761904761904762,0.1761904761904762,0.1761904761904762,0.1761904761904762,0.1761904761904762,0.1761904761904762,0.1761904761904762,0.1761904761904762,0.1761904761904762,0.1761904761904762,0.1761904761904762,0.1761904761904762,0.1761904761904762,0.1761904761904762,0.1761904761904762,0.1761904761904762,0.1761904761904762,0.1761904761904762,0.1761904761904762,0.1761904761904762,0.1761904761904762,0.1761904761904762,0.1761904761904762,0.1761904761904762,0.1761904761904762,0.19523809523809524,0.20476190476190476,0.22380952380952382,0.2904761904761905,0.35714285714285715,0.49047619047619045,0.6523809523809524,0.7,0.7476190476190476,0.7952380952380952,0.8047619047619048,0.8142857142857143,0.8238095238095238,0.8333333333333334,0.8333333333333334,0.8428571428571429,0.8428571428571429,0.8523809523809524,0.8523809523809524,0.8809523809523809,0.9285714285714286,0.9476190476190476,0.8714285714285714,0.8047619047619048,0.7761904761904762,0.8047619047619048,0.8047619047619048,0.8047619047619048,0.8047619047619048,0.8047619047619048,0.8047619047619048,0.8047619047619048,0.8047619047619048,0.8047619047619048,0.8047619047619048,0.8047619047619048,0.8047619047619048,0.8047619047619048,0.8047619047619048,0.8047619047619048,0.8047619047619048,0.8047619047619048,0.8047619047619048,0.8047619047619048,0.8047619047619048,0.8142857142857143,0.861904761904762,0.9095238095238095,0.9380952380952381,0.9476190476190476,0.9571428571428572,0.9571428571428572,0.9666666666666667,0.9857142857142858,0.9857142857142858,0.9952380952380953,0.9952380952380953,0.9952380952380953,0.9952380952380953,0.9952380952380953,0.9952380952380953,0.9952380952380953,0.9952380952380953,0.9952380952380953,0.9952380952380953,0.9952380952380953,0.9952380952380953,0.9952380952380953,0.9952380952380953,0.9857142857142858,0.9857142857142858,0.9857142857142858,0.9857142857142858,0.9857142857142858,0.9857142857142858,0.9857142857142858,0.9857142857142858,0.9857142857142858,0.9857142857142858,0.9857142857142858,0.9857142857142858,0.9857142857142858,0.9857142857142858,0.9857142857142858,0.9857142857142858,0.9857142857142858,0.9857142857142858,0.9857142857142858,0.9857142857142858,0.9857142857142858,0.9857142857142858,0.9857142857142858,0.9857142857142858,0.9857142857142858,0.9857142857142858,0.9857142857142858,0.9857142857142858,0.9857142857142858,0.9857142857142858,0.9857142857142858,0.9857142857142858,0.9857142857142858,0.9857142857142858,0.9857142857142858,0.9857142857142858,0.9857142857142858,0.9857142857142858,0.9857142857142858,0.9857142857142858,0.9857142857142858,0.9857142857142858,0.9857142857142858,0.9857142857142858,0.9857142857142858,0.9857142857142858,0.9857142857142858,0.9857142857142858,0.9857142857142858,0.9857142857142858,0.9857142857142858,0.9857142857142858,0.9857142857142858,0.9857142857142858,0.9857142857142858,0.9857142857142858,0.9857142857142858,0.9857142857142858,0.9857142857142858,0.9857142857142858,0.9857142857142858,0.9857142857142858,0.7571428571428571,0.44285714285714284,-0.07142857142857142,-0.2904761904761905,-0.46190476190476193,-0.5857142857142857,-0.6333333333333333,-0.6333333333333333,-0.6333333333333333,-0.6333333333333333,-0.6333333333333333,-0.6333333333333333,-0.6333333333333333,-0.6333333333333333,-0.6333333333333333,-0.6333333333333333,-0.6333333333333333,-0.6333333333333333,-0.6333333333333333,-0.6333333333333333,-0.6333333333333333,-0.6333333333333333,-0.6333333333333333,-0.6333333333333333,-0.6333333333333333,-0.6333333333333333,-0.6333333333333333,-0.6333333333333333,-0.6333333333333333,-0.6333333333333333,-0.6333333333333333,-0.6333333333333333,-0.5190476190476191,-0.46190476190476193,-0.4523809523809524,-0.44285714285714284,-0.3952380952380952,-0.35714285714285715,-0.30952380952380953,-0.15714285714285714,-0.08095238095238096,-0.04285714285714286,-0.03333333333333333,-0.023809523809523808,-0.023809523809523808,-0.023809523809523808,-0.023809523809523808,-0.023809523809523808,-0.023809523809523808,-0.023809523809523808,-0.023809523809523808,-0.023809523809523808,-0.023809523809523808,-0.023809523809523808,-0.023809523809523808,-0.023809523809523808,-0.04285714285714286,-0.05238095238095238,-0.05238095238095238,-0.05238095238095238,-0.04285714285714286,-0.04285714285714286,-0.04285714285714286,-0.04285714285714286,-0.04285714285714286,-0.04285714285714286,-0.04285714285714286,-0.04285714285714286,-0.04285714285714286,-0.04285714285714286,-0.04285714285714286,-0.04285714285714286,-0.04285714285714286,-0.04285714285714286,-0.04285714285714286,-0.04285714285714286,-0.04285714285714286,-0.04285714285714286,-0.04285714285714286,-0.04285714285714286,-0.04285714285714286,-0.04285714285714286,-0.04285714285714286,-0.04285714285714286,-0.04285714285714286,-0.04285714285714286,-0.04285714285714286,-0.04285714285714286,-0.04285714285714286,-0.04285714285714286,-0.04285714285714286,-0.04285714285714286,-0.04285714285714286,-0.04285714285714286,-0.04285714285714286,-0.04285714285714286,-0.04285714285714286,-0.04285714285714286,-0.04285714285714286,-0.04285714285714286,-0.04285714285714286,-0.04285714285714286,-0.04285714285714286,-0.04285714285714286,-0.04285714285714286,-0.04285714285714286,-0.04285714285714286,-0.04285714285714286,-0.04285714285714286,-0.04285714285714286,-0.04285714285714286,-0.04285714285714286,-0.04285714285714286,-0.04285714285714286,-0.04285714285714286,-0.04285714285714286,-0.04285714285714286,-0.04285714285714286,-0.04285714285714286,-0.04285714285714286,-0.04285714285714286,-0.04285714285714286,-0.04285714285714286,-0.04285714285714286,-0.04285714285714286,-0.04285714285714286,-0.04285714285714286,-0.04285714285714286,-0.04285714285714286,-0.04285714285714286,-0.04285714285714286,-0.04285714285714286,-0.04285714285714286,-0.04285714285714286,-0.04285714285714286,-0.04285714285714286,0.03333333333333333,0.10952380952380952,0.23333333333333334,0.28095238095238095,0.3476190476190476,0.4142857142857143,0.4523809523809524,0.5095238095238095,0.5285714285714286,0.5476190476190477,0.5571428571428572,0.5666666666666667,0.5761904761904761,0.5857142857142857,0.6428571428571429,0.7380952380952381,0.7952380952380952,0.8333333333333334,0.8333333333333334,0.8333333333333334,0.8333333333333334,0.8142857142857143,0.8047619047619048,0.7761904761904762,0.7380952380952381,0.719047619047619,0.7,0.6619047619047619,0.5952380952380952,0.43333333333333335,0.19523809523809524,0.11904761904761904,0.03333333333333333,-0.05238095238095238,-0.11904761904761904,-0.1380952380952381,-0.1761904761904762,-0.20476190476190476,-0.23333333333333334,-0.2714285714285714,-0.28095238095238095,-0.28095238095238095,-0.28095238095238095,-0.2904761904761905,-0.2904761904761905,-0.2904761904761905,-0.28095238095238095,-0.23333333333333334,-0.21428571428571427,-0.18571428571428572,-0.1761904761904762,-0.1761904761904762,-0.1761904761904762,-0.1761904761904762,-0.1761904761904762,-0.1761904761904762,-0.1761904761904762,-0.1761904761904762,-0.1761904761904762,-0.1761904761904762,-0.1761904761904762,-0.1761904761904762,-0.16666666666666666,-0.16666666666666666,-0.15714285714285714,-0.15714285714285714,-0.15714285714285714,-0.15714285714285714,-0.15714285714285714,-0.15714285714285714,-0.15714285714285714,-0.15714285714285714,-0.15714285714285714,-0.15714285714285714,-0.15714285714285714,-0.15714285714285714,-0.15714285714285714,-0.15714285714285714,-0.15714285714285714,-0.15714285714285714,-0.15714285714285714,-0.15714285714285714,-0.14761904761904762,-0.12857142857142856,-0.12857142857142856,-0.12857142857142856,-0.11904761904761904,-0.11904761904761904,-0.11904761904761904,-0.11904761904761904,-0.10952380952380952,-0.10952380952380952,-0.1,-0.09047619047619047,-0.06190476190476191,-0.04285714285714286,-0.023809523809523808,-0.014285714285714285,-0.014285714285714285,-0.014285714285714285,-0.014285714285714285,-0.014285714285714285,-0.014285714285714285,-0.014285714285714285,-0.014285714285714285,-0.014285714285714285,-0.014285714285714285,-0.014285714285714285,-0.014285714285714285,-0.014285714285714285,-0.014285714285714285,-0.014285714285714285,-0.014285714285714285,-0.014285714285714285,-0.014285714285714285,-0.014285714285714285,-0.014285714285714285,-0.014285714285714285,-0.014285714285714285,-0.014285714285714285,-0.014285714285714285,-0.014285714285714285,-0.014285714285714285,-0.014285714285714285,-0.014285714285714285,-0.014285714285714285,-0.014285714285714285,-0.014285714285714285,-0.014285714285714285,-0.014285714285714285,-0.014285714285714285,-0.014285714285714285,-0.014285714285714285,-0.014285714285714285,-0.014285714285714285,-0.014285714285714285,-0.014285714285714285,-0.014285714285714285,-0.014285714285714285,-0.014285714285714285,-0.014285714285714285,-0.014285714285714285,-0.014285714285714285,-0.014285714285714285,-0.014285714285714285,-0.014285714285714285,-0.014285714285714285,-0.014285714285714285,-0.014285714285714285,-0.014285714285714285,-0.014285714285714285,-0.014285714285714285,-0.014285714285714285,-0.014285714285714285,-0.014285714285714285,-0.014285714285714285,-0.014285714285714285,-0.014285714285714285,-0.014285714285714285,-0.014285714285714285,-0.014285714285714285,-0.014285714285714285,-0.014285714285714285,-0.014285714285714285,-0.014285714285714285,-0.014285714285714285,-0.014285714285714285,-0.014285714285714285,-0.014285714285714285,-0.014285714285714285,-0.014285714285714285,-0.014285714285714285,-0.014285714285714285,-0.014285714285714285,-0.014285714285714285,-0.014285714285714285,-0.014285714285714285,-0.014285714285714285,-0.014285714285714285,-0.014285714285714285,-0.014285714285714285,-0.014285714285714285,-0.014285714285714285,-0.014285714285714285,-0.014285714285714285,-0.014285714285714285,-0.014285714285714285,-0.014285714285714285,-0.014285714285714285,-0.014285714285714285,-0.014285714285714285,-0.014285714285714285,-0.014285714285714285,-0.014285714285714285,-0.014285714285714285,-0.014285714285714285,-0.014285714285714285,-0.014285714285714285,-0.014285714285714285,-0.014285714285714285,-0.014285714285714285,-0.014285714285714285,-0.014285714285714285,-0.014285714285714285,-0.014285714285714285,-0.014285714285714285,-0.014285714285714285,0.5222223191034226,0.5222223191034226,0.5222223191034226,0.5190476190476191,0.5190476190476191,0.5190476190476191,0.5190476190476191,0.5190476190476191,0.5190476190476191,0.5190476190476191,0.5190476190476191,0.5190476190476191,0.5190476190476191,0.5190476190476191,0.5190476190476191,0.5190476190476191,0.5190476190476191,0.5190476190476191,0.5190476190476191,0.5190476190476191,0.5190476190476191,0.5190476190476191,0.5190476190476191,0.5190476190476191,0.5190476190476191,0.5190476190476191,0.5190476190476191,0.5190476190476191,0.5190476190476191,0.5190476190476191,0.5190476190476191,0.5190476190476191,0.5190476190476191,0.5190476190476191,0.5190476190476191,0.5190476190476191,0.5190476190476191,0.5190476190476191,0.5190476190476191,0.5190476190476191,0.5190476190476191,0.5190476190476191,0.5190476190476191,0.5190476190476191,0.5190476190476191,0.5190476190476191,0.5190476190476191,0.5190476190476191,0.5190476190476191,0.5190476190476191,0.5190476190476191,0.5190476190476191,0.5190476190476191,0.5190476190476191,0.5190476190476191,0.5190476190476191,0.5190476190476191,0.5190476190476191,0.5190476190476191,0.5190476190476191,0.5190476190476191,0.5190476190476191,0.5190476190476191,0.5190476190476191,-0.06825387137276785,-0.06825387137276785,-0.06825387137276785,-0.06825387137276785,-0.07142857142857142,-0.07142857142857142,-0.07142857142857142,-0.07142857142857142,-0.07142857142857142,-0.07142857142857142,-0.07142857142857142,-0.07142857142857142,-0.07142857142857142,-0.07142857142857142,-0.07142857142857142,-0.07142857142857142,-0.07142857142857142,-0.07142857142857142,-0.07142857142857142,-0.07142857142857142,-0.07142857142857142,-0.07142857142857142,-0.07142857142857142,-0.07142857142857142,-0.07142857142857142,-0.07142857142857142,-0.07142857142857142,-0.07142857142857142,-0.07142857142857142,-0.07142857142857142,-0.07142857142857142,-0.07142857142857142,-0.07142857142857142,-0.07142857142857142,-0.07142857142857142,-0.07142857142857142,-0.07142857142857142,-0.07142857142857142,-0.07142857142857142,-0.07142857142857142,-0.07142857142857142,-0.07142857142857142,-0.07142857142857142,-0.07142857142857142,-0.07142857142857142,-0.07142857142857142,-0.07142857142857142,-0.07142857142857142,-0.07142857142857142,-0.07142857142857142,-0.07142857142857142,-0.07142857142857142,-0.07142857142857142,-0.07142857142857142,-0.07142857142857142,-0.07142857142857142,-0.07142857142857142,-0.07142857142857142,-0.07142857142857142,-0.07142857142857142,-0.07142857142857142,-0.07142857142857142,-0.07142857142857142,-0.07142857142857142,-0.07142857142857142,-0.07142857142857142,-0.07142857142857142,-0.07142857142857142,-0.07142857142857142,-0.07142857142857142,-0.07142857142857142,-0.07142857142857142,-0.07142857142857142,-0.07142857142857142,-0.07142857142857142,-0.07142857142857142,-0.07142857142857142,-0.07142857142857142,-0.07142857142857142,-0.07142857142857142,-0.07142857142857142,-0.07142857142857142,-0.07142857142857142,-0.07142857142857142,-0.07142857142857142,-0.07142857142857142,-0.07142857142857142,-0.07142857142857142,-0.07142857142857142,-0.07142857142857142,-0.07142857142857142,-0.07142857142857142,-0.07142857142857142,-0.07142857142857142,-0.07142857142857142,-0.07142857142857142,-0.07142857142857142,-0.07142857142857142,-0.07142857142857142,-0.07142857142857142,-0.07142857142857142,-0.07142857142857142,-0.07142857142857142,-0.07142857142857142,-0.07142857142857142,-0.07142857142857142,-0.07142857142857142,-0.07142857142857142,-0.07142857142857142,-0.07142857142857142,-0.07142857142857142,-0.07142857142857142,-0.07142857142857142,-0.07142857142857142,-0.07142857142857142,-0.07142857142857142,-0.07142857142857142,-0.07142857142857142,-0.07142857142857142,-0.07142857142857142,-0.07142857142857142,-0.07142857142857142,-0.07142857142857142,-0.07142857142857142,-0.07142857142857142]},"final_keyboard_state":["Z","E","B","R","A"],"num_clicks":5,"points":15,"cheat":false,"trial_type":"Hangman","trial_index":5,"time_elapsed":49341,"internal_node_id":"0.0-4.0","protocol_sum":"","subject_identifier":210,"subject_sum":[18,83,233,55,62,120,27,117,0,38,108,170,85,21,14,8,226,16,188,140,216,204,112,216,153,133,227,96,1,85,232,96],"subject_pair":105,"STUDY_ID":"669eec2e4270c76bc184a38e","PROLIFIC_PID":"6693ba811180149dc7f652c7","SESSION_ID":"669f90054d07dc2842aef76f","practice_instructions":1,"leaderboard_instructions":0,"bonus":1,"reveal_word":false,"self_rating":"1","confidence":"90"},{"view_history":"[{\"page_index\":0,\"viewing_time\":3464.7999999523163},{\"page_index\":1,\"viewing_time\":10977.700000047684}]","rt":14443,"trial_type":"instructions","trial_index":6,"time_elapsed":63787,"internal_node_id":"0.0-5.0","protocol_sum":"","subject_identifier":210,"subject_sum":[18,83,233,55,62,120,27,117,0,38,108,170,85,21,14,8,226,16,188,140,216,204,112,216,153,133,227,96,1,85,232,96],"subject_pair":105,"STUDY_ID":"669eec2e4270c76bc184a38e","PROLIFIC_PID":"6693ba811180149dc7f652c7","SESSION_ID":"669f90054d07dc2842aef76f","practice_instructions":1,"leaderboard_instructions":0,"bonus":1,"reveal_word":false,"self_rating":"1","confidence":"90"},{"rt":19889.100000023842,"responses":"{\"Q0\":\"...from <b>a previous session</b> that is part of the upcoming tournament.\"}","question_order":"[0]","trial_type":"survey-multi-choice","trial_index":7,"time_elapsed":83678,"internal_node_id":"0.0-6.0","protocol_sum":"","subject_identifier":210,"subject_sum":[18,83,233,55,62,120,27,117,0,38,108,170,85,21,14,8,226,16,188,140,216,204,112,216,153,133,227,96,1,85,232,96],"subject_pair":105,"correct":false,"test_part":"multichoice_leaderboard","STUDY_ID":"669eec2e4270c76bc184a38e","PROLIFIC_PID":"6693ba811180149dc7f652c7","SESSION_ID":"669f90054d07dc2842aef76f","practice_instructions":1,"leaderboard_instructions":0,"bonus":1,"reveal_word":false,"self_rating":"1","confidence":"90"},{"view_history":"[{\"page_index\":0,\"viewing_time\":4653.5}]","rt":4653.799999952316,"trial_type":"instructions","trial_index":8,"time_elapsed":88333,"internal_node_id":"0.0-7.0-0.0","protocol_sum":"","subject_identifier":210,"subject_sum":[18,83,233,55,62,120,27,117,0,38,108,170,85,21,14,8,226,16,188,140,216,204,112,216,153,133,227,96,1,85,232,96],"subject_pair":105,"STUDY_ID":"669eec2e4270c76bc184a38e","PROLIFIC_PID":"6693ba811180149dc7f652c7","SESSION_ID":"669f90054d07dc2842aef76f","practice_instructions":1,"leaderboard_instructions":0,"bonus":1,"reveal_word":false,"self_rating":"1","confidence":"90"},{"rt":8864.600000023842,"responses":"{\"Q0\":\"...from <b>a previous session</b> that is not part of the upcoming tournament.\"}","question_order":"[0]","trial_type":"survey-multi-choice","trial_index":9,"time_elapsed":97199,"internal_node_id":"0.0-7.0-1.0","protocol_sum":"","subject_identifier":210,"subject_sum":[18,83,233,55,62,120,27,117,0,38,108,170,85,21,14,8,226,16,188,140,216,204,112,216,153,133,227,96,1,85,232,96],"subject_pair":105,"correct":true,"test_part":"multichoice_leaderboard","STUDY_ID":"669eec2e4270c76bc184a38e","PROLIFIC_PID":"6693ba811180149dc7f652c7","SESSION_ID":"669f90054d07dc2842aef76f","practice_instructions":1,"leaderboard_instructions":0,"bonus":1,"reveal_word":false,"self_rating":"1","confidence":"90"},{"view_history":"[{\"page_index\":0,\"viewing_time\":24078.700000047684}]","rt":24079,"trial_type":"instructions","trial_index":10,"time_elapsed":121280,"internal_node_id":"0.0-8.0","protocol_sum":"","subject_identifier":210,"subject_sum":[18,83,233,55,62,120,27,117,0,38,108,170,85,21,14,8,226,16,188,140,216,204,112,216,153,133,227,96,1,85,232,96],"subject_pair":105,"STUDY_ID":"669eec2e4270c76bc184a38e","PROLIFIC_PID":"6693ba811180149dc7f652c7","SESSION_ID":"669f90054d07dc2842aef76f","practice_instructions":1,"leaderboard_instructions":0,"bonus":1,"reveal_word":false,"self_rating":"1","confidence":"90"},{"rt":9226,"responses":"{\"Q0\":\"...players' leaderboard position (in terms of <b>points</b>) in an <b>upcoming tournament.</b>\"}","question_order":"[0]","trial_type":"survey-multi-choice","trial_index":11,"time_elapsed":130508,"internal_node_id":"0.0-9.0","protocol_sum":"","subject_identifier":210,"subject_sum":[18,83,233,55,62,120,27,117,0,38,108,170,85,21,14,8,226,16,188,140,216,204,112,216,153,133,227,96,1,85,232,96],"subject_pair":105,"correct":true,"test_part":"multichoice_tournament","STUDY_ID":"669eec2e4270c76bc184a38e","PROLIFIC_PID":"6693ba811180149dc7f652c7","SESSION_ID":"669f90054d07dc2842aef76f","practice_instructions":1,"leaderboard_instructions":0,"bonus":1,"reveal_word":false,"self_rating":"1","confidence":"90"},{"view_history":"[{\"page_index\":0,\"viewing_time\":3642}]","rt":3642.3000000715256,"trial_type":"instructions","trial_index":12,"time_elapsed":134151,"internal_node_id":"0.0-11.0","protocol_sum":"","subject_identifier":210,"subject_sum":[18,83,233,55,62,120,27,117,0,38,108,170,85,21,14,8,226,16,188,140,216,204,112,216,153,133,227,96,1,85,232,96],"subject_pair":105,"STUDY_ID":"669eec2e4270c76bc184a38e","PROLIFIC_PID":"6693ba811180149dc7f652c7","SESSION_ID":"669f90054d07dc2842aef76f","practice_instructions":1,"leaderboard_instructions":0,"bonus":1,"reveal_word":false,"self_rating":"1","confidence":"90"},{"view_history":"[{\"page_index\":0,\"viewing_time\":9012.899999976158}]","rt":9013.200000047684,"trial_type":"instructions","trial_index":13,"time_elapsed":143165,"internal_node_id":"0.0-12.0-0.0","protocol_sum":"","subject_identifier":210,"subject_sum":[18,83,233,55,62,120,27,117,0,38,108,170,85,21,14,8,226,16,188,140,216,204,112,216,153,133,227,96,1,85,232,96],"subject_pair":105,"STUDY_ID":"669eec2e4270c76bc184a38e","PROLIFIC_PID":"6693ba811180149dc7f652c7","SESSION_ID":"669f90054d07dc2842aef76f","practice_instructions":1,"leaderboard_instructions":0,"bonus":1,"reveal_word":false,"self_rating":"1","confidence":"90"},{"word":"WRIST","click_log":{"letter":["","A","H","L","S","P","E","W","R","I","T"],"t":[0,27227,34421.59999990463,39749.5,44862.199999928474,48642.299999952316,60350.299999952316,61614.59999990463,71524.5,75803.19999992847,79916.59999990463],"hit":[null,0,0,0,1,0,0,1,1,1,1],"asked":["","A","AH","AHL","AHLS","AHLSP","AHLSPE","AHLSPEW","AHLSPEWR","AHLSPEWRI","AHLSPEWRIT"],"word_state":["_____","_____","_____","_____","___S_","___S_","___S_","W__S_","WR_S_","WRIS_","WRIST"]},"hover_log":{"letter":["?","?","?","?","?","?","?","?","?","?","?","?","?","?","?","?","?","?","?","?","?","?","?","?","?","?","?","?","?","?","?","?","?","?","?","?","?","?","?","?","?","?","?","?","?","?","?","?","?","?","?","?","?","?","?","?","?","?","?","?","?","?","?","?","?","?","?","?","?","?","?","?","?","?","?","?","?","?","?","?","?","?","?","?","?","?","?","?","?","?","?","?","?","?","?","?","?","?","?","?","?","?","?","?","?","?","?","?","?","?","?","?","?","?","?","?","?","?","?","?","?","?","?","?","?","?","?","?","?","?","?","?","?","?","?","?","?","?","?","?","?","?","?","?","?","?","?","?","?","?","?","?","?","?","?","?","?","?","?","?","?","?","?","?","?","?","?","?","?","?","?","?","?","?","?","?","?","?","?","?","?","?","?","?","?","?","?","?","?","?","?","?","?","?","?","?","?","?","?","?","?","?","?","?","?","?","?","?","?","?","?","?","?","?","?","?","?","?","?","?","?","?","?","?","?","?","?","?","?","?","?","?","?","?","?","?","?","?","?","?","?","?","?","?","?","?","?","?","?","?","?","?","?","?","?","?","?","?","?","?","?","?","?","?","?","?","?","?","?","?","?","?","?","?","?","?","?","?","?","?","?","?","?","?","?","?","?","?","?","?","?","?","?","?","?","?","?","?","?","?","?","?","?","?","?","?","?","?","?","?","?","?","?","?","?","?","?","?","?","?","?","?","?","?","?","?","?","?","?","?","?","?","?","?","?","?","?","?","?","?","?","?","?","?","?","?","?","?","?","?","?","?","?","?","?","?","?","?","?","?","?","?","?","?","?","?","?","?","?","?","?","?","?","?","?","?","?","?","?","?","?","?","?","?","?","?","?","?","?","?","?","?","?","?","?","?","?","?","?","?","?","?","?","?","?","?","?","?","?","?","?","?","?","?","?","?","?","?","?","?","?","?","?","?","?","?","?","?","?","?","?","?","?","?","?","?","?","?","?","?","?","?","?","?","?","?","?","?","?","?","?","?","?","?","?","?","?","?","?","?","?","?","?","?","?","?","?","?","?","?","?","?","?","?","?","?","?","?","?","?","?","?","?","?","?","?","?","?","?","?","?","?","?","?","?","?","?","?","?","?","?","?","?","?","?","?","?","?","?","?","?","?","?","?","?","?","?","?","?","?","?","?","?","?","?","?","?","?","?","?","?","?","?","?","?","?","?","?","?","?","?","?","?","?","?","?","?","?","?","?","?","?","?","?","?","?","?","?","?","?","?","?","?","?","?","?","?","?","?","?","?","?","?","?","?","?","?","?","?","?","?","?","?","?","?","?","?","?","?","?","?","?","?","?","?","?","?","?","?","?","?","?","?","?","?","?","?","?","?","?","?","?","?","?","?","?","?","?","?","?","?","?","?","?","?","?","?","?","?","?","?","?","?","?","?","?","?","?","?","?","?","?","?","?","?","?","?","?","?","?","?","?","?","?","?","?","?","?","?","?","?","?","?","?","?","?","?","?","?","?","?","?","?","?","?","?","?","?","?","?","?","?","?","?","?","?","?","?","?","?","?","?","?","?","?","?","?","?","?","?","?","?","?","?","?","?","?","?","?","?","?","?","?","?","?","?","?","?","?","?","?","?","?","?","?","?","?","?","?","?","?","?","?","?","?","?","?","?","?","?","?","?","?","?","?","?","?","?","?","?","?","?","?","?","?","?","?","?","?","?","?","?","?","?","?","?","?","?","?","?","?","?","?","?","?","?","?","?","?","?","?","?","?","?","?","?","?","?","?","?","?","?","?","?","?","?","?","?","?","?","?","?","?","?","?","?","?","?","?","?","?","?","?","?","?","?","?","?","?","?","?","?","?","?","?","?","?","?","?","?","?","?","?","?","?","?","?","?","?","?","?","?","?","?","?","?","?","?","?","?","?","?","?","?","?","?","?","?","?","?","?","?","?","?","?","?","?","?","?","?","?","?","?","?","?","?","?","?","?","?","?","?","?","?","?","?","?","?","?","?","?","?","?","?","?","?","?","?","?","?","?","?","?","?","?","?","?","?","?","?","?","?","?","?","?","?","?","?","?","?","?","?","?","?","?","?","?","?","?","?","?","?","?","?","?","?","?","?","?","?","?","?","?","?","?","?","?","?","?","?","?","?","?","?","?","?","?","?","?","?","?","?","?","?","?","?","?","?","?","?","?","?","?","?","?","?","?","?","?","?","?","?","?","?","?","?","?","?","?","?","?","?","?","?","?","?","?","?","?","?","?","?","?","?","?","?","?","?","?","?","?","?","?","?","?","?","?","?","?","?","?","?","?","?","?","?","?","?","?","?","?","?","?","?","?","?","?","?","?","?","?","?","?","?","?","?","?","?","?","?","?","?","?","?","?","?","?","?","?","?","?","?","?","?","?","?","?","?","?","?","?","?","?","?","?","?","?","?","?","?","?","?","?","?","?","?","?","?","?","?","?","?","?","?","?","?","?","?","?","?","?","?","?","?","?","?","?","?","?","?","?","?","?","?","?","?","?","?","?","?","?","?","?","?","?","?","?","?","?","?","?","?","?","?","?","?","?","?","?","?","?","?","?","?","?","?","?","?","?","?","?","?","?","?","?","?","?","?","?","?","?","?","?","?","?","?","?","?","?","?","?","?","?","?","?","?","?","?","?","?","?","?","?","?","?","?","?","?","?","?","?","?","?","?","?","?","?","?","?","?","?","?","?","?","?","?","?","?","?","?","?","?","?","?","?","?","?","?","?","?","?","?","?","?","?","?","?","?","?","?","?","?","?","?","?","?","?","?","?","?","?","?","?","?","?","?","?","?","?","?","?","?","?","?","?","?","?","?","?","?","?","?","?","?","?","?","?","?","?","?","?","?","?","?","?","?","?","?","?","?","?","?","?","?","?","?","?","?","?","?","?","?","?","?","?","?","?","?","?","?","?","?","?","?","?","?","?","?","?","?","?","?","?","?","?","?","?","?","?","?","?","?","?","?","?","?","?","?","?","?","?","?","?","?","?","?","?","?","?","?","?","?","?","?","?","?","?","?","?","?","?","?","?","?","?","?","?","?","?","?","?","?","?","?","?","?","?","?","?","?","?","?","?","?","?","?","?","?","?","?","?","?","?","?","?","?","?","?","?","?","?","?","?","?","?","?","?","?","?","?","?","?","?","?","?","?","?","?","?","?","?","?","?","?","?","?","?","?","?","?","?","?","?","?","?","?","?","?","?","?","?","?","?","?","?","?","?","?","?","?","?","?","?","?","?","?","?","?","?","?","?","?","?","?","?","?","?","?","?","?","?","?","?","?","?","?","?","?","?","?","?","?","?","?","?","?","?","?","?","?","?","?","?","?","?","?","?","?","?","?","?","?","?","?","?","?","?","?","?","?","?","?","?","?","?","?","?","?","?","?","?","?","?","?","?","?","?","?","?","?","?","?","?","?","?","?","?","?","?","?","?","?","?","?","?","?","?","?","?","?","?","?","?","?","?","?","?","?","?","?","?","?","?","?","?","?","?","?","?","?","?","?","?","?","?","?","?","?","?","?","?","?","?","?","?","?","?","?","?","?","?","?","?","?","?","?","?","?","?","?","?","?","?","?","?","?","?","?","?","?","?","?","?","?","?","?","?","?","?","?","?","?","?","?","?","?","?","?","?","?","?","?","?","?","?","?","?","?","?","?","?","?","?","?","?","?","?","?","?","?","?","?","?","?","?","?","?","?","?","?","?","?","?","?","?","?","?","?","?","?","?","?","?","?","?","?","?","?","?","?","?","?","?","?","?","?","?","?","?","?","?","?","?","?","?","?","?","?","?","?","?","?","?","?","?","?","?","?","?","?","?","?","?","?","?","?","?","?","?","?","?","?","?","?","?","?","?","?","?","?","?","?","?","?","?","?","?","?","?","?","?","?","?","?","?","?","?","?","?","?","?","?","?","?","?","?","?","?","?","?","?","?","?","?","?","?","?","?","?","?","?","?","?","?","?","?","?","?","?","?","?","?","?","?","?","?","?","?","?","?","?","?","?","?","?","?","?","?","?","?","?","?","?","?","?","?","?","?","?","?","?","?","?","?","?","?","?","?","?","?","?","?","?","?","?","?","?","?","?","?","?","?","?","?","?","?","?","?","?","?","?","?","?","?","?","?","?","?","?","?","?","?","?","?","?","?","?","?","?","?","?","?","?","?","?","?","?","?","?","?","?","?","?","?","?","?","?","?","?","?","?","?","?","?","?","?","?","?","?","?","?","?","?","?","?","?","?","?","?","?","?","?","?","?","?","?","?","?","?","?","?","?","?","?","?","?","?","?","?","?","?","?","?","?","?","?","?","?","?","?","?","?","?","?","?","?","?","?","?","?","?","?","?","?","?","?","?","?","?","?","?","?","?","?","?","?","?","?","?","?","?","?","?","?","?","?","?","?","?","?","?","?","?","?","?","?","?","?","?","?","?","?","?","?","?","?","?","?","?","?","?","?","?","?","?","?","?","?","?","?","?","?","?","?","?","?","?","?","?","?","?","?","?","?","?","?","?","?","?","?","?","?","?","?","?","?","?","?","?","?","?","?","?","?","?","?","?","?","?","?","?","?","?","?","?","?","?","?","?","?","?","?","?","?","?","?","?","?","?","?","?","?","?","?","?","?","?","?","?","?","?","?","?","?","?","?","?","?","?","?","?","?","?","?","?","?","?","?","?","?","?","?","?","?","?","?","?","?","?","?","?","?","?","?","?","?","?","?","?","?","?","?","?","?","?","?","?","?","?","?","?","?","?","?","?","?","?","?","?","?","?","?","?","?","?","?","?","?","?","?","?","?","?","?","?","?","?","?","?","?","?","?","?","?","?","?","?","?","?","?","?","?","?","?","?","?","?","?","?","?","?","?","?","?","?","?","?","?","?","?","?","?","?","?","?","?","?","?","?","?","?","?","?","?","?","?","?","?","?","?","?","?","?","?","?","?","?","?","?","?","?","?","?","?","?","?","?","?","?","?","?","?","?","?","?","?","?","?","?","?","?","?","?","?","?","?","?","?","?","?","?","?","?","?","?","?","?","?","?","?","?","?","?","?","?","?","?","?","?","?","?","?","?","?","?","?","?","?","?","?","?","?","?","?","?","?","?","?","?","?","?","?","?","?","?","?","?","?","?","?","?","?","?","?","?","?","?","?","?","?","?","?","?","?","?","?","?","?","?","?","?","?","?","?","?","?","?","?","?","?","?","?","?","?","?","?","?","?","?","?","?","?","?","?","?","?","?","?","?","?","?","?","?","?","?","?","?","?","?","?","?","?","?","?","?","?","?","?","?","?","?","?","?","?","?","?","?","?","?","?","?","?","?","?","?","?","?","?","?","?","?","?","?","?","?","?","?","?","?","?","?","?","?","?","?","?","?","?","?","?","?","?","?","?","?","?","?","?","?","?","?","?","?","?","?","?","?","?","?","?","?","?","?","?","?","?","?","?","?","?","?","?","?","?","?","?","?","?","?","?","?","?","?","?","?","?","?","?","?","?","?","?","?","?","?","?","?","?","?","?","?","?","?","?","?","?","?","?","?","?","?","?","?","?","?","?","?","?","?","?","?","?","?","?","?","?","?","?","?","?","?","?","?","?","?","?","?","?","?","?","?","?","?","?","?","?","?","?","?","?","?","?","?","?","?","?","?","?","?","?","?","?","?","?","?","?","?","?","?","?","?","?","?","?","?","?","?","?","?","?","?","?","?","?","?","?","?","?","?","?","?","?","?","?","?","?","?","?","?","?","?","?","?","?","?","?","?","?","?","?","?","?","?","?","?","?","?","?","?","?","?","?","?","?","?","?","?","?","?","?","?","?","?","?","?","?","?","?","?","?","?","?","?","?","?","?","?","?","?","?","?","?","?","?","?","?","?","?","?","?","?","?","?","?","?","?","?","?","?","?","?","?","?","?","?","?","?","?","?","?","?","?","?","?","?","?","?","?","?","?","?","?","?","?","?","?","?","?","?","?","?","?","?","?","?","?","?","?","?","?","?","?","?","?","?","?","?","?","?","?","?","?","?","?","?","?","?","?","?","?","?","?","?","?","?","?","?","?","?","?","?","?","?","?","?","?","?","?","?","?","?","?","?","?","?","?","?","?","?","?","?","?","?","?","?","?","?","?","?","?","?","?","?","?","?","?","?","?","?","?","?","?","?","?","?","?","?","?","?","?","?","?","?","?","?","?","?","?","?","?","?","?","?","?","?","?","?","?","?","?","?","?","?","?","?","?","?","?","?","?","?","?","?","?","?","?","?","?","?","?","?","?","?","?","?","?","?","?","?","?","?","?","?","?","?","?","?","?","?","?","?","?","?","?","?","?","?","?","?","?","?","?","?","?","?","?","?","?","?","?","?","?","?","?","?","?","?","?","?","?","?","?","?","?","?","?","?","?","?","?","?","?","?","?","?","?","?","?","?","?","?","?","?","?","?","?","?","?","?","?","?","?","?","?","?","?","?","?","?","?","?","?","?","?","?","?","?","?","?","?","?","?","?","?","?","?","?","?","?","?","?","?","?","?","?","?","?","?","?","?","?","?","?","?","?","?","?","?","?","?","?","?","?","?","?","?","?","?","?","?","?","?","?","?","?","?","?","?","?","?","?","?","?","?","?","?","?","?","?","?","?","?","?","?","?","?","?","?","?","?","?","?","?","?","?","?","?","?","?","?","?","?","?","?","?","?","?","?","?","?","?","?","?","?","?","?","?","?","?","?","?","?","?","?","?","?","?","?","?","?","?","?","?","?","?","?","?","?","?","?","?","?","?","?","?","?","?","?","?","?","?","?","?","?","?","?","?","?","?","?","?","?","?","?","?","?","?","?","?","?","?","?","?","?","?","?","?","?","?","?","?","?","?","?","?","?","?","?","?","?","?","?","?","?","?","?","?","?","?","?","?","?","?","?","?","?","?","?","?","?","?","?","?","?","?","?","?","?","?","?","?","?","?","?","?","?","?","?","?","?","?","?","?","?","?","?","?","?","?","?","?","?","?","?","?","?","?","?","?","?","?","?","?","?","?","?","?","?","?","?","?","?","?","?","?","?","?","?","?","?","?","?","?","?","?","?","?","?","?","?","?","?","?","?","?","?","?","?","?","?","?","?","?","?","?","?","?","?","?","?","?","?","?","?","?","?","?","?","?","?","?","?","?","?","?","?","?","?","?","?","?","?","?","?","?","?","?","?","?","?","?","?","?","?","?","?","?","?","?","?","?","?","?","?","?","?","?","?","?","?","?","?","?","?","?","?","?","?","?","?","?","?","?","?","?","?","?","?","?","?","?","?","?","?","?","?","?","?","?","?","?","?","?","?","?","?","?","?","?","?","?","?","?","?","?","?","?","?","?","?","?","?","?","?","?","?","?","?","?","?","?","?","?","?","?","?","?","?","?","?","?","?","?","?","?","?","?","?","?","?","?","?","?","?","?","?","?","?","?","?","?","?","?","?","?","?","?","?","?","?","?","?","?","?","?","?","?","?","?","?","?","?","?","?","?","?","?","?","?","?","?","?","?","?","?","?","?","?","?","?","?","?","?","?","?","?","?","?","?","?","?","?","?","?","?","?","?","?","?","?","?","?","?","?","?","?","?","?","?","?","?","?","?","?","?","?","?","?","?","?","?","?","?","?","?","?","?","?","?","?","?","?","?","?","?","?","?","?","?","?","?","?","?","?","?","?","?","?","?","?","?","?","?","?","?","?","?","?","?","?","?","?","?","?","?","?","?","?","?","?","?","?","?","?","?","?","?","?","?","?","?","?","?","?","?","?","?","?","?","?","?","?","?","?","?","?","?","?","?","?","?","?","?","?","?","?","?","?","?","?","?","?","?","?","?","?","?","?","?","?","?","?","?","?","?","?","?","?","?","?","?","?","?","?","?","?","?","?","?","?","?","?","?","?","?","?","?","?","?","?","?","?","?","?","?","?","?","?","?","?","?","?","?","?","?","?","?","?","?","?","?","?","?","?","?","?","?","?","?","?","?","?","?","?","?","?","?","?","?","?","?","?","?","?","?","?","?","?","?","?","?","?","?","?","?","?","?","?","?","?","?","?","?","?","?","?","?","?","?","?","?","?","?","?","?","?","?","?","?","?","?","?","?","?","?","?","?","?","?","?","?","?","?","?","?","?","?","?","?","?","?","?","?","?","?","?","?","?","?","?","?","?","?","?","?","?","?","?","?","?","?","?","?","?","?","?","?","?","?","?","?","?","?","?","?","?","?","?","?","?","?","?","?","?","?","?","?","?","?","?","?","?","?","?","?","?","?","?","?","?","?","?","?","?","?","?","?","?","?","?","?","?","?","?","?","?","?","?","?","?","?","?","?","?","?","?","?","?","?","?","?","?","?","?","?","?","?","?","?","?","?","?","?","?","?","?","?","?","?","?","?","?","?","?","?","?","?","?","?","?","?","?","?","?","?","?","?","?","?","?","?","?","?","?","?","?","?","?","?","?","?","?","?","?","?","?","?","?","?","?","?","?","?","?","?","?","?","?","?","?","?","?","?","?","?","?","?","?","?","?","?","?","?","?","?","?","?","?","?","?","?","?","?","?","?","?","?","?","?","?","?","?","?","?","?","?","?","?","?","?","?","?","?","?","?","?","?","?","?","?","?","?","?","?","?","?","?","?","?","?","?","?","?","?","?","?","?","?","?","?","?","?","?","?","?","?","?","?","?","?","?","?","?","?","?","?","?","?","?","?","?","?","?","?","?","?","?","?","?","?","?","?","?","?","?","?","?","?","?","?","?","?","?","?","?","?","?","?","?","?","?","?","?","?","?","?","?","?","?","?","?","?","?","?","?","?","?","?","?","?","?","?","?","?","?","?","?","?","?","?","?","?","?","?","?","?","?","?","?","?","?","?","?","?","?","?","?","?","?","?","?","?","?","?","?","?","?","?","?","?","?","?","?","?","?","?","?","?","?","?","?","?","?","?","?","?","?","?","?","?","?","?","?","?","?","?","?","?","?","?","?","?","?","?","?","?","?","?","?","?","?","?","?","?","?","?","?","?","?","?","?","?","?","?","?","?","?","?","?","?","?","?","?","?","?","?","?","?","?","?","?","?","?","?","?","?","?","?","?","?","?","?","?","?","?","?","?","?","?","?","?","?","?","?","?","?","?","?","?","?","?","?","?","?","?","?","?","?","?","?","?","?","?","?","?","?","?","?","?","?","?","?","?","?","?","?","?","?","?","?","?","?","?","?","?","?","?","?","?","?","?","?","?","?","?","?","?","?","?","?","?","?","?","?","?","?","?","?","?","?","?","?","?","?","?","?","?","?","?","?","?","?","?","?","?","?","?","?","?","?","?","?","?","?","?","?","?","?","?","?","?","?","?","?","?","?","?","?","?","?","?","?","?","?","?","?","?","?","?","?","?","?","?","?","?","?","?","?","?","?","?","?","?","?","?","?","?","?","?","?","?","?","?","?","?","?","?","?","?","?","?","?","?","?","?","?","?","?","?","?","?","?","?","?","?","?","?","?","?","?","?","?","?","?","?","?","?","?","?","?","?","?","?","?","?","?","?","?","?","?","?","?","?","?","?","?","?","?","?","?","?","?","?","?","?","?","?","?","?","?","?","?","?","?","?","?","?","?","?","?","?","?","?","?","?","?","?","?","?","?","?","?","?","?","?","?","?","?","?","?","?","?","?","?","?","?","?","?","?","?","?","?","?","?","?","?","?","?","?","?","?","?","?","?","?","?","?","?","?","?","?","?","?","?","?","?","?","?","?","?","?","?","?","?","?","?","?","?","?","?","?","?","?","?","?","?","?","?","?","?","?","?","?","?","?","?","?","?","?","?","?","?","?","?","?","?","?","?","?","?","?","?","?","?","?","?","?","?","?","?","?","?","?","?","?","?","?","?","?","?","?","?","?","?","?","?","?","?","?","?","?","?","?","?","?","?","?","?","?","?","?","?","?","?","?","?","?","?","?","?","?","?","?","?","?","?","?","?","?","?","?","?","?","?","?","?","?","?","?","?","?","?","?","?","?","?","?","?","?","?","?","?","?","?","?","?","?","?","?","?","?","?","?","?","?","?","?","?","?","?","?","?","?","?","?","?","?","?","?","?","?","?","?","?","?","?","?","?","?","?","?","?","?","?","?","?","?","?","?","?","?","?","?","?","?","?","?","?","?","?","?","?","?","?","?","?","?","?","?","?","?","?","?","?","?","?","?","?","?","?","?","?","?","?","?","?","?","?","?","?","?","?","?","?","?","?","?","?","?","?","?","?","?","?","?","?","?","?","?","?","?","?","?","?","?","?","?","?","?","?","?","?","?","?","?","?","?","?","?","?","?","?","?","?","?","?","?","?","?","?","?","?","?","?","?","?","?","?","?","?","?","?","?","?","?","?","?","?","?","?","?","?","?","?","?","?","?","?","?","?","?","?","?","?","?","?","?","?","?","?","?","?","?","?","?","?","?","?","?","?","?","?","?","?","?","?","?","?","?","?","?","?","?","?","?","?","?","?","?","?","?","?","?","?","?","?","?","?","?","?","?","?","?","?","?","?","?","?","?","?","?","?","?","?","?","?","?","?","?","?","?","?","?","?","?","?","?","?","?","?","?","?","?","?","?","?","?","?","?","?","?","?","?","?","?","?","?","?","?","?","?","?","?","?","?","?","?","?","?","?","?","?","?","?","?","?","?","?","?","?","?","?","?","?","?","?","?","?","?","?","?","?","?","?","?","?","?","?","?","?","?","?","?","?","?","?","?","?","?","?","?","?","?","?","?","?","?","?","?","?","?","?","?","?","?","?","?","?","?","?","?","?","?","?","?","?","?","?","?","?","?","?","?","?","?","?","?","?","?","?","?","?","?","?","?","?","?","?","?","?","?","?","?","?","?","?","?","?","?","?","?","?","?","?","?","?","?","?","?","?","?","?","?","?","?","?","?","?","?","?","?","?","?","?","?","?","?","?","?","?","?","?","?","?","?","?","?","?","?","?","?","?","?","?","?","?","?","?","?","?","?","?","?","?","?","?","?","?","?","?","?","?","?","?","?","?","?","?","?","?","?","?","?","?","?","?","?","?","?","?","?","?","?","?","?","?","?","?","?","?","?","?","?","?","?","?","?","?","?","?","?","?","?","?","?","?","?","?","?","?","?","?","?","?","?","?","?","?","?","?","?","?","?","?","?","?","?","?","?","?","?","?","?","?","?","?","?","?","?","?","?","?","?","?","?","?","?","?","?","?","?","?","?","?","?","?","?","?","?","?","?","?","?","?","?","?","?","?","?","?","?","?","?","?","?","?","?","?","?","?","?","?","?","?","?","?","?","?","?","?","?","?","?","?","?","?","?","?","?","?","?","?","?","?","?","?","?","?","?","?","?","?","?","?","?","?","?","?","?","?","?","?","?","?","?","?","?","?","?","?","?","?","?","?","?","?","?","?","?","?","?","?","?","?","?","?","?","?","?","?","?","?","?","?","?","?","?","?","?","?","?","?","?","?","?","?","?","?","?","?","?","?","?","?","?","?","?","?","?","?","?","?","?","?","?","?","?","?","?","?","?","?","?","?","?","?","?","?","?","?","?","?","?","?","?","?","?","?","?","?","?","?","?","?","?","?","?","?","?","?","?","?","?","?","?","?","?","?","?","?","?","?","?","?","?","?","?","?","?","?","?","?","?","?","?","?","?","?","?","?","?","?","?","?","?","?","?","?","?","?","?","?","?","?","?","?","?","?","?","?","?","?","?","?","?","?","?","?","?","?","?","?","?","?","?","?","?","?","?","?","?","?","?","?","?","?","?","?","?","?","?","?","?","?","?","?","?","?","?","?","?","?","?","?","?","?","?","?","?","?","?","?","?","?","?","?","?","?","?","?","?","?","?","?","?","?","?","?","?","?","?","?","?","?","?","?","?","?","?","?","?","?","?","?","?","?","?","?","?","?","?","?","?","?","?","?","?","?","?","?","?","?","?","?","?","?","?","?","?","?","?","?","?","?","?","?","?","?","?","?","?","?","?","?","?","?","?","?","?","?","?","?","?","?","?","?","?","?","?","?","?","?","?","?","?","?","?","?","?","?","?","?","?","?","?","?","?","?","?","?","?","?","?","?","?","?","?","?","?","?","?","?","?","?","?","?","?","?","?","?","?","?","?","?","?","?","?","?","?","?","?","?","?","?","?","?","?","?","?","?","?","?","?","?","?","?","?","?","?","?","?","?","?","?","?","?","?","?","?","?","?","?","?","?","?","?","?","?","?","?","?","?","?","?","?","?","?","?","?","?","?","?","?","?","?","?","?","?","?","?","?","?","?","?","?","?","?","?","?","?","?","?","?","?","?","?","?","?","?","?","?","?","?","?","?","?","?","?","?","?","?","?","?","?","?","?","?","?","?","?","?","?","?","?","?","?","?","?","?","?","?","?","?","?","?","?","?","?","?","?","?","?","?","?","?","?","?","?","?","?","?","?","?","?","?","?","?","?","?","?","?","?","?","?","?","?","?","?","?","?","?","?","?","?","?","?","?","?","?","?","?","?","?","?","?","?","?","?","?","?","?","?","?","?","?","?","?","?","?","?","?","?","?","?","?","?","?","?","?","?","?","?","?","?","?","?","?","?","?","?","?","?","?","?","?","?","?","?","?","?","?","?","?","?","?","?","?","?","?","?","?","?","?","?","?","?","?","?","?","?","?","?","?","?","?","?","?","?","?","?","?","?","?","?","?","?","?","?","?","?","?","?","?","?","?","?","?","?","?","?","?","?","?","?","?","?","?","?","?","?","?","?","?","?","?","?","?","?","?","?","?","?","?","?","?","?","?","?","?","?","?","?","?","?","?","?","?","?","?","?","?","?","?","?","?","?","?","?","?","?","?","?","?","?","?","?","?","?","?","?","?","?","?","?","?","?","?","?","?","?","?","?","?","?","?","?","?","?","?","?","?","?","?","?","?","?","?","?","?","?","?","?","?","?","?","?","?","?","?","?","?","?","?","?","?","?","?","?","?","?","?","?","?","?","?","?","?","?","?","?","?","?","?","?","?","?","?","?","?","?","?","?","?","?","?","?","?","?","?","?","?","?","?","?","?","?","?","?","?","?","?","?","?","?","?","?","?","?","?","?","?","?","?","?","?","?","?","?","?","?","?","?","?","?","?","?","?","?","?","?","?","?","?","?","?","?","?","?","?","?","?","?","?","?","?","?","?","?","?","?","?","?","?","?","?","?","?","?","?","?","?","?","?","?","?","?","?","?","?","?","?","?","?","?","?","?","?","?","?","?","?","?","?","?","?","?","?","?","?","?","?","?","?","?","?","?","?","?","?","?","?","?","?","?","?","?","?","?","?","?","?","?","?","?","?","?","?","?","?","?","?","?","?","?","?","?","?","?","?","?","?","?","?","?","?","?","?","?","?","?","?","?","?","?","?","?","?","?","?","?","?","?","?","?","?","?","?","?","?","?","?","?","?","?","?","?","?","?","?","?","?","?","?","?","?","?","?","?","?","?","?","?","?","?","?","?","?","?","?","?","?","?","?","?","?","?","?","?","?","?","?","?","?","?","?","?","?","?","?","?","?","?","?","?","?","?","?","?","?","?","?","?","?","?","?","?","?","?","?","?","?","?","?","?","?","?","?","?","?","?","?","?","?","?","?","?","?","?","?","?","?","?","?","?","?","?","?","?","?","?","?","?","?","?","?","?","?","?","?","?","?","?","?","?","?","?","?","?","?","?","?","?","?","?","?","?","?","?","?","?","?","?","?","?","?","?","?","?","?","?","?","?","?","?","?","?","?","?","?","?","?","?","?","?","?","?","?","?","?","?","?","?","?","?","?","?","?","?","?","?","?","?","?","?","?","?","?","?","?","?","?","?","?","?","?","?","?","?","?","?","?","?","?","?","?","?","?","?","?","?","?","?","?","?","?","?","?","?","?","?","?","?","?","?","?","?","?","?","?","?","?","?","?","?","?","?","?","?","?","?","?","?","?","?","?","?","?","?","?","?","?","?","?","?","?","?","?","?","?","?","?","?","?","?","?","?","?","?","?","?","?","?","?","?","?","?","?","?","?","?","?","?","?","?","?","?","?","?","?","?","?","?","?","?","?","?","?","?","?","?","?","?","?","?","?","?","?","?","?","?","?","?","?","?","?","?","?","?","?","?","?","?","?","?","?","?","?","?","?","?","?","?","?","?","?","?","?","?","?","?","?","?","?","?","?","?","?","?","?","?","?","?","?","?","?","?","?","?","?","?","?","?","?","?","?","?","?","?","?","?","?","?","?","?","?","?","?","?","?","?","?","?","?","?","?","?","?","?","?","?","?","?","?","?","?","?","?","?","?","?","?","?","?","?","?","?","?","?","?","?","?","?","?","?","?","?","?","?","?","?","?","?","?","?","?","?","?","?","?","?","?","?","?","?","?","?","?","?","?","?","?","?","?","?","?","?","?","?","?","?","?","?","?","?","?","?","?","?","?","?","?","?","?","?","?","?","?","?","?","?","?","?","?","?","?","?","?","?","?","?","?","?","?","?","?","?","?","?","?","?","?","?","?","?","?","?","?","?","?","?","?","?","?","?","?","?","?","?","?","?","?","?","?","?","?","?","?","?","?","?","?","?","?","?","?","?","?","?","?","?","?","?","?","?","?","?","?","?","?","?","?","?","?","?","?","?","?","?","?","?","?","?","?","?","?","?","?","?","?","?","?","?","?","?","?","?","?","?","?","?","?","?","?","?","?","?","?","?","?","?","?","?","?","?","?","?","?","?","?","?","?","?","?","?","?","?","?","?","?","?","?","?","?","?","?","?","?","?","?","?","?","?","?","?","?","?","?","?","?","?","?","?","?","?","?","?","?","?","?","?","?","?","?","?","?","?","?","?","?","?","?","?","?","?","?","?","?","?","?","?","?","?","?","?","?","?","?","?","?","?","?","?","?","?","?","?","?","?","?","?","?","?","?","?","?","?","?","?","?","?","?","?","?","?","?","?","?","?","?","?","?","?","?","?","?","?","?","?","?","?","?","?","?","?","?","?","?","?","?","?","?","?","?","?","?","?","?","?","?","?","?","?","?","?","?","?","?","?","?","?","?","?","?","?","?","?","?","?","?","?","?","?","?","?","?","?","?","?","?","?","?","?","?","?","?","?","?","?","?","?","?","?","?","?","?","?","?","?","?","?","?","?","?","?","?","?","?","?","?","?","?","?","?","?","?","?","?","?","?","?","?","?","?","?","?","?","?","?","?","?","?","?","?","?","?","?","?","?","?","?","?","?","?","?","?","?","?","?","?","?","?","?","?","?","?","?","?","?","?","?","?","?","?","?","?","?","?","?","?","?","?","?","?","?","?","?","?","?","?","?","?","?","?","?","?","?","?","?","?","?","?","?","?","?","?","?","?","?","?","?","?","?","?","?","?","?","?","?","?","?","?","?","?","?","?","?","?","?","?","?","?","?","?","?","?","?","?","?","?","?","?","?","?","?","?","?","?","?","?","?","?","?","?","?","?","?","?","?","?","?","?","?","?","?","?","?","?","?","?","?","?","?","?","?","?","?","?","?","?","?","?","?","?","?","?","?","?","?","?","?","?","?","?","?","?","?","?","?","?","?","?","?","?","?","?","?","?","?","?","?","?","?","?","?","?","?","?","?","?","?","?","?","?","?","?","?","?","?","?","?","?","?","?","?","?","?","?","?","?","?","?","?","?","?","?","?","?","?","?","?","?","?","?","?","?","?","?","?","?","?","?","?","?","?","?","?","?","?","?","?","?","?","?","?","?","?","?","?","?","?","?","?","?","?","?","?","?","?","?","?","?","?","?","?","?","?","?","?","?","?","?","?","?","?","?","?","?","?","?","?","?","?","?","?","?","?","?","?","?","?","?","?","?","?","?","?","?","?","?","?","?","?","?","?","?","?","?","?","?","?","?","?","?","?","?","?","?","?","?","?","?","?","?","?","?","?","?","?","?","?","?","?","?","?","?","?","?","?","?","?","?","?","?","?","?","?","?","?","?","?","?","?","?","?","?","?","?","?","?","?","?","?","?","?","?","?","?","?","?","?","?","?","?","?","?","?","?","?","?","?","?","?","?","?","?","?","?","?","?","?","?","?","?","?","?","?","?","?","?","?","?","?","?","?","?","?","?","?","?","?","?","?","?","?","?","?","?","?","?","?","?","?","?","?","?","?","?","?","?","?","?","?","?","?","?","?","?","?","?","?","?","?","?","?","?","?","?","?","?","?","?","?","?","?","?","?","?","?","?","?","?","?","?","?","?","?","?","?","?","?","?","?","?","?","?","?","?","?","?","?","?","?","?","?","?","?","?","?","?","?","?","?","?","?","?","?","?","?","?","?","?","?","?","?","?","?","?","?","?","?","?","?","?","?","?","?","?","?","?","?","?","?","?","?","?","?","?","?","?","?","?","?","?","?","?","?","?","?","?","?","?","?","?","?","?","?","?","?","?","?","?","?","?","?","?","?","?","?","?","?","?","?","?","?","?","?","?","?","?","?","?","?","?","?","?","?","?","?","?","?","?","?","?","?","?","?","?","?","?","?","?","?","?","?","?","?","?","?","?","?","?","?","?","?","?","?","?","?","?","?","?","?","?","?","?","?","?","?","?","?","?","?","?","?","?","?","?","?","?","?","?","?","?","?","?","?","?","?","?","?","?","?","?","?","?","?","?","?","?","?","?","?","?","?","?","?","?","?","?","?","?","?","?","?","?","?","?","?","?","?","?","?","?","?","?","?","?","?","?","?","?","?","?","?","?","?","?","?","?","?","?","?","?","?","?","?","?","?","?","?","?","?","?","?","?","?","?","?","?","?","?","?","?","?","?","?","?","?","?","?","?","?","?","?","?","?","?","?","?","?","?","?","?","?","?","?","?","?","?","?","?","?","?","?","?","?","?","?","?","?","?","?","?","?","?","?","?","?","?","?","?","?","?","?","?","?","?","?","?","?","?","?","?","?","?","?","?","?","?","?","?","?","?","?","?","?","?","?","?","?","?","?","?","?","?","?","?","?","?","?","?","?","?","?","?","?","?","?","?","?","?","?","?","?","?","?","?","?","?","?","?","?","?","?","?","?","?","?","?","?","?","?","?","?","?","?","?","?","?","?","?","?","?","?","?","?","?","?","?","?","?","?","?","?","?","?","?","?","?","?","?","?","?","?","?","?","?","?","?","?","?","?","?","?","?","?","?","?","?","?","?","?","?","?","?","?","?","?","?","?","?","?","?","?","?","?","?","?","?","?","?","?","?","?","?","?","?","?","?","?","?","?","?","?","?","?","?","?","?","?","?","?","?","?","?","?","?","?","?","?","?","?","?","?","?","?","?","?","?","?","?","?","?","?","?","?","?","?","?","?","?","?","?","?","?","?","?","?","?","?","?","?","?","?","?","?","?","?","?","?","?","?","?","?","?","?","?","?","?","?","?","?","?","?","?","?","?","?","?","?","?","?","?","?","?","?","?","?","?","?","?","?","?","?","?","?","?","?","?","?","?","?","?","?","?","?","?","?","?","?","?","?","?","?","?","?","?","?","?","?","?","?","?","?","?","?","?","?","?","?","?","?","?","?","?","?","?","?","?","?","?","?","?","?","?","?","?","?","?","?","?","?","?","?","?","?","?","?","?","?","?","?","?","?","?","?","?","?","?","?","?","?","?","?","?","?","?","?","?","?","?","?","?","?","?","?","?","?","?","?","?","?","?","?","?","?","?","?","?","?","?","?","?","?","?","?","?","?","?","?","?","?","?","?","?","?","?","?","?","?","?","?","?","?","?","?","?","?","?","?","?","?","?","?","?","?","?","?","?","?","?","?","?","?","?","?","?","?","?","?","?","?","?","?","?","?","?","?","?","?","?","?","?","?","?","?","?","?","?","?","?","?","?","?","?","?","?","?","?","?","?","?","?","?","?","?","?","?","?","?","?","?","?","?","?","?","?","?","?","?","?","?","?","?","?","?","?","?","?","?","?","?","?","?","?","?","?","?","?","?","?","?","?","?","?","?","?","?","?","?","?","?","?","?","?","?","?","?","?","?","?","?","?","?","?","?","?","?","?","?","?","?","?","?","?","?","?","?","?","?","?","?","?","?","?","?","?","?","?","?","?","?","?","?","?","?","?","?","?","?","?","?","?","?","?","?","?","?","?","?","?","?","?","?","?","?","?","?","?","?","?","?","?","?","?","?","?","?","?","?","?","?","?","?","?","?","?","?","?","?","?","?","?","?","?","?","?","?","?","?","?","?","?","?","?","?","?","?","?","?","?","?","?","?","?","?","?","?","?","?","?","?","?","?","?","?","?","?","?","?","?","?","?","?","?","?","?","?","?","?","?","?","?","?","?","?","?","?","?","?","?","?","?","?","?","?","?","?","?","?","?","?","?","?","?","?","?","?","?","?","?","?","?","?","?","?","?","?","?","?","?","?","?","?","?","?","?","?","?","?","?","?","?","?","?","?","?","?","?","?","?","?","?","?","?","?","?","?","?","?","?","?","?","?","?","?","?","?","?","?","?","?","?","?","?","?","?","?","?","?","?","?","?","?","?","?","?","?","?","?","?","?","?","?","?","?","?","?","?","?","?","?","?","?","?","?","?","?","?","?","?","?","?","?","?","?","?","?","?","?","?","?","?","?","?","?","?","?","?","?","?","?","?","?","?","?","?","?","?","?","?","?","?","?","?","?","?","?","?","?","?","?","?","?","?","?","?","?","?","?","?","?","?","?","?","?","?","?","?","?","?","?","?","?","?","?","?","?","?","?","?","?","?","?","?","?","?","?","?","?","?","?","?","?","?","?","?","?","?","?","?","?","?","?","?","?","?","?","?","?","?","?","?","?","?","?","?","?","?","?","?","?","?","?","?","?","?","?","?","?","?","?","?","?","?","?","?","?","?","?","?","?","?","?","?","?","?","?","?","?","?","?","?","?","?","?","?","?","?","?","?","?","?","?","?","?","?","?","?","?","?","?","?","?","?","?","?","?","?","?","?","?","?","?","?","?","?","?","?","?","?","?","?","?","?","?","?","?","?","?","?","?","?","?","?","?","?","?","?","?","?","?","?","?","?","?","?","?","?","?","?","?","?","?","?","?","?","?","?","?","?","?","?","?","?","?","?","?","?","?","?","?","?","?","?","?","?","?","?","?","?","?","?","?","?","?","?","?","?","?","?","?","?","?","?","?","?","?","?","?","?","?","?","?","?","?","?","?","?","?","?","?","?","?","?","?","?","?","?","?","?","?","?","?","?","?","?","?","?","?","?","?","?","?","?","?","?","?","?","?","?","?","?","?","?","?","?","?","?","?","?","?","?","?","?","?","?","?","?","?","?","?","?","?","?","?","?","?","?","?","?","?","?","?","?","?","?","?","?","?","?","?","?","?","?","?","?","?","?","?","?","?","?","?","?","?","?","?","?","?","?","?","?","?","?","?","?","?","?","?","?","?","?","?","?","?","?","?","?","?","?","?","?","?","?","?","?","?","?","?","?","?","?","?","?","?","?","?","?","?","?","?","?","?","?","?","?","?","?","?","?","?","?","?","?","?","?","?","?","?","?","?","?","?","?","?","?","?","?","?","?","?","?","?","?","?","?","?","?","?","?","?","?","?","?","?","?","?","?","?","?","?","?","?","?","?","?","?","?","?","?","?","?","?","?","?","?","?","?","?","?","?","?","?","?","?","?","?","?","?","?","?","?","?","?","?","?","?","?","?","?","?","?","?","?","?","?","?","?","?","?","?","?","?","?","?","?","?","?","?","?","?","?","?","?","?","?","?","?","?","?","?","?","?","?","?","?","?","?","?","?","?","?","?","?","?","?","?","?","?","?","?","?","?","?","?","?","?","?","?","?","?","?","?","?","?","?","?","?","?","?","?","?","?","?","?","?","?","?","?","?","?","?","?","?","?","?","?","?","?","?","?","?","?","?","?","?","?","?","?","?","?","?","?","?","?","?","?","?","?","?","?","?","?","?","?","?","?","?","?","?","?","?","?","?","?","?","?","?","?","?","?","?","?","?","?","?","?","?","?","?","?","?","?","?","?","?","?","?","?","?","?","?","?","?","?","?","?","?","?","?","?","?","?","?","?","?","?","?","?","?","?","?","?","?","?","?","?","?","?","?","?","?","?","?","?","?","?","?","?","?","?","?","?","?","?","?","?","?","?","?","?","?","?","?","?","?","?","?","?","?","?","?","?","?","?","?","?","?","?","?","?","?","?","?","?","?","?","?","?","?","?","?","?","?","?","?","?","?","?","?","?","?","?","?","?","?","?","?","?","?","?","?","?","?","?","?","?","?","?","?","?","?","?","?","?","?","?","?","?","?","?","?","?","?","?","?","?","?","?","?","?","?","?","?","?","?","?","?","?","?","?","?","?","?","?","?","?","?","?","?","?","?","?","?","?","?","?","?","?","?","?","?","?","?","?","?","?","?","?","?","?","?","?","?","?","?","?","?","?","?","?","?","?","?","?","?","?","?","?","?","?","?","?","?","?","?","?","?","?","?","?","?","?","?","?","?","?","?","?","?","?","?","?","?","?","?","?","?","?","?","?","?","?","?","?","?","?","?","?","?","?","?","?","?","?","?","?","?","?","?","?","?","?","?","?","?","?","?","?","?","?","?","?","?","?","?","?","?","?","?","?","?","?","?","?","?","?","?","?","?","?","?","?","?","?","?","?","?","?","?","?","?","?","?","?","?","?","?","?","?","?","?","?","?","?","?","?","?","?","?","?","?","?","?","?","?","?","?","?","?","?","?","?","?","?","?","?","?","?","?","?","?","?","?","?","?","?","?","?","?","?","?","?","?","?","?","?","?","?","?","?","?","?","?","?","?","?","?","?","?","?","?","?","?","?","?","?","?","?","?","?","?","?","?","?","?","?","?","?","?","?","?","?","?","?","?","?","?","?","?","?","?","?","?","?","?","?","?","?","?","?","?","?","?","?","?","?","?","?","?","?","?","?","?","?","?","?","?","?","?","?","?","?","?","?","?","?","?","?","?","?","?","?","?","?","?","?","?","?","?","?","?","?","?","?","?","?","?","?","?","?","?","?","?","?","?","?","?","?","?","?","?","?","?","?","?","?","?","?","?","?","?","?","?","?","?","?","?","?","?","?","?","?","?","?","?","?","?","?","?","?","?","?","?","?","?","?","?","?","?","?","?","?","?","?","?","?","?","?","?","?","?","?","?","?","?","?","?","?","?","?","?","?","?","?","?","?","?","?","?","?","?","?","?","?","?","?","?","?","?","?","?","?","?","?","?","?","?","?","?","?","?","?","?","?","?","?","?","?","?","?","?","?","?","?","?","?","?","?","?","?","?","?","?","?","?","?","?","?","?","?","?","?","?","?","?","?","?","?","?","?","?","?","?","?","?","?","?","?","?","?","?","?","?","?","?","?","?","?","?","?","?","?","?","?","?","?","?","?","?","?","?","?","?","?","?","?","?","?","?","?","?","?","?","?","?","?","?","?","?","?","?","?","?","?","?","?","?","?","?","?","?","?","?","?","?","?","?","?","?","?","?","?","?","?","?","?","?","?","?","?","?","?","?","?","?","?","?","?","?","?","?","?","?","?","?","?","?","?","?","?","?","?","?","?","?","?","?","?","?","?","?","?","?","?","?","?","?","?","?","?","?","?","?","?","?","?","?","?","?","?","?","?","?","?","?","?","?","?","?","?","?","?","?","?","?","?","?","?","?","?","?","?","?","?","?","?","?","?","?","?","?","?","?","?","?","?","?","?","?","?","?","?","?","?","?","?","?","?","?","?","?","?","?","?","?","?","?","?","?","?","?","?","?","?","?","?","?","?","?","?","?","?","?","?","?","?","?","?","?","?","?","?","?","?","?","?","?","?","?","?","?","?","?","?","?","?","?","?","?","?","?","?","?","?","?","?","?","?","?","?","?","?","?","?","?","?","?","?","?","?","?","?","?","?","?","?","?","?","?","?","?","?","?","?","?","?","?","?","?","?","?","?","?","?","?","?","?","?","?","?","?","?","?","?","?","?","?","?","?","?","?","?","?","?","?","?","?","?","?","?","?","?","?","?","?","?","?","?","?","?","?","?","?","?","?","?","?","?","?","?","?","?","?","?","?","?","?","?","?","?","?","?","?","?","?","?","?","?","?","?","?","?","?","?","?","?","?","?","?","?","?","?","?","?","?","?","?","?","?","?","?","?","?","?","?","?","?","?","?","?","?","?","?","?","?","?","?","?","?","?","?","?","?","?","?","?","?","?","?","?","?","?","?","?","?","?","?","?","?","?","?","?","?","?","?","?","?","?","?","?","?","?","?","?","?","?","?","?","?","?","?","?","?","?","?","?","?","?","?","?","?","?","?","?","?","?","?","?","?","?","?","?","?","?","?","?","?","?","?","?","?","?","?","?","?","?","?","?","?","?","?","?","?","?","?","?","?","?","?","?","?","?","?","?","?","?","?","?","?","?","?","?","?","?","?","?","?","?","?","?","?","?","?","?","?","?","?","?","?","?","?","?","?","?","?","?","?","?","?","?","?","?","?","?","?","?","?","?","?","?","?","?","?","?","?","?","?","?","?","?","?","?","?","?","?","?","?","?","?","?","?","?","?","?","?","?","?","?","?","?","?","?","?","?","?","?","?","?","?","?","?","?","?","?","?","?","?","?","?","?","?","?","?","?","?","?","?","?","?","?","?","?","?","?","?","?","?","?","?","?","?","?","?","?","?","?","?","?","?","?","?","?","?","?","?","?","?","?","?","?","?","?","?","?","?","?","?","?","?","?","?","?","?","?","?","?","?","?","?","?","?","?","?","?","?","?","?","?","?","?","?","?","?","?","?","?","?","?","?","?","?","?","?","?","?","?","?","?","?","?","?","?","?","?","?","?","?","?","?","?","?","?","?","?","?","?","?","?","?","?","?","?","?","?","?","?","?","?","?","?","?","?","?","?","?","?","?","?","?","?","?","?","?","?","?","?","?","?","?","?","?","?","?","?","?","?","?","?","?","?","?","?","?","?","?","?","?","?","?","?","?","?","?","?","?","?","?","?","?","?","?","?","?","?","?","?","?","?","?","?","?","?","?","?","?","?","?","?","?","?","?","?","?","?","?","?","?","?","?","?","?","?","?","?","?","?","?","?","?","?","?","?","?","?","?","?","?","?","?","?","?","?","?","?","?","?","?","?","?","?","?","?","?","?","?","?","?","?","?","?","?","?","?","?","?","?","?","?","?","?","?","?","?","?","?","?","?","?","?","?","?","?","?","?","?","?","?","?","?","?","?","?","?","?","?","?","?","?","?","?","?","?","?","?","?","?","?","?","?","?","?","?","?","?","?","?","?","?","?","?","?","?","?","?","?","?","?","?","?","?","?","?","?","?","?","?","?","?","?","?","?","?","?","?","?","?","?","?","?","?","?","?","?","?","?","?","?","?","?","?","?","?","?","?","?","?","?","?","?","?","?","?","?","?","?","?","?","?","?","?","?","?","?","?","?","?","?","?","?","?","?","?","?","?","?","?","?","?","?","?","?","?","?","?","?","?","?","?","?","?","?","?","?","?","?","?","?","?","?","?","?","?","?","?","?","?","?","?","?","?","?","?","?","?","?","?","?","?","?","?","?","?","?","?","?","?","?","?","?","?","?","?","?","?","?","?","?","?","?","?","?","?","?","?","?","?","?","?","?","?","?","?","?","?","?","?","?","?","?","?","?","?","?","?","?","?","?","?","?","?","?","?","?","?","?","?","?","?","?","?","?","?","?","?","?","?","?","?","?","?","?","?","?","?","?","?","?","?","?","?","?","?","?","?","?","?","?","?","?","?","?","?","?","?","?","?","?","?","?","?","?","?","?","?","?","?","?","?","?","?","?","?","?","?","?","?","?","?","?","?","?","?","?","?","?","?","?","?","?","?","?","?","?","?","?","?","?","?","?","?","?","?","?","?","?","?","?","?","?","?","?","?","?","?","?","?","?","?","?","?","?","?","?","?","?","?","?","?","?","?","?","?","?","?","?","?","?","?","?","?","?","?","?","?","?","?","?","?","?","?","?","?","?","?","?","?","?","?","?","?","?","?","?","?","?","?","?","?","?","?","?","?","?","?","?","?","?","?","?","?","?","?","?","?","?","?","?","?","?","?","?","?","?","?","?","?","?","?","?","?","?","?","?","?","?","?","?","?","?","?","?","?","?","?","?","?","?","?","?","?","?","?","?","?","?","?","?","?","?","?","?","?","?","?","?","?","?","?","?","?","?","?","?","?","?","?","?","?","?","?","?","?","?","?","?","?","?","?","?","?","?","?","?","?","?","?","?","?","?","?","?","?","?","?","?","?","?","?","?","?","?","?","?","?","?","?","?","?","?","?","?","?","?","?","?","?","?","?","?","?","?","?","?","?","?","?","?","?","?","?","?","?","?","?","?","?","?","?","?","?","?","?","?","?","?","?","?","?","?","?","?","?","?","?","?","?","?","?","?","?","?","?","?","?","?","?","?","?","?","?","?","?","?","?","?","?","?","?","?","?","?","?","?","?","?","?","?","?","?","?","?","?","?","?","?","?","?","?","?","?","?","?","?","?","?","?","?","?","?","?","?","?","?","?","?","?","?","?","?","?","?","?","?","?","?","?","?","?","?","?","?","?","?","?","?","?","?","?","?","?","?","?","?","?","?","?","?","?","?","?","?","?","?","?","?","?","?","?","?","?","?","?","?","?","?","?","?","?","?","?","?","?","?","?","?","?","?","?","?","?","?","?","?","?","?","?","?","?","?","?","?","?","?","?","?","?","?","?","?","?","?","?","?","?","?","?","?","?","?","?","?","?","?","?","?","?","?","?","?","?","?","?","?","?","?","?","?","?","?","?","?","?","?","?","?","?","?","?","?","?","?","?","?","?","?","?","?","?","?","?","?","?","?","?","?","?","?","?","?","?","?","?","?","?","?","?","?","?","?","?","?","?","?","?","?","?","?","?","?","?","?","?","?","?","?","?","?","?","?","?","?","?","?","?","?","?","?","?","?","?","?","?","?","?","?","?","?","?","?","?","?","?","?","?","?","?","?","?","?","?","?","?","?","?","?","?","?","?","?","?","?","?","?","?","?","?","?","?","?","?","?","?","?","?","?","?","?","?","?","?","?","?","?","?","?","?","?","?","?","?","?","?","?","?","?","?","?","?","?","?","?","?","?","?","?","?","?","?","?","?","?","?","?","?","?","?","?","?","?","?","?","?","?","?","?","?","?","?","?","?","?","?","?","?","?","?","?","?","?","?","?","?","?","?","?","?","?","?","?","?","?","?","?","?","?","?","?","?","?","?","?","?","?","?","?","?","?","?","?","?","?","?","?","?","?","?","?","?","?","?","?","?","?","?","?","?","?","?","?","?","?","?","?","?","?","?","?","?","?","?","?","?","?","?","?","?","?","?","?","?","?","?","?","?","?","?","?","?","?","?","?","?","?","?","?","?","?","?","?","?","?","?","?","?","?","?","?","?","?","?","?","?","?","?","?","?","?","?","?","?","?","?","?","?","?","?","?","?","?","?","?","?","?","?","?","?","?","?","?","?","?","?","?","?","?","?","?","?","?","?","?","?","?","?","?","?","?","?","?","?","?","?","?","?","?","?","?","?","?","?","?","?","?","?","?","?","?","?","?","?","?","?","?","?","?","?","?","?","?","?","?","?","?","?","?","?","?","?","?","?","?","?","?","?","?","?","?","?","?","?","?","?","?","?","?","?","?","?","?","?","?","?","?","?","?","?","?","?","?","?","?","?","?","?","?","?","?","?","?","?","?","?","?","?","?","?","?","?","?","?","?","?","?","?","?","?","?","?","?","?","?","?","?","?","?","?","?","?","?","?","?","?","?","?","?","?","?","?","?","?","?","?","?","?","?","?","?","?","?","?","?","?","?","?","?","?","?","?","?","?","?","?","?","?","?","?","?","?","?","?","?","?","?","?","?","?","?","?","?","?","?","?","?","?","?","?","?","?","?","?","?","?","?","?","?","?","?","?","?","?","?","?","?","?","?","?","?","?","?","?","?","?","?","?","?","?","?","?","?","?","?","?","?","?","?","?","?","?","?","?","?","?","?","?","?","?","?","?","?","?","?","?","?","?","?","?","?","?","?","?","?","?","?","?","?","?","?","?","?","?","?","?","?","?","?","?","?","?","?","?","?","?","?","?","?","?","?","?","?","?","?","?","?","?","?","?","?","?","?","?","?","?","?","?","?","?","?","?","?","?","?","?","?","?","?","?","?","?","?","?","?","?","?","?","?","?","?","?","?","?","?","?","?","?","?","?","?","?","?","?","?","?","?","?","?","?","?","?","?","?","?","?","?","?","?","?","?","?","?","?","?","?","?","?","?","?","?","?","?","?","?","?","?","?","?","?","?","?","?","?","?","?","?","?","?","?","?","?","?","?","?","?","?","?","?","?","?","?","?","?","?","?","?","?","?","?","?","?","?","?","?","?","?","?","?","?","?","?","?","?","?","?","?","?","?","?","?","?","?","?","?","?","?","?","?","?","?","?","?","?","?","?","?","?","?","?","?","?","?","?","?","?","?","?","?","?","?","?","?","?","?","?","?","?","?","?","?","?","?","?","?","?","?","?","?","?","?","?","?","?","?","?","?","?","?","?","?","?","?","?","?","?","?","?","?","?","?","?","?","?","?","?","?","?","?","?","?","?","?","?","?","?","?","?","?","?","?","?","?","?","?","?","?","?","?","?","?","?","?","?","?","?","?","?","?","?","?","?","?","?","?","?","?","?","?","?","?","?","?","?","?","?","?","?","?","?","?","?","?","?","?","?","?","?","?","?","?","?","?","?","?","?","?","?","?","?","?","?","?","?","?","?","?","?","?","?","?","?","?","?","?","?","?","?","?","?","?","?","?","?","?","?","?","?","?","?","?","?","?","?","?","?","?","?","?","?","?","?","?","?","?","?","?","?","?","?","?","?","?","?","?","?","?","?","?","?","?","?","?","?","?","?","?","?","?","?","?","?","?","?","?","?","?","?","?","?","?","?","?","?","?","?","?","?","?","?","?","?","?","?","?","?","?","?","?","?","?","?","?","?","?","?","?","?","?","?","?","?","?","?","?","?","?","?","?","?","?","?","?","?","?","?","?","?","?","?","?","?","?","?","?","?","?","?","?","?","?","?","?","?","?","?","?","?","?","?","?","?","?","?","?","?","?","?","?","?","?","?","?","?","?","?","?","?","?","?","?","?","?","?","?","?","?","?","?","?","?","?","?","?","?","?","?","?","?","?","?","?","?","?","?","?","?","?","?","?","?","?","?","?","?","?","?","?","?","?","?","?","?","?","?","?","?","?","?","?","?","?","?","?","?","?","?","?","?","?","?","?","?","?","?","?","?","?","?","?","?","?","?","?","?","?","?","?","?","?","?","?","?","?","?","?","?","?","?","?","?","?","?","?","?","