[{"success":true,"trial_type":"fullscreen","trial_index":0,"time_elapsed":3095,"internal_node_id":"0.0-0.0","protocol_sum":"","subject_identifier":506,"subject_sum":[231,134,111,220,102,114,248,39,199,111,97,36,202,62,234,255,68,175,248,183,202,244,238,20,105,178,171,136,126,126,120,117],"subject_pair":253,"STUDY_ID":"66a3ed3c5d10d0e7d8a6b9da","PROLIFIC_PID":"669b7eb7fd33b2a8e2502ab6","SESSION_ID":"66a4180a74c055f942b5b62a","practice_instructions":1,"leaderboard_instructions":0,"bonus":0,"reveal_word":false,"self_rating":"4","confidence":"54"},{"view_history":"[{\"page_index\":0,\"viewing_time\":2404.399999999441}]","rt":2404.5999999996275,"trial_type":"instructions","trial_index":1,"time_elapsed":5501,"internal_node_id":"0.0-1.0","protocol_sum":"","subject_identifier":506,"subject_sum":[231,134,111,220,102,114,248,39,199,111,97,36,202,62,234,255,68,175,248,183,202,244,238,20,105,178,171,136,126,126,120,117],"subject_pair":253,"STUDY_ID":"66a3ed3c5d10d0e7d8a6b9da","PROLIFIC_PID":"669b7eb7fd33b2a8e2502ab6","SESSION_ID":"66a4180a74c055f942b5b62a","practice_instructions":1,"leaderboard_instructions":0,"bonus":0,"reveal_word":false,"self_rating":"4","confidence":"54"},{"view_history":"[{\"page_index\":0,\"viewing_time\":1870.3999999994412}]","rt":1870.5,"trial_type":"instructions","trial_index":2,"time_elapsed":7371,"internal_node_id":"0.0-2.0-0.0","protocol_sum":"","subject_identifier":506,"subject_sum":[231,134,111,220,102,114,248,39,199,111,97,36,202,62,234,255,68,175,248,183,202,244,238,20,105,178,171,136,126,126,120,117],"subject_pair":253,"STUDY_ID":"66a3ed3c5d10d0e7d8a6b9da","PROLIFIC_PID":"669b7eb7fd33b2a8e2502ab6","SESSION_ID":"66a4180a74c055f942b5b62a","practice_instructions":1,"leaderboard_instructions":0,"bonus":0,"reveal_word":false,"self_rating":"4","confidence":"54"},{"rt":8507.099999999627,"responses":"{\"Q0\":\"... reveal the word with as <b>few letter guesses</b> as possible\"}","question_order":"[0]","trial_type":"survey-multi-choice","trial_index":3,"time_elapsed":15880,"internal_node_id":"0.0-2.0-1.0","protocol_sum":"","subject_identifier":506,"subject_sum":[231,134,111,220,102,114,248,39,199,111,97,36,202,62,234,255,68,175,248,183,202,244,238,20,105,178,171,136,126,126,120,117],"subject_pair":253,"correct":true,"test_part":"multichoice_nonpretend","STUDY_ID":"66a3ed3c5d10d0e7d8a6b9da","PROLIFIC_PID":"669b7eb7fd33b2a8e2502ab6","SESSION_ID":"66a4180a74c055f942b5b62a","practice_instructions":1,"leaderboard_instructions":0,"bonus":0,"reveal_word":false,"self_rating":"4","confidence":"54"},{"view_history":"[{\"page_index\":0,\"viewing_time\":1287.2000000001863}]","rt":1287.4000000003725,"trial_type":"instructions","trial_index":4,"time_elapsed":17167,"internal_node_id":"0.0-3.0","protocol_sum":"","subject_identifier":506,"subject_sum":[231,134,111,220,102,114,248,39,199,111,97,36,202,62,234,255,68,175,248,183,202,244,238,20,105,178,171,136,126,126,120,117],"subject_pair":253,"STUDY_ID":"66a3ed3c5d10d0e7d8a6b9da","PROLIFIC_PID":"669b7eb7fd33b2a8e2502ab6","SESSION_ID":"66a4180a74c055f942b5b62a","practice_instructions":1,"leaderboard_instructions":0,"bonus":0,"reveal_word":false,"self_rating":"4","confidence":"54"},{"word":"ZEBRA","click_log":{"letter":["","I","A","E","O","U","S","T","L","G","H","M","N","R","C","D","B","Z"],"t":[0,5697.899999999441,9752.699999999255,12310.699999999255,20027.699999999255,21283.39999999944,22722.699999999255,28136.599999999627,28855.599999999627,30847.39999999944,32070.599999999627,33182.5,33917.89999999944,35605.89999999944,38427.5,39291.89999999944,40611.59999999963,42706.799999999814],"hit":[null,0,1,1,0,0,0,0,0,0,0,0,0,1,0,0,1,1],"asked":["","I","IA","IAE","IAEO","IAEOU","IAEOUS","IAEOUST","IAEOUSTL","IAEOUSTLG","IAEOUSTLGH","IAEOUSTLGHM","IAEOUSTLGHMN","IAEOUSTLGHMNR","IAEOUSTLGHMNRC","IAEOUSTLGHMNRCD","IAEOUSTLGHMNRCDB","IAEOUSTLGHMNRCDBZ"],"word_state":["_____","_____","____A","_E__A","_E__A","_E__A","_E__A","_E__A","_E__A","_E__A","_E__A","_E__A","_E__A","_E_RA","_E_RA","_E_RA","_EBRA","ZEBRA"]},"hover_log":{"letter":["?","?","?","?","?","?","?","?","?","?","?","?","?","?","?","?","?","?","?","?","?","?","?","?","T","T","T","T","T","T","T","T","T","T","T","T","T","T","T","T","T","T","T","T","T","T","T","T","T","T","T","T","T","T","T","T","T","T","T","T","T","T","T","T","T","?","?","?","?","?","?","?","?","?","?","?","?","?","?","?","?","?","?","K","K","K","K","L","L","L","L","?","M","M","M","M","M","?","?","?","?","?","?","?","?","?","?","?","?","?","?","?","?","?","?","?","?","?","?","?","?","?","?","?","?","?","?","?","?","?","?","?","?","?","?","?","?","?","?","?","?","?","?","G","G","G","G","G","G","G","G","G","G","G","G","G","?","?","?","?","?","?","?","?","?","O","O","O","O","O","O","O","O","O","O","O","O","O","O","?","?","?","?","?","?","?","?","?","?","?","?","?","?","?","?","?","?","?","?","?","?","?","?","?","?","?","?","?","?","?","?","?","?","?","?","?","?","?","?","?","?","?","?","?","?","?","?","?","?","?","?","?","?","?","?","?","?","?","?","?","?","?","?","?","?","?","?","?","?","?","?","?","?","?","?","?","?","?","?","?","?","?","?","?","?","?","?","?","?","?","?","D","D","D","D","D","D","D","D","D","D","D","D","D","?","E","?","F","F","?","?","G","G","G","G","G","G","G","?","H","H","I","I","I","I","I","I","?","?","?","?","?","?","?","?","?","?","?","?","?","I","I","I","I","I","I","I","I","I","I","I","I","I","I","I","I","I","I","I","I","I","I","I","I","I","I","I","I","I","I","I","I","I","I","I","I","I","I","I","I","I","I","I","I","I","I","I","I","I","I","I","I","I","I","I","I","I","I","I","I","I","I","I","I","I","I","I","I","I","I","I","I","I","I","I","I","?","?","?","?","H","?","?","G","?","?","F","F","?","?","?","?","?","?","?","?","?","?","?","?","?","?","?","?","?","?","?","?","M","M","?","?","?","?","?","?","?","?","?","?","?","?","?","?","?","?","?","?","?","?","?","?","?","?","?","?","?","?","?","?","?","?","?","?","?","?","?","?","?","?","?","?","?","?","?","?","?","?","?","?","?","?","?","V","V","V","V","V","V","V","V","V","V","V","V","V","V","V","?","?","?","?","?","?","L","?","?","K","K","K","K","K","K","K","K","K","K","K","K","K","K","K","?","?","?","?","B","B","B","B","B","B","B","?","?","?","?","A","A","A","A","?","?","?","?","?","?","?","?","?","?","?","?","?","?","?","?","?","?","?","?","B","?","?","A","A","A","A","A","A","A","A","A","A","A","A","A","A","A","A","A","A","A","A","A","A","A","A","A","A","A","A","?","B","B","B","?","C","C","C","C","?","?","D","D","D","D","D","D","D","D","?","?","?","E","E","E","E","E","E","E","E","E","E","E","E","E","E","E","E","E","E","E","E","E","E","E","E","E","E","E","E","E","E","E","E","E","E","E","E","E","E","E","E","?","?","?","O","O","?","?","?","Z","?","?","?","?","?","?","?","?","?","?","?","?","?","?","?","?","?","?","?","?","?","?","?","?","?","?","?","?","?","Q","?","?","?","?","?","?","?","?","G","G","G","G","?","F","F","F","F","F","F","F","F","F","F","?","?","?","?","?","?","?","?","?","E","E","E","E","E","E","E","E","E","E","E","E","E","E","E","E","E","E","E","E","E","E","E","E","E","E","E","E","E","E","E","E","E","E","E","E","E","?","?","?","N","N","N","N","?","?","?","?","X","X","X","X","X","?","?","?","?","?","?","?","?","?","?","?","?","?","?","?","?","?","?","?","?","?","?","?","?","?","?","?","?","?","?","?","?","?","?","?","?","?","?","?","?","?","?","?","?","?","X","X","?","?","?","O","O","?","F","F","F","F","?","?","?","?","?","?","?","?","?","?","?","?","?","?","?","?","?","?","?","?","?","?","?","E","E","E","E","?","?","?","?","F","F","F","F","F","F","F","F","?","?","?","?","?","?","?","?","?","?","?","?","?","O","O","O","?","?","?","?","W","W","?","?","?","?","?","?","?","?","?","?","?","?","?","?","?","?","?","V","V","?","?","?","?","?","?","?","?","?","?","?","?","?","?","?","?","?","?","?","K","K","K","K","K","K","K","K","K","K","K","K","K","K","?","?","?","?","V","V","V","V","V","V","V","V","V","V","V","?","?","?","?","?","?","O","?","?","?","?","P","P","P","P","P","P","P","P","P","P","P","P","P","P","P","P","P","P","P","?","?","?","O","O","O","O","O","O","O","O","O","O","?","?","N","N","N","N","N","N","?","?","M","M","M","M","M","M","M","M","M","M","?","?","?","?","?","?","?","?","?","?","?","?","?","?","?","?","?","?","?","?","?","?","?","?","?","?","?","?","?","?","?","?","?","?","?","?","?","?","?","?","?","?","F","F","F","F","F","F","F","F","F","F","F","F","F","F","F","F","F","F","F","F","F","F","F","F","?","?","?","?","?","?","?","?","?","?","?","?","E","?","?","?","?","?","?","?","?","?","?","?","N","N","N","N","N","N","N","?","?","?","?","?","?","?","?","?","?","R","R","R","R","R","?","?","?","?","?","?","?","?","?","?","?","?","?","?","?","?","?","?","?","?","P","P","P","P","P","P","P","P","P","P","P","P","?","?","?","?","?","?","?","?","?","?","O","O","O","O","O","O","O","O","O","O","O","O","O","O","O","O","O","O","O","O","O","O","O","O","O","O","O","O","O","O","O","O","O","O","O","O","O","O","O","O","O","O","O","O","O","O","?","?","?","?","?","?","?","?","?","?","?","?","?","?","?","V","V","?","?","?","?","?","?","?","?","?","?","?","?","U","U","U","U","U","U","U","U","U","U","U","U","U","U","U","U","U","U","U","U","U","U","U","U","U","U","U","U","U","U","U","U","U","U","U","U","U","U","U","U","?","?","?","L","L","L","L","?","?","?","?","?","?","?","L","L","?","K","K","?","?","?","?","?","?","?","?","?","?","?","?","?","?","?","?","?","?","?","?","?","?","?","?","?","?","?","?","?","?","?","?","S","S","S","S","S","S","S","S","S","S","S","S","S","S","S","S","S","S","S","S","S","S","S","S","S","S","S","S","S","S","S","S","S","S","S","S","?","?","?","?","?","?","?","?","?","?","?","?","?","?","?","?","?","?","?","?","?","?","?","?","?","?","?","?","?","?","?","?","?","?","?","?","?","X","X","X","X","X","X","X","?","?","?","?","?","?","?","?","P","P","P","P","P","P","P","P","P","P","?","O","O","N","N","N","N","N","N","?","M","M","M","M","M","M","M","M","M","M","M","M","?","?","L","L","L","L","L","L","L","L","L","?","?","?","?","?","?","E","E","E","E","?","?","?","?","?","?","?","?","?","?","?","?","?","?","?","O","O","O","O","O","?","?","?","?","?","?","?","?","?","?","?","?","?","?","?","?","?","?","?","?","?","?","?","?","?","?","?","?","?","?","?","?","?","?","?","?","M","M","M","M","M","M","M","M","M","M","M","M","M","M","M","?","?","?","?","?","?","?","?","?","?","?","?","?","?","?","M","M","M","M","M","M","M","?","?","N","N","N","N","?","?","O","O","O","O","?","P","P","P","P","P","P","P","P","P","?","O","?","?","N","N","N","N","N","N","?","?","?","O","O","?","?","?","?","?","?","?","?","?","?","?","?","?","?","?","?","?","?","?","?","?","?","?","X","X","X","X","?","?","?","W","W","W","W","W","W","V","V","V","?","U","U","U","U","U","U","U","U","?","?","?","T","T","T","T","T","T","T","T","T","T","T","T","T","T","T","T","T","T","T","T","T","T","T","T","T","T","T","T","T","T","T","T","T","?","?","?","?","?","?","?","?","L","L","L","L","L","L","L","L","L","L","L","L","L","L","L","L","L","L","L","L","L","L","L","L","L","L","L","L","L","L","L","L","L","L","L","L","L","L","L","L","L","L","L","L","L","L","?","?","M","M","M","N","O","O","P","P","P","P","P","P","P","?","?","?","?","Q","Q","Q","Q","?","?","?","?","?","?","?","?","?","?","?","?","?","?","?","?","?","?","?","?","?","?","?","?","?","?","?","?","?","?","?","?","?","?","?","P","P","?","Q","Q","Q","Q","Q","Q","Q","Q","Q","?","?","?","?","?","?","?","?","?","G","G","G","G","G","G","G","G","G","G","G","G","G","G","G","G","G","G","G","G","G","G","G","G","G","G","G","G","G","G","G","G","G","G","G","G","G","?","?","?","?","?","?","?","?","?","?","?","?","?","?","?","?","?","?","?","?","?","?","?","?","?","?","?","?","H","H","H","H","H","H","H","H","H","H","H","H","H","H","H","H","H","H","H","H","H","H","H","H","H","H","H","H","H","H","H","?","?","?","O","O","O","O","?","N","N","N","N","N","N","N","N","N","N","N","N","M","M","L","L","L","L","L","L","L","L","L","L","L","L","L","?","?","?","?","M","M","M","M","M","M","M","M","M","M","M","M","M","M","M","M","M","M","M","M","M","M","M","M","M","M","M","M","M","M","M","M","M","M","M","M","M","?","?","?","?","?","N","N","N","N","N","N","N","N","N","N","N","N","N","N","N","N","N","N","N","N","N","N","N","N","N","N","N","N","N","N","N","N","N","N","N","?","?","?","W","W","W","W","W","W","W","W","W","?","?","X","X","X","X","?","Y","?","?","?","?","?","?","?","?","?","?","?","?","?","?","?","Z","Z","Z","Z","Z","Z","Z","Z","Z","Z","Z","Z","Z","Z","Z","Z","Z","Z","Z","Z","?","?","Y","Y","Y","Y","?","Z","?","?","?","R","R","R","R","R","R","R","R","R","R","R","R","R","R","R","R","R","R","R","R","R","R","R","R","R","R","R","R","R","R","R","R","R","?","Q","Q","P","P","O","O","N","N","N","N","N","N","N","?","?","?","?","M","M","?","?","?","?","?","?","?","?","?","?","?","?","?","?","?","?","?","?","?","?","?","?","?","D","D","D","D","D","D","D","D","D","D","D","D","D","D","D","D","D","D","D","D","D","D","D","D","D","D","D","D","D","D","D","D","D","D","D","D","D","D","D","D","D","D","D","D","D","D","D","D","D","D","D","?","?","?","?","?","?","?","?","?","?","?","?","?","?","?","?","C","C","C","C","C","C","C","C","C","C","C","C","C","C","C","C","C","?","?","?","?","?","?","?","?","?","?","?","?","?","?","?","C","C","C","C","C","C","C","C","C","C","C","C","C","C","C","C","C","C","C","C","C","C","C","C","C","C","C","C","C","C","C","C","C","C","C","C","C","C","?","?","?","?","?","?","?","?","?","?","?","D","D","D","D","D","D","D","D","D","D","D","D","D","D","D","D","D","D","D","D","D","D","D","D","D","D","D","D","D","D","D","D","D","D","D","D","?","?","?","L","L","L","L","?","?","?","?","?","?","?","?","?","U","U","U","U","U","U","U","?","?","?","?","?","?","?","?","?","K","K","?","?","?","?","?","?","?","?","?","B","B","B","B","B","B","B","B","B","B","B","B","B","B","B","B","B","B","B","B","B","B","B","B","?","?","?","?","?","?","?","?","?","?","?","?","?","?","?","?","?","?","?","?","?","?","?","?","?","?","?","?","?","?","?","?","?","?","?","?","?","?","?","?","?","?","?","?","?","?","?","?","?","?","?","?","?","?","?","?","?","?","?","?","?","?","?","?","?","?","?","?","?","?","?","?","?","?","?","?","?","?","?","?","?","?","?","?","?","X","X","X","X","X","?","?","Y","Y","Y","Y","Y","Y","Y","Y","Y","?","?","Z","Z","Z","Z","Z","Z","Z","Z","Z","Z","Z","Z","Z","Z","Z","Z","Z","Z","Z","Z","Z","Z","Z","Z","Z","Z","Z","Z","Z","Z","Z","Z","Z","Z","Z","Z","?","Y","Y","X","V","?","?","?","?","?","?","?","?","?","?","?","?","?","?","?","?","?","?","?","?","?","?","?","?","?","?","?","?","?","?","?","?","?","?","?","?","?","?","?","?","?","?","?","?","?","?","?","?","?","?","?","?","?","?","?","?","?","?","?","?","?","?","?","?","?","?","?","?","?","?","?","?","?","?","?","?","?","?","?","?","?","?","?","?","?","?","?","?","?","S","S","S","S","S","S","S","?","?","?"],"t":[41,46,63,80,96,114,134,146,163,180,197,212,229,246,263,280,298,316,333,349,366,379,396,413,431,447,465,479,496,513,529,548,565,581,598,615,631,648,665,681,698,715,731,748,765,782,798,815,831,849,865,881,898,912,929,946,964,982,998,1012,1029,1046,1063,1080,1098,1115,1132,1148,1165,1182,1199,1215,1231,1248,1262,1279,1296,1313,1330,1348,1362,1379,1396,1413,1429,1447,1465,1482,1498,1515,1531,1548,1563,1579,1596,1613,1630,1646,1662,1679,1696,1714,1732,1748,1762,1779,1796,1812,1829,1847,1864,1880,1897,1914,1931,1947,1964,1980,1998,2012,2029,2046,2062,2080,2097,2115,2131,2148,2165,2181,2198,2215,2231,2248,2264,2281,2298,2314,2331,2347,2365,2381,2398,2415,2431,2448,2465,2481,2498,2515,2531,2548,2565,2582,2598,2615,2631,2648,2665,2681,2698,2715,2732,2748,2765,2779,2796,2812,2829,2847,2865,2882,2898,2915,2929,2946,2963,2979,2997,3014,3030,3047,3064,3081,3097,3114,3131,3148,3165,3181,3197,3214,3231,3247,3264,3281,3297,3314,3331,3348,3365,3381,3397,3414,3431,3447,3464,3481,3497,3514,3531,3547,3565,3581,3597,3614,3631,3647,3664,3681,3697,3714,3731,3748,3764,3781,3798,3815,3831,3848,3865,3881,3898,3914,3931,3948,3965,3981,3998,4015,4029,4046,4063,4080,4098,4115,4131,4148,4163,4181,4198,4215,4231,4248,4265,4282,4298,4315,4331,4348,4365,4381,4398,4414,4431,4448,4464,4480,4497,4513,4531,4548,4564,4581,4597,4614,4631,4647,4664,4679,4696,4712,4730,4747,4765,4782,4798,4815,4831,4847,4864,4881,4897,4914,4931,4947,4964,4980,4997,5014,5030,5048,5064,5081,5097,5114,5131,5147,5164,5180,5197,5214,5231,5247,5264,5281,5297,5314,5331,5348,5364,5381,5398,5415,5431,5448,5464,5481,5498,5514,5531,5548,5565,5579,5596,5612,5630,5647,5666,5682,5697,5713,5730,5747,5766,5779,5796,5813,5830,5849,5865,5882,5898,5915,5932,5948,5965,5982,5998,6015,6029,6046,6063,6079,6097,6115,6131,6148,6165,6181,6198,6214,6231,6248,6265,6281,6298,6315,6331,6348,6365,6381,6398,6415,6431,6448,6464,6481,6498,6515,6532,6548,6565,6579,6596,6612,6630,6647,6664,6681,6698,6714,6729,6746,6762,6779,6796,6812,6829,6846,6862,6879,6895,6912,6929,6945,6962,6979,6996,7014,7031,7048,7065,7082,7098,7115,7129,7146,7162,7179,7197,7213,7229,7246,7264,7281,7298,7315,7331,7348,7365,7381,7398,7415,7431,7448,7465,7481,7498,7515,7531,7548,7562,7579,7596,7613,7631,7648,7665,7682,7698,7715,7731,7748,7765,7781,7798,7814,7829,7846,7863,7880,7898,7915,7931,7948,7964,7981,7998,8013,8029,8046,8063,8081,8098,8115,8131,8148,8164,8181,8198,8215,8232,8248,8265,8281,8298,8315,8331,8348,8365,8381,8397,8412,8429,8446,8463,8480,8497,8514,8530,8547,8564,8580,8597,8615,8631,8648,8665,8681,8698,8715,8731,8748,8765,8781,8798,8815,8831,8848,8865,8881,8898,8915,8931,8948,8965,8982,8998,9014,9029,9046,9063,9079,9096,9113,9130,9147,9164,9181,9197,9214,9230,9247,9264,9280,9298,9315,9331,9348,9365,9381,9398,9415,9431,9448,9465,9482,9498,9515,9531,9548,9565,9581,9598,9615,9631,9648,9665,9681,9695,9712,9729,9746,9763,9779,9796,9813,9830,9848,9865,9879,9896,9912,9929,9947,9964,9979,9996,10013,10030,10047,10065,10082,10096,10112,10129,10147,10165,10181,10198,10215,10232,10248,10265,10282,10298,10315,10332,10348,10365,10381,10398,10415,10432,10448,10465,10481,10498,10515,10531,10548,10565,10581,10598,10615,10631,10648,10665,10681,10698,10715,10731,10748,10765,10781,10797,10813,10830,10847,10864,10881,10898,10915,10931,10948,10965,10981,10998,11013,11029,11046,11063,11080,11098,11114,11131,11147,11162,11179,11196,11213,11229,11246,11265,11281,11298,11315,11331,11348,11365,11381,11398,11415,11431,11448,11465,11481,11498,11515,11531,11548,11565,11581,11598,11615,11629,11646,11662,11679,11696,11712,11729,11746,11763,11780,11798,11815,11831,11848,11865,11881,11898,11915,11932,11948,11965,11981,11998,12012,12029,12046,12062,12080,12097,12115,12131,12148,12165,12181,12198,12215,12231,12248,12265,12281,12298,12312,12329,12346,12363,12380,12396,12412,12429,12448,12465,12481,12498,12513,12529,12546,12563,12580,12598,12614,12631,12648,12664,12681,12698,12715,12731,12748,12765,12782,12798,12815,12831,12848,12865,12882,12898,12916,12932,12948,12965,12982,12998,13015,13032,13048,13065,13081,13098,13115,13131,13148,13165,13179,13196,13213,13230,13248,13265,13281,13298,13315,13331,13348,13364,13380,13396,13413,13431,13448,13464,13479,13498,13515,13529,13546,13563,13580,13598,13615,13631,13648,13662,13681,13698,13715,13731,13748,13765,13781,13798,13815,13832,13848,13865,13881,13896,13915,13931,13948,13965,13982,13998,14013,14029,14046,14064,14081,14098,14115,14131,14148,14164,14181,14198,14215,14231,14248,14265,14281,14298,14315,14331,14346,14362,14379,14396,14413,14431,14448,14465,14481,14498,14515,14531,14548,14565,14582,14599,14615,14632,14648,14665,14681,14698,14715,14732,14748,14765,14782,14798,14815,14832,14849,14865,14881,14898,14915,14932,14948,14965,14982,14998,15013,15029,15046,15063,15080,15097,15115,15131,15148,15165,15182,15196,15213,15230,15247,15264,15282,15298,15315,15332,15348,15365,15381,15398,15415,15432,15448,15465,15481,15498,15513,15529,15546,15563,15579,15596,15613,15632,15648,15665,15681,15698,15715,15731,15748,15765,15782,15798,15815,15832,15848,15865,15881,15898,15915,15931,15948,15965,15981,15998,16013,16029,16048,16065,16081,16098,16115,16132,16148,16165,16181,16198,16215,16232,16246,16262,16279,16296,16313,16330,16348,16365,16382,16398,16415,16432,16448,16465,16481,16498,16515,16532,16546,16562,16579,16596,16614,16631,16647,16664,16681,16697,16714,16731,16748,16764,16781,16797,16814,16831,16847,16864,16881,16896,16912,16929,16946,16965,16982,16998,17013,17029,17046,17063,17080,17098,17112,17129,17146,17163,17179,17196,17213,17231,17248,17265,17281,17298,17315,17331,17348,17365,17381,17398,17415,17431,17448,17465,17481,17498,17515,17531,17548,17565,17581,17598,17615,17631,17648,17665,17681,17698,17715,17731,17748,17765,17781,17798,17815,17831,17848,17865,17880,17896,17913,17929,17946,17964,17981,17998,18014,18031,18048,18065,18081,18098,18115,18131,18148,18165,18182,18198,18215,18231,18248,18265,18281,18298,18315,18331,18348,18365,18381,18398,18415,18431,18448,18465,18481,18498,18515,18531,18548,18565,18582,18598,18615,18632,18648,18665,18681,18698,18715,18732,18748,18765,18782,18798,18815,18831,18848,18863,18880,18896,18913,18930,18948,18964,18981,18997,19012,19029,19046,19065,19081,19098,19115,19131,19148,19165,19181,19198,19215,19231,19248,19264,19279,19296,19313,19330,19348,19365,19382,19398,19415,19431,19448,19464,19481,19496,19513,19530,19548,19565,19582,19598,19615,19631,19648,19665,19681,19698,19715,19732,19748,19765,19781,19798,19814,19831,19848,19865,19881,19898,19915,19931,19948,19964,19981,19998,20014,20029,20046,20063,20080,20098,20115,20131,20148,20165,20181,20198,20215,20231,20248,20265,20281,20298,20315,20329,20346,20363,20381,20398,20415,20431,20448,20465,20482,20498,20515,20531,20548,20565,20582,20598,20615,20632,20646,20663,20680,20696,20714,20732,20749,20766,20783,20799,20815,20832,20849,20866,20882,20899,20916,20932,20949,20965,20982,20999,21012,21029,21046,21063,21080,21098,21115,21129,21146,21163,21181,21198,21215,21231,21248,21265,21281,21296,21313,21329,21346,21365,21381,21398,21415,21431,21448,21465,21482,21498,21515,21531,21548,21565,21582,21598,21615,21631,21648,21665,21682,21698,21715,21732,21748,21765,21781,21798,21814,21831,21848,21865,21881,21898,21915,21932,21948,21965,21980,21996,22013,22029,22047,22065,22081,22098,22115,22132,22148,22165,22182,22198,22215,22231,22248,22265,22282,22298,22315,22332,22348,22365,22381,22398,22414,22431,22448,22465,22482,22498,22515,22531,22548,22565,22581,22598,22614,22631,22648,22665,22681,22698,22715,22729,22746,22763,22779,22797,22814,22831,22848,22865,22881,22898,22915,22931,22948,22965,22981,22998,23012,23029,23046,23063,23081,23098,23115,23132,23148,23165,23181,23198,23215,23231,23248,23265,23281,23298,23315,23331,23346,23362,23379,23396,23413,23431,23448,23465,23481,23498,23515,23531,23548,23565,23581,23598,23615,23631,23648,23665,23681,23698,23715,23732,23748,23765,23781,23798,23815,23831,23848,23865,23881,23898,23915,23931,23948,23965,23981,23998,24012,24029,24046,24063,24080,24098,24115,24131,24148,24165,24181,24198,24215,24231,24248,24262,24279,24296,24312,24329,24346,24365,24381,24398,24415,24431,24448,24465,24481,24498,24515,24531,24548,24565,24581,24598,24615,24631,24648,24665,24681,24698,24712,24729,24748,24765,24781,24798,24815,24831,24848,24864,24881,24898,24915,24931,24948,24965,24981,24998,25015,25029,25046,25062,25080,25096,25113,25130,25148,25165,25181,25198,25215,25231,25248,25265,25281,25298,25315,25331,25348,25365,25382,25398,25415,25431,25448,25465,25482,25498,25515,25531,25546,25562,25579,25596,25613,25631,25648,25665,25681,25698,25715,25731,25748,25765,25781,25798,25814,25831,25848,25865,25881,25898,25915,25932,25946,25962,25979,25996,26012,26029,26046,26063,26081,26098,26114,26131,26148,26164,26181,26198,26215,26231,26248,26265,26281,26298,26315,26331,26348,26365,26381,26398,26415,26431,26448,26465,26481,26498,26515,26531,26548,26565,26581,26598,26615,26631,26648,26665,26681,26698,26715,26731,26748,26765,26781,26798,26815,26831,26848,26865,26882,26898,26915,26932,26948,26965,26981,26998,27015,27032,27048,27065,27079,27096,27113,27129,27146,27163,27180,27198,27215,27232,27248,27265,27281,27298,27315,27332,27348,27363,27379,27396,27413,27430,27447,27464,27481,27498,27515,27531,27548,27564,27581,27598,27615,27631,27648,27664,27681,27698,27714,27731,27748,27764,27781,27798,27815,27831,27848,27865,27881,27898,27915,27931,27947,27965,27981,27998,28015,28031,28048,28065,28081,28098,28115,28131,28146,28163,28180,28198,28215,28231,28248,28265,28282,28298,28315,28332,28348,28365,28381,28398,28415,28432,28448,28465,28482,28498,28515,28530,28547,28563,28580,28597,28614,28631,28648,28665,28682,28698,28713,28729,28746,28763,28781,28798,28815,28832,28848,28863,28879,28896,28913,28931,28948,28965,28982,28998,29015,29031,29048,29065,29082,29096,29113,29130,29148,29164,29181,29198,29215,29231,29248,29265,29282,29298,29315,29331,29348,29365,29382,29398,29415,29432,29448,29465,29482,29498,29515,29531,29548,29565,29581,29598,29615,29632,29648,29665,29681,29698,29715,29731,29748,29765,29782,29798,29815,29832,29848,29865,29882,29898,29915,29931,29947,29964,29981,29998,30014,30031,30047,30063,30079,30096,30113,30130,30147,30163,30180,30197,30214,30231,30247,30264,30281,30298,30314,30331,30347,30364,30381,30397,30414,30431,30446,30463,30479,30496,30512,30529,30547,30565,30581,30598,30615,30629,30646,30663,30680,30697,30714,30731,30747,30765,30781,30798,30815,30831,30847,30863,30879,30896,30913,30929,30946,30963,30981,30998,31015,31031,31048,31065,31081,31098,31115,31131,31148,31165,31181,31198,31215,31232,31246,31263,31279,31296,31313,31330,31348,31365,31382,31398,31412,31429,31446,31463,31481,31499,31515,31532,31548,31565,31582,31598,31615,31632,31648,31665,31681,31698,31715,31731,31748,31765,31781,31798,31815,31831,31848,31865,31881,31898,31915,31931,31948,31965,31981,31998,32015,32031,32048,32065,32080,32096,32113,32131,32148,32165,32181,32198,32215,32232,32248,32265,32281,32298,32314,32331,32348,32365,32381,32398,32415,32431,32448,32465,32481,32498,32514,32531,32547,32564,32581,32597,32614,32631,32648,32664,32681,32698,32715,32731,32748,32764,32779,32796,32813,32830,32847,32864,32879,32896,32913,32930,32947,32965,32981,32998,33014,33031,33048,33065,33081,33098,33115,33132,33148,33165,33181,33196,33213,33229,33246,33263,33280,33298,33315,33332,33348,33365,33379,33396,33413,33430,33447,33465,33481,33498,33513,33529,33546,33563,33581,33598,33615,33632,33648,33665,33681,33698,33714,33731,33746,33762,33780,33796,33814,33831,33848,33865,33881,33898,33915,33929,33946,33963,33980,33997,34014,34031,34049,34065,34081,34098,34113,34129,34146,34163,34180,34197,34214,34231,34248,34264,34281,34298,34314,34331,34348,34365,34381,34398,34414,34431,34448,34464,34481,34498,34515,34531,34548,34565,34581,34598,34614,34631,34648,34664,34681,34698,34714,34731,34748,34764,34781,34797,34814,34831,34847,34865,34881,34897,34914,34931,34948,34965,34981,34998,35014,35032,35048,35065,35081,35098,35115,35132,35148,35163,35179,35196,35213,35230,35247,35264,35279,35296,35313,35330,35347,35364,35381,35398,35415,35431,35446,35462,35479,35496,35513,35531,35547,35564,35581,35597,35613,35629,35646,35663,35681,35696,35712,35729,35746,35764,35779,35796,35813,35830,35847,35864,35880,35897,35914,35930,35947,35964,35980,35997,36014,36031,36048,36064,36081,36098,36114,36131,36148,36164,36181,36198,36214,36231,36248,36264,36281,36298,36314,36331,36348,36364,36381,36398,36414,36431,36448,36464,36481,36498,36514,36531,36548,36565,36581,36597,36612,36629,36646,36664,36681,36698,36715,36731,36748,36762,36779,36796,36813,36830,36848,36865,36881,36898,36915,36931,36946,36962,36979,36996,37012,37029,37047,37065,37081,37098,37115,37131,37148,37165,37181,37198,37215,37232,37248,37265,37281,37298,37315,37331,37348,37365,37381,37398,37414,37431,37448,37465,37481,37498,37515,37531,37548,37565,37582,37598,37614,37631,37647,37664,37681,37697,37712,37729,37746,37763,37781,37798,37814,37831,37848,37865,37882,37898,37912,37929,37946,37963,37981,37998,38014,38031,38048,38065,38081,38097,38112,38129,38146,38164,38181,38198,38214,38231,38248,38264,38281,38297,38314,38331,38348,38364,38381,38398,38414,38429,38446,38463,38480,38498,38512,38529,38546,38565,38581,38596,38612,38629,38647,38665,38682,38698,38715,38732,38748,38765,38779,38796,38812,38829,38847,38865,38879,38896,38913,38931,38948,38965,38981,38998,39014,39031,39048,39065,39081,39098,39114,39131,39148,39164,39181,39198,39215,39229,39246,39263,39280,39296,39313,39330,39347,39365,39382,39399,39413,39429,39447,39464,39482,39500,39517,39533,39550,39567,39583,39600,39613,39630,39646,39663,39680,39697,39713,39730,39748,39765,39782,39799,39817,39833,39850,39863,39880,39897,39915,39933,39950,39966,39983,39997,40014,40030,40048,40065,40083,40100,40114,40130,40148,40165,40182,40199,40216,40233,40250,40266,40283,40300,40317,40333,40350,40367,40383,40400,40416,40433,40450,40466,40483,40500,40517,40533,40550,40567,40583,40600,40615,40631,40648,40666,40684,40700,40718,40731,40748,40765,40782,40799,40816,40833,40849,40866,40884,40899,40915,40932,40949,40968,40982,40999,41016,41034,41051,41068,41084,41101,41118,41135,41151,41168,41185,41201,41218,41235,41251,41268,41285,41302,41318,41335,41352,41368,41385,41401,41418,41435,41452,41468,41485,41502,41519,41535,41552,41566,41583,41600,41617,41635,41652,41669,41682,41699,41716,41735,41752,41769,41785,41802,41819,41835,41853,41869,41886,41899,41917,41933,41951,41967,41984,42001,42018,42033,42050,42067,42084,42101,42119,42136,42153,42170,42187,42200,42217,42233,42250,42267,42283,42301,42318,42336,42352,42370,42386,42403,42420,42436,42452,42469,42486,42500,42517,42534,42552,42570,42586,42601,42617,42634,42652,42670,42687,42703,42720,42734,42751,42769,42787,42804,42821,42837,42854,42871,42887,42904,42921,42937,42954,42971,42985,43001,43019,43035,43053,43070,43086,43101,43118,43135,43153,43168,43185,43202,43220,43237,43254,43271,43287,43304,43321,43338,43352,43368,43385,43402,43419,43438,43452,43469,43486,43503,43520,43536,43553,43570,43587,43603,43620,43637,43655,43672,43688,43705,43722,43738,43755,43772,43788,43805,43819,43835,43852,43870,43888,43905,43919,43936,43953,43972,43986,44003,44020,44039,44056,44072,44089,44105,44122,44139,44156,44172,44189,44206,44219,44236,44253,44270,44287,44305,44323,44339,44356,44373,44390,44406,44420,44436,44454,44471,44489,44505,44520,44537,44554,44573,44590,44606,44623,44637,44653,44670,44687,44706,44726],"hit":[null],"x":[0.006802721088435374,0.02040816326530612,0.027210884353741496,0.030612244897959183,0.030612244897959183,0.030612244897959183,0.030612244897959183,0.030612244897959183,0.030612244897959183,0.030612244897959183,0.030612244897959183,0.030612244897959183,0.030612244897959183,0.030612244897959183,0.030612244897959183,0.030612244897959183,0.030612244897959183,0.030612244897959183,0.030612244897959183,0.030612244897959183,0.034013605442176874,0.03741496598639456,0.04081632653061224,0.06462585034013606,0.11564625850340136,0.1326530612244898,0.1326530612244898,0.1326530612244898,0.1326530612244898,0.1326530612244898,0.1326530612244898,0.1326530612244898,0.1326530612244898,0.1326530612244898,0.1326530612244898,0.1326530612244898,0.1326530612244898,0.1326530612244898,0.1326530612244898,0.1326530612244898,0.1326530612244898,0.1326530612244898,0.1326530612244898,0.1326530612244898,0.1326530612244898,0.1326530612244898,0.1326530612244898,0.1326530612244898,0.1326530612244898,0.1326530612244898,0.1326530612244898,0.1326530612244898,0.1326530612244898,0.1326530612244898,0.1326530612244898,0.1326530612244898,0.1326530612244898,0.1326530612244898,0.1326530612244898,0.1326530612244898,0.1326530612244898,0.1326530612244898,0.1326530612244898,0.1326530612244898,0.12585034013605442,0.06462585034013606,-0.01020408163265306,-0.027210884353741496,-0.027210884353741496,-0.013605442176870748,-0.006802721088435374,-0.003401360544217687,0.006802721088435374,0.013605442176870748,0.017006802721088437,0.017006802721088437,0.017006802721088437,0.017006802721088437,0.023809523809523808,0.03741496598639456,0.05102040816326531,0.07142857142857142,0.09523809523809523,0.11224489795918367,0.14285714285714285,0.17006802721088435,0.18027210884353742,0.23129251700680273,0.2619047619047619,0.29591836734693877,0.336734693877551,0.3741496598639456,0.3945578231292517,0.40816326530612246,0.41496598639455784,0.42857142857142855,0.4421768707482993,0.45918367346938777,0.47278911564625853,0.4897959183673469,0.5136054421768708,0.5306122448979592,0.5408163265306123,0.5578231292517006,0.5816326530612245,0.6054421768707483,0.6224489795918368,0.6326530612244898,0.6360544217687075,0.6394557823129252,0.6394557823129252,0.6394557823129252,0.6394557823129252,0.6394557823129252,0.6394557823129252,0.6394557823129252,0.6394557823129252,0.6394557823129252,0.6394557823129252,0.6394557823129252,0.6394557823129252,0.6394557823129252,0.6428571428571429,0.6462585034013606,0.6530612244897959,0.6666666666666666,0.6870748299319728,0.7278911564625851,0.7755102040816326,0.8095238095238095,0.8401360544217688,0.8639455782312925,0.8809523809523809,0.8945578231292517,0.9047619047619048,0.9047619047619048,0.9047619047619048,0.9047619047619048,0.9047619047619048,0.9047619047619048,0.8945578231292517,0.8707482993197279,0.8571428571428571,0.8469387755102041,0.8367346938775511,0.8299319727891157,0.8299319727891157,0.8299319727891157,0.8299319727891157,0.8299319727891157,0.8299319727891157,0.8333333333333334,0.8401360544217688,0.8571428571428571,0.8707482993197279,0.8843537414965986,0.8945578231292517,0.8979591836734694,0.9013605442176871,0.9013605442176871,0.8979591836734694,0.8843537414965986,0.8537414965986394,0.8163265306122449,0.782312925170068,0.7619047619047619,0.7448979591836735,0.7414965986394558,0.7346938775510204,0.7312925170068028,0.7278911564625851,0.7244897959183674,0.7210884353741497,0.717687074829932,0.717687074829932,0.7142857142857143,0.7142857142857143,0.7108843537414966,0.7074829931972789,0.6802721088435374,0.6326530612244898,0.5510204081632653,0.43537414965986393,0.2857142857142857,0.12244897959183673,0.003401360544217687,-0.05782312925170068,-0.08843537414965986,-0.09863945578231292,-0.09863945578231292,-0.09863945578231292,-0.09863945578231292,-0.09863945578231292,-0.09863945578231292,-0.09863945578231292,-0.09863945578231292,-0.09863945578231292,-0.09863945578231292,-0.08843537414965986,-0.07142857142857142,-0.05442176870748299,-0.03741496598639456,-0.02040816326530612,-0.006802721088435374,0.01020408163265306,0.02040816326530612,0.034013605442176874,0.047619047619047616,0.05782312925170068,0.08163265306122448,0.10204081632653061,0.1054421768707483,0.10884353741496598,0.11224489795918367,0.11904761904761904,0.1326530612244898,0.16326530612244897,0.1836734693877551,0.20068027210884354,0.2108843537414966,0.22108843537414966,0.22789115646258504,0.23469387755102042,0.23809523809523808,0.24149659863945577,0.24829931972789115,0.24829931972789115,0.25170068027210885,0.25170068027210885,0.25510204081632654,0.25510204081632654,0.25510204081632654,0.25510204081632654,0.25510204081632654,0.25510204081632654,0.25510204081632654,0.2619047619047619,0.2687074829931973,0.2891156462585034,0.30612244897959184,0.3197278911564626,0.3299319727891156,0.336734693877551,0.3435374149659864,0.3469387755102041,0.35034013605442177,0.35374149659863946,0.35714285714285715,0.36394557823129253,0.3673469387755102,0.3707482993197279,0.3741496598639456,0.37755102040816324,0.38095238095238093,0.3877551020408163,0.391156462585034,0.3945578231292517,0.4013605442176871,0.40476190476190477,0.41496598639455784,0.43537414965986393,0.4489795918367347,0.4523809523809524,0.4523809523809524,0.4523809523809524,0.4523809523809524,0.4489795918367347,0.4387755102040816,0.43537414965986393,0.43197278911564624,0.42517006802721086,0.4217687074829932,0.41836734693877553,0.41496598639455784,0.41156462585034015,0.40816326530612246,0.4013605442176871,0.4013605442176871,0.4013605442176871,0.4013605442176871,0.4013605442176871,0.40476190476190477,0.4217687074829932,0.4489795918367347,0.5204081632653061,0.6020408163265306,0.6632653061224489,0.717687074829932,0.7551020408163265,0.7857142857142857,0.7959183673469388,0.8061224489795918,0.8129251700680272,0.8197278911564626,0.8333333333333334,0.8469387755102041,0.8605442176870748,0.8843537414965986,0.9319727891156463,0.9795918367346939,1.0476190476190477,1.0952380952380953,1.1394557823129252,1.1666666666666667,1.1870748299319729,1.1938775510204083,1.2006802721088434,1.2040816326530612,1.2040816326530612,1.2040816326530612,1.2040816326530612,1.2040816326530612,1.2040816326530612,1.2040816326530612,1.2040816326530612,1.2040816326530612,1.2040816326530612,1.2040816326530612,1.2040816326530612,1.2040816326530612,1.1972789115646258,1.1938775510204083,1.1904761904761905,1.183673469387755,1.1802721088435375,1.1768707482993197,1.1768707482993197,1.1734693877551021,1.1700680272108843,1.1700680272108843,1.1700680272108843,1.1666666666666667,1.163265306122449,1.163265306122449,1.163265306122449,1.1564625850340136,1.1564625850340136,1.1564625850340136,1.1564625850340136,1.1564625850340136,1.1564625850340136,1.1564625850340136,1.1564625850340136,1.1564625850340136,1.1564625850340136,1.1598639455782314,1.1598639455782314,1.1598639455782314,1.1598639455782314,1.1598639455782314,1.1598639455782314,1.1598639455782314,1.1598639455782314,1.1598639455782314,1.1598639455782314,1.1598639455782314,1.1598639455782314,1.1598639455782314,1.1598639455782314,1.1598639455782314,1.1598639455782314,1.1598639455782314,1.1598639455782314,1.1598639455782314,1.1598639455782314,1.1598639455782314,1.1598639455782314,1.1598639455782314,1.1598639455782314,1.1598639455782314,1.1598639455782314,1.1598639455782314,1.1598639455782314,1.1598639455782314,1.1598639455782314,1.1598639455782314,1.1598639455782314,1.1598639455782314,1.1598639455782314,1.1598639455782314,1.1598639455782314,1.1598639455782314,1.1598639455782314,1.1598639455782314,1.1598639455782314,1.1598639455782314,1.1598639455782314,1.1598639455782314,1.1598639455782314,1.1598639455782314,1.1564625850340136,1.153061224489796,1.1496598639455782,1.1326530612244898,1.119047619047619,1.1020408163265305,1.0918367346938775,1.0816326530612246,1.064625850340136,1.0374149659863945,1.010204081632653,0.9693877551020408,0.9183673469387755,0.8605442176870748,0.782312925170068,0.7482993197278912,0.7278911564625851,0.7108843537414966,0.6700680272108843,0.6292517006802721,0.608843537414966,0.6020408163265306,0.5986394557823129,0.5918367346938775,0.5884353741496599,0.5884353741496599,0.5884353741496599,0.5884353741496599,0.5884353741496599,0.5884353741496599,0.5884353741496599,0.5816326530612245,0.5612244897959183,0.5340136054421769,0.48639455782312924,0.41496598639455784,0.3741496598639456,0.3741496598639456,0.37755102040816324,0.42857142857142855,0.5034013605442177,0.5204081632653061,0.5204081632653061,0.5204081632653061,0.5204081632653061,0.5204081632653061,0.5204081632653061,0.5204081632653061,0.5204081632653061,0.5204081632653061,0.5204081632653061,0.5204081632653061,0.5204081632653061,0.5204081632653061,0.5204081632653061,0.5204081632653061,0.5204081632653061,0.5204081632653061,0.5204081632653061,0.5204081632653061,0.5204081632653061,0.5204081632653061,0.5204081632653061,0.5136054421768708,0.5102040816326531,0.5102040816326531,0.5102040816326531,0.5102040816326531,0.5136054421768708,0.5136054421768708,0.5170068027210885,0.5204081632653061,0.5204081632653061,0.5204081632653061,0.5238095238095238,0.5238095238095238,0.5238095238095238,0.5238095238095238,0.5238095238095238,0.5238095238095238,0.5238095238095238,0.5238095238095238,0.5204081632653061,0.5170068027210885,0.5136054421768708,0.5102040816326531,0.5068027210884354,0.5034013605442177,0.4965986394557823,0.4931972789115646,0.4897959183673469,0.4897959183673469,0.48639455782312924,0.47959183673469385,0.47619047619047616,0.47278911564625853,0.47278911564625853,0.46938775510204084,0.46938775510204084,0.46598639455782315,0.46598639455782315,0.4557823129251701,0.445578231292517,0.43197278911564624,0.41836734693877553,0.40816326530612246,0.3979591836734694,0.391156462585034,0.3843537414965986,0.3741496598639456,0.35034013605442177,0.3197278911564626,0.2891156462585034,0.272108843537415,0.25510204081632654,0.22789115646258504,0.20408163265306123,0.19047619047619047,0.18027210884353742,0.17006802721088435,0.16666666666666666,0.1598639455782313,0.15306122448979592,0.14285714285714285,0.14285714285714285,0.14285714285714285,0.14285714285714285,0.14285714285714285,0.14285714285714285,0.14285714285714285,0.14285714285714285,0.14285714285714285,0.14285714285714285,0.14285714285714285,0.14285714285714285,0.14285714285714285,0.14285714285714285,0.14285714285714285,0.13945578231292516,0.1360544217687075,0.12585034013605442,0.11224489795918367,0.09863945578231292,0.08503401360544217,0.0782312925170068,0.06802721088435375,0.05782312925170068,0.05102040816326531,0.04081632653061224,0.04081632653061224,0.03741496598639456,0.03741496598639456,0.03741496598639456,0.04421768707482993,0.05782312925170068,0.06802721088435375,0.08503401360544217,0.10204081632653061,0.12244897959183673,0.16326530612244897,0.20408163265306123,0.24149659863945577,0.2585034013605442,0.2687074829931973,0.2789115646258503,0.2789115646258503,0.2789115646258503,0.272108843537415,0.25510204081632654,0.22448979591836735,0.18027210884353742,0.11904761904761904,0.08843537414965986,0.06802721088435375,0.05102040816326531,0.03741496598639456,0.023809523809523808,0.01020408163265306,0,-0.01020408163265306,-0.013605442176870748,-0.02040816326530612,-0.02040816326530612,-0.02040816326530612,-0.023809523809523808,-0.023809523809523808,-0.023809523809523808,-0.023809523809523808,-0.023809523809523808,-0.023809523809523808,-0.023809523809523808,-0.023809523809523808,-0.023809523809523808,-0.023809523809523808,-0.023809523809523808,-0.023809523809523808,-0.013605442176870748,0,0.01020408163265306,0.02040816326530612,0.030612244897959183,0.05102040816326531,0.0782312925170068,0.11224489795918367,0.1564625850340136,0.1870748299319728,0.22108843537414966,0.24829931972789115,0.2755102040816326,0.30272108843537415,0.3299319727891156,0.35374149659863946,0.3741496598639456,0.3877551020408163,0.3979591836734694,0.4013605442176871,0.40816326530612246,0.41836734693877553,0.43197278911564624,0.4489795918367347,0.46598639455782315,0.48299319727891155,0.4931972789115646,0.5068027210884354,0.5238095238095238,0.54421768707483,0.5510204081632653,0.5578231292517006,0.5612244897959183,0.564625850340136,0.564625850340136,0.564625850340136,0.564625850340136,0.5680272108843537,0.5680272108843537,0.5680272108843537,0.5680272108843537,0.5680272108843537,0.5680272108843537,0.5680272108843537,0.5680272108843537,0.5680272108843537,0.5680272108843537,0.5680272108843537,0.5680272108843537,0.5680272108843537,0.5680272108843537,0.5680272108843537,0.5680272108843537,0.5680272108843537,0.5680272108843537,0.5680272108843537,0.5680272108843537,0.5680272108843537,0.5680272108843537,0.5680272108843537,0.5680272108843537,0.5680272108843537,0.5680272108843537,0.5680272108843537,0.5680272108843537,0.5680272108843537,0.5714285714285714,0.5850340136054422,0.608843537414966,0.6360544217687075,0.6768707482993197,0.717687074829932,0.7653061224489796,0.8197278911564626,0.891156462585034,0.9693877551020408,1.034013605442177,1.0748299319727892,1.08843537414966,1.0918367346938775,1.0918367346938775,1.08843537414966,1.0748299319727892,1.0748299319727892,1.0782312925170068,1.0850340136054422,1.08843537414966,1.0816326530612246,1.0612244897959184,1.0476190476190477,1.030612244897959,1.0204081632653061,1.0170068027210883,1.0136054421768708,1.010204081632653,1.0068027210884354,1.0034013605442176,1,0.9965986394557823,0.9931972789115646,0.9863945578231292,0.9829931972789115,0.9761904761904762,0.9693877551020408,0.9659863945578231,0.9625850340136054,0.9489795918367347,0.9421768707482994,0.9421768707482994,0.9421768707482994,0.9319727891156463,0.9217687074829932,0.9149659863945578,0.9081632653061225,0.8945578231292517,0.8775510204081632,0.8435374149659864,0.8231292517006803,0.7993197278911565,0.7755102040816326,0.7517006802721088,0.7346938775510204,0.7142857142857143,0.6938775510204082,0.6836734693877551,0.6768707482993197,0.673469387755102,0.6666666666666666,0.6632653061224489,0.6598639455782312,0.6530612244897959,0.6530612244897959,0.6496598639455783,0.6496598639455783,0.6462585034013606,0.6394557823129252,0.6360544217687075,0.6326530612244898,0.6326530612244898,0.6292517006802721,0.6258503401360545,0.6258503401360545,0.6224489795918368,0.6224489795918368,0.6224489795918368,0.6190476190476191,0.6190476190476191,0.6190476190476191,0.6156462585034014,0.6156462585034014,0.6156462585034014,0.6156462585034014,0.6156462585034014,0.6156462585034014,0.6156462585034014,0.6156462585034014,0.6156462585034014,0.6156462585034014,0.6156462585034014,0.6156462585034014,0.6156462585034014,0.6156462585034014,0.6156462585034014,0.6156462585034014,0.6156462585034014,0.6156462585034014,0.6156462585034014,0.6156462585034014,0.6156462585034014,0.6156462585034014,0.6156462585034014,0.6156462585034014,0.6156462585034014,0.6156462585034014,0.6156462585034014,0.6190476190476191,0.6190476190476191,0.6190476190476191,0.6190476190476191,0.6190476190476191,0.6190476190476191,0.6190476190476191,0.6258503401360545,0.6360544217687075,0.6496598639455783,0.6768707482993197,0.7108843537414966,0.7346938775510204,0.7517006802721088,0.7551020408163265,0.7517006802721088,0.7346938775510204,0.7006802721088435,0.6224489795918368,0.48299319727891155,0.40816326530612246,0.3945578231292517,0.3945578231292517,0.3945578231292517,0.3945578231292517,0.3945578231292517,0.3945578231292517,0.3945578231292517,0.3945578231292517,0.3945578231292517,0.3945578231292517,0.3945578231292517,0.3945578231292517,0.3945578231292517,0.3945578231292517,0.3945578231292517,0.3945578231292517,0.3945578231292517,0.3945578231292517,0.3945578231292517,0.3945578231292517,0.3945578231292517,0.3945578231292517,0.3945578231292517,0.40816326530612246,0.43197278911564624,0.45918367346938777,0.4897959183673469,0.5136054421768708,0.5238095238095238,0.5238095238095238,0.5306122448979592,0.5408163265306123,0.5578231292517006,0.5748299319727891,0.5986394557823129,0.6156462585034014,0.6224489795918368,0.6292517006802721,0.6360544217687075,0.6428571428571429,0.6530612244897959,0.6598639455782312,0.6666666666666666,0.6768707482993197,0.6802721088435374,0.6870748299319728,0.6972789115646258,0.7074829931972789,0.7108843537414966,0.7142857142857143,0.7108843537414966,0.7040816326530612,0.6904761904761905,0.6632653061224489,0.6462585034013606,0.6258503401360545,0.6054421768707483,0.5952380952380952,0.5850340136054422,0.5680272108843537,0.5544217687074829,0.54421768707483,0.5374149659863946,0.5306122448979592,0.5306122448979592,0.5306122448979592,0.5306122448979592,0.5306122448979592,0.5306122448979592,0.5306122448979592,0.5306122448979592,0.5374149659863946,0.5476190476190477,0.5612244897959183,0.5714285714285714,0.5816326530612245,0.5918367346938775,0.6020408163265306,0.6122448979591837,0.6224489795918368,0.6360544217687075,0.6462585034013606,0.6632653061224489,0.673469387755102,0.6870748299319728,0.6972789115646258,0.7040816326530612,0.7108843537414966,0.7142857142857143,0.7312925170068028,0.7380952380952381,0.7448979591836735,0.7517006802721088,0.7551020408163265,0.7619047619047619,0.7653061224489796,0.7687074829931972,0.7755102040816326,0.7789115646258503,0.7857142857142857,0.7891156462585034,0.7891156462585034,0.7891156462585034,0.782312925170068,0.7687074829931972,0.7585034013605442,0.7414965986394558,0.7278911564625851,0.7108843537414966,0.6938775510204082,0.6768707482993197,0.6224489795918368,0.5816326530612245,0.5476190476190477,0.5238095238095238,0.5102040816326531,0.5034013605442177,0.5,0.5,0.5,0.5,0.5,0.5,0.5,0.5,0.5,0.4965986394557823,0.4965986394557823,0.4931972789115646,0.4897959183673469,0.47278911564625853,0.4523809523809524,0.42857142857142855,0.3877551020408163,0.35374149659863946,0.32653061224489793,0.3231292517006803,0.3231292517006803,0.3231292517006803,0.3231292517006803,0.3231292517006803,0.3231292517006803,0.3197278911564626,0.3197278911564626,0.3197278911564626,0.3163265306122449,0.30952380952380953,0.30612244897959184,0.29591836734693877,0.2789115646258503,0.25170068027210885,0.21428571428571427,0.17687074829931973,0.14625850340136054,0.12244897959183673,0.11224489795918367,0.10884353741496598,0.10884353741496598,0.10884353741496598,0.10884353741496598,0.10884353741496598,0.10884353741496598,0.10884353741496598,0.10884353741496598,0.11564625850340136,0.14625850340136054,0.19047619047619047,0.2585034013605442,0.32653061224489793,0.38095238095238093,0.41496598639455784,0.42857142857142855,0.42857142857142855,0.42857142857142855,0.42857142857142855,0.42857142857142855,0.42857142857142855,0.42857142857142855,0.43197278911564624,0.4387755102040816,0.4523809523809524,0.48299319727891155,0.5238095238095238,0.5680272108843537,0.6360544217687075,0.6700680272108843,0.7040816326530612,0.7380952380952381,0.7653061224489796,0.7857142857142857,0.7993197278911565,0.8061224489795918,0.8095238095238095,0.8129251700680272,0.8129251700680272,0.8163265306122449,0.8197278911564626,0.8231292517006803,0.8299319727891157,0.8367346938775511,0.8469387755102041,0.8537414965986394,0.8571428571428571,0.8605442176870748,0.8605442176870748,0.8639455782312925,0.8639455782312925,0.8537414965986394,0.8367346938775511,0.8197278911564626,0.8061224489795918,0.7925170068027211,0.7789115646258503,0.7721088435374149,0.7619047619047619,0.7517006802721088,0.7482993197278912,0.7380952380952381,0.7244897959183674,0.717687074829932,0.7074829931972789,0.6938775510204082,0.6802721088435374,0.6700680272108843,0.6530612244897959,0.6360544217687075,0.6224489795918368,0.608843537414966,0.5918367346938775,0.5782312925170068,0.5476190476190477,0.5272108843537415,0.5068027210884354,0.4897959183673469,0.47278911564625853,0.46598639455782315,0.45918367346938777,0.4523809523809524,0.4523809523809524,0.4489795918367347,0.445578231292517,0.4421768707482993,0.42857142857142855,0.40816326530612246,0.3877551020408163,0.3707482993197279,0.35374149659863946,0.3435374149659864,0.3401360544217687,0.3401360544217687,0.3401360544217687,0.3401360544217687,0.3401360544217687,0.3401360544217687,0.3401360544217687,0.3401360544217687,0.336734693877551,0.336734693877551,0.3333333333333333,0.3299319727891156,0.3231292517006803,0.30952380952380953,0.2891156462585034,0.2619047619047619,0.23809523809523808,0.22108843537414966,0.21428571428571427,0.21428571428571427,0.21428571428571427,0.21428571428571427,0.21428571428571427,0.21428571428571427,0.24489795918367346,0.3231292517006803,0.40816326530612246,0.4931972789115646,0.5578231292517006,0.6054421768707483,0.6394557823129252,0.6530612244897959,0.6598639455782312,0.673469387755102,0.6802721088435374,0.6836734693877551,0.6904761904761905,0.6938775510204082,0.6972789115646258,0.7040816326530612,0.7074829931972789,0.717687074829932,0.7210884353741497,0.7210884353741497,0.7210884353741497,0.7210884353741497,0.7244897959183674,0.7244897959183674,0.7244897959183674,0.7244897959183674,0.7244897959183674,0.7244897959183674,0.7244897959183674,0.7244897959183674,0.7244897959183674,0.7244897959183674,0.7244897959183674,0.7244897959183674,0.717687074829932,0.7074829931972789,0.6972789115646258,0.6836734693877551,0.6666666666666666,0.6496598639455783,0.6326530612244898,0.6190476190476191,0.6190476190476191,0.6190476190476191,0.6190476190476191,0.6190476190476191,0.6190476190476191,0.6190476190476191,0.6156462585034014,0.6122448979591837,0.608843537414966,0.5952380952380952,0.5748299319727891,0.5612244897959183,0.5510204081632653,0.54421768707483,0.5408163265306123,0.5340136054421769,0.5306122448979592,0.5238095238095238,0.5238095238095238,0.5238095238095238,0.5238095238095238,0.5238095238095238,0.5306122448979592,0.5340136054421769,0.54421768707483,0.5544217687074829,0.5748299319727891,0.6360544217687075,0.7244897959183674,0.8333333333333334,0.935374149659864,1.0204081632653061,1.0782312925170068,1.1122448979591837,1.1394557823129252,1.163265306122449,1.1734693877551021,1.183673469387755,1.1870748299319729,1.1904761904761905,1.1870748299319729,1.1462585034013606,1.0578231292517006,0.9455782312925171,0.8197278911564626,0.7346938775510204,0.673469387755102,0.6564625850340136,0.6530612244897959,0.6530612244897959,0.6530612244897959,0.6530612244897959,0.6530612244897959,0.6530612244897959,0.6564625850340136,0.6598639455782312,0.6700680272108843,0.6904761904761905,0.7517006802721088,0.7789115646258503,0.7925170068027211,0.7993197278911565,0.8027210884353742,0.8027210884353742,0.8027210884353742,0.8027210884353742,0.8027210884353742,0.8027210884353742,0.8027210884353742,0.8027210884353742,0.8027210884353742,0.8027210884353742,0.8027210884353742,0.8027210884353742,0.7959183673469388,0.7959183673469388,0.7925170068027211,0.7891156462585034,0.782312925170068,0.782312925170068,0.7789115646258503,0.7789115646258503,0.7755102040816326,0.7755102040816326,0.7653061224489796,0.7517006802721088,0.7414965986394558,0.7414965986394558,0.7414965986394558,0.7414965986394558,0.7414965986394558,0.7414965986394558,0.7380952380952381,0.7380952380952381,0.7380952380952381,0.7380952380952381,0.7380952380952381,0.7380952380952381,0.7380952380952381,0.7380952380952381,0.7380952380952381,0.7380952380952381,0.7380952380952381,0.7380952380952381,0.7380952380952381,0.7380952380952381,0.7380952380952381,0.7380952380952381,0.7380952380952381,0.7380952380952381,0.7380952380952381,0.7380952380952381,0.7380952380952381,0.7380952380952381,0.7380952380952381,0.7380952380952381,0.7380952380952381,0.7380952380952381,0.7380952380952381,0.7380952380952381,0.7380952380952381,0.7380952380952381,0.7380952380952381,0.7380952380952381,0.7380952380952381,0.7380952380952381,0.7380952380952381,0.7312925170068028,0.717687074829932,0.6938775510204082,0.6326530612244898,0.5986394557823129,0.5782312925170068,0.5680272108843537,0.5578231292517006,0.5476190476190477,0.5408163265306123,0.5340136054421769,0.5306122448979592,0.5238095238095238,0.5170068027210885,0.5034013605442177,0.4897959183673469,0.47619047619047616,0.4557823129251701,0.43537414965986393,0.41496598639455784,0.391156462585034,0.3741496598639456,0.3673469387755102,0.36394557823129253,0.36394557823129253,0.36054421768707484,0.35714285714285715,0.35374149659863946,0.3469387755102041,0.3435374149659864,0.3401360544217687,0.336734693877551,0.3333333333333333,0.3299319727891156,0.3299319727891156,0.32653061224489793,0.32653061224489793,0.3197278911564626,0.3197278911564626,0.3197278911564626,0.3197278911564626,0.3197278911564626,0.3197278911564626,0.3197278911564626,0.3197278911564626,0.3197278911564626,0.3197278911564626,0.3197278911564626,0.3197278911564626,0.3197278911564626,0.3197278911564626,0.3197278911564626,0.3197278911564626,0.3197278911564626,0.3197278911564626,0.3197278911564626,0.3197278911564626,0.3197278911564626,0.3197278911564626,0.3197278911564626,0.3197278911564626,0.3197278911564626,0.3197278911564626,0.3197278911564626,0.3197278911564626,0.3197278911564626,0.3197278911564626,0.3197278911564626,0.3163265306122449,0.3163265306122449,0.3129251700680272,0.3129251700680272,0.3129251700680272,0.3163265306122449,0.3197278911564626,0.3299319727891156,0.3333333333333333,0.3401360544217687,0.3435374149659864,0.3469387755102041,0.3469387755102041,0.35034013605442177,0.35034013605442177,0.35034013605442177,0.35034013605442177,0.35034013605442177,0.3129251700680272,0.2619047619047619,0.20408163265306123,0.13945578231292516,0.09863945578231292,0.08163265306122448,0.07482993197278912,0.07482993197278912,0.07482993197278912,0.07482993197278912,0.07482993197278912,0.07482993197278912,0.07482993197278912,0.07482993197278912,0.07482993197278912,0.07482993197278912,0.07482993197278912,0.07142857142857142,0.06802721088435375,0.06462585034013606,0.061224489795918366,0.061224489795918366,0.05442176870748299,0.05442176870748299,0.05442176870748299,0.05442176870748299,0.05102040816326531,0.05102040816326531,0.05102040816326531,0.05102040816326531,0.05102040816326531,0.05102040816326531,0.05102040816326531,0.05102040816326531,0.05102040816326531,0.05102040816326531,0.047619047619047616,0.04421768707482993,0.04081632653061224,0.03741496598639456,0.03741496598639456,0.03741496598639456,0.03741496598639456,0.034013605442176874,0.034013605442176874,0.034013605442176874,0.034013605442176874,0.034013605442176874,0.034013605442176874,0.034013605442176874,0.034013605442176874,0.034013605442176874,0.034013605442176874,0.034013605442176874,0.034013605442176874,0.034013605442176874,0.034013605442176874,0.034013605442176874,0.034013605442176874,0.03741496598639456,0.04081632653061224,0.04081632653061224,0.04081632653061224,0.04081632653061224,0.04081632653061224,0.04081632653061224,0.04081632653061224,0.04081632653061224,0.04081632653061224,0.04081632653061224,0.04081632653061224,0.04081632653061224,0.04081632653061224,0.047619047619047616,0.05782312925170068,0.06802721088435375,0.08163265306122448,0.10204081632653061,0.1360544217687075,0.19727891156462585,0.29591836734693877,0.391156462585034,0.46938775510204084,0.5374149659863946,0.5884353741496599,0.5952380952380952,0.6054421768707483,0.608843537414966,0.6156462585034014,0.6190476190476191,0.6258503401360545,0.6258503401360545,0.6292517006802721,0.6292517006802721,0.6292517006802721,0.6292517006802721,0.6292517006802721,0.6156462585034014,0.5952380952380952,0.5816326530612245,0.5714285714285714,0.564625850340136,0.5612244897959183,0.5578231292517006,0.5544217687074829,0.5544217687074829,0.5544217687074829,0.5850340136054422,0.6190476190476191,0.6598639455782312,0.6972789115646258,0.7210884353741497,0.7346938775510204,0.7414965986394558,0.7482993197278912,0.7517006802721088,0.7551020408163265,0.7619047619047619,0.7687074829931972,0.782312925170068,0.7925170068027211,0.8095238095238095,0.8197278911564626,0.8367346938775511,0.8537414965986394,0.8639455782312925,0.8741496598639455,0.8775510204081632,0.8809523809523809,0.8809523809523809,0.8809523809523809,0.8775510204081632,0.8707482993197279,0.8605442176870748,0.8435374149659864,0.7959183673469388,0.7278911564625851,0.6632653061224489,0.6190476190476191,0.5918367346938775,0.5748299319727891,0.564625850340136,0.5476190476190477,0.5306122448979592,0.5102040816326531,0.48299319727891155,0.4523809523809524,0.43537414965986393,0.4217687074829932,0.41496598639455784,0.40816326530612246,0.40476190476190477,0.4013605442176871,0.3945578231292517,0.3877551020408163,0.37755102040816324,0.3707482993197279,0.36054421768707484,0.35034013605442177,0.336734693877551,0.3299319727891156,0.3231292517006803,0.3197278911564626,0.3163265306122449,0.3163265306122449,0.3163265306122449,0.3163265306122449,0.3299319727891156,0.35034013605442177,0.3707482993197279,0.3945578231292517,0.42857142857142855,0.47278911564625853,0.5170068027210885,0.5544217687074829,0.5782312925170068,0.5986394557823129,0.6190476190476191,0.6326530612244898,0.6360544217687075,0.6360544217687075,0.6360544217687075,0.6428571428571429,0.6462585034013606,0.6496598639455783,0.6564625850340136,0.6564625850340136,0.6598639455782312,0.6598639455782312,0.6632653061224489,0.6700680272108843,0.6768707482993197,0.6836734693877551,0.6904761904761905,0.6972789115646258,0.7006802721088435,0.7040816326530612,0.7074829931972789,0.7074829931972789,0.7074829931972789,0.7074829931972789,0.7074829931972789,0.6972789115646258,0.6904761904761905,0.6768707482993197,0.6632653061224489,0.6428571428571429,0.6224489795918368,0.6054421768707483,0.5952380952380952,0.5884353741496599,0.5850340136054422,0.5816326530612245,0.5782312925170068,0.5714285714285714,0.5680272108843537,0.5680272108843537,0.5612244897959183,0.5544217687074829,0.5476190476190477,0.5306122448979592,0.5170068027210885,0.5,0.47959183673469385,0.46938775510204084,0.46258503401360546,0.4523809523809524,0.445578231292517,0.4421768707482993,0.43537414965986393,0.42857142857142855,0.41836734693877553,0.41496598639455784,0.40816326530612246,0.40476190476190477,0.4013605442176871,0.4013605442176871,0.3979591836734694,0.3979591836734694,0.3979591836734694,0.3945578231292517,0.3945578231292517,0.3945578231292517,0.3945578231292517,0.3945578231292517,0.3945578231292517,0.3945578231292517,0.3877551020408163,0.38095238095238093,0.36394557823129253,0.35374149659863946,0.336734693877551,0.32653061224489793,0.3197278911564626,0.3197278911564626,0.3197278911564626,0.3197278911564626,0.3197278911564626,0.3197278911564626,0.3197278911564626,0.3197278911564626,0.3231292517006803,0.3469387755102041,0.3707482993197279,0.40476190476190477,0.42857142857142855,0.4387755102040816,0.445578231292517,0.4523809523809524,0.4557823129251701,0.46598639455782315,0.48299319727891155,0.5034013605442177,0.5408163265306123,0.5748299319727891,0.5986394557823129,0.6156462585034014,0.6326530612244898,0.6496598639455783,0.6768707482993197,0.7108843537414966,0.7448979591836735,0.7687074829931972,0.7959183673469388,0.8129251700680272,0.8299319727891157,0.8401360544217688,0.8435374149659864,0.8469387755102041,0.8469387755102041,0.8469387755102041,0.8367346938775511,0.8129251700680272,0.7687074829931972,0.7142857142857143,0.6666666666666666,0.6258503401360545,0.608843537414966,0.608843537414966,0.608843537414966,0.608843537414966,0.6156462585034014,0.6258503401360545,0.6360544217687075,0.6496598639455783,0.673469387755102,0.6904761904761905,0.6972789115646258,0.7040816326530612,0.7108843537414966,0.717687074829932,0.7278911564625851,0.7346938775510204,0.7448979591836735,0.7551020408163265,0.7653061224489796,0.7721088435374149,0.7755102040816326,0.782312925170068,0.7857142857142857,0.7891156462585034,0.7925170068027211,0.7925170068027211,0.7959183673469388,0.7959183673469388,0.7959183673469388,0.7959183673469388,0.7959183673469388,0.7959183673469388,0.7959183673469388,0.782312925170068,0.7482993197278912,0.717687074829932,0.6802721088435374,0.6564625850340136,0.6496598639455783,0.6394557823129252,0.6326530612244898,0.6292517006802721,0.6156462585034014,0.5986394557823129,0.5816326530612245,0.5680272108843537,0.5306122448979592,0.46258503401360546,0.42857142857142855,0.3979591836734694,0.3673469387755102,0.3435374149659864,0.3197278911564626,0.29931972789115646,0.282312925170068,0.2653061224489796,0.2585034013605442,0.24829931972789115,0.24149659863945577,0.22448979591836735,0.21768707482993196,0.2108843537414966,0.19727891156462585,0.19047619047619047,0.17687074829931973,0.16326530612244897,0.14965986394557823,0.1360544217687075,0.1292517006802721,0.12585034013605442,0.12244897959183673,0.12244897959183673,0.12244897959183673,0.12244897959183673,0.12244897959183673,0.12244897959183673,0.12244897959183673,0.12244897959183673,0.12244897959183673,0.12244897959183673,0.12244897959183673,0.12244897959183673,0.12244897959183673,0.12585034013605442,0.1292517006802721,0.1326530612244898,0.1326530612244898,0.1326530612244898,0.1326530612244898,0.1326530612244898,0.1360544217687075,0.13945578231292516,0.13945578231292516,0.14285714285714285,0.14625850340136054,0.14965986394557823,0.16326530612244897,0.17006802721088435,0.17687074829931973,0.1836734693877551,0.19727891156462585,0.21768707482993196,0.24489795918367346,0.2585034013605442,0.2687074829931973,0.2755102040816326,0.282312925170068,0.2857142857142857,0.2925170068027211,0.29591836734693877,0.29931972789115646,0.30612244897959184,0.30952380952380953,0.3163265306122449,0.32653061224489793,0.3333333333333333,0.336734693877551,0.3401360544217687,0.3401360544217687,0.3401360544217687,0.3401360544217687,0.3401360544217687,0.3401360544217687,0.3401360544217687,0.3401360544217687,0.3401360544217687,0.3401360544217687,0.3401360544217687,0.3401360544217687,0.3401360544217687,0.3401360544217687,0.3401360544217687,0.3401360544217687,0.3401360544217687,0.3401360544217687,0.3401360544217687,0.3401360544217687,0.3401360544217687,0.3401360544217687,0.3401360544217687,0.3401360544217687,0.3401360544217687,0.3401360544217687,0.3401360544217687,0.3401360544217687,0.3401360544217687,0.3401360544217687,0.3401360544217687,0.3401360544217687,0.3435374149659864,0.35374149659863946,0.3741496598639456,0.4013605442176871,0.4557823129251701,0.5850340136054422,0.673469387755102,0.7551020408163265,0.8231292517006803,0.8571428571428571,0.8673469387755102,0.8707482993197279,0.8775510204081632,0.8877551020408163,0.9013605442176871,0.9149659863945578,0.9251700680272109,0.9319727891156463,0.935374149659864,0.9421768707482994,0.95578231292517,0.9727891156462585,1,1.0442176870748299,1.098639455782313,1.163265306122449,1.2346938775510203,1.3265306122448979,1.445578231292517,1.6700680272108843,1.8333333333333333,1.9795918367346939,2.098639455782313,2.1700680272108843,2.187074829931973,2.183673469387755,2.163265306122449,2.13265306122449,2.1122448979591835,2.098639455782313,2.0850340136054424,2.04421768707483,1.9761904761904763,1.8503401360544218,1.6462585034013606,1.4387755102040816,1.2414965986394557,1.1020408163265305,1.030612244897959,1,0.9829931972789115,0.9659863945578231,0.9285714285714286,0.8979591836734694,0.8707482993197279,0.8537414965986394,0.8503401360544217,0.8503401360544217,0.8639455782312925,0.8945578231292517,0.9319727891156463,0.9727891156462585,1.0068027210884354,1.0238095238095237,1.030612244897959,1.030612244897959,1.030612244897959,1.0238095238095237,1.0170068027210883,1,0.9795918367346939,0.9591836734693877,0.9319727891156463,0.9115646258503401,0.8945578231292517,0.8877551020408163,0.8775510204081632,0.8741496598639455,0.8707482993197279,0.8673469387755102,0.8639455782312925,0.8605442176870748,0.8605442176870748,0.8605442176870748,0.8605442176870748,0.8605442176870748,0.8605442176870748,0.8605442176870748,0.8605442176870748,0.8605442176870748,0.8639455782312925,0.8639455782312925,0.8639455782312925,0.8639455782312925,0.8639455782312925,0.8639455782312925,0.8775510204081632,0.8945578231292517,0.9047619047619048,0.9081632653061225,0.9081632653061225,0.9081632653061225,0.9081632653061225,0.9081632653061225,0.9081632653061225,0.9081632653061225,0.9081632653061225,0.9081632653061225,0.9081632653061225,0.9081632653061225,0.9081632653061225,0.9081632653061225,0.9081632653061225,0.9081632653061225,0.9081632653061225,0.9081632653061225,0.9115646258503401,0.9149659863945578,0.9217687074829932,0.9319727891156463,0.9455782312925171,0.95578231292517,0.9591836734693877,0.9625850340136054,0.9659863945578231,0.9761904761904762,0.9829931972789115,0.9863945578231292,0.9931972789115646,0.9931972789115646,0.9965986394557823,0.9965986394557823,1,1.0034013605442176,1.0068027210884354,1.010204081632653,1.0136054421768708,1.0136054421768708,1.0170068027210883,1.0204081632653061,1.0204081632653061,1.0204081632653061,1.0238095238095237,1.0238095238095237,1.0238095238095237,1.0238095238095237,1.0238095238095237,1.0238095238095237,1.0170068027210883,1.0170068027210883,1.0170068027210883,1.0170068027210883,1.0170068027210883,1.0170068027210883,1.0170068027210883,1.0170068027210883,1.0170068027210883,1.0170068027210883,1.0170068027210883,1.0170068027210883,1.0170068027210883,1.0170068027210883,1.0170068027210883,1.0170068027210883,1.0170068027210883,1.0170068027210883,1.0170068027210883,1.0170068027210883,1.0170068027210883,1.0170068027210883,1.0170068027210883,1.0170068027210883,1.0136054421768708,1.0034013605442176,0.9693877551020408,0.9183673469387755,0.8469387755102041,0.7789115646258503,0.7244897959183674,0.6938775510204082,0.6802721088435374,0.6666666666666666,0.6394557823129252,0.6156462585034014,0.5952380952380952,0.5952380952380952,0.5952380952380952,0.5952380952380952,0.5952380952380952,0.5952380952380952,0.5918367346938775,0.5918367346938775,0.5884353741496599,0.5782312925170068,0.5476190476190477,0.48299319727891155,0.3741496598639456,0.3197278911564626,0.30272108843537415,0.30272108843537415,0.30272108843537415,0.30272108843537415,0.30272108843537415,0.30272108843537415,0.30272108843537415,0.30272108843537415,0.30272108843537415,0.30952380952380953,0.32653061224489793,0.336734693877551,0.35374149659863946,0.36394557823129253,0.37755102040816324,0.38095238095238093,0.3877551020408163,0.391156462585034,0.3945578231292517,0.3979591836734694,0.4013605442176871,0.4013605442176871,0.4013605442176871,0.4013605442176871,0.4013605442176871,0.40476190476190477,0.40476190476190477,0.40476190476190477,0.40476190476190477,0.40476190476190477,0.40476190476190477,0.40476190476190477,0.40476190476190477,0.40816326530612246,0.40816326530612246,0.40816326530612246,0.40816326530612246,0.40816326530612246,0.40816326530612246,0.40816326530612246,0.40816326530612246,0.40816326530612246,0.40816326530612246,0.40816326530612246,0.40816326530612246,0.41156462585034015,0.41496598639455784,0.4217687074829932,0.42857142857142855,0.4421768707482993,0.4557823129251701,0.46598639455782315,0.47959183673469385,0.4897959183673469,0.4965986394557823,0.5,0.5068027210884354,0.5102040816326531,0.5170068027210885,0.5204081632653061,0.5238095238095238,0.5272108843537415,0.5306122448979592,0.5340136054421769,0.5340136054421769,0.5374149659863946,0.5374149659863946,0.5374149659863946,0.54421768707483,0.54421768707483,0.5476190476190477,0.5476190476190477,0.5476190476190477,0.5510204081632653,0.5510204081632653,0.5510204081632653,0.5510204081632653,0.5510204081632653,0.5510204081632653,0.5510204081632653,0.5510204081632653,0.5510204081632653,0.5510204081632653,0.5510204081632653,0.5544217687074829,0.5612244897959183,0.5612244897959183,0.5612244897959183,0.564625850340136,0.564625850340136,0.564625850340136,0.5680272108843537,0.5714285714285714,0.5816326530612245,0.5850340136054422,0.5918367346938775,0.5952380952380952,0.5986394557823129,0.5986394557823129,0.5986394557823129,0.6020408163265306,0.6020408163265306,0.6054421768707483,0.6122448979591837,0.6190476190476191,0.6292517006802721,0.6496598639455783,0.6666666666666666,0.6870748299319728,0.7142857142857143,0.7346938775510204,0.782312925170068,0.8571428571428571,0.9387755102040817,1.0272108843537415,1.098639455782313,1.1360544217687074,1.1428571428571428,1.1428571428571428,1.1394557823129252,1.1326530612244898,1.1326530612244898,1.129251700680272,1.119047619047619,1.1088435374149659,1.098639455782313,1.0850340136054422,1.0374149659863945,1.0136054421768708,0.9897959183673469,0.9693877551020408,0.9591836734693877,0.95578231292517,0.95578231292517,0.95578231292517,0.95578231292517,0.95578231292517,0.95578231292517,0.95578231292517,0.95578231292517,0.95578231292517,0.95578231292517,0.95578231292517,0.95578231292517,0.95578231292517,0.95578231292517,0.95578231292517,0.9489795918367347,0.935374149659864,0.9183673469387755,0.9047619047619048,0.8979591836734694,0.8979591836734694,0.9081632653061225,0.935374149659864,0.9693877551020408,1.0238095238095237,1.0748299319727892,1.1156462585034013,1.1428571428571428,1.1496598639455782,1.153061224489796,1.1598639455782314,1.1598639455782314,1.163265306122449,1.163265306122449,1.163265306122449,1.163265306122449,1.163265306122449,1.163265306122449,1.163265306122449,1.163265306122449,1.163265306122449,1.163265306122449,1.163265306122449,1.163265306122449,1.163265306122449,1.163265306122449,1.163265306122449,1.163265306122449,1.163265306122449,1.163265306122449,1.163265306122449,1.163265306122449,1.163265306122449,1.1666666666666667,1.1700680272108843,1.1700680272108843,1.1666666666666667,1.1598639455782314,1.1394557823129252,1.1054421768707483,1.0680272108843538,1.0238095238095237,0.9659863945578231,0.9013605442176871,0.8435374149659864,0.7448979591836735,0.673469387755102,0.6190476190476191,0.5782312925170068,0.5544217687074829,0.5408163265306123,0.5272108843537415,0.5204081632653061,0.5170068027210885,0.5136054421768708,0.5136054421768708,0.5102040816326531,0.4897959183673469,0.445578231292517,0.41836734693877553,0.40816326530612246,0.40476190476190477,0.40476190476190477,0.40476190476190477,0.41156462585034015,0.42517006802721086,0.4387755102040816,0.445578231292517,0.4557823129251701,0.45918367346938777,0.46258503401360546,0.46258503401360546,0.46598639455782315,0.46598639455782315,0.46598639455782315,0.46598639455782315,0.46598639455782315,0.46938775510204084,0.46938775510204084,0.46938775510204084,0.46938775510204084,0.46938775510204084,0.46938775510204084,0.46938775510204084,0.46938775510204084,0.46938775510204084,0.46938775510204084,0.46938775510204084,0.46938775510204084,0.45918367346938777,0.4489795918367347,0.445578231292517,0.4421768707482993,0.4387755102040816,0.4387755102040816,0.4387755102040816,0.4387755102040816,0.4387755102040816,0.4387755102040816,0.4387755102040816,0.4387755102040816,0.4387755102040816,0.4387755102040816,0.4387755102040816,0.4387755102040816,0.4387755102040816,0.4387755102040816,0.4387755102040816,0.4387755102040816,0.4421768707482993,0.4421768707482993,0.445578231292517,0.4489795918367347,0.4523809523809524,0.45918367346938777,0.45918367346938777,0.45918367346938777,0.45918367346938777,0.45918367346938777,0.45918367346938777,0.45918367346938777,0.45918367346938777,0.45918367346938777,0.45918367346938777,0.4489795918367347,0.4387755102040816,0.42517006802721086,0.41496598639455784,0.40816326530612246,0.40476190476190477,0.3979591836734694,0.3945578231292517,0.391156462585034,0.3843537414965986,0.38095238095238093,0.38095238095238093,0.38095238095238093,0.38095238095238093,0.38095238095238093,0.38095238095238093,0.38095238095238093,0.38095238095238093,0.38095238095238093,0.38095238095238093,0.38095238095238093,0.38095238095238093,0.38095238095238093,0.37755102040816324,0.36394557823129253,0.336734693877551,0.3129251700680272,0.29591836734693877,0.2891156462585034,0.282312925170068,0.2755102040816326,0.272108843537415,0.2653061224489796,0.2653061224489796,0.2619047619047619,0.2619047619047619,0.2619047619047619,0.2619047619047619,0.2619047619047619,0.2585034013605442,0.25170068027210885,0.24829931972789115,0.24149659863945577,0.23129251700680273,0.23129251700680273,0.23129251700680273,0.23129251700680273,0.23129251700680273,0.23129251700680273,0.23129251700680273,0.23129251700680273,0.23129251700680273,0.23129251700680273,0.23129251700680273,0.23129251700680273,0.23809523809523808,0.24149659863945577,0.24829931972789115,0.25170068027210885,0.25170068027210885,0.25170068027210885,0.25510204081632654,0.2585034013605442,0.2585034013605442,0.2585034013605442,0.2585034013605442,0.2585034013605442,0.2585034013605442,0.2585034013605442,0.2585034013605442,0.2585034013605442,0.2585034013605442,0.2585034013605442,0.2585034013605442,0.2585034013605442,0.2585034013605442,0.2585034013605442,0.2585034013605442,0.2585034013605442,0.2585034013605442,0.2585034013605442,0.2585034013605442,0.2619047619047619,0.2619047619047619,0.2619047619047619,0.2619047619047619,0.2619047619047619,0.2619047619047619,0.2619047619047619,0.2619047619047619,0.2619047619047619,0.2619047619047619,0.2687074829931973,0.2755102040816326,0.2789115646258503,0.2789115646258503,0.2789115646258503,0.2755102040816326,0.2755102040816326,0.2755102040816326,0.2755102040816326,0.2755102040816326,0.2755102040816326,0.2891156462585034,0.3333333333333333,0.3707482993197279,0.40476190476190477,0.4217687074829932,0.4217687074829932,0.42517006802721086,0.42517006802721086,0.42517006802721086,0.42517006802721086,0.42517006802721086,0.42517006802721086,0.42517006802721086,0.42517006802721086,0.42517006802721086,0.42517006802721086,0.42517006802721086,0.42517006802721086,0.42517006802721086,0.42517006802721086,0.42517006802721086,0.42517006802721086,0.42517006802721086,0.42517006802721086,0.42517006802721086,0.42517006802721086,0.42517006802721086,0.42517006802721086,0.42517006802721086,0.42517006802721086,0.42857142857142855,0.42857142857142855,0.42857142857142855,0.42857142857142855,0.42857142857142855,0.42857142857142855,0.42517006802721086,0.41836734693877553,0.41156462585034015,0.391156462585034,0.3707482993197279,0.35374149659863946,0.3401360544217687,0.3163265306122449,0.29931972789115646,0.282312925170068,0.2687074829931973,0.2585034013605442,0.25170068027210885,0.24489795918367346,0.24489795918367346,0.24489795918367346,0.24149659863945577,0.24149659863945577,0.24149659863945577,0.24149659863945577,0.24149659863945577,0.24149659863945577,0.24149659863945577,0.24149659863945577,0.24149659863945577,0.24149659863945577,0.24149659863945577,0.23809523809523808,0.23809523809523808,0.23469387755102042,0.23129251700680273,0.22789115646258504,0.22789115646258504,0.22448979591836735,0.22108843537414966,0.21428571428571427,0.20068027210884354,0.19047619047619047,0.18027210884353742,0.17006802721088435,0.16326530612244897,0.16326530612244897,0.16326530612244897,0.16326530612244897,0.16666666666666666,0.16666666666666666,0.16666666666666666,0.16666666666666666,0.16666666666666666,0.16326530612244897,0.16326530612244897,0.1598639455782313,0.1564625850340136,0.14965986394557823,0.14625850340136054,0.13945578231292516,0.13945578231292516,0.13945578231292516,0.13945578231292516,0.13945578231292516,0.13945578231292516,0.1360544217687075,0.1360544217687075,0.1360544217687075,0.1360544217687075,0.1360544217687075,0.1360544217687075,0.1360544217687075,0.1360544217687075,0.14625850340136054,0.17346938775510204,0.19727891156462585,0.20748299319727892,0.2108843537414966,0.2108843537414966,0.2108843537414966,0.2108843537414966,0.2108843537414966,0.21768707482993196,0.22108843537414966,0.22108843537414966,0.22108843537414966,0.22108843537414966,0.22108843537414966,0.22108843537414966,0.22108843537414966,0.21768707482993196,0.21768707482993196,0.21768707482993196,0.21768707482993196,0.21768707482993196,0.21768707482993196,0.21768707482993196,0.21768707482993196,0.21768707482993196,0.21768707482993196,0.21768707482993196,0.21768707482993196,0.21768707482993196,0.21768707482993196,0.21768707482993196,0.21768707482993196,0.21768707482993196,0.21768707482993196,0.21768707482993196,0.21768707482993196,0.21768707482993196,0.21768707482993196,0.21768707482993196,0.21768707482993196,0.21768707482993196,0.21768707482993196,0.21768707482993196,0.21768707482993196,0.21768707482993196,0.21768707482993196,0.21768707482993196,0.21768707482993196,0.21768707482993196,0.21768707482993196,0.21768707482993196,0.21768707482993196,0.21768707482993196,0.21768707482993196,0.21768707482993196,0.21428571428571427,0.20748299319727892,0.20068027210884354,0.19727891156462585,0.19387755102040816,0.19387755102040816,0.19387755102040816,0.19047619047619047,0.1836734693877551,0.1836734693877551,0.17687074829931973,0.17006802721088435,0.17006802721088435,0.16666666666666666,0.16666666666666666,0.16666666666666666,0.16666666666666666,0.17346938775510204,0.20068027210884354,0.25170068027210885,0.3231292517006803,0.36054421768707484,0.3979591836734694,0.42517006802721086,0.4489795918367347,0.46938775510204084,0.4897959183673469,0.5068027210884354,0.5306122448979592,0.5748299319727891,0.6258503401360545,0.6802721088435374,0.7244897959183674,0.7414965986394558,0.7448979591836735,0.7517006802721088,0.7721088435374149,0.7925170068027211,0.8163265306122449,0.8367346938775511,0.8469387755102041,0.8639455782312925,0.8809523809523809,0.8979591836734694,0.9013605442176871,0.9013605442176871,0.9047619047619048,0.9183673469387755,0.9387755102040817,0.9625850340136054,0.9727891156462585,0.9727891156462585,0.9727891156462585,0.9727891156462585,0.9727891156462585,0.9727891156462585,0.9727891156462585,0.9727891156462585,0.9727891156462585,0.9761904761904762,0.9761904761904762,0.9761904761904762,0.9795918367346939,0.9795918367346939,0.9795918367346939,0.9795918367346939,0.9795918367346939,0.9795918367346939,0.9795918367346939,0.9795918367346939,0.9795918367346939,0.9795918367346939,0.9795918367346939,0.9795918367346939,0.9795918367346939,0.9795918367346939,0.9795918367346939,0.9795918367346939,0.9795918367346939,0.9795918367346939,0.9795918367346939,0.9795918367346939,0.9761904761904762,0.9659863945578231,0.95578231292517,0.935374149659864,0.9047619047619048,0.8503401360544217,0.7346938775510204,0.41156462585034015,0.1326530612244898,-0.23129251700680273,-0.5612244897959183,-0.7891156462585034,-0.9047619047619048,-0.9523809523809523,-0.9659863945578231,-0.9659863945578231,-0.9659863945578231,-0.9625850340136054,-0.95578231292517,-0.9455782312925171,-0.9387755102040817,-0.9319727891156463,-0.9251700680272109,-0.9217687074829932,-0.9115646258503401,-0.8945578231292517,-0.8707482993197279,-0.8469387755102041,-0.8095238095238095,-0.7619047619047619,-0.6870748299319728,-0.6428571428571429,-0.5850340136054422,-0.5204081632653061,-0.40816326530612246,-0.24829931972789115,-0.17006802721088435,-0.12585034013605442,-0.11224489795918367,-0.10884353741496598,-0.10884353741496598,-0.10884353741496598,-0.10884353741496598,-0.10884353741496598,-0.10884353741496598,-0.10884353741496598,-0.10884353741496598,-0.10884353741496598,-0.10884353741496598,-0.10884353741496598,-0.10884353741496598,-0.10884353741496598,-0.10884353741496598,-0.10884353741496598,-0.10884353741496598,-0.10884353741496598,-0.10884353741496598,-0.10884353741496598,-0.10884353741496598,-0.10884353741496598,-0.10884353741496598,-0.10884353741496598,-0.10884353741496598,-0.10884353741496598,-0.10884353741496598,-0.10884353741496598,-0.10884353741496598,-0.10884353741496598,-0.10884353741496598,-0.10884353741496598,-0.10884353741496598,-0.10884353741496598,-0.10884353741496598,-0.10884353741496598,-0.10884353741496598,-0.10884353741496598,-0.10884353741496598,-0.10884353741496598,-0.10884353741496598,-0.10884353741496598,-0.10884353741496598,-0.10884353741496598,-0.10884353741496598,-0.10884353741496598,-0.10884353741496598,-0.10884353741496598,-0.10884353741496598,-0.09863945578231292,-0.030612244897959183,-0.003401360544217687,0.006802721088435374,0.01020408163265306,0.01020408163265306,0.006802721088435374,0,-0.01020408163265306,-0.01020408163265306,-0.01020408163265306,-0.01020408163265306,-0.003401360544217687,0.006802721088435374,0.01020408163265306,0.023809523809523808,0.030612244897959183,0.04081632653061224,0.047619047619047616,0.05102040816326531],"y":[0.7476190476190476,0.7476190476190476,0.7476190476190476,0.7476190476190476,0.7476190476190476,0.7476190476190476,0.7476190476190476,0.7476190476190476,0.7476190476190476,0.7476190476190476,0.7476190476190476,0.7476190476190476,0.7476190476190476,0.7476190476190476,0.7476190476190476,0.7476190476190476,0.7476190476190476,0.7476190476190476,0.7476190476190476,0.7380952380952381,0.7,0.6619047619047619,0.6523809523809524,0.6714285714285714,0.8809523809523809,0.9666666666666667,0.9666666666666667,0.9666666666666667,0.9666666666666667,0.9666666666666667,0.9666666666666667,0.9666666666666667,0.9666666666666667,0.9666666666666667,0.9666666666666667,0.9666666666666667,0.9666666666666667,0.9666666666666667,0.9666666666666667,0.9666666666666667,0.9666666666666667,0.9666666666666667,0.9666666666666667,0.9666666666666667,0.9666666666666667,0.9666666666666667,0.9666666666666667,0.9666666666666667,0.9666666666666667,0.9666666666666667,0.9666666666666667,0.9666666666666667,0.9666666666666667,0.9666666666666667,0.9666666666666667,0.9666666666666667,0.9666666666666667,0.9666666666666667,0.9666666666666667,0.9666666666666667,0.9666666666666667,0.9666666666666667,0.9666666666666667,0.9666666666666667,0.9666666666666667,0.919047619047619,0.8238095238095238,0.7761904761904762,0.7285714285714285,0.719047619047619,0.7095238095238096,0.7095238095238096,0.719047619047619,0.7285714285714285,0.7285714285714285,0.7285714285714285,0.7285714285714285,0.7285714285714285,0.719047619047619,0.719047619047619,0.7,0.680952380952381,0.6619047619047619,0.6333333333333333,0.5952380952380952,0.5571428571428572,0.5380952380952381,0.48095238095238096,0.4714285714285714,0.4523809523809524,0.4238095238095238,0.3952380952380952,0.3761904761904762,0.35714285714285715,0.3476190476190476,0.3476190476190476,0.3380952380952381,0.32857142857142857,0.32857142857142857,0.319047619047619,0.319047619047619,0.319047619047619,0.30952380952380953,0.3,0.2619047619047619,0.19523809523809524,0.12857142857142856,0.1,0.06190476190476191,0.04285714285714286,0.014285714285714285,-0.014285714285714285,-0.05238095238095238,-0.1,-0.10952380952380952,-0.12857142857142856,-0.12857142857142856,-0.12857142857142856,-0.12857142857142856,-0.12857142857142856,-0.12857142857142856,-0.1380952380952381,-0.16666666666666666,-0.20476190476190476,-0.22380952380952382,-0.2523809523809524,-0.2619047619047619,-0.2904761904761905,-0.3380952380952381,-0.36666666666666664,-0.3952380952380952,-0.4142857142857143,-0.4238095238095238,-0.4238095238095238,-0.43333333333333335,-0.43333333333333335,-0.43333333333333335,-0.43333333333333335,-0.43333333333333335,-0.43333333333333335,-0.38571428571428573,-0.3,-0.21428571428571427,-0.12857142857142856,-0.014285714285714285,0.04285714285714286,0.10952380952380952,0.12857142857142856,0.1380952380952381,0.14761904761904762,0.14761904761904762,0.14761904761904762,0.14761904761904762,0.14761904761904762,0.14761904761904762,0.14761904761904762,0.14761904761904762,0.14761904761904762,0.14761904761904762,0.14761904761904762,0.16666666666666666,0.19523809523809524,0.2523809523809524,0.319047619047619,0.38571428571428573,0.4142857142857143,0.43333333333333335,0.44285714285714284,0.44285714285714284,0.44285714285714284,0.44285714285714284,0.44285714285714284,0.44285714285714284,0.44285714285714284,0.43333333333333335,0.43333333333333335,0.4238095238095238,0.40476190476190477,0.36666666666666664,0.14761904761904762,-0.1,-0.4142857142857143,-0.8142857142857143,-1.223809523809524,-1.5952380952380953,-1.8714285714285714,-2.0047619047619047,-2.080952380952381,-2.1,-2.1095238095238096,-2.1095238095238096,-2.1095238095238096,-2.1095238095238096,-2.1095238095238096,-2.1095238095238096,-2.1095238095238096,-2.1095238095238096,-2.1095238095238096,-2.1095238095238096,-2.0904761904761906,-2.0619047619047617,-2.0238095238095237,-2.0047619047619047,-1.9857142857142858,-1.9666666666666666,-1.957142857142857,-1.9476190476190476,-1.9285714285714286,-1.9190476190476191,-1.9190476190476191,-1.9095238095238096,-1.9095238095238096,-1.9095238095238096,-1.9095238095238096,-1.9095238095238096,-1.9095238095238096,-1.9,-1.8904761904761904,-1.8904761904761904,-1.8904761904761904,-1.8904761904761904,-1.8904761904761904,-1.8904761904761904,-1.8904761904761904,-1.8904761904761904,-1.8904761904761904,-1.8904761904761904,-1.8904761904761904,-1.8904761904761904,-1.8904761904761904,-1.8904761904761904,-1.8904761904761904,-1.8904761904761904,-1.8904761904761904,-1.8904761904761904,-1.8714285714285714,-1.8523809523809525,-1.8238095238095238,-1.8047619047619048,-1.7952380952380953,-1.7666666666666666,-1.7476190476190476,-1.7476190476190476,-1.7380952380952381,-1.7380952380952381,-1.7285714285714286,-1.7285714285714286,-1.7095238095238094,-1.7,-1.6904761904761905,-1.680952380952381,-1.6714285714285715,-1.6714285714285715,-1.6523809523809523,-1.6523809523809523,-1.6428571428571428,-1.6333333333333333,-1.6142857142857143,-1.6047619047619048,-1.5476190476190477,-1.4619047619047618,-1.3571428571428572,-1.1857142857142857,-0.9761904761904762,-0.7666666666666667,-0.5761904761904761,-0.4714285714285714,-0.35714285714285715,-0.3,-0.2523809523809524,-0.19523809523809524,-0.14761904761904762,-0.11904761904761904,-0.08095238095238096,-0.05238095238095238,-0.023809523809523808,0.004761904761904762,0.03333333333333333,0.05238095238095238,0.07142857142857142,0.08095238095238096,0.09047619047619047,0.1,0.1,0.10952380952380952,0.10952380952380952,0.10952380952380952,0.09047619047619047,0.07142857142857142,0.05238095238095238,0.04285714285714286,0.023809523809523808,0.014285714285714285,0.004761904761904762,-0.004761904761904762,-0.014285714285714285,-0.03333333333333333,-0.04285714285714286,-0.04285714285714286,-0.04285714285714286,-0.04285714285714286,-0.03333333333333333,-0.014285714285714285,0.004761904761904762,0.023809523809523808,0.023809523809523808,0.023809523809523808,0.023809523809523808,0.023809523809523808,0.023809523809523808,0.023809523809523808,0.023809523809523808,0.023809523809523808,0.023809523809523808,0.023809523809523808,0.023809523809523808,0.023809523809523808,0.023809523809523808,0.023809523809523808,0.023809523809523808,0.023809523809523808,0.023809523809523808,0.023809523809523808,0.023809523809523808,0.023809523809523808,0.023809523809523808,0.023809523809523808,0.023809523809523808,0.023809523809523808,0.023809523809523808,0.023809523809523808,0.023809523809523808,0.023809523809523808,0.023809523809523808,0.023809523809523808,0.023809523809523808,0.023809523809523808,0.023809523809523808,0.023809523809523808,0.023809523809523808,0.023809523809523808,0.023809523809523808,0.023809523809523808,0.023809523809523808,0.014285714285714285,0.004761904761904762,0.004761904761904762,-0.004761904761904762,-0.014285714285714285,-0.014285714285714285,-0.014285714285714285,-0.014285714285714285,-0.014285714285714285,-0.014285714285714285,-0.014285714285714285,-0.014285714285714285,-0.014285714285714285,-0.014285714285714285,-0.014285714285714285,-0.014285714285714285,-0.014285714285714285,-0.014285714285714285,-0.014285714285714285,-0.014285714285714285,-0.014285714285714285,-0.014285714285714285,-0.014285714285714285,-0.014285714285714285,-0.014285714285714285,-0.014285714285714285,-0.014285714285714285,-0.014285714285714285,-0.014285714285714285,-0.014285714285714285,-0.014285714285714285,-0.014285714285714285,-0.014285714285714285,-0.014285714285714285,-0.014285714285714285,-0.014285714285714285,-0.014285714285714285,-0.014285714285714285,-0.014285714285714285,-0.014285714285714285,-0.014285714285714285,-0.014285714285714285,-0.014285714285714285,-0.014285714285714285,-0.014285714285714285,-0.014285714285714285,-0.014285714285714285,-0.004761904761904762,0.014285714285714285,0.04285714285714286,0.07142857142857142,0.09047619047619047,0.10952380952380952,0.12857142857142856,0.1380952380952381,0.14761904761904762,0.14761904761904762,0.15714285714285714,0.15714285714285714,0.15714285714285714,0.14761904761904762,0.1380952380952381,0.1380952380952381,0.12857142857142856,0.1380952380952381,0.1761904761904762,0.18571428571428572,0.18571428571428572,0.18571428571428572,0.18571428571428572,0.18571428571428572,0.18571428571428572,0.18571428571428572,0.18571428571428572,0.18571428571428572,0.18571428571428572,0.18571428571428572,0.18571428571428572,0.19523809523809524,0.19523809523809524,0.23333333333333334,0.3,0.3476190476190476,0.3761904761904762,0.4142857142857143,0.6523809523809524,1.0904761904761904,1.2619047619047619,1.2619047619047619,1.2619047619047619,1.2619047619047619,1.2619047619047619,1.2619047619047619,1.2619047619047619,1.2619047619047619,1.2619047619047619,1.2619047619047619,1.2619047619047619,1.2619047619047619,1.2619047619047619,1.2619047619047619,1.2619047619047619,1.2619047619047619,1.2619047619047619,1.2619047619047619,1.2619047619047619,1.2619047619047619,1.2619047619047619,1.1952380952380952,1.042857142857143,1.0142857142857142,0.9952380952380953,0.9761904761904762,0.9380952380952381,0.919047619047619,0.9095238095238095,0.9095238095238095,0.9095238095238095,0.9,0.9,0.9,0.9,0.9,0.9,0.9,0.9,0.9,0.9,0.9,0.9,0.9095238095238095,0.9095238095238095,0.9095238095238095,0.919047619047619,0.919047619047619,0.919047619047619,0.919047619047619,0.919047619047619,0.919047619047619,0.919047619047619,0.919047619047619,0.919047619047619,0.919047619047619,0.919047619047619,0.919047619047619,0.919047619047619,0.919047619047619,0.919047619047619,0.919047619047619,0.9095238095238095,0.9,0.8904761904761904,0.8904761904761904,0.8809523809523809,0.8714285714285714,0.861904761904762,0.8238095238095238,0.7666666666666667,0.7095238095238096,0.680952380952381,0.6428571428571429,0.5857142857142857,0.5380952380952381,0.5095238095238095,0.49047619047619045,0.4714285714285714,0.4523809523809524,0.44285714285714284,0.4238095238095238,0.40476190476190477,0.3952380952380952,0.3952380952380952,0.3952380952380952,0.3952380952380952,0.38571428571428573,0.3761904761904762,0.36666666666666664,0.3380952380952381,0.30952380952380953,0.2714285714285714,0.23333333333333334,0.19523809523809524,0.15714285714285714,0.1380952380952381,0.11904761904761904,0.10952380952380952,0.1,0.08095238095238096,0.07142857142857142,0.07142857142857142,0.07142857142857142,0.07142857142857142,0.07142857142857142,0.07142857142857142,0.08095238095238096,0.09047619047619047,0.10952380952380952,0.1380952380952381,0.1761904761904762,0.19523809523809524,0.22380952380952382,0.23333333333333334,0.24285714285714285,0.24285714285714285,0.24285714285714285,0.24285714285714285,0.2523809523809524,0.2523809523809524,0.2523809523809524,0.2523809523809524,0.24285714285714285,0.24285714285714285,0.24285714285714285,0.22380952380952382,0.20476190476190476,0.18571428571428572,0.14761904761904762,0.1,0.07142857142857142,0.06190476190476191,0.05238095238095238,0.05238095238095238,0.04285714285714286,0.04285714285714286,0.03333333333333333,0.03333333333333333,0.03333333333333333,0.03333333333333333,0.03333333333333333,0.03333333333333333,0.03333333333333333,0.03333333333333333,0.03333333333333333,0.03333333333333333,0.03333333333333333,0.03333333333333333,0.03333333333333333,0.03333333333333333,0.03333333333333333,0.03333333333333333,0.03333333333333333,0.03333333333333333,0.03333333333333333,0.03333333333333333,0.03333333333333333,0.03333333333333333,0.03333333333333333,0.03333333333333333,0.03333333333333333,0.04285714285714286,0.05238095238095238,0.05238095238095238,0.06190476190476191,0.07142857142857142,0.07142857142857142,0.07142857142857142,0.07142857142857142,0.07142857142857142,0.07142857142857142,0.07142857142857142,0.07142857142857142,0.07142857142857142,0.07142857142857142,0.07142857142857142,0.07142857142857142,0.07142857142857142,0.07142857142857142,0.07142857142857142,0.07142857142857142,0.07142857142857142,0.07142857142857142,0.07142857142857142,0.07142857142857142,0.07142857142857142,0.07142857142857142,0.07142857142857142,0.07142857142857142,0.07142857142857142,0.07142857142857142,0.07142857142857142,0.07142857142857142,0.07142857142857142,0.07142857142857142,0.07142857142857142,0.07142857142857142,0.07142857142857142,0.07142857142857142,0.07142857142857142,0.07142857142857142,0.07142857142857142,0.07142857142857142,0.07142857142857142,0.07142857142857142,0.07142857142857142,0.07142857142857142,0.07142857142857142,0.07142857142857142,0.07142857142857142,0.07142857142857142,0.07142857142857142,0.07142857142857142,0.07142857142857142,0.07142857142857142,0.07142857142857142,0.07142857142857142,0.07142857142857142,0.07142857142857142,0.07142857142857142,0.09047619047619047,0.12857142857142856,0.18571428571428572,0.24285714285714285,0.3380952380952381,0.43333333333333335,0.5285714285714286,0.6333333333333333,0.7476190476190476,0.8333333333333334,0.8714285714285714,0.8714285714285714,0.8428571428571429,0.8333333333333334,0.8142857142857143,0.8142857142857143,0.8142857142857143,0.8142857142857143,0.8142857142857143,0.8142857142857143,0.8142857142857143,0.8142857142857143,0.8142857142857143,0.8142857142857143,0.8142857142857143,0.8142857142857143,0.8142857142857143,0.8142857142857143,0.8238095238095238,0.8238095238095238,0.8238095238095238,0.8238095238095238,0.8238095238095238,0.8238095238095238,0.8238095238095238,0.8238095238095238,0.8142857142857143,0.7857142857142857,0.719047619047619,0.6333333333333333,0.48095238095238096,0.4142857142857143,0.35714285714285715,0.319047619047619,0.2619047619047619,0.21428571428571427,0.1761904761904762,0.14761904761904762,0.1380952380952381,0.11904761904761904,0.05238095238095238,0.03333333333333333,0.004761904761904762,-0.014285714285714285,-0.04285714285714286,-0.05238095238095238,-0.05238095238095238,-0.05238095238095238,-0.05238095238095238,-0.05238095238095238,-0.05238095238095238,-0.05238095238095238,-0.05238095238095238,-0.05238095238095238,-0.05238095238095238,-0.05238095238095238,-0.05238095238095238,-0.05238095238095238,-0.05238095238095238,-0.05238095238095238,-0.04285714285714286,-0.03333333333333333,-0.023809523809523808,-0.023809523809523808,-0.023809523809523808,-0.014285714285714285,-0.014285714285714285,-0.004761904761904762,0.004761904761904762,0.004761904761904762,0.004761904761904762,0.004761904761904762,0.004761904761904762,0.014285714285714285,0.014285714285714285,0.014285714285714285,0.014285714285714285,0.014285714285714285,0.014285714285714285,0.014285714285714285,0.014285714285714285,0.014285714285714285,0.014285714285714285,0.014285714285714285,0.014285714285714285,0.014285714285714285,0.014285714285714285,0.014285714285714285,0.014285714285714285,0.014285714285714285,0.014285714285714285,0.014285714285714285,0.014285714285714285,0.014285714285714285,0.014285714285714285,0.014285714285714285,0.014285714285714285,0.014285714285714285,0.023809523809523808,0.08095238095238096,0.21428571428571427,0.3,0.36666666666666664,0.4238095238095238,0.4714285714285714,0.5285714285714286,0.5666666666666667,0.6142857142857143,0.6714285714285714,0.7476190476190476,0.8142857142857143,0.8809523809523809,0.9571428571428572,1.0523809523809524,1.1,1.138095238095238,1.1761904761904762,1.2142857142857142,1.2904761904761906,1.3571428571428572,1.3761904761904762,1.3761904761904762,1.3761904761904762,1.3761904761904762,1.3761904761904762,1.3761904761904762,1.3761904761904762,1.3761904761904762,1.3761904761904762,1.3761904761904762,1.3761904761904762,1.3761904761904762,1.3761904761904762,1.3761904761904762,1.3761904761904762,1.3761904761904762,1.3761904761904762,1.3761904761904762,1.3761904761904762,1.3761904761904762,1.3761904761904762,1.3761904761904762,1.3761904761904762,1.3761904761904762,1.3761904761904762,1.3666666666666667,1.338095238095238,1.3,1.2809523809523808,1.2714285714285714,1.2714285714285714,1.2619047619047619,1.2619047619047619,1.223809523809524,1.1857142857142857,1.1571428571428573,1.138095238095238,1.1095238095238096,1.0904761904761904,1.061904761904762,1.0238095238095237,0.9857142857142858,0.9095238095238095,0.861904761904762,0.8142857142857143,0.7380952380952381,0.6142857142857143,0.4523809523809524,0.2904761904761905,0.14761904761904762,-0.004761904761904762,-0.03333333333333333,-0.09047619047619047,-0.1761904761904762,-0.23333333333333334,-0.2619047619047619,-0.3,-0.3761904761904762,-0.46190476190476193,-0.5,-0.5285714285714286,-0.5476190476190477,-0.5666666666666667,-0.5857142857142857,-0.5857142857142857,-0.5857142857142857,-0.5857142857142857,-0.5857142857142857,-0.5857142857142857,-0.5857142857142857,-0.5857142857142857,-0.5476190476190477,-0.46190476190476193,-0.3761904761904762,-0.2714285714285714,-0.16666666666666666,-0.05238095238095238,0.014285714285714285,0.06190476190476191,0.08095238095238096,0.10952380952380952,0.12857142857142856,0.1380952380952381,0.14761904761904762,0.14761904761904762,0.14761904761904762,0.14761904761904762,0.14761904761904762,0.14761904761904762,0.14761904761904762,0.1380952380952381,0.1380952380952381,0.1380952380952381,0.12857142857142856,0.12857142857142856,0.12857142857142856,0.12857142857142856,0.12857142857142856,0.12857142857142856,0.12857142857142856,0.12857142857142856,0.15714285714285714,0.20476190476190476,0.2714285714285714,0.35714285714285715,0.43333333333333335,0.5190476190476191,0.6142857142857143,0.680952380952381,0.719047619047619,0.7476190476190476,0.7952380952380952,0.8428571428571429,0.8809523809523809,0.8904761904761904,0.9095238095238095,0.919047619047619,0.9285714285714286,0.9285714285714286,0.9285714285714286,0.9285714285714286,0.9285714285714286,0.9285714285714286,0.9285714285714286,0.9285714285714286,0.9285714285714286,0.9285714285714286,0.919047619047619,0.9095238095238095,0.9,0.8809523809523809,0.861904761904762,0.861904761904762,0.8428571428571429,0.8238095238095238,0.8238095238095238,0.8238095238095238,0.8238095238095238,0.8238095238095238,0.8238095238095238,0.8238095238095238,0.8238095238095238,0.8142857142857143,0.8142857142857143,0.8047619047619048,0.7952380952380952,0.7761904761904762,0.7571428571428571,0.7285714285714285,0.6904761904761905,0.6428571428571429,0.6047619047619047,0.5666666666666667,0.5476190476190477,0.5190476190476191,0.5095238095238095,0.5095238095238095,0.5095238095238095,0.5095238095238095,0.5095238095238095,0.5095238095238095,0.5095238095238095,0.5095238095238095,0.5190476190476191,0.5380952380952381,0.5952380952380952,0.6619047619047619,0.7285714285714285,0