[{"success":true,"trial_type":"fullscreen","trial_index":0,"time_elapsed":12158,"internal_node_id":"0.0-0.0","protocol_sum":"","subject_identifier":426,"subject_sum":[212,143,244,178,246,138,16,253,124,134,241,133,166,204,237,224,220,15,44,72,83,141,105,124,179,59,106,218,63,30,133,219],"subject_pair":213,"STUDY_ID":"66a22c0758a3d5c9d26873c6","PROLIFIC_PID":"638fdf87700dd1228bade2e1","SESSION_ID":"66a2bf98d990ccc0de0f8243","practice_instructions":1,"leaderboard_instructions":0,"bonus":0,"reveal_word":false,"self_rating":"1","confidence":"70"},{"view_history":"[{\"page_index\":0,\"viewing_time\":2123.5999999046326}]","rt":2123.7999997138977,"trial_type":"instructions","trial_index":1,"time_elapsed":14288,"internal_node_id":"0.0-1.0","protocol_sum":"","subject_identifier":426,"subject_sum":[212,143,244,178,246,138,16,253,124,134,241,133,166,204,237,224,220,15,44,72,83,141,105,124,179,59,106,218,63,30,133,219],"subject_pair":213,"STUDY_ID":"66a22c0758a3d5c9d26873c6","PROLIFIC_PID":"638fdf87700dd1228bade2e1","SESSION_ID":"66a2bf98d990ccc0de0f8243","practice_instructions":1,"leaderboard_instructions":0,"bonus":0,"reveal_word":false,"self_rating":"1","confidence":"70"},{"view_history":"[{\"page_index\":0,\"viewing_time\":6032.199999809265}]","rt":6032.5,"trial_type":"instructions","trial_index":2,"time_elapsed":20321,"internal_node_id":"0.0-2.0-0.0","protocol_sum":"","subject_identifier":426,"subject_sum":[212,143,244,178,246,138,16,253,124,134,241,133,166,204,237,224,220,15,44,72,83,141,105,124,179,59,106,218,63,30,133,219],"subject_pair":213,"STUDY_ID":"66a22c0758a3d5c9d26873c6","PROLIFIC_PID":"638fdf87700dd1228bade2e1","SESSION_ID":"66a2bf98d990ccc0de0f8243","practice_instructions":1,"leaderboard_instructions":0,"bonus":0,"reveal_word":false,"self_rating":"1","confidence":"70"},{"rt":3653,"responses":"{\"Q0\":\"... reveal the word with as <b>few letter guesses</b> as possible\"}","question_order":"[0]","trial_type":"survey-multi-choice","trial_index":3,"time_elapsed":23976,"internal_node_id":"0.0-2.0-1.0","protocol_sum":"","subject_identifier":426,"subject_sum":[212,143,244,178,246,138,16,253,124,134,241,133,166,204,237,224,220,15,44,72,83,141,105,124,179,59,106,218,63,30,133,219],"subject_pair":213,"correct":true,"test_part":"multichoice_nonpretend","STUDY_ID":"66a22c0758a3d5c9d26873c6","PROLIFIC_PID":"638fdf87700dd1228bade2e1","SESSION_ID":"66a2bf98d990ccc0de0f8243","practice_instructions":1,"leaderboard_instructions":0,"bonus":0,"reveal_word":false,"self_rating":"1","confidence":"70"},{"view_history":"[{\"page_index\":0,\"viewing_time\":901.5999999046326}]","rt":901.8999996185303,"trial_type":"instructions","trial_index":4,"time_elapsed":24880,"internal_node_id":"0.0-3.0","protocol_sum":"","subject_identifier":426,"subject_sum":[212,143,244,178,246,138,16,253,124,134,241,133,166,204,237,224,220,15,44,72,83,141,105,124,179,59,106,218,63,30,133,219],"subject_pair":213,"STUDY_ID":"66a22c0758a3d5c9d26873c6","PROLIFIC_PID":"638fdf87700dd1228bade2e1","SESSION_ID":"66a2bf98d990ccc0de0f8243","practice_instructions":1,"leaderboard_instructions":0,"bonus":0,"reveal_word":false,"self_rating":"1","confidence":"70"},{"word":"ZEBRA","click_log":{"letter":["","Z","E","B","R","A"],"t":[0,4319.5,5560.700000286102,7841.200000286102,9270.800000190735,10096.5],"hit":[null,1,1,1,1,1],"asked":["","Z","ZE","ZEB","ZEBR","ZEBRA"],"word_state":["_____","Z____","ZE___","ZEB__","ZEBR_","ZEBRA"]},"hover_log":{"letter":["?","?","J","J","J","J","J","J","J","J","J","J","J","J","J","?","K","K","K","K","K","K","K","K","K","K","K","K","K","K","K","K","K","K","K","K","?","?","?","D","D","?","?","?","?","?","?","?","?","?","?","?","?","D","D","D","D","D","D","D","D","D","D","D","D","D","D","D","D","D","?","?","?","?","?","M","M","M","M","M","M","?","N","N","N","N","N","?","?","?","?","?","?","?","?","?","?","?","?","N","N","N","N","M","M","M","M","M","?","?","L","L","L","?","?","?","?","?","?","?","?","?","?","?","?","?","?","?","?","?","?","?","?","?","?","?","?","?","?","?","?","?","?","?","?","?","?","?","?","?","?","?","?","?","?","?","?","?","?","?","?","?","?","?","?","?","?","?","?","?","?","?","?","?","U","U","U","U","U","U","U","U","U","U","U","U","U","U","U","U","U","U","?","V","V","V","V","?","W","W","?","X","X","X","X","?","Y","Y","Y","Y","Y","Y","?","?","Z","Z","Z","Z","Z","Z","?","?","?","?","?","?","?","?","?","?","?","?","?","?","?","?","?","Z","Z","Z","Z","Z","Z","Z","Z","Z","Z","Z","Z","Z","Z","Z","Z","Z","Z","Z","Z","Z","Z","Z","Z","Z","Z","Y","Y","?","?","?","?","N","?","M","M","?","?","?","?","?","?","?","?","?","?","?","?","?","?","?","?","?","?","?","?","?","C","D","D","?","E","E","E","E","E","E","E","E","E","E","?","?","?","?","?","?","?","?","?","?","?","?","?","?","?","?","?","?","?","?","E","E","E","E","E","E","E","E","E","E","E","E","E","E","E","E","E","E","E","E","?","?","?","M","M","?","L","L","L","L","L","L","L","L","L","L","L","L","L","?","?","?","?","?","?","?","?","?","?","?","T","?","U","U","U","V","V","V","V","V","V","V","V","V","?","?","W","W","W","W","W","W","?","?","?","?","?","O","O","O","O","O","O","O","N","N","N","?","M","M","M","M","M","M","M","M","M","M","?","L","L","L","L","L","L","L","L","?","?","?","?","?","?","?","?","?","B","B","B","B","B","B","B","B","B","B","B","B","B","B","B","B","B","B","B","B","B","B","B","B","B","B","B","B","?","C","C","C","?","?","D","D","D","?","E","E","?","F","F","?","?","?","G","G","G","G","G","G","G","G","G","G","G","G","G","G","G","G","G","G","G","G","G","G","G","G","?","?","?","?","Q","Q","Q","Q","Q","Q","Q","Q","Q","Q","Q","?","?","?","?","?","?","?","?","?","?","R","R","R","R","R","R","R","R","R","R","R","R","?","Q","?","P","?","?","?","?","?","?","?","?","C","C","?","?","?","?","B","B","B","B","B","B","B","B","B","B","?","A","A","A","A","A","A","A","A","A","A","A","A","A","A","A","A","A","A","A","A","A","A","A","A","?","?","?","B","?","?","?","?","?","?","?","?","?","?","?","?","?","?","?","?","?","?","?","?","?","?","?","?","?","?","?","?","?","?","O","O","?","?","?","W","W","?","?","?","?","?","?","?","?","?","?","?","?","?","?","?","?","?","?","?","?","?","?","?","?","?","?","?","?","?","?","?","?","?","?","?","?","?","?","?","?","?","?","?","?","?","?","?","?","?","?","?","?","?","?","?","?","?","?","?","?","?","?","?","?","?","?","?","?","?","?","?","?","?","?"],"t":[44,57,83,96,114,129,147,163,184,200,216,234,249,267,283,300,319,335,351,365,380,398,414,432,447,467,484,498,514,532,548,565,582,598,614,632,648,665,682,700,715,732,750,764,780,797,816,832,848,865,882,899,915,932,952,970,984,996,1010,1028,1045,1061,1079,1095,1113,1129,1146,1165,1179,1196,1213,1229,1246,1265,1281,1298,1314,1331,1346,1364,1381,1396,1417,1434,1450,1465,1478,1494,1510,1526,1545,1563,1579,1594,1611,1629,1647,1666,1683,1699,1716,1733,1751,1766,1783,1797,1815,1833,1845,1861,1877,1894,1912,1928,1946,1963,1977,1995,2010,2027,2044,2061,2077,2094,2112,2129,2146,2163,2178,2195,2211,2228,2245,2264,2281,2297,2315,2331,2348,2365,2381,2396,2415,2432,2449,2468,2498,2514,2530,2546,2563,2581,2597,2613,2630,2647,2664,2679,2698,2714,2731,2746,2765,2780,2797,2815,2828,2845,2862,2879,2895,2914,2926,2943,2960,2976,2992,3010,3032,3049,3064,3079,3098,3113,3129,3148,3162,3179,3199,3214,3233,3244,3260,3277,3294,3312,3328,3344,3361,3379,3394,3410,3427,3443,3460,3476,3493,3510,3528,3544,3561,3579,3597,3615,3632,3649,3664,3680,3695,3712,3729,3745,3760,3777,3795,3810,3829,3846,3871,3898,3913,3931,3950,3961,3976,3992,4011,4028,4047,4062,4081,4097,4114,4130,4145,4162,4178,4195,4211,4229,4245,4261,4277,4297,4312,4326,4342,4361,4380,4396,4415,4433,4451,4469,4486,4504,4515,4528,4548,4564,4582,4599,4615,4633,4649,4661,4676,4693,4709,4727,4745,4760,4778,4793,4809,4826,4842,4859,4876,4893,4913,4929,4948,4967,4987,5005,5023,5032,5045,5061,5077,5095,5111,5129,5150,5169,5187,5204,5220,5233,5251,5267,5285,5301,5317,5335,5359,5378,5388,5413,5429,5446,5460,5477,5493,5511,5527,5544,5560,5576,5592,5609,5626,5645,5662,5683,5697,5715,5733,5747,5763,5780,5798,5815,5831,5843,5859,5876,5893,5909,5926,5945,5963,5977,5995,6010,6027,6043,6060,6076,6093,6109,6127,6145,6162,6178,6195,6212,6227,6244,6261,6277,6296,6312,6329,6345,6361,6379,6395,6412,6427,6445,6460,6478,6493,6511,6528,6545,6562,6578,6595,6612,6628,6644,6661,6678,6693,6711,6729,6745,6763,6778,6795,6811,6827,6845,6860,6880,6893,6911,6928,6948,6964,6980,6994,7010,7026,7043,7060,7076,7092,7109,7126,7147,7163,7180,7198,7213,7230,7245,7262,7280,7299,7311,7325,7342,7359,7376,7392,7409,7427,7441,7458,7475,7492,7509,7525,7544,7559,7576,7595,7611,7627,7646,7661,7677,7693,7712,7726,7743,7760,7777,7793,7809,7828,7840,7857,7874,7890,7909,7929,7952,7968,7985,8004,8020,8042,8058,8075,8091,8107,8124,8141,8158,8176,8193,8209,8225,8241,8258,8275,8292,8308,8327,8345,8362,8378,8396,8411,8427,8443,8461,8478,8493,8510,8527,8544,8560,8576,8593,8610,8628,8645,8662,8680,8697,8714,8730,8749,8765,8780,8795,8811,8827,8844,8860,8876,8895,8910,8929,8946,8964,8978,8991,9008,9024,9041,9058,9074,9092,9108,9125,9141,9160,9177,9195,9212,9227,9245,9260,9273,9290,9308,9324,9343,9360,9377,9394,9410,9427,9444,9459,9475,9492,9509,9527,9542,9559,9577,9592,9610,9627,9643,9661,9681,9696,9712,9758,9761,9782,9801,9817,9836,9852,9867,9877,9891,9915,9934,9956,9962,9975,9991,10008,10024,10050,10065,10084,10096,10111,10125,10141,10169,10186,10203,10221,10237,10254,10260,10276,10300,10317,10336,10350,10368,10385,10399,10412,10429,10445,10466,10482,10502,10518,10531,10550,10568,10582,10602,10611,10625,10641,10659,10682,10699,10714,10728,10744,10761,10779,10794,10811,10827,10843,10859,10875,10893,10911,10925,10942,10959,10973,10992,11010,11026,11045,11059,11074,11102,11114,11133,11147,11161,11185,11202,11221,11235,11243,11268,11284,11301,11311,11340,11357,11369,11393,11409,11427,11446,11463,11483,11499,11510,11523,11543,11559,11577,11593,11613,11632,11650,11661,11674,11689,11707,11723,11740,11757,11776,11793,11809,11829,11844,11860,11881,11901,11918,11929,11943,11958,11973,11998,12010,12028,12044,12061,12076,12095,12114],"hit":[null],"x":[-0.04421768707482993,-0.034013605442176874,-0.030612244897959183,-0.027210884353741496,-0.027210884353741496,-0.027210884353741496,-0.027210884353741496,-0.027210884353741496,-0.027210884353741496,-0.023809523809523808,-0.023809523809523808,-0.02040816326530612,-0.013605442176870748,-0.006802721088435374,0.04081632653061224,0.07482993197278912,0.09523809523809523,0.09863945578231292,0.10204081632653061,0.1054421768707483,0.1054421768707483,0.1054421768707483,0.1054421768707483,0.1054421768707483,0.10884353741496598,0.11904761904761904,0.12244897959183673,0.1292517006802721,0.1292517006802721,0.1292517006802721,0.1326530612244898,0.1326530612244898,0.1360544217687075,0.14285714285714285,0.15306122448979592,0.16666666666666666,0.23129251700680273,0.3197278911564626,0.3877551020408163,0.445578231292517,0.48299319727891155,0.4897959183673469,0.4931972789115646,0.4931972789115646,0.4931972789115646,0.4931972789115646,0.4897959183673469,0.4897959183673469,0.48299319727891155,0.47959183673469385,0.47278911564625853,0.46258503401360546,0.4557823129251701,0.4489795918367347,0.445578231292517,0.4421768707482993,0.4421768707482993,0.4421768707482993,0.4421768707482993,0.4421768707482993,0.4421768707482993,0.4421768707482993,0.4421768707482993,0.4421768707482993,0.4421768707482993,0.4421768707482993,0.4421768707482993,0.4387755102040816,0.43197278911564624,0.42857142857142855,0.4217687074829932,0.4217687074829932,0.4217687074829932,0.4217687074829932,0.42857142857142855,0.43537414965986393,0.4421768707482993,0.4523809523809524,0.45918367346938777,0.46598639455782315,0.47278911564625853,0.4897959183673469,0.5204081632653061,0.54421768707483,0.5680272108843537,0.5986394557823129,0.6156462585034014,0.6258503401360545,0.6326530612244898,0.6326530612244898,0.6360544217687075,0.6360544217687075,0.6394557823129252,0.6394557823129252,0.6394557823129252,0.6394557823129252,0.6394557823129252,0.6394557823129252,0.6326530612244898,0.6156462585034014,0.5884353741496599,0.5578231292517006,0.5170068027210885,0.46938775510204084,0.4387755102040816,0.41496598639455784,0.3979591836734694,0.3877551020408163,0.36394557823129253,0.3435374149659864,0.3197278911564626,0.29591836734693877,0.282312925170068,0.272108843537415,0.2653061224489796,0.2653061224489796,0.25170068027210885,0.23129251700680273,0.22108843537414966,0.2108843537414966,0.20068027210884354,0.19727891156462585,0.19387755102040816,0.19047619047619047,0.19047619047619047,0.1836734693877551,0.1836734693877551,0.18027210884353742,0.17687074829931973,0.17346938775510204,0.17346938775510204,0.17346938775510204,0.17346938775510204,0.17346938775510204,0.17346938775510204,0.1870748299319728,0.21768707482993196,0.2585034013605442,0.2925170068027211,0.32653061224489793,0.35374149659863946,0.38095238095238093,0.40816326530612246,0.43197278911564624,0.4557823129251701,0.47619047619047616,0.5034013605442177,0.5068027210884354,0.5068027210884354,0.5068027210884354,0.5102040816326531,0.5102040816326531,0.5204081632653061,0.5408163265306123,0.564625850340136,0.5714285714285714,0.5748299319727891,0.5748299319727891,0.5782312925170068,0.5816326530612245,0.5884353741496599,0.5884353741496599,0.5918367346938775,0.5918367346938775,0.5918367346938775,0.5850340136054422,0.5510204081632653,0.5238095238095238,0.47959183673469385,0.4217687074829932,0.38095238095238093,0.3231292517006803,0.3129251700680272,0.2891156462585034,0.2789115646258503,0.2687074829931973,0.2585034013605442,0.25510204081632654,0.25170068027210885,0.25170068027210885,0.25170068027210885,0.25170068027210885,0.25170068027210885,0.25170068027210885,0.25170068027210885,0.25170068027210885,0.25170068027210885,0.25510204081632654,0.2585034013605442,0.272108843537415,0.2925170068027211,0.3401360544217687,0.36394557823129253,0.3877551020408163,0.40816326530612246,0.42857142857142855,0.46938775510204084,0.5,0.5306122448979592,0.5714285714285714,0.6326530612244898,0.6768707482993197,0.7074829931972789,0.7414965986394558,0.7653061224489796,0.7959183673469388,0.8163265306122449,0.8367346938775511,0.8571428571428571,0.8775510204081632,0.8945578231292517,0.9115646258503401,0.9251700680272109,0.9421768707482994,0.9523809523809523,0.9659863945578231,0.9795918367346939,1.0136054421768708,1.0408163265306123,1.054421768707483,1.0612244897959184,1.0612244897959184,1.0612244897959184,1.0612244897959184,1.0612244897959184,1.0612244897959184,1.0612244897959184,1.0612244897959184,1.0612244897959184,1.0612244897959184,1.0612244897959184,1.0612244897959184,1.0612244897959184,1.0612244897959184,1.0612244897959184,1.0612244897959184,1.0612244897959184,1.0476190476190477,1.0374149659863945,1.0272108843537415,1.0272108843537415,1.0238095238095237,1.0204081632653061,1.0136054421768708,1.0136054421768708,1.010204081632653,1.0068027210884354,1.0068027210884354,1.0068027210884354,1.0068027210884354,1.0068027210884354,1.0068027210884354,1.0068027210884354,1.0068027210884354,1.0068027210884354,1.0068027210884354,1.0068027210884354,1.0068027210884354,1.0068027210884354,1.0068027210884354,1,0.9795918367346939,0.95578231292517,0.9013605442176871,0.8503401360544217,0.7891156462585034,0.7210884353741497,0.6666666666666666,0.6190476190476191,0.5714285714285714,0.5170068027210885,0.46258503401360546,0.4013605442176871,0.3401360544217687,0.272108843537415,0.24489795918367346,0.23469387755102042,0.23129251700680273,0.22448979591836735,0.22448979591836735,0.21768707482993196,0.21428571428571427,0.2108843537414966,0.2108843537414966,0.2108843537414966,0.2108843537414966,0.20748299319727892,0.20748299319727892,0.20408163265306123,0.20408163265306123,0.20408163265306123,0.20408163265306123,0.20408163265306123,0.20748299319727892,0.2653061224489796,0.3945578231292517,0.46598639455782315,0.5102040816326531,0.5306122448979592,0.5306122448979592,0.5306122448979592,0.5306122448979592,0.5306122448979592,0.5306122448979592,0.5306122448979592,0.5306122448979592,0.5306122448979592,0.5238095238095238,0.5102040816326531,0.5102040816326531,0.5068027210884354,0.5068027210884354,0.5068027210884354,0.5034013605442177,0.5034013605442177,0.5034013605442177,0.5034013605442177,0.5068027210884354,0.5102040816326531,0.5136054421768708,0.5136054421768708,0.5136054421768708,0.5136054421768708,0.5136054421768708,0.5136054421768708,0.5136054421768708,0.5136054421768708,0.5136054421768708,0.5238095238095238,0.5374149659863946,0.5374149659863946,0.54421768707483,0.54421768707483,0.54421768707483,0.54421768707483,0.54421768707483,0.54421768707483,0.5510204081632653,0.5510204081632653,0.5510204081632653,0.5510204081632653,0.5510204081632653,0.5510204081632653,0.5510204081632653,0.5510204081632653,0.5510204081632653,0.54421768707483,0.5306122448979592,0.5170068027210885,0.48639455782312924,0.46258503401360546,0.4217687074829932,0.38095238095238093,0.35714285714285715,0.3401360544217687,0.3333333333333333,0.32653061224489793,0.32653061224489793,0.32653061224489793,0.32653061224489793,0.32653061224489793,0.32653061224489793,0.32653061224489793,0.3231292517006803,0.30272108843537415,0.2857142857142857,0.2687074829931973,0.2585034013605442,0.24489795918367346,0.23809523809523808,0.22448979591836735,0.21428571428571427,0.20748299319727892,0.19727891156462585,0.19047619047619047,0.1836734693877551,0.1836734693877551,0.1836734693877551,0.19047619047619047,0.21768707482993196,0.25170068027210885,0.3129251700680272,0.3435374149659864,0.3741496598639456,0.3877551020408163,0.4013605442176871,0.40816326530612246,0.41496598639455784,0.4217687074829932,0.43537414965986393,0.4523809523809524,0.46938775510204084,0.48639455782312924,0.5,0.5238095238095238,0.5306122448979592,0.5408163265306123,0.54421768707483,0.5612244897959183,0.5884353741496599,0.6190476190476191,0.6394557823129252,0.6564625850340136,0.6666666666666666,0.6836734693877551,0.6938775510204082,0.7108843537414966,0.7108843537414966,0.7108843537414966,0.7040816326530612,0.6904761904761905,0.6598639455782312,0.608843537414966,0.5714285714285714,0.54421768707483,0.5068027210884354,0.46938775510204084,0.4421768707482993,0.41156462585034015,0.4013605442176871,0.3945578231292517,0.3945578231292517,0.3945578231292517,0.3877551020408163,0.38095238095238093,0.3741496598639456,0.35374149659863946,0.3401360544217687,0.3333333333333333,0.32653061224489793,0.3197278911564626,0.30612244897959184,0.282312925170068,0.272108843537415,0.2619047619047619,0.25170068027210885,0.24149659863945577,0.23809523809523808,0.23129251700680273,0.22448979591836735,0.21768707482993196,0.2108843537414966,0.20408163265306123,0.19727891156462585,0.1836734693877551,0.17687074829931973,0.17006802721088435,0.16326530612244897,0.1564625850340136,0.14625850340136054,0.13945578231292516,0.1360544217687075,0.1326530612244898,0.1326530612244898,0.1326530612244898,0.1326530612244898,0.1326530612244898,0.1326530612244898,0.1326530612244898,0.1326530612244898,0.1326530612244898,0.1326530612244898,0.1326530612244898,0.1326530612244898,0.1326530612244898,0.1326530612244898,0.1326530612244898,0.1326530612244898,0.1360544217687075,0.1564625850340136,0.17687074829931973,0.19727891156462585,0.21768707482993196,0.24829931972789115,0.272108843537415,0.29931972789115646,0.3469387755102041,0.3707482993197279,0.3945578231292517,0.42857142857142855,0.46598639455782315,0.5102040816326531,0.5510204081632653,0.5918367346938775,0.6360544217687075,0.6802721088435374,0.7278911564625851,0.7619047619047619,0.782312925170068,0.8095238095238095,0.8231292517006803,0.8333333333333334,0.8333333333333334,0.8333333333333334,0.8367346938775511,0.8367346938775511,0.8333333333333334,0.8299319727891157,0.8299319727891157,0.8299319727891157,0.8299319727891157,0.8299319727891157,0.8299319727891157,0.8299319727891157,0.8299319727891157,0.826530612244898,0.8163265306122449,0.8163265306122449,0.8163265306122449,0.8163265306122449,0.8163265306122449,0.8163265306122449,0.8231292517006803,0.8469387755102041,0.8741496598639455,0.9115646258503401,0.9319727891156463,0.9829931972789115,1.010204081632653,1.0204081632653061,1.034013605442177,1.0374149659863945,1.0374149659863945,1.0374149659863945,1.0408163265306123,1.0408163265306123,1.0476190476190477,1.0476190476190477,1.0476190476190477,1.054421768707483,1.0612244897959184,1.0680272108843538,1.0680272108843538,1.0714285714285714,1.0748299319727892,1.0816326530612246,1.0816326530612246,1.0816326530612246,1.0816326530612246,1.0918367346938775,1.098639455782313,1.1020408163265305,1.1020408163265305,1.1020408163265305,1.1020408163265305,1.1020408163265305,1.1020408163265305,1.1020408163265305,1.1020408163265305,1.1020408163265305,1.1020408163265305,1.064625850340136,1.0034013605442176,0.9319727891156463,0.8401360544217688,0.7551020408163265,0.6802721088435374,0.6190476190476191,0.564625850340136,0.5170068027210885,0.46938775510204084,0.41836734693877553,0.3673469387755102,0.30612244897959184,0.2687074829931973,0.23129251700680273,0.2108843537414966,0.20068027210884354,0.19727891156462585,0.19387755102040816,0.19047619047619047,0.18027210884353742,0.17006802721088435,0.16326530612244897,0.1564625850340136,0.14965986394557823,0.1360544217687075,0.11564625850340136,0.08503401360544217,0.0782312925170068,0.05442176870748299,0.03741496598639456,0.023809523809523808,0.02040816326530612,0.017006802721088437,0.017006802721088437,0.017006802721088437,0.017006802721088437,0.017006802721088437,0.013605442176870748,0.013605442176870748,0.013605442176870748,0.013605442176870748,0.013605442176870748,0.013605442176870748,0.013605442176870748,0.013605442176870748,0.013605442176870748,0.013605442176870748,0.013605442176870748,0.013605442176870748,0.013605442176870748,0.027210884353741496,0.034013605442176874,0.05442176870748299,0.07482993197278912,0.09523809523809523,0.14285714285714285,0.16326530612244897,0.19727891156462585,0.23809523809523808,0.2687074829931973,0.3435374149659864,0.4013605442176871,0.46938775510204084,0.5612244897959183,0.6530612244897959,0.7278911564625851,0.7891156462585034,0.8163265306122449,0.8299319727891157,0.8299319727891157,0.8299319727891157,0.8333333333333334,0.8333333333333334,0.8333333333333334,0.8333333333333334,0.8333333333333334,0.8333333333333334,0.8367346938775511,0.8367346938775511,0.8367346938775511,0.8367346938775511,0.8367346938775511,0.8299319727891157,0.8129251700680272,0.7891156462585034,0.7687074829931972,0.7482993197278912,0.7244897959183674,0.6904761904761905,0.6394557823129252,0.608843537414966,0.5816326530612245,0.5476190476190477,0.5204081632653061,0.5068027210884354,0.4965986394557823,0.4965986394557823,0.4965986394557823,0.4965986394557823,0.4965986394557823,0.4965986394557823,0.4965986394557823,0.5,0.5034013605442177,0.5034013605442177,0.5034013605442177,0.5034013605442177,0.5034013605442177,0.5034013605442177,0.5238095238095238,0.5510204081632653,0.5884353741496599,0.6190476190476191,0.6598639455782312,0.6938775510204082,0.7210884353741497,0.7346938775510204,0.7482993197278912,0.7551020408163265,0.7687074829931972,0.7721088435374149,0.7857142857142857,0.7993197278911565,0.8163265306122449,0.8163265306122449,0.8197278911564626,0.8197278911564626,0.8231292517006803,0.8299319727891157,0.8333333333333334,0.8367346938775511,0.8367346938775511,0.8367346938775511,0.8367346938775511,0.8367346938775511,0.8401360544217688,0.8401360544217688,0.8435374149659864,0.8435374149659864,0.8435374149659864,0.8435374149659864,0.8435374149659864,0.8435374149659864,0.8435374149659864,0.8435374149659864,0.8469387755102041,0.8469387755102041,0.8469387755102041,0.8469387755102041,0.8469387755102041,0.8469387755102041,0.8469387755102041,0.8469387755102041,0.8503401360544217,0.8503401360544217,0.8503401360544217,0.8503401360544217,0.8503401360544217,0.8503401360544217,0.8503401360544217,0.8503401360544217,0.8503401360544217,0.8503401360544217,0.8503401360544217,0.8503401360544217,0.8503401360544217,0.8503401360544217],"y":[0.36031746027015504,0.36031746027015504,0.3698412697939646,0.3698412697939646,0.3793650793177741,0.3888888888415836,0.3888888888415836,0.3888888888415836,0.3888888888415836,0.3888888888415836,0.3888888888415836,0.3984126983653931,0.40793650788920266,0.4269841269368217,0.4650793650320598,0.4936507936034884,0.5031746031272979,0.5031746031272979,0.5031746031272979,0.5031746031272979,0.5031746031272979,0.5031746031272979,0.5031746031272979,0.5031746031272979,0.5031746031272979,0.5031746031272979,0.5031746031272979,0.4936507936034884,0.4936507936034884,0.48412698407967886,0.48412698407967886,0.4746031745558693,0.4650793650320598,0.4650793650320598,0.44603174598444073,0.4269841269368217,0.3507936507463455,0.24603174598444075,0.141269841222536,0.0650793650320598,-0.001587301634606861,-0.04920634925365448,-0.08730158734889258,-0.12539682544413067,-0.16349206353936876,-0.17301587306317828,-0.1825396825869878,-0.1825396825869878,-0.20158730163460686,-0.20158730163460686,-0.20158730163460686,-0.1825396825869878,-0.17301587306317828,-0.15396825401555925,-0.14444444449174973,-0.12539682544413067,-0.11587301592032115,-0.10634920639651162,-0.10634920639651162,-0.10634920639651162,-0.10634920639651162,-0.10634920639651162,-0.08730158734889258,-0.058730158777464,-0.030158730206035433,0.007936507889202664,0.04603174598444076,0.08412698407967885,0.12222222217491695,0.16031746027015503,0.2174603174130122,0.23650793646063123,0.27460317455586936,0.2936507936034884,0.322222222174917,0.3507936507463455,0.3888888888415836,0.40793650788920266,0.4269841269368217,0.44603174598444073,0.4555555555082503,0.4650793650320598,0.4650793650320598,0.4650793650320598,0.44603174598444073,0.4174603174130122,0.40793650788920266,0.40793650788920266,0.3984126983653931,0.3984126983653931,0.3984126983653931,0.3888888888415836,0.3888888888415836,0.3888888888415836,0.3888888888415836,0.3888888888415836,0.3888888888415836,0.3888888888415836,0.3888888888415836,0.40793650788920266,0.43650793646063124,0.44603174598444073,0.48412698407967886,0.5031746031272979,0.5317460316987265,0.5507936507463456,0.560317460270155,0.5793650793177741,0.5984126983653931,0.6174603174130122,0.6365079364606312,0.6555555555082503,0.6650793650320598,0.6650793650320598,0.6746031745558694,0.6746031745558694,0.6746031745558694,0.6746031745558694,0.6746031745558694,0.6746031745558694,0.6746031745558694,0.6746031745558694,0.6746031745558694,0.6746031745558694,0.6746031745558694,0.6746031745558694,0.6746031745558694,0.6746031745558694,0.6746031745558694,0.6746031745558694,0.6746031745558694,0.6746031745558694,0.6746031745558694,0.6746031745558694,0.6746031745558694,0.6746031745558694,0.6746031745558694,0.6746031745558694,0.6746031745558694,0.6746031745558694,0.6841269840796789,0.7031746031272978,0.7126984126511074,0.7126984126511074,0.7317460316987264,0.7317460316987264,0.7317460316987264,0.7317460316987264,0.7317460316987264,0.7317460316987264,0.7317460316987264,0.7317460316987264,0.7317460316987264,0.7317460316987264,0.7317460316987264,0.7317460316987264,0.7317460316987264,0.7317460316987264,0.7317460316987264,0.741269841222536,0.741269841222536,0.741269841222536,0.741269841222536,0.741269841222536,0.741269841222536,0.7317460316987264,0.7317460316987264,0.7317460316987264,0.7222222221749169,0.7317460316987264,0.7507936507463455,0.7984126983653932,0.8079365078892027,0.8269841269368217,0.8460317459844408,0.8555555555082502,0.8746031745558693,0.8746031745558693,0.8746031745558693,0.8841269840796788,0.8841269840796788,0.8841269840796788,0.8841269840796788,0.8841269840796788,0.8936507936034884,0.9031746031272979,0.9126984126511074,0.9222222221749169,0.941269841222536,0.9603174602701551,1.0079365078892026,1.0460317459844408,1.0650793650320598,1.0746031745558693,1.0746031745558693,1.0746031745558693,1.0650793650320598,1.0555555555082503,1.0555555555082503,1.0555555555082503,1.0555555555082503,1.0555555555082503,1.0555555555082503,1.0555555555082503,1.0555555555082503,1.0555555555082503,1.0555555555082503,1.0555555555082503,1.0555555555082503,1.0555555555082503,1.0555555555082503,1.0555555555082503,1.0555555555082503,1.0555555555082503,1.0555555555082503,1.0555555555082503,1.0555555555082503,1.0555555555082503,1.0555555555082503,1.0555555555082503,1.0555555555082503,1.0555555555082503,1.0555555555082503,1.0555555555082503,1.0555555555082503,1.0555555555082503,1.0555555555082503,1.0555555555082503,1.0555555555082503,1.0555555555082503,1.0555555555082503,1.0555555555082503,1.0555555555082503,1.0555555555082503,1.0555555555082503,1.0555555555082503,1.0555555555082503,1.0555555555082503,1.0555555555082503,1.0555555555082503,1.0460317459844408,1.0460317459844408,1.0460317459844408,1.0365079364606313,1.0365079364606313,1.0365079364606313,1.0365079364606313,1.0365079364606313,1.0365079364606313,1.0365079364606313,1.0269841269368216,1.0269841269368216,1.0269841269368216,1.0269841269368216,1.0269841269368216,1.0269841269368216,1.0269841269368216,1.0269841269368216,1.0269841269368216,1.0269841269368216,1.0174603174130121,1.0079365078892026,0.9793650793177741,0.941269841222536,0.9031746031272979,0.8650793650320598,0.8079365078892027,0.760317460270155,0.7126984126511074,0.6365079364606312,0.5698412697939645,0.4936507936034884,0.40793650788920266,0.341269841222536,0.24603174598444075,0.19841269836539313,0.1793650793177741,0.15079365074634551,0.11269841265110743,0.08412698407967885,0.0650793650320598,0.04603174598444076,0.02698412693682171,0.007936507889202664,-0.011111111158416384,-0.02063492068222591,-0.030158730206035433,-0.030158730206035433,-0.04920634925365448,-0.04920634925365448,-0.058730158777464,-0.06825396830127353,-0.06825396830127353,-0.06825396830127353,-0.06825396830127353,-0.058730158777464,-0.04920634925365448,-0.03968253972984496,-0.03968253972984496,-0.03968253972984496,-0.03968253972984496,-0.03968253972984496,-0.03968253972984496,-0.03968253972984496,-0.03968253972984496,-0.03968253972984496,-0.03968253972984496,-0.03968253972984496,-0.03968253972984496,-0.03968253972984496,-0.03968253972984496,-0.03968253972984496,-0.03968253972984496,-0.03968253972984496,-0.03968253972984496,-0.03968253972984496,-0.03968253972984496,-0.03968253972984496,-0.03968253972984496,-0.03968253972984496,-0.03968253972984496,-0.03968253972984496,-0.03968253972984496,-0.03968253972984496,-0.03968253972984496,-0.03968253972984496,-0.03968253972984496,-0.03968253972984496,-0.030158730206035433,-0.011111111158416384,-0.011111111158416384,-0.011111111158416384,-0.011111111158416384,-0.011111111158416384,-0.011111111158416384,-0.001587301634606861,-0.001587301634606861,0.007936507889202664,0.007936507889202664,0.007936507889202664,0.007936507889202664,0.007936507889202664,0.007936507889202664,0.007936507889202664,0.007936507889202664,0.007936507889202664,0.02698412693682171,0.05555555550825028,0.11269841265110743,0.19841269836539313,0.27460317455586936,0.3698412697939646,0.4650793650320598,0.522222222174917,0.5507936507463456,0.560317460270155,0.5793650793177741,0.5793650793177741,0.5793650793177741,0.5793650793177741,0.5793650793177741,0.5793650793177741,0.5793650793177741,0.5793650793177741,0.5888888888415836,0.6079365078892026,0.6365079364606312,0.6555555555082503,0.6936507936034884,0.6936507936034884,0.741269841222536,0.760317460270155,0.7793650793177741,0.7984126983653932,0.8174603174130122,0.8365079364606313,0.8460317459844408,0.8746031745558693,0.9031746031272979,0.9317460316987265,0.9603174602701551,0.9793650793177741,0.9888888888415837,0.9888888888415837,0.9888888888415837,0.9888888888415837,0.9793650793177741,0.9698412697939646,0.9603174602701551,0.9603174602701551,0.9507936507463455,0.9507936507463455,0.941269841222536,0.941269841222536,0.9222222221749169,0.9222222221749169,0.9126984126511074,0.9031746031272979,0.8841269840796788,0.8460317459844408,0.7793650793177741,0.741269841222536,0.7031746031272978,0.6746031745558694,0.6460317459844408,0.6174603174130122,0.5793650793177741,0.5698412697939645,0.5507936507463456,0.522222222174917,0.5031746031272979,0.4746031745558693,0.4555555555082503,0.44603174598444073,0.44603174598444073,0.44603174598444073,0.4650793650320598,0.4650793650320598,0.4650793650320598,0.4650793650320598,0.4650793650320598,0.4650793650320598,0.4650793650320598,0.4650793650320598,0.4650793650320598,0.4650793650320598,0.4650793650320598,0.4650793650320598,0.4650793650320598,0.4650793650320598,0.4555555555082503,0.44603174598444073,0.40793650788920266,0.3888888888415836,0.3698412697939646,0.341269841222536,0.3126984126511074,0.28412698407967885,0.25555555550825027,0.2174603174130122,0.1888888888415836,0.141269841222536,0.12222222217491695,0.11269841265110743,0.08412698407967885,0.07460317455586933,0.0650793650320598,0.05555555550825028,0.04603174598444076,0.04603174598444076,0.03650793646063123,0.03650793646063123,0.02698412693682171,0.02698412693682171,0.02698412693682171,0.02698412693682171,0.02698412693682171,0.02698412693682171,0.02698412693682171,0.02698412693682171,0.02698412693682171,0.02698412693682171,0.02698412693682171,0.02698412693682171,0.02698412693682171,0.02698412693682171,0.02698412693682171,0.02698412693682171,0.02698412693682171,0.03650793646063123,0.04603174598444076,0.04603174598444076,0.04603174598444076,0.05555555550825028,0.05555555550825028,0.05555555550825028,0.07460317455586933,0.09365079360348838,0.1031746031272979,0.11269841265110743,0.12222222217491695,0.13174603169872648,0.13174603169872648,0.13174603169872648,0.13174603169872648,0.13174603169872648,0.13174603169872648,0.13174603169872648,0.13174603169872648,0.12222222217491695,0.12222222217491695,0.12222222217491695,0.12222222217491695,0.12222222217491695,0.12222222217491695,0.11269841265110743,0.1031746031272979,0.1031746031272979,0.09365079360348838,0.09365079360348838,0.09365079360348838,0.09365079360348838,0.09365079360348838,0.09365079360348838,0.09365079360348838,0.09365079360348838,0.09365079360348838,0.09365079360348838,0.09365079360348838,0.09365079360348838,0.09365079360348838,0.1031746031272979,0.11269841265110743,0.141269841222536,0.1793650793177741,0.23650793646063123,0.2650793650320598,0.33174603169872646,0.3698412697939646,0.3888888888415836,0.3984126983653931,0.3984126983653931,0.3984126983653931,0.3984126983653931,0.3984126983653931,0.3984126983653931,0.40793650788920266,0.40793650788920266,0.40793650788920266,0.40793650788920266,0.40793650788920266,0.40793650788920266,0.40793650788920266,0.40793650788920266,0.40793650788920266,0.40793650788920266,0.40793650788920266,0.40793650788920266,0.40793650788920266,0.4174603174130122,0.4269841269368217,0.4269841269368217,0.4269841269368217,0.4269841269368217,0.4269841269368217,0.4269841269368217,0.4269841269368217,0.4269841269368217,0.4269841269368217,0.4269841269368217,0.4269841269368217,0.4269841269368217,0.40793650788920266,0.3793650793177741,0.36031746027015504,0.33174603169872646,0.3126984126511074,0.2936507936034884,0.25555555550825027,0.23650793646063123,0.2174603174130122,0.1793650793177741,0.16031746027015503,0.12222222217491695,0.12222222217491695,0.1031746031272979,0.09365079360348838,0.08412698407967885,0.08412698407967885,0.08412698407967885,0.08412698407967885,0.07460317455586933,0.0650793650320598,0.0650793650320598,0.05555555550825028,0.04603174598444076,0.04603174598444076,0.03650793646063123,0.02698412693682171,0.02698412693682171,0.02698412693682171,0.02698412693682171,0.02698412693682171,0.02698412693682171,0.02698412693682171,0.02698412693682171,0.02698412693682171,0.02698412693682171,0.02698412693682171,0.02698412693682171,0.02698412693682171,0.02698412693682171,0.02698412693682171,0.02698412693682171,0.02698412693682171,0.02698412693682171,0.02698412693682171,0.02698412693682171,0.02698412693682171,0.02698412693682171,0.02698412693682171,0.02698412693682171,0.03650793646063123,0.0650793650320598,0.08412698407967885,0.11269841265110743,0.12222222217491695,0.15079365074634551,0.16984126979396458,0.1793650793177741,0.19841269836539313,0.19841269836539313,0.2174603174130122,0.2174603174130122,0.2174603174130122,0.23650793646063123,0.24603174598444075,0.25555555550825027,0.2650793650320598,0.28412698407967885,0.2936507936034884,0.2936507936034884,0.2936507936034884,0.2936507936034884,0.2936507936034884,0.2936507936034884,0.2936507936034884,0.2936507936034884,0.2936507936034884,0.2936507936034884,0.2936507936034884,0.2936507936034884,0.2936507936034884,0.2936507936034884,0.3126984126511074,0.33174603169872646,0.3698412697939646,0.4174603174130122,0.48412698407967886,0.560317460270155,0.6555555555082503,0.7507936507463455,0.8079365078892027,0.8841269840796788,0.9603174602701551,1.0936507936034883,1.1888888888415836,1.2746031745558692,1.341269841222536,1.379365079317774,1.398412698365393,1.398412698365393,1.4174603174130123,1.4174603174130123,1.4269841269368218,1.4269841269368218,1.4269841269368218,1.4269841269368218,1.4269841269368218,1.4269841269368218,1.4269841269368218,1.4174603174130123,1.4079365078892028,1.398412698365393,1.3888888888415836,1.3888888888415836,1.3888888888415836,1.379365079317774,1.379365079317774,1.3698412697939646,1.360317460270155,1.3507936507463456,1.3507936507463456,1.341269841222536,1.3317460316987264,1.3317460316987264,1.3317460316987264,1.3317460316987264,1.3317460316987264,1.3317460316987264,1.341269841222536,1.341269841222536,1.341269841222536,1.341269841222536,1.341269841222536,1.341269841222536,1.341269841222536,1.341269841222536,1.341269841222536,1.341269841222536,1.341269841222536,1.341269841222536,1.341269841222536,1.341269841222536,1.341269841222536,1.341269841222536,1.3317460316987264,1.3317460316987264,1.322222222174917,1.322222222174917,1.322222222174917,1.322222222174917,1.3126984126511074,1.3126984126511074,1.3126984126511074,1.3126984126511074,1.3126984126511074,1.3126984126511074,1.3126984126511074,1.3126984126511074,1.303174603127298,1.303174603127298,1.303174603127298,1.303174603127298,1.303174603127298,1.303174603127298,1.303174603127298,1.303174603127298,1.2936507936034884]},"final_keyboard_state":["Z","E","B","R","A"],"num_clicks":5,"points":15,"cheat":false,"trial_type":"Hangman","trial_index":5,"time_elapsed":36998,"internal_node_id":"0.0-4.0","protocol_sum":"","subject_identifier":426,"subject_sum":[212,143,244,178,246,138,16,253,124,134,241,133,166,204,237,224,220,15,44,72,83,141,105,124,179,59,106,218,63,30,133,219],"subject_pair":213,"STUDY_ID":"66a22c0758a3d5c9d26873c6","PROLIFIC_PID":"638fdf87700dd1228bade2e1","SESSION_ID":"66a2bf98d990ccc0de0f8243","practice_instructions":1,"leaderboard_instructions":0,"bonus":0,"reveal_word":false,"self_rating":"1","confidence":"70"},{"view_history":"[{\"page_index\":0,\"viewing_time\":1389.4000000953674},{\"page_index\":1,\"viewing_time\":1271.9000000953674}]","rt":2661.9000000953674,"trial_type":"instructions","trial_index":6,"time_elapsed":39664,"internal_node_id":"0.0-5.0","protocol_sum":"","subject_identifier":426,"subject_sum":[212,143,244,178,246,138,16,253,124,134,241,133,166,204,237,224,220,15,44,72,83,141,105,124,179,59,106,218,63,30,133,219],"subject_pair":213,"STUDY_ID":"66a22c0758a3d5c9d26873c6","PROLIFIC_PID":"638fdf87700dd1228bade2e1","SESSION_ID":"66a2bf98d990ccc0de0f8243","practice_instructions":1,"leaderboard_instructions":0,"bonus":0,"reveal_word":false,"self_rating":"1","confidence":"70"},{"rt":4446.800000190735,"responses":"{\"Q0\":\"...from <b>a previous session</b> that is not part of the upcoming tournament.\"}","question_order":"[0]","trial_type":"survey-multi-choice","trial_index":7,"time_elapsed":44112,"internal_node_id":"0.0-6.0","protocol_sum":"","subject_identifier":426,"subject_sum":[212,143,244,178,246,138,16,253,124,134,241,133,166,204,237,224,220,15,44,72,83,141,105,124,179,59,106,218,63,30,133,219],"subject_pair":213,"correct":true,"test_part":"multichoice_leaderboard","STUDY_ID":"66a22c0758a3d5c9d26873c6","PROLIFIC_PID":"638fdf87700dd1228bade2e1","SESSION_ID":"66a2bf98d990ccc0de0f8243","practice_instructions":1,"leaderboard_instructions":0,"bonus":0,"reveal_word":false,"self_rating":"1","confidence":"70"},{"view_history":"[{\"page_index\":0,\"viewing_time\":2590.7000002861023}]","rt":2590.9000000953674,"trial_type":"instructions","trial_index":8,"time_elapsed":46704,"internal_node_id":"0.0-8.0","protocol_sum":"","subject_identifier":426,"subject_sum":[212,143,244,178,246,138,16,253,124,134,241,133,166,204,237,224,220,15,44,72,83,141,105,124,179,59,106,218,63,30,133,219],"subject_pair":213,"STUDY_ID":"66a22c0758a3d5c9d26873c6","PROLIFIC_PID":"638fdf87700dd1228bade2e1","SESSION_ID":"66a2bf98d990ccc0de0f8243","practice_instructions":1,"leaderboard_instructions":0,"bonus":0,"reveal_word":false,"self_rating":"1","confidence":"70"},{"rt":2951.0999999046326,"responses":"{\"Q0\":\"...players' leaderboard position (in terms of <b>points</b>) in an <b>upcoming tournament.</b>\"}","question_order":"[0]","trial_type":"survey-multi-choice","trial_index":9,"time_elapsed":49656,"internal_node_id":"0.0-9.0","protocol_sum":"","subject_identifier":426,"subject_sum":[212,143,244,178,246,138,16,253,124,134,241,133,166,204,237,224,220,15,44,72,83,141,105,124,179,59,106,218,63,30,133,219],"subject_pair":213,"correct":true,"test_part":"multichoice_tournament","STUDY_ID":"66a22c0758a3d5c9d26873c6","PROLIFIC_PID":"638fdf87700dd1228bade2e1","SESSION_ID":"66a2bf98d990ccc0de0f8243","practice_instructions":1,"leaderboard_instructions":0,"bonus":0,"reveal_word":false,"self_rating":"1","confidence":"70"},{"view_history":"[{\"page_index\":0,\"viewing_time\":1487.0999999046326}]","rt":1487.2999997138977,"trial_type":"instructions","trial_index":10,"time_elapsed":51144,"internal_node_id":"0.0-11.0","protocol_sum":"","subject_identifier":426,"subject_sum":[212,143,244,178,246,138,16,253,124,134,241,133,166,204,237,224,220,15,44,72,83,141,105,124,179,59,106,218,63,30,133,219],"subject_pair":213,"STUDY_ID":"66a22c0758a3d5c9d26873c6","PROLIFIC_PID":"638fdf87700dd1228bade2e1","SESSION_ID":"66a2bf98d990ccc0de0f8243","practice_instructions":1,"leaderboard_instructions":0,"bonus":0,"reveal_word":false,"self_rating":"1","confidence":"70"},{"view_history":"[{\"page_index\":0,\"viewing_time\":1087.4000000953674}]","rt":1087.5999999046326,"trial_type":"instructions","trial_index":11,"time_elapsed":52231,"internal_node_id":"0.0-12.0-0.0","protocol_sum":"","subject_identifier":426,"subject_sum":[212,143,244,178,246,138,16,253,124,134,241,133,166,204,237,224,220,15,44,72,83,141,105,124,179,59,106,218,63,30,133,219],"subject_pair":213,"STUDY_ID":"66a22c0758a3d5c9d26873c6","PROLIFIC_PID":"638fdf87700dd1228bade2e1","SESSION_ID":"66a2bf98d990ccc0de0f8243","practice_instructions":1,"leaderboard_instructions":0,"bonus":0,"reveal_word":false,"self_rating":"1","confidence":"70"},{"word":"THIRTY FOUR","click_log":{"letter":["","A","E","I","G","H","O","N","W","M","D","C","S","T","R","Y","F","U"],"t":[0,40324.7999997139,40336.699999809265,40362.89999961853,40379.59999990463,40397,40412.7999997139,40429.39999961853,40447,40466.39999961853,40487,40508.39999961853,40529.59999990463,40546,40562.89999961853,40579.699999809265,40597.39999961853,40634.59999990463],"hit":[null,0,0,1,0,1,1,0,0,0,0,0,0,2,2,1,1,1],"asked":["","A","AE","AEI","AEIG","AEIGH","AEIGHO","AEIGHON","AEIGHONW","AEIGHONWM","AEIGHONWMD","AEIGHONWMDC","AEIGHONWMDCS","AEIGHONWMDCST","AEIGHONWMDCSTR","AEIGHONWMDCSTRY","AEIGHONWMDCSTRYF","AEIGHONWMDCSTRYFU"],"word_state":["______ ____","______ ____","______ ____","__I___ ____","__I___ ____","_HI___ ____","_HI___ _O__","_HI___ _O__","_HI___ _O__","_HI___ _O__","_HI___ _O__","_HI___ _O__","_HI___ _O__","THI_T_ _O__","THIRT_ _O_R","THIRTY _O_R","THIRTY FO_R","THIRTY FOUR"]},"hover_log":{"letter":["?","?","?","?","?","?","?","?","?","?","?","?","?","?","?","?","?","?","?","?","?","?","?","?","?","?","?","?","?","?","?","?","?","?","?","?","?","?","?","?","?","?","?","?","?","?","?","?","?","?","?","?","?","?","?","?","?","?","?","?","?","?","?","?","?","?","?","?","?","?","?","?","?","?","?","?","?","?","?","?","?","?","?","?","?","?","?","?","?","?","?","?","?","?","?","?","?","?","?","?","?","?","?","?","?","?","?","?","?","?","?","?","?","?","?","?","?","?","?","?","?","?","?","?","?","?","?","?","?","?","?","?","?","?","?","?","?","?","?","?","?","?","?","?","?","?","?","?","?","?","?","?","?","?","?","?","?","?","?","?","?","?","?","?","?","?","?","?","?","?","?","?","?","?","?","?","?","?","?","?","?","?","?","?","?","?","?","?","?","?","?","?","?","?","?","?","?","?","?","?","?","?","?","?","?","?","?","?","?","?","?","?","?","?","?","?","?","?","?","?","?","?","?","?","?","?","?","?","?","?","?","?","?","?","?","?","?","?","?","?","?","?","?","?","?","?","?","?","?","?","?","?","?","?","?","?","?","?","?","?","?","?","?","?","?","?","?","?","?","?","?","?","?","?","?","?","?","?","?","?","?","?","?","?","?","?","?","?","?","?","?","?","?","?","?","?","?","?","?","?","?","?","?","?","?","?","?","?","?","?","?","?","?","?","?","?","?","?","?","?","?","?","?","?","?","?","?","?","?","?","?","?","?","?","?","?","?","?","?","?","?","?","?","?","?","?","?","?","?","?","?","?","?","?","?","?","?","?","?","?","?","?","?","?","?","?","?","?","?","?","?","?","?","?","?","?","?","?","?","?","?","?","?","?","?","?","?","?","?","?","?","?","?","?","?","?","?","?","?","?","?","?","?","?","?","?","?","?","?","?","?","?","?","?","?","?","?","?","?","?","?","?","?","?","?","?","?","?","?","?","?","?","?","?","?","?","?","?","?","?","?","?","?","?","?","?","?","?","?","?","?","?","?","?","?","?","?","?","?","?","?","?","?","?","?","?","?","?","?","?","?","?","?","?","?","?","?","?","?","?","?","?","?","?","?","?","?","?","?","?","?","?","?","?","?","?","?","?","?","?","?","?","?","?","?","?","?","?","?","?","?","?","?","?","?","?","?","?","?","?","?","?","?","?","?","?","?","?","?","?","?","?","?","?","?","?","?","?","?","?","?","?","?","?","?","?","?","?","?","?","?","?","?","?","?","?","?","?","?","?","?","?","?","?","?","?","?","?","?","?","?","?","?","?","?","?","?","?","?","?","?","?","?","?","?","?","?","?","?","?","?","?","?","?","?","?","?","?","?","?","?","?","?","?","?","?","?","?","?","?","?","?","?","?","?","?","?","?","?","?","?","?","?","?","?","?","?","?","?","?","?","?","?","?","?","?","?","?","?","?","?","?","?","?","?","?","?","?","?","?","?","?","?","?","?","?","?","?","?","?","?","?","?","?","?","?","?","?","?","?","?","?","?","?","?","?","?","?","?","?","?","?","?","?","?","?","?","?","?","?","?","?","?","?","?","?","?","?","?","?","?","?","?","?","?","?","?","?","?","?","?","?","?","?","?","?","?","?","?","?","?","?","?","?","?","?","?","?","?","?","?","?","?","?","?","?","?","?","?","?","?","?","?","?","?","?","?","?","?","?","?","?","?","?","?","?","?","?","?","?","?","?","?","?","?","?","?","?","?","?","?","?","?","?","?","?","?","?","?","?","?","?","?","?","?","?","?","?","?","?","?","?","?","?","?","?","?","?","?","?","?","?","?","?","?","?","?","?","?","?","?","?","?","?","?","?","?","?","?","?","?","?","?","?","?","?","?","?","?","?","?","?","?","?","?","?","?","?","?","?","?","?","?","?","?","?","?","?","?","?","?","?","?","?","?","?","?","?","?","?","?","?","?","?","?","?","?","?","?","?","?","?","?","?","?","?","?","?","?","?","?","?","?","?","?","?","?","?","?","?","?","?","?","?","?","?","?","?","?","?","?","?","?","?","?","?","?","?","?","?","?","?","?","?","?","?","?","?","?","?","K","?","?","?","?","?","?","?","?","?","?","?","?","?","?","?","?","?","?","?","?","?","?","?","?","?","?","?","?","?","?","?","?","?","?","?","?","?","?","?","?","?","?","?","?","?","?","?","?","?","?","?","?","?","?","?","?","?","?","?","?","?","?","?","?","?","?","?","?","?","?","?","?","?","?","?","?","?","?","?","?","?","?","?","?","?","?","?","?","?","?","?","?","?","?","?","?","?","?","?","?","?","?","?","?","?","?","?","?","?","?","?","?","?","?","?","?","?","?","?","?","?","?","?","?","?","?","?","?","?","?","?","?","?","?","?","?","?","?","?","?","?","?","?","?","?","?","?","?","?","?","?","?","?","?","?","?","?","?","?","?","?","?","?","?","?","?","?","?","?","?","?","?","?","?","?","?","?","?","?","?","?","?","?","?","?","?","?","?","?","?","?","?","?","?","?","?","?","?","?","?","?","?","?","?","?","?","?","?","?","?","?","?","?","?","?","?","?","?","?","?","?","?","?","?","?","?","?","?","?","?","?","?","?","?","?","?","?","?","?","?","?","?","?","?","?","?","?","?","?","?","?","?","?","?","?","?","?","?","?","?","?","?","?","?","?","?","?","?","?","?","?","?","?","?","?","?","?","?","?","?","?","?","?","?","?","?","?","?","?","?","?","?","?","?","?","?","?","?","?","?","?","?","?","?","?","?","?","?","?","?","?","?","?","?","?","?","?","?","?","?","?","?","?","?","?","?","?","?","?","?","?","?","?","?","?","?","?","?","?","?","?","?","?","?","?","?","?","?","?","?","?","?","?","?","?","?","?","?","?","?","?","?","?","?","?","?","?","?","?","?","?","?","?","?","?","?","?","?","?","?","?","?","?","?","?","?","?","?","?","?","?","?","?","?","?","?","?","?","?","?","?","?","?","?","?","?","?","?","?","?","?","?","?","?","?","?","?","?","?","?","?","?","?","?","?","?","?","?","?","?","?","?","?","?","?","?","?","?","?","?","?","?","?","?","?","?","?","?","?","?","?","?","?","?","?","?","?","?","?","?","?","?","?","?","?","?","?","?","?","?","?","?","?","?","?","?","?","?","?","?","?","?","?","?","?","?","?","?","?","?","?","?","?","?","?","?","?","?","?","?","?","?","?","?","?","?","?","?","?","?","?","?","?","?","?","?","?","?","?","?","?","?","?","?","?","?","?","?","?","?","?","?","?","?","?","?","?","?","?","?","?","?","?","?","?","?","?","?","?","?","?","?","?","?","?","?","?","?","?","?","?","?","?","?","?","?","?","?","?","?","?","?","?","?","?","?","?","?","?","?","?","?","?","?","?","?","?","?","?","?","?","?","?","?","?","?","?","?","?","?","?","?","?","?","?","?","?","?","?","?","?","?","?","?","?","?","D","?","?","?","?","?","?","?","?","?","?","?","?","?","?","?","?","?","?","?","?","?","?","?","?","?","D","?","?","?","?","?","?","?","?","?","?","?","?","?","?","?","?","?","?","?","?","?","?","?","?","?","D","?","?","?","?","?","?","?","?","?","?","?","?","?","?","?","?","?","?","?","?","?","?","?","?","?","D","?","?","?","?","?","?","?","?","?","?","?","?","?","?","?","?","?","?","?","?","?","?","?","?","?","?","?","?","?","?","?","?","?","?","?","?","?","?","?","?","?","?","?","?","?","?","?","?","?","?","?","?","E","?","?","?","?","?","?","?","?","?","?","?","?","?","?","?","?","?","?","?","?","?","?","?","?","?","E","?","?","?","?","?","?","?","?","?","?","?","?","?","?","?","?","?","?","?","?","?","?","?","?","?","?","?","?","?","?","?","?","?","?","?","?","?","?","?","?","?","?","?","?","?","?","?","?","?","?","?","?","F","?","?","?","?","?","?","?","?","?","?","?","?","?","?","?","?","?","?","?","?","?","?","?","?","?","?","?","?","?","?","?","?","?","?","?","?","?","?","?","?","?","?","?","?","?","?","?","?","?","?","?","?","?","?","?","?","?","?","?","?","?","?","?","?","?","?","?","?","?","?","?","?","?","?","?","?","?","?","?","?","?","?","?","?","?","?","?","?","?","?","?","?","?","?","?","?","?","?","?","?","?","?","?","?","?","?","?","?","?","?","?","?","?","?","?","?","?","?","?","?","?","?","?","?","?","?","?","?","?","?","?","?","?","?","?","?","?","?","?","?","?","?","?","?","?","?","?","?","?","?","?","?","?","?","?","?","?","?","?","?","?","?","?","?","?","?","?","?","?","?","?","?","?","?","?","?","?","?","?","?","?","?","?","?","?","?","?","?","?","?","?","?","?","?","?","?","?","?","?","?","?","?","?","?","?","?","?","?","?","?","?","?","?","?","?","?","?","?","?","?","?","?","?","?","?","?","?","?","?","?","?","?","?","?","?","?","?","?","?","?","?","?","?","?","?","?","?","?","?","?","?","?","?","?","?","?","?","?","?","?","?","?","?","?","?","?","?","?","?","?","?","?","?","?","?","?","?","?","?","?","?","?","?","?","?","?","?","?","?","?","?","?","?","?","?","?","?","?","?","?","?","?","?","?","?","?","?","?","?","?","?","?","?","?","?","?","?","?","?","?","?","?","?","?","?","?","?","?","?","?","?","?","?","?","?","?","?","?","?","?","?","?","?","?","?","?","?","?","?","?","?","?","?","?","?","?","?","?","?","?","?","?","?","?","?","?","?","?","?","?","?","?","?","?","?","?","?","?","?","?","?","?","?","?","?","?","?","?","?","?","?","?","?","?","?","?","?","?","?","?","?","?","?","?","?","?","?","?","?","?","?","?","?","?","?","?","?","?","?","?","?","?","?","?","?","?","?","?","?","?","?","?","?","?","?","?","?","?","?","?","?","?","?","?","?","?","?","?","?","?","?","?","?","?","?","?","?","?","?","?","?","?","?","?","?","?","?","?","?","?","?","?","?","?","?","?","?","?","?","?","?","?","?","?","?","?","?","?","?","?","?","?","?","?","?","?","?","?","?","?","?","?","?","?","?","?","?","?","?","?","?","?","?","?","?","?","?","?","?","?","?","?","?","?","?","?","?","?","?","?","?","?","?","?","?","?","?","?","?","?","?","?","?","?","?","?","?","?","?","?","?","?","?","?","?","?","?","?","?","?","?","?","?","?","?","?","?","?","?","?","?","?","?","?","?","?","?","?","?","?","?","?","?","?","?","?","?","?","?","?","?","?","?","?","?","?","?","?","?","?","?","?","?","?","?","?","?","?","?","?","?","?","?","?","?","?","?","?","?","?","?","?","?","?","?","?","?","?","?","?","?","?","?","?","?","?","?","?","?","?","?","?","?","?","?","?","?","?","?","?","?","?","?","?","?","?","?","?","?","?","?","?","?","?","?","?","?","?","?","?","?","?","?","?","?","?","?","?","?","?","?","?","?","?","?","?","?","?","?","?","?","?","?","?","?","?","?","?","?","?","?","?","?","?","?","?","?","?","?","?","?","?","?","?","?","?","?","?","?","?","?","?","?","?","?","?","?","?","?","?","?","?","?","?","?","?","?","?","?","?","?","?","?","?","?","?","?","?","?","?","?","?","?","?","?","?","?","?","?","?","?","?","?","?","?","?","?","?","?","?","?","?","?","?","?","?","?","?","?","?","?","?","?","?","?","?","?","?","?","?","?","?","?","?","?","?","?","?","?","?","?","?","?","?","?","?","?","?","?","?","?","?","?","?","?","?","?","?","?","?","?","?","?","?","?","?","?","?","?","?","?","?","?","?","?","?","?","?","?","?","?","?","?","?","?","?","?","?","?","?","?","?","?","?","?","?","?","?","?","?","?","?","?","?","?","?","?","?","?","?","?","?","?","?","?","?","?","?","?","?","?","?","?","?","?","?","?","?","?","?","?","?","?","?","?","?","?","?","?","?","?","?","?","?","?","?","?","?","?","?","?","?","?","?","?","?","?","?","?","?","?","?","?","?","?","?","?","?","?","?","?","?","?","?","?","?","?","?","?","?","?","?","?","?","?","?","?","?","?","?","?","?","?","?","?","?","?","?","?","?","?","?","?","?","?","?","?","?","?","?","?","?","?","?","?","?","?","?","?","?","?","?","?","?","?","?","?","?","?","?","?","?","?","?","?","?","?","?","?","?","?","?","?","?","?","?","?","?","?","?","?","?","?","?","?","?","?","?","?","?","?","?","?","?","?","?","?","?","?","?","?","?","?","?","?","?","?","?","?","?","?","?","?","?","?","?","?","?","?","?","?","?","?","?","?","?","?","?","?","?","?","?","?","?","?","?","?","?","?","?","?","?","?","?","?","?","?","?","?","?","?","?","?","?","?","?","?","?","?","?","?","?","?","?","?","?","?","?","?","?","?","?","?","?","?","?","?","?","?","?","?","?","?","?","?","?","?","?","?","?","?","?","?","?","?","?","?","?","?","?","?","?","?","?","?","?","?","?","?","?","?","?","?","?","?","?","?","?","?","?","?","?","?","?","?","?","?","?","?","?","?","?","?","?","?","?","?","?","?","?","?","?","?","?","?","?","?","?","?","?","?","?","?","?","?","?","?","?","?","?","?","?","?","?","?","?","?","?","?","?","?","?","?","?","?","?","?","?","?","?","?","?","?","?","?","?","?","?","?","?","?","?","?","?","?","?","?","?","?","?","?","?","?","?","?","?","?","?","?","?","?","?","?","?","?","?","?","?","?","?","?","?","?","?","?","?","?","?","?","?","?","?","?","?","?","?","?","?","?","?","?","?","?","?","?","?","?","?","?","?","?","?","?","?","?","?","?","?","?","?","?","?","?","?","?","?","?","?","?","?","?","?","?","?","?","?","?","?","?","?","?","?","?","?","?","?","?","?","?","?","?","?","?","?","?","?","?","?","?","?","?","?","?","?","?","?","?","?","?","?","?","?","?","?","?","?","?","?","?","?","?","?","?","?","?","?","?","?","?","?","?","?","?","?","?","?","?","?","?","?","?","?","?","?","?","?","?","?","?","?","?","?","?","?","?","?","?","?","?","?","?","?","?","?","?","?","?","?","?","?","?","?","?","?","?","?","?","?","?","?","?","?","?","?","?","?","?","?","?","?","?","?","?","?","?","?","?","?","?","?","?","?","?","?","?","?","?","?","?","?","?","?","?","?","?","?","?","?","?","?","?","?","?","?","?","?","?","?","?","?","?","?","?","?","?","?","?","?","?","?","?","?","?","?","?","?","?","?","?","?","?","?","?","?","?","?","?","?","?","?","?","?","?","?","?","?","?","?","?","?","?","?","?","?","?","?","?","?","?","?","?","?","?","?","?","?","?","?","?","?","?","?","?","?","?","?","?","?","?","?","?","?","?","?","?","?","?","?","?","?","?","?","?","?","?","?","?","?","?","?","?","?","?","?","?","?","?","?","?","?","?","?","?","?","?","?","?","?","?","?","?","?","?","?","?","?","?","?","?","?","?","?","?","?","?","?","?","?","?","?","?","?","?","?","?","?","?","?","?","?","?","?","?","?","?","?","?","?","?","?","?","?","?","?","?","?","?","?","?","?","?","?","?","?","?","?","?","?","?","?","?","?","?","?","?","?","?","?","?","?","?","?","?","?","?","?","?","?","?","?","?","?","?","?","?","?","?","?","?","?","?","?","?","?","?","?","?","?","?","?","?","?","?","?","?","?","?","?","?","?","?","?","?","?","?","?","?","?","?","?","?","?","?","?","?","?","?","?","?","?","?","?","?","?","?","?","?","?","?","?","?","?","?","?","?","?","?","?","?","?","?","?","?","?","?","?","?","?","?","?","?","?","?","?","?","?","?","?","?","?","?","?","?","?","?","?","?","?","?","?","?","?","?","?","?","?","?","?","?","?","?","?","?","?","?","?","?","?","?","?","?","?","?","?","?","?","?","?","?","?","?","?","?","?","?","?","?","?","?","?","?","?","?","?","?","?","?","?","?","?","?","?","?","?","?","?","?","?","?","?","?","?","?","?","?","?","?","?","?","?","?","?","?","?","?","?","?","?","?","?","?","?","?","?","?","?","?","?","?","?","?","?","?","?","?","?","?","?","?","?","?","?","?","?","?","?","?","?","?","?","?","?","?","?","?","?","?","?","?","?","?","?","?","?","?","?","?","?","?","?","?","?","?","?","?","?","?","?","?","?","?","?","?","?","?","?","?","?","?","?","?","?","?","?","?","?","?","?","?","?","?","?","?","?","?","?","?","?","?","?","?","?","?","?","?","?","?","?","?","?","?","?","?","?","?","?","?","?","?","?","?","?","?","?","?","?","?","?","?","?","?","?","?","?","?","?","?","?","?","?","?","?","?","?","?","?","?","?","?","?","?","?","?","?","?","?","?","?","?","?","?","?","?","?","?","?","?","?","?","?","?","?","?","?","?","?","?","?","?","?","?","?","?","?","?","?","?","?","?","?","?","?","?","?","?","?","?","?","?","?","?","?","?","?","?","?","?","?","?","?","?","?","?","?","?","?","?","?","?","?","?","?","?","?","?","?","?","?","?","?","?","?","?","?","?","?","?","?","?","?","?","?","?","?","?","?","?","?","?","?","?","?","?","?","?","?","?","?","?","?","?","?","?","?","?","?","?","?","?","?","?","?","?","?","?","?","?","?","?","?","?","?","?","?","?","?","?","?","?","?","?","?","?","?","?","?","?","?","?","?","?","?","?","?","?","?","?","?","?","?","?","?","?","?","?","?","?","?","?","?","?","?","?","?","?","?","?","?","?","?","?","?","?","?","?","?","?","?","?","?","?","?","?","?","?","?","?","?","?","?","?","?","?","?","?","?","?","?","?","?","?","?","?","?","?","?","?","?","?","?","?","?","?","?","?","?","?","?","?","?","?","?","?","?","?","?","?","?","?","?","?","?","?","?","?","?","?","?","?","?","?","?","?","?","?","?","?","?","?","?","?","?","?","?","?","?","?","?","?","?","?","?","?","?","?","?","?","?","?","?","?","?","?","?","?","?","?","?","?","?","?","?","?","?","?","?","?","?","?","?","?","?","?","?","?","?","?","?","?","?","?","?","?","?","?","?","?","?","?","?","?","?","?","?","?","?","?","?","?","?","?","?","?","?","?","?","?","?","?","?","?","?","?","?","?","?","?","?","?","?","?","?","?","?","?","?","?","?","?","?","?","?","?","?","?","?","?","?","?","?","?","?","?","?","?","?","?","?","?","?","?","?","?","?","?","?","?","?","?","?","?","?","?","?","?","?","?","?","?","?","?","?","?","?","?","?","?","?","?","?","?","?","?","?","?","?","?","?","?","?","?","?","?","?","?","?","?","?","?","?","?","?","?","?","?","?","?","?","?","?","?","?","?","?","?","?","?","?","?","?","?","?","?","?","?","?","?","?","?","?","?","?","?","?","?","?","?","?","?","?","?","?","?","?","?","?","?","?","?","?","?","?","?","?","?","?","?","?","?","?","?","?","?","?","?","?","?","?","?","?","?","?","?","?","?","?","?","?","?","?","?","?","?","?","?","?","?","?","?","?","?","?","?","?","?","?","?","?","?","?","?","?","?","?","?","?","?","?","?","?","?","?","?","?","?","?","?","?","?","?","?","?","?","?","?","?","?","?","?","?","?","?","?","?","?","?","?","?","?","?","?","?","?","?","?","?","?","?","?","?","?","?","?","?","?","?","?","?","?","?","?","?","?","?","?","?","?","?","?","?","?","?","?","?","?","?","?","?","?","?","?","?","?","?","?","?","?","?","?","?","?","?","?","?","?","?","?","?","?","?","?","?","?","?","?","?","?","?","?","?","?","?","?","?","?","?","?","?","?","?","?","?","?","?","?","?","?","?","?","?","?","?","?","?","?","?","?","?","?","?","?","?","?","?","?","?","?","?","?","?","?","?","?","?","?","?","?","?","?","?","?","?","?","?","?","?","?","?","?","?","?","?","?","?","?","?","?","?","?","?","?","?","?","?","?","?","?","?","?","?","?","?","?","?","?","?","?","?","?","?","?","?","?","?","?","?","?","?","?","?","?","?","?","?","?","?","?","?","?","?","?","?","?","?","?","?","?","?","?","?","?","?","?","?","?","?","?","?","?","?","?","?","?","?","?","?","?","?","?","?","?","?","?","?","?","?","?","?","?","?","?","?","?","?","?","?","?","?","?","?","?","?","?","?","?","?","?","?","?","?","?","?","?","?","?","?","?","?","?","?","?","?","?","?","?","?","?","?","?","?","?","?","?","?","?","?","?","?","?","?","?","?","?","?","?","?","?","?","?","?","?","?","?","?","?","?","?","?","?","?","?","?","?","?","?","?","?","?","?","?","?","?","?","?","?","?","?","?","?","?","?","?","?","?","?","?","?","?","?","?","?","?","?","?","?","?","?","?","?","?","?","?","?","?","?","?","?","?","?","?","?","?","?","?","?","?","?","?","?","?","?","?","?","?","?","?","?","?","?","?","?","?","?","?","?","?","?","?","?","?","?","?","?","?","?","?","?","?","?","?","?","?","?","?","?","?","?","?","?","?","?","?","?","?","?","?","?","?","?","?","?","?","?","?","?","?","?","?","?","?","?","?","?","?","?","?","?","?","?","?","?","?","?","?","?","?","?","?","?","?","?","?","?","?","?","?","?","?","?","?","?","?","?","?","?","?","?","?","?","?","?","?","?","?","?","?","?","?","?","?","?","?","?","?","?","?","?","?","?","?","?","?","?","?","?","?","?","?","?","?","?","?","?","?","?","?","?","?","?","?","?","?","?","?","?","?","?","?","?","?","?","?","?","?","?","?","?","?","?","?","?","?","?","?","?","?","?","?","?","?","?","?","?","?","?","?","?","?","?","?","?","?","?","?","?","?","?","?","?","?","?","?","?","?","?","?","?","?","?","?","?","?","?","?","?","?","?","?","?","?","?","?","?","?","?","?","?","?","?","?","?","?","?","?","?","?","?","?","?","?","?","?","?","?","?","?","?","?","?","?","?","?","?","?","?","?","?","?","?","?","?","?","?","?","?","?","?","?","?","?","?","?","?","?","?","?","?","?","?","?","?","?","?","?","?","?","?","?","?","?","?","?","?","?","?","?","?","?","?","?","?","?","?","?","?","?","?","?","?","?","?","?","?","?","?","?","?","?","?","?","?","?","?","?","?","?","?","?","?","?","?","?","?","?","?","?","?","?","?","?","?","?","?","?","?","?","?","?","?","?","?","?","?","?","?","?","?","?","?","?","?","?","?","?","?","?","?","?","?","?","?","?","?","?","?","?","?","?","?","?","?","?","?","?","?","?","?","?","?","?","?","?","?","?","?","?","?","?","?","?","?","?","?","?","?","?","?","?","?","?","?","?","?","?","?","?","?","?","?","?","?","?","?","?","?","?","?","?","?","?","?","?","?","?","?","?","?","?","?","?","?","?","?","?","?","?","?","?","?","?","?","?","?","?","?","?","?","?","?","?","?","?","?","?","?","?","?","?","?","?","?","?","?","?","?","?","?","?","?","?","?","?","?","?","?","?","?","?","?","?","?","?","?","?","?","?","?","?","?","?","?","?","?","?","?","?","?","?","?","?","?","?","?","?","?","?","?","?","?","?","?","?","?","?","?","?","?","?","?","?","?","?","?","?","?","?","?","?","?","?","?","?","?","?","?","?","?","?","?","?","?","?","?","?","?","?","?","?","?","?","?","?","?","?","?","?","?","?","?","?","?","?","?","?","?","?","?","?","?","?","?","?","?","?","?","?","?","?","?","?","?","?","?","?","?","?","?","?","?","?","?","?","?","?","?","?","?","?","?","?","?","?","?","?","?","?","?","?","?","?","?","?","?","?","?","?","?","?","?","?","?","?","?","?","?","?","?","?","?","?","?","?","?","?","?","?","?","?","?","?","?","?","?","?","?","?","?","?","?","?","?","?","?","?","?","?","?","?","?","?","?","?","?","?","?","?","?","?","?","?","?","?","?","?","?","?","?","?","?","?","?","?","?","?","?","?","?","?","?","?","?","?","?","?","?","?","?","?","?","?","?","?","?","?","?","?","?","?","?","?","?","?","?","?","?","?","?","?","?","?","?","?","?","?","?","?","?","?","?","?","?","?","?","?","?","?","?","?","?","?","?","?","?","?","?","?","?","?","?","?","?","?","?","?","?","?","?","?","?","?","?","?","?","?","?","?","?","?","?","?","?","?","?","?","?","?","?","?","?","?","?","?","?","?","?","?","?","?","?","?","?","?","?","?","?","?","?","?","?","?","?","?","?","?","?","?","?","?","?","?","?","?","?","?","?","?","?","?","?","?","?","?","?","?","?","?","?","?","?","?","?","?","?","?","?","?","?","?","?","?","?","?","?","?","?","?","?","?","?","?","?","?","?","?","?","?","?","?","?","?","?","?","?","?","?","?","?","?","?","?","?","?","?","?","?","?","?","?","?","?","?","?","?","?","?","?","?","?","?","?","?","?","?","?","?","?","?","?","?","?","?","?","?","?","?","?","?","?","?","?","?","?","?","?","?","?","?","?","?","?","?","?","?","?","?","?","?","?","?","?","?","?","?","?","?","?","?","?","?","?","?","?","?","?","?","?","?","?","?","?","?","?","?","?","?","?","?","?","?","?","?","?","?","?","?","?","?","?","?","?","?","?","?","?","?","?","?","?","?","?","?","?","?","?","?","?","?","?","?","?","?","?","?","?","?","?","?","?","?","?","?","?","?","?","?","?","?","?","?","?","?","?","?","?","?","?","?","?","?","?","?","?","?","?","?","?","?","?","?","?","?","?","?","?","?","?","?","?","?","?","?","?","?","?","?","?","?","?","?","?","?","?","?","?","?","?","?","?","?","?","?","?","?","?","?","?","?","?","?","?","?","?","?","?","?","?","?","?","?","?","?","?","?","?","?","?","?","?","?","?","?","?","?","?","?","?","?","?","?","?","?","?","?","?","?","?","?","?","?","?","?","?","?","?","?","?","?","?","?","?","?","?","?","?","?","?","?","?","?","?","?","?","?","?","?","?","?","?","?","?","?","?","?","?","?","?","?","?","?","?","?","?","?","?","?","?","?","?","?","?","?","?","?","?","?","?","?","?","?","?","?","?","?","?","?","?","?","?","?","?","?","?","?","?","?","?","?","?","?","?","?","?","?","?","?","?","?","?","?","?","?","?","?","?","?","?","?","?","?","?","?","?","?","?","?","?","?","?","?","?","?","?","?","?","?","?","?","?","?","?","?","?","?","?","?","?","?","?","?","?","?","?","?","?","?","?","?","?","?","?","?","?","?","?","?","?","?","?","?","?","?","?","?","?","?","?","?","?","?","?","?","?","?","?","?","?","?","?","?","?","?","?","?","?","?","?","?","?","?","?","?","?","?","?","?","?","?","?","?","?","?","?","?","?","?","?","?","?","?","?","?","?","?","?","?","?","?","?","?","?","?","?","?","?","?","?","?","?","?","?","?","?","?","?","?","?","?","?","?","?","?","?","?","?","?","?","?","?","?","?","?","?","?","?","?","?","?","?","?","?","?","?","?","?","?","?","?","?","?","?","?","?","?","?","?","?","?","?","?","?","?","?","?","?","?","?","?","?","?","?","?","?","?","?","?","?","?","?","?","?","?","?","?","?","?","?","?","?","?","?","?","?","?","?","?","?","?","?","?","?","?","?","?","?","?","?","?","?","?","?","?","?","?","?","?","?","?","?","?","?","?","?","?","?","?","?","?","?","?","?","?","?","?","?","?","?","?","?","?","?","?","?","?","?","?","?","?","?","?","?","?","?","?","?","?","?","?","?","?","?","?","?","?","?","?","?","?","?","?","?","?","?","?","?","?","?","?","?","?","?","?","?","?","?","?","?","?","?","?","?","?","?","?","?","?","?","?","?","?","?","?","?","?","?","?","?","?","?","?","?","?","?","?","?","?","?","?","?","?","?","?","?","?","?","?","?","?","?","?","?","?","?","?","?","?","?","?","?","?","?","?","?","?","?","?","?","?","?","?","?","?","?","?","?","?","?","?","?","?","?","?","?","?","?","?","?","?","?","?","?","?","?","?","?","?","?","?","?","?","?","?","?","?","?","?","?","?","?","?","?","?","?","?","?","?","?","?","?","?","?","?","?","?","?","?","?","?","?","?","?","?","?","?","?","?","?","?","?","?","?","?","?","?","?","?","?","?","?","?","?","?","?","?","?","?","?","?","?","?","?","?","?","?","?","?","?","?","?","?","?","?","?","?","?","?","?","?","?","?","?","?","?","?","?","?","?","?","?","?","?","?","?","?","?","?","?","?","?","?","?","?","?","?","?","?","?","?","?","?","?","?","?","?","?","?","?","?","?","?","?","?","?","?","?","?","?","?","?","?","?","?","?","?","?","?","?","?","?","?","?","?","?","?","?","?","?","?","?","?","?","?","?","?","?","?","?","?","?","?","?","?","?","?","?","?","?","?","?","?","?","?","?","?","?","?","?","?","?","?","?","?","?","?","?","?","?","?","?","?","?","?","?","?","?","?","?","?","?","?","?","?","?","?","?","?","?","?","?","?","?","?","?","?","?","?","?","?","?","?","?","?","?","?","?","?","?","?","?","?","?","?","?","?","?","?","?","?","?","?","?","?","?","?","?","?","?","?","?","?","?","?","?","?","?","?","?","?","?","?","?","?","?","?","?","?","?","?","?","?","?","?","?","?","?","?","?","?","?","?","?","?","?","?","?","?","?","?","?","?","?","?","?","?","?","?","?","?","?","?","?","?","?","?","?","?","?","?","?","?","?","?","?","?","?","?","?","?","?","?","?","?","?","?","?","?","?","?","?","?","?","?","?","?","?","?","?","?","?","?","?","?","?","?","?","?","?","?","?","?","?","?","?","?","?","?","?","?","?","?","?","?","?","?","?","?","?","?","?","?","?","?","?","?","?","?","?","?","?","?","?","?","?","?","?","?","?","?","?","?","?","?","?","?","?","?","?","?","?","?","?","?","?","?","?","?","?","?","?","?","?","?","?","?","?","?","?","?","?","?","?","?","?","?","?","?","?","?","?","?","?","?","?","?","?","?","?","?","?","?","?","?","?","?","?","?","?","?","?","?","?","?","?","?","?","?","?","?","?","?","?","?","?","?","?","?","?","?","?","?","?","?","?","?","?","?","?","?","?","?","?","?","?","?","?","?","?","?","?","?","?","?","?","?","?","?","?","?","?","?","?","?","?","?","?","?","?","?","?","?","?","?","?","?","?","?","?","?","?","?","?","?","?","?","?","?","?","?","?","?","?","?","?","?","?","?","?","?","?","?","?","?","?","?","?","?","?","?","?","?","?","?","?","?","?","?","?","?","?","?","?","?","?","?","?","?","?","?","?","?","?","?","?","?","?","?","?","?","?","?","?","?","?","?","?","?","?","?","?","?","?","?","?","?","?","?","?","?","?","?","?","?","?","?","?","?","?","?","?","?","?","?","?","?","?","?","?","?","?","?","?","?","?","?","?","?","?","?","?","?","?","?","?","?","?","?","?","?","?","?","?","?","?","?","?","?","?","?","?","?","?","?","?","?","?","?","?","?","?","?","?","?","?","?","?","?","?","?","?","?","?","?","?","?","?","?","?","?","?","?","?","?","?","?","?","?","?","?","?","?","?","?","?","?","?","?","?","?","?","?","?","?","?","?","?","?","?","?","?","?","?","?","?","?","?","?","?","?","?","?","?","?","?","?","?","?","?","?","?","?","?","?","?","?","?","?","?","?","?","?","?","?","?","?","?","?","?","?","?","?","?","?","?","?","?","?","?","?","?","?","?","?","?","?","?","?","?","?","?","?","?","?","?","?","?","?","?","?","?","?","?","?","?","?","?","?","?","?","?","?","?","?","?","?","?","?","?","?","?","?","?","?","?","?","?","?","?","?","?","?","?","?","?","?","?","?","?","?","?","?","?","?","?","?","?","?","?","?","?","?","?","?","?","?","?","?","?","?","?","?","?","?","?","?","?","?","?","?","?","?","?","?","?","?","?","?","?","?","?","?","?","?","?","?","?","?","?","?","?","?","?","?","?","?","?","?","?","?","?","?","?","?","?","?","?","?","?","?","?","?","?","?","?","?","?","?","?","?","?","?","?","?","?","?","?","?","?","?","?","?","?","?","?","?","?","?","?","?","?","?","?","?","?","?","?","?","?","?","?","?","?","?","?","?","?","?","?","?","?","?","?","?","?","?","?","?","?","?","?","?","?","?","?","?","?","?","?","?","?","?","?","?","?","?","?","?","?","?","?","?","?","?","?","?","?","?","?","?","?","?","?","?","?","?","?","?","?","?","?","?","?","?","?","?","?","?","?","?","?","?","?","?","?","?","?","?","?","?","?","?","?","?","?","?","?","?","?","?","?","?","?","?","?","?","?","?","?","?","?","?","?","?","?","?","?","?","?","?","?","?","?","?","?","?","?","?","?","?","?","?","?","?","?","?","?","?","?","?","?","?","?","?","?","?","?","?","?","?","?","?","?","?","?","?","?","?","?","?","?","?","?","?","?","?","?","?","?","?","?","?","?","?","?","?","?","?","?","?","?","?","?","?","?","?","?","?","?","?","?","?","?","?","?","?","?","?","?","?","?","?","?","?","?","?","?","?","?","?","?","?","?","?","?","?","?","?","?","?","?","?","?","?","?","?","?","?","?","?","?","?","?","?","?","?","?","?","?","?","?","?","?","?","?","?","?","?","?","?","?","?","?","?","?","?","?","?","?","?","?","?","?","?","?","?","?","?","?","?","?","?","?","?","?","?","?","?","?","?","?","?","?","?","?","?","?","?","?","?","?","?","?","?","?","?","?","?","?","?","?","?","?","?","?","?","?","?","?","?","?","?","?","?","?","?","?","?","?","?","?","?","?","?","?","?","?","?","?","?","?","?","?","?","?","?","?","?","?","?","?","?","?","?","?","?","?","?","?","?","?","?","?","?","?","?","?","?","?","?","?","?","?","?","?","?","?","?","?","?","?","?","?","?","?","?","?","?","?","?","?","?","?","?","?","?","?","?","?","?","?","?","?","?","?","?","?","?","?","?","?","?","?","?","?","?","?","?","?","?","?","?","?","?","?","?","?","?","?","?","?","?","?","?","?","?","?","?","?","?","?","?","?","?","?","?","?","?","?","?","?","?","?","?","?","?","?","?","?","?","?","?","?","?","?","?","?","?","?","?","?","?","?","?","?","?","?","?","?","?","?","?","?","?","?","?","?","?","?","?","?","?","?","?","?","?","?","?","?","?","?","?","?","?","?","?","?","?","?","?","?","?","?","?","?","?","?","?","?","?","?","?","?","?","?","?","?","?","?","?","?","?","?","?","?","?","?","?","?","?","?","?","?","?","?","?","?","?","?","?","?","?","?","?","?","?","?","?","?","?","?","?","?","?","?","?","?","?","?","?","?","?","?","?","?","?","?","?","?","?","?","?","?","?","?","?","?","?","?","?","?","?","?","?","?","?","?","?","?","?","?","?","?","?","?","?","?","?","?","?","?","?","?","?","?","?","?","?","?","?","?","?","?","?","?","?","?","?","?","?","?","?","?","?","?","?","?","?","?","?","?","?","?","?","?","?","?","?","?","?","?","?","?","?","?","?","?","?","?","?","?","?","?","?","?","?","?","?","?","?","?","?","?","?","?","?","?","?","?","?","?","?","?","?","?","?","?","?","?","?","?","?","?","?","?","?","?","?","?","?","?","?","?","?","?","?","?","?","?","?","?","?","?","?","?","?","?","?","?","?","?","?","?","?","?","?","?","?","?","?","?","?","?","?","?","?","?","?","?","?","?","?","?","?","?","?","?","?","?","?","?","?","?","?","?","?","?","?","?","?","?","?","?","?","?","?","?","?","?","?","?","?","?","?","?","?","?","?","?","?","?","?","?","?","?","?","?","?","?","?","?","?","?","?","?","?","?","?","?","?","?","?","?","?","?","?","?","?","?","?","?","?","?","?","?","?","?","?","?","?","?","?","?","?","?","?","?","?","?","?","?","?","?","?","?","?","?","?","?","?","?","?","?","?","?","?","?","?","?","?","?","?","?","?","?","?","?","?","?","?","?","?","?","?","?","?","?","?","?","?","?","?","?","?","?","?","?","?","?","?","?","?","?","?","?","?","?","?","?","?","?","?","?","?","?","?","?","?","?","?","?","?","?","?","?","?","?","?","?","?","?","?","?","?","?","?","?","?","?","?","?","?","?","?","?","?","?","?","?","?","?","?","?","?","?","?","?","?","?","?","?","?","?","?","?","?","?","?","?","?","?","?","?","?","?","?","?","?","?","?","?","?","?","?","?","?","?","?","?","?","?","?","?","?","?","?","?","?","?","?","?","?","?","?","?","?","?","?","?","?","?","?","?","?","?","?","?","?","?","?","?","?","?","?","?","?","?","?","?","?","?","?","?","?","?","?","?","?","?","?","?","?","?","?","?","?","?","?","?","?","?","?","?","?","?","?","?","?","?","?","?","?","?","?","?","?","?","?","?","?","?","?","?","?","?","?","?","?","?","?","?","?","?","?","?","?","?","?","?","?","?","?","?","?","?","?","?","?","?","?","?","?","?","?","?","?","?","?","?","?","?","?","?","?","?","?","?","?","?","?","?","?","?","?","?","?","?","?","?","?","?","?","?","?","?","?","?","?","?","?","?","?","?","?","?","?","?","?","?","?","?","?","?","?","?","?","?","?","?","?","?","?","?","?","?","?","?","?","?","?","?","?","?","?","?","?","?","?","?","?","?","?","?","?","?","?","?","?","?","?","?","?","?","?","?","?","?","?","?","?","?","?","?","?","?","?","?","?","?","?","?","?","?","?","?","?","?","?","?","?","?","?","?","?","?","?","?","?","?","?","?","?","?","?","?","?","?","?","?","?","?","?","?","?","?","?","?","?","?","?","?","?","?","?","?","?","?","?","?","?","?","?","?","?","?","?","?","?","?","?","?","?","?","?","?","?","?","?","?","?","?","?","?","?","?","?","?","?","?","?","?","?","?","?","?","?","?","?","?","?","?","?","?","?","?","?","?","?","?","?","?","?","?","?","?","?","?","?","?","?","?","?","?","?","?","?","?","?","?","?","?","?","?","?","?","?","?","?","?","?","?","?","?","?","?","?","?","?","?","?","?","?","?","?","?","?","?","?","?","?","?","?","?","?","?","?","?","?","?","?","?","?","?","?","?","?","?","?","?","?","?","?","?","?","?","?","?","?","?","?","?","?","?","?","?","?","?","?","?","?","?","?","?","?","?","?","?","?","?","?","?","?","?","?","?","?","?","?","?","?","?","?","?","?","?","?","?","?","?","?","?","?","?","?","?","?","?","?","?","?","?","?","?","?","?","?","?","?","?","?","?","?","?","?","?","?","?","?","?","?","?","?","?","?","?","?","?","?","?","?","?","?","?","?","?","?","?","?","?","?","?","?","?","?","?","?","?","?","?","?","?","?","?","?","?","?","?","?","?","?","?","?","?","?","?","?","?","?","?","?","?","?","?","?","?","?","?","?","?","?","?","?","?","?","?","?","?","?","?","?","?","?","?","?","?","?","?","?","?","?","?","?","?","?","?","?","?","?","?","?","?","?","?","?","?","?","?","?","?","?","?","?","?","?","?","?","?","?","?","?","?","?","?","?","?","?","?","?","?","?","?","?","?","?","?","?","?","?","?","?","?","?","?","?","?","?","?","?","?","?","?","?","?","?","?","?","?","?","?","?","?","?","?","?","?","?","?","?","?","?","?","?","?","?","?","?","?","?","?","?","?","?","?","?","?","?","?","?","?","?","?","?","?","?","?","?","?","?","?","?","?","?","?","?","?","?","?","?","?","?","?","?","?","?","?","?","?","?","?","?","?","?","?","?","?","?","?","?","?","?","?","?","?","?","?","?","?","?","?","?","?","?","?","?","?","?","?","?","?","?","?","?","?","?","?","?","?","?","?","?","?","?","?","?","?","?","?","?","?","?","?","?","?","?","?","?","?","?","?","?","?","?","?","?","?","?","?","?","?","?","?","?","?","?","?","?","?","?","?","?","?","?","?","?","?","?","?","?","?","?","?","?","?","?","?","?","?","?","?","?","?","?","?","?","?","?","?","?","?","?","?","?","?","?","?","?","?","?","?","?","?","?","?","?","?","?","?","?","?","?","?","?","?","?","?","?","?","?","?","?","?","?","?","?","?","?","?","?","?","?","?","?","?","?","?","?","?","?","?","?","?","?","?","?","?","?","?","?","?","?","?","?","?","?","?","?","?","?","?","?","?","?","?","?","?","?","?","?","?","?","?","?","?","?","?","?","?","?","?","?","?","?","?","?","?","?","?","?","?","?","?","?","?","?","?","?","?","?","?","?","?","?","?","?","?","?","?","?","?","?","?","?","?","?","?","?","?","?","?","?","?","?","?","?","?","?","?","?","?","?","?","?","?","?","?","?","?","?","?","?","?","?","?","?","?","?","?","?","?","?","?","?","?","?","?","?","?","?","?","?","?","?","?","?","?","?","?","?","?","?","?","?","?","?","?","?","?","?","?","?","?","?","?","?","?","?","?","?","?","?","?","?","?","?","?","?","?","?","?","?","?","?","?","?","?","?","?","?","?","?","?","?","?","?","?","?","?","?","?","?","?","?","?","?","?","?","?","?","?","?","?","?","?","?","?","?","?","?","?","?","?","?","?","?","?","?","?","?","?","?","?","?","?","?","?","?","?","?","?","?","?","?","?","?","?","?","?","?","?","?","?","?","?","?","?","?","?","?","?","?","?","?","?","?","?","?","?","?","?","?","?","?","?","?","?","?","?","?","?","?","?","?","?","?","?","?","?","?","?","?","?","?","?","?","?","?","?","?","?","?","?","?","?","?","?","?","?","?","?","?","?","?","?","?","?","?","?","?","?","?","?","?","?","?","?","?","?","?","?","?","?","?","?","?","?","?","?","?","?","?","?","?","?","?","?","?","?","?","?","?","?","?","?","?","?","?","?","?","?","?","?","?","?","?","?","?","?","?","?","?","?","?","?","?","?","?","?","?","?","?","?","?","?","?","?","?","?","?","?","?","?","?","?","?","?","?","?","?","?","?","?","?","?","?","?","?","?","?","?","?","?","?","?","?","?","?","?","?","?","?","?","?","?","?","?","?","?","?","?","?","?","?","?","?","?","?","?","?","?","?","?","?","?","?","?","?","?","?","?","?","?","?","?","?","?","?","?","?","?","?","?","?","?","?","?","?","?","?","?","?","?","?","?","?","?","?","?","?","?","?","?","?","?","?","?","?","?","?","?","?","?","?","?","?","?","?","?","?","?","?","?","?","?","?","?","?","?","?","?","?","?","?","?","?","?","?","?","?","?","?","?","?","?","?","?","?","?","?","?","?","?","?","?","?","?","?","?","?","?","?","?","?","?","?","?","?","?","?","?","?","?","?","?","?","?","?","?","?","?","?","?","?","?","?","?","?","?","?","?","?","?","?","?","?","?","?","?","?","?","?","?","?","?","?","?","?","?","?","?","?","?","?","?","?","?","?","?","?","?","?","?","?","?","?","?","?","?","?","?","?","?","?","?","?","?","?","?","?","?","?","?","?","?","?","?","?","?","?","?","?","?","?","?","?","?","?","?","?","?","?","?","?","?","?","?","?","?","?","?","?","?","?","?","?","?","?","?","?","?","?","?","?","?","?","?","?","?","?","?","?","?","?","?","?","?","?","?","?","?","?","?","?","?","?","?"],"t":[24.5,42.09999990463257,67.5,85.2999997138977,109.59999990463257,125.19999980926514,139.5,156.69999980926514,171.69999980926514,186.39999961853027,203.59999990463257,219.59999990463257,237.2999997138977,254.59999990463257,269.7999997138977,286.5,304.3999996185303,320,337.19999980926514,355.7999997138977,371.69999980926514,385.7999997138977,402.3999996185303,420.3999996185303,438.09999990463257,453.69999980926514,471.8999996185303,488.59999990463257,506,521.5999999046326,540.0999999046326,555.2999997138977,573.0999999046326,590,612,624,637.3999996185303,652.0999999046326,666.8999996185303,685.1999998092651,701.8999996185303,720,734.3999996185303,751.6999998092651,770.8999996185303,784.3999996185303,801.7999997138977,818.1999998092651,835.5,854.5,871.5,889.0999999046326,906.3999996185303,921.6999998092651,941.7999997138977,958,973.5,991,1009.0999999046326,1029.3999996185303,1045.7999997138977,1057.3999996185303,1071.3999996185303,1089.2999997138977,1105.0999999046326,1126.6999998092651,1142.6999998092651,1159.1999998092651,1179,1195.0999999046326,1209.0999999046326,1220.8999996185303,1238,1254.6999998092651,1271.5,1287.7999997138977,1305.0999999046326,1321.3999996185303,1340.2999997138977,1357.6999998092651,1374.5,1387.0999999046326,1401,1418.1999998092651,1434.6999998092651,1452.0999999046326,1467.5,1486.1999998092651,1505.2999997138977,1525.2999997138977,1540.5999999046326,1557.6999998092651,1574.5999999046326,1592.1999998092651,1614.3999996185303,1632.0999999046326,1644.5999999046326,1653.5999999046326,1668.5,1684.0999999046326,1701.3999996185303,1719.6999998092651,1734.6999998092651,1750.6999998092651,1770,1786.0999999046326,1802.1999998092651,1821.6999998092651,1838.0999999046326,1858.2999997138977,1872.6999998092651,1891.3999996185303,1908,1923.7999997138977,1943.0999999046326,1960.8999996185303,1977.0999999046326,1990.3999996185303,2008.3999996185303,2025.2999997138977,2041,2059.199999809265,2077.199999809265,2091.199999809265,2103.699999809265,2121.5,2139.699999809265,2154,2176.5,2199,2215.699999809265,2231.8999996185303,2249.8999996185303,2267.3999996185303,2285.699999809265,2303.199999809265,2319.7999997138977,2338,2353.699999809265,2369.8999996185303,2386.199999809265,2404.3999996185303,2420.7999997138977,2436.2999997138977,2455.3999996185303,2475.0999999046326,2491.0999999046326,2506.699999809265,2522.8999996185303,2539.699999809265,2554.3999996185303,2572.2999997138977,2587.0999999046326,2608.0999999046326,2619.5,2632.8999996185303,2649.5,2667.0999999046326,2683.2999997138977,2700,2716.0999999046326,2732.7999997138977,2748.7999997138977,2765.5,2782.5,2799.5,2816,2832.7999997138977,2850.0999999046326,2869.5999999046326,2887.8999996185303,2907.699999809265,2925.3999996185303,2943.7999997138977,2959.7999997138977,2977.699999809265,2989.5,3003.3999996185303,3020.8999996185303,3037.8999996185303,3054.5,3069.199999809265,3086.699999809265,3103.3999996185303,3121.5,3135.2999997138977,3150.8999996185303,3165.3999996185303,3182.3999996185303,3199,3218.5999999046326,3233.8999996185303,3252.0999999046326,3269.199999809265,3283.0999999046326,3299.199999809265,3315.8999996185303,3334.8999996185303,3351.5,3369.7999997138977,3385.5,3400.3999996185303,3420.199999809265,3434.2999997138977,3450.2999997138977,3467.699999809265,3486.5,3502.5999999046326,3519.0999999046326,3536.0999999046326,3551.2999997138977,3566.2999997138977,3583.199999809265,3604.699999809265,3621.7999997138977,3636.199999809265,3653.0999999046326,3669.3999996185303,3684.3999996185303,3702.0999999046326,3720.5999999046326,3736.199999809265,3749.8999996185303,3768.199999809265,3783.2999997138977,3799.3999996185303,3816.3999996185303,3840.5,3871.8999996185303,3885.5999999046326,3901,3918.3999996185303,3934,3950.199999809265,3967,3986.5999999046326,4003,40334.199999809265,40340,40367.199999809265,40384.699999809265,40402.59999990463,40417.09999990463,40433.699999809265,40457.199999809265,40481.7999997139,40506.699999809265,40518,40533.2999997139,40550.199999809265,40569.2999997139,40583.699999809265,40625.7999997139,40658.09999990463,40672.89999961853,40682.5,40698.5,40737.699999809265,40768.89999961853,40780.5,40814,40836.699999809265,40850,40855.199999809265,40886.89999961853,40899.5,40921.09999990463,40939.39999961853,40955.699999809265,40969.199999809265,40983.5,41000.09999990463,41018.39999961853,41033.5,41050.699999809265,41067.59999990463,41084.699999809265,41100.09999990463,41116.699999809265,41135,41149.89999961853,41167.59999990463,41183.199999809265,41201.7999997139,41216.7999997139,41234.7999997139,41251.09999990463,41270.39999961853,41284.59999990463,41301.5,41318.39999961853,41334.09999990463,41350.09999990463,41366.7999997139,41384.09999990463,41400.199999809265,41418.2999997139,41434.199999809265,41449.89999961853,41468.199999809265,41486.09999990463,41506.199999809265,41522.59999990463,41536.09999990463,41551.199999809265,41567.199999809265,41583.699999809265,41604.59999990463,41621.199999809265,41637.5,41651.699999809265,41664.59999990463,41682.09999990463,41698.39999961853,41715.09999990463,41732.2999997139,41750.199999809265,41765.59999990463,41782.7999997139,41800.59999990463,41819.7999997139,41839.2999997139,41863.699999809265,41888.699999809265,41913.39999961853,41930,41935.699999809265,41949.199999809265,41967.89999961853,41984.2999997139,41999.2999997139,42017.7999997139,42035.699999809265,42054.699999809265,42068.199999809265,42088.89999961853,42104.2999997139,42124.199999809265,42141.2999997139,42159,42171,42193.199999809265,42202.7999997139,42216.5,42235.2999997139,42251.59999990463,42268.199999809265,42283.89999961853,42302.5,42318.7999997139,42335.39999961853,42351.699999809265,42366.5,42384.199999809265,42401.09999990463,42418.5,42435.39999961853,42451.7999997139,42468.5,42485.09999990463,42505.7999997139,42519,42537.699999809265,42554.5,42572.09999990463,42586.39999961853,42605.2999997139,42631.199999809265,42639.5,42665.39999961853],"hit":[null],"x":[0,0,0,0,0,0,0,0,0,0,0,0,0,0,0,0,0,0,0,478,479,479,479,479,480,480,481,482,484,485,486,489,490,492,494,509,527,542,558,570,575,579,580,581,582,582,582,582,582,582,582,582,582,582,582,582,582,583,584,586,590,596,603,616,636,642,660,681,704,737,758,776,789,797,806,813,821,827,838,843,846,848,848,848,848,849,849,849,850,850,850,850,850,850,850,851,851,851,851,851,851,851,851,851,851,851,851,851,851,851,851,851,851,851,851,851,851,851,851,851,851,851,851,851,851,851,851,851,851,851,851,851,851,851,851,851,851,851,851,851,851,851,851,851,851,851,851,851,851,851,851,851,851,851,851,851,852,862,876,906,952,1000,1044,1064,1074,1078,1078,1078,1079,1079,1079,1079,1079,1079,1078,1075,1070,1062,1052,1040,1035,1035,1035,1035,1035,1035,1035,1035,1035,1035,1035,1035,1035,1035,1035,1035,1035,1035,1035,1035,1035,1035,1035,1035,1035,1035,1035,1035,1035,1035,1035,1035,1035,1035,1035,1035,1035,1035,1035,1035,1035,1035,1035,1035,1035,1035,1035,1035,1035,1035,1035,1035,1035,1035,1035,1035,1035,1035,1035,1035,1035,1035,1035,1035,1035,1035,1035,1035,1035,1035,1035,759,759,760,760,760,760,760,758,757,757,757,757,757,757,757,758,758,758,758,758,758,758,758,758,758,758,758,758,758,758,758,758,758,758,758,759,760,762,763,766,770,774,777,777,779,780,781,781,782,783,785,786,787,788,789,791,794,798,801,804,808,810,812,812,812,813,813,813,813,813,813,813,813,814,814,814,814,815,815,815,815,815,815,815,815,815,815,816,816,816,816,818,819,820,821,821,820,820,818,818,817,817,815,814,812,810,808,807,806,805,804,803,802,802,802,802,802,802,802],"y":[0,0,0,0,0,0,0,0,0,0,0,0,0,0,0,0,0,0,0,382.8333333283663,382.8333333283663,382.8333333283663,382.8333333283663,382.8333333283663,382.8333333283663,382.8333333283663,380.8333333283663,379.8333333283663,377.8333333283663,375.8333333283663,372.8333333283663,368.8333333283663,366.8333333283663,364.8333333283663,361.8333333283663,352.8333333283663,346.8333333283663,340.8333333283663,334.8333333283663,330.8333333283663,324.8333333283663,320.8333333283663,316.8333333283663,315.8333333283663,313.8333333283663,312.8333333283663,311.8333333283663,310.8333333283663,310.8333333283663,310.8333333283663,310.8333333283663,310.8333333283663,310.8333333283663,310.8333333283663,310.8333333283663,310.8333333283663,310.8333333283663,310.8333333283663,310.8333333283663,310.8333333283663,310.8333333283663,310.8333333283663,310.8333333283663,310.8333333283663,310.8333333283663,310.8333333283663,310.8333333283663,312.8333333283663,312.8333333283663,316.8333333283663,318.8333333283663,320.8333333283663,323.8333333283663,326.8333333283663,327.8333333283663,331.8333333283663,333.8333333283663,336.8333333283663,339.8333333283663,340.8333333283663,341.8333333283663,342.8333333283663,342.8333333283663,342.8333333283663,342.8333333283663,342.8333333283663,342.8333333283663,342.8333333283663,342.8333333283663,342.8333333283663,342.8333333283663,342.8333333283663,342.8333333283663,342.8333333283663,342.8333333283663,342.8333333283663,342.8333333283663,342.8333333283663,342.8333333283663,342.8333333283663,342.8333333283663,342.8333333283663,342.8333333283663,342.8333333283663,342.8333333283663,342.8333333283663,342.8333333283663,342.8333333283663,342.8333333283663,342.8333333283663,342.8333333283663,342.8333333283663,342.8333333283663,342.8333333283663,342.8333333283663,342.8333333283663,342.8333333283663,342.8333333283663,342.8333333283663,342.8333333283663,342.8333333283663,342.8333333283663,342.8333333283663,342.8333333283663,342.8333333283663,342.8333333283663,342.8333333283663,342.8333333283663,342.8333333283663,342.8333333283663,342.8333333283663,342.8333333283663,342.8333333283663,342.8333333283663,342.8333333283663,342.8333333283663,342.8333333283663,342.8333333283663,342.8333333283663,342.8333333283663,342.8333333283663,342.8333333283663,342.8333333283663,342.8333333283663,342.8333333283663,342.8333333283663,342.8333333283663,342.8333333283663,342.8333333283663,342.8333333283663,342.8333333283663,342.8333333283663,342.8333333283663,342.8333333283663,342.8333333283663,342.8333333283663,343.8333333283663,356.8333333283663,372.8333333283663,402.8333333283663,445.8333333283663,483.8333333283663,518.8333333283663,536.8333333283663,546.8333333283663,550.8333333283663,550.8333333283663,550.8333333283663,550.8333333283663,549.8333333283663,546.8333333283663,545.8333333283663,544.8333333283663,543.8333333283663,543.8333333283663,543.8333333283663,544.8333333283663,548.8333333283663,550.8333333283663,554.8333333283663,557.8333333283663,557.8333333283663,557.8333333283663,557.8333333283663,557.8333333283663,557.8333333283663,557.8333333283663,557.8333333283663,557.8333333283663,557.8333333283663,557.8333333283663,557.8333333283663,557.8333333283663,557.8333333283663,557.8333333283663,557.8333333283663,557.8333333283663,557.8333333283663,557.8333333283663,557.8333333283663,557.8333333283663,557.8333333283663,557.8333333283663,557.8333333283663,557.8333333283663,557.8333333283663,557.8333333283663,557.8333333283663,557.8333333283663,557.8333333283663,557.8333333283663,557.8333333283663,557.8333333283663,557.8333333283663,557.8333333283663,557.8333333283663,557.8333333283663,557.8333333283663,557.8333333283663,557.8333333283663,557.8333333283663,557.8333333283663,557.8333333283663,557.8333333283663,557.8333333283663,557.8333333283663,557.8333333283663,557.8333333283663,557.8333333283663,557.8333333283663,557.8333333283663,557.8333333283663,557.8333333283663,557.8333333283663,557.8333333283663,557.8333333283663,557.8333333283663,557.8333333283663,557.8333333283663,557.8333333283663,557.8333333283663,557.8333333283663,557.8333333283663,557.8333333283663,557.8333333283663,557.8333333283663,557.8333333283663,557.8333333283663,557.8333333283663,557.8333333283663,557.8333333283663,550.8333333283663,547.8333333283663,532.8333333283663,519.8333333283663,510.8333333283663,502.8333333283663,492.8333333283663,478.8333333283663,460.8333333283663,454.8333333283663,447.8333333283663,443.8333333283663,442.8333333283663,441.8333333283663,440.8333333283663,440.8333333283663,439.8333333283663,439.8333333283663,439.8333333283663,439.8333333283663,439.8333333283663,439.8333333283663,439.8333333283663,439.8333333283663,439.8333333283663,439.8333333283663,439.8333333283663,439.8333333283663,439.8333333283663,439.8333333283663,439.8333333283663,439.8333333283663,439.8333333283663,439.8333333283663,439.8333333283663,439.8333333283663,439.8333333283663,440.8333333283663,442.8333333283663,444.8333333283663,446.8333333283663,448.8333333283663,451.8333333283663,452.8333333283663,452.8333333283663,454.8333333283663,454.8333333283663,454.8333333283663,455.8333333283663,455.8333333283663,457.8333333283663,458.8333333283663,460.8333333283663,460.8333333283663,460.8333333283663,462.8333333283663,462.8333333283663,464.8333333283663,464.8333333283663,466.8333333283663,466.8333333283663,467.8333333283663,468.8333333283663,468.8333333283663,468.8333333283663,468.8333333283663,468.8333333283663,468.8333333283663,468.8333333283663,468.8333333283663,468.8333333283663,468.8333333283663,468.8333333283663,467.8333333283663,466.8333333283663,466.8333333283663,466.8333333283663,466.8333333283663,466.8333333283663,466.8333333283663,466.8333333283663,466.8333333283663,466.8333333283663,466.8333333283663,466.8333333283663,466.8333333283663,466.8333333283663,466.8333333283663,466.8333333283663,466.8333333283663,466.8333333283663,468.8333333283663,470.8333333283663,474.8333333283663,478.8333333283663,482.8333333283663,487.8333333283663,493.8333333283663,498.8333333283663,503.8333333283663,507.8333333283663,510.8333333283663,515.8333333283663,518.8333333283663,522.8333333283663,524.8333333283663,528.8333333283663,531.8333333283663,535.8333333283663,539.8333333283663,542.8333333283663,545.8333333283663,548.8333333283663,550.8333333283663,552.8333333283663,554.8333333283663,556.8333333283663,557.8333333283663,557.8333333283663]},"final_keyboard_state":["A","E","I","G","H","O","N","W","M","D","C","S","T","R","Y","F","U"],"num_clicks":17,"points":6,"cheat":false,"trial_type":"Hangman_replay","trial_index":12,"time_elapsed":94901,"internal_node_id":"0.0-12.0-1.0","protocol_sum":"","subject_identifier":426,"subject_sum":[212,143,244,178,246,138,16,253,124,134,241,133,166,204,237,224,220,15,44,72,83,141,105,124,179,59,106,218,63,30,133,219],"subject_pair":213,"STUDY_ID":"66a22c0758a3d5c9d26873c6","PROLIFIC_PID":"638fdf87700dd1228bade2e1","SESSION_ID":"66a2bf98d990ccc0de0f8243","practice_instructions":1,"leaderboard_instructions":0,"bonus":0,"reveal_word":false,"self_rating":"1","confidence":"70"},{"view_history":"[{\"page_index\":0,\"viewing_time\":2752.9000000953674}]","rt":2753.0999999046326,"trial_type":"instructions","trial_index":13,"time_elapsed":97655,"internal_node_id":"0.0-12.0-2.0","protocol_sum":"","subject_identifier":426,"subject_sum":[212,143,244,178,246,138,16,253,124,134,241,133,166,204,237,224,220,15,44,72,83,141,105,124,179,59,106,218,63,30,133,219],"subject_pair":213,"STUDY_ID":"66a22c0758a3d5c9d26873c6","PROLIFIC_PID":"638fdf87700dd1228bade2e1","SESSION_ID":"66a2bf98d990ccc0de0f8243","practice_instructions":1,"leaderboard_instructions":0,"bonus":0,"reveal_word":false,"self_rating":"1","confidence":"70"},{"position_RT":1372.8999996185303,"position":4,"word":"THIRTY FOUR","player":"75","i_game":0,"true_position":84,"trial_type":"Guess_leaderboard","trial_index":14,"time_elapsed":99798,"internal_node_id":"0.0-12.0-3.0","protocol_sum":"","subject_identifier":426,"subject_sum":[212,143,244,178,246,138,16,253,124,134,241,133,166,204,237,224,220,15,44,72,83,141,105,124,179,59,106,218,63,30,133,219],"subject_pair":213,"distance":80,"STUDY_ID":"66a22c0758a3d5c9d26873c6","PROLIFIC_PID":"638fdf87700dd1228bade2e1","SESSION_ID":"66a2bf98d990ccc0de0f8243","practice_instructions":1,"leaderboard_instructions":0,"bonus":0,"reveal_word":false,"self_rating":"1","confidence":"70"},{"view_history":"[{\"page_index\":0,\"viewing_time\":992.4000000953674}]","rt":992.5999999046326,"trial_type":"instructions","trial_index":15,"time_elapsed":100792,"internal_node_id":"0.0-12.0-0.1","protocol_sum":"","subject_identifier":426,"subject_sum":[212,143,244,178,246,138,16,253,124,134,241,133,166,204,237,224,220,15,44,72,83,141,105,124,179,59,106,218,63,30,133,219],"subject_pair":213,"STUDY_ID":"66a22c0758a3d5c9d26873c6","PROLIFIC_PID":"638fdf87700dd1228bade2e1","SESSION_ID":"66a2bf98d990ccc0de0f8243","practice_instructions":1,"leaderboard_instructions":0,"bonus":0,"reveal_word":false,"self_rating":"1","confidence":"70"},{"word":"USAIN BOLT","click_log":{"letter":["","A","E","I","O","U","S","N","B","L","T"],"t":[0,8900.800000190735,8920,9026.400000095367,18835.900000095367,18852.300000190735,18865.10000038147,18880.10000038147,18896,18915.700000286102,19319.700000286102],"hit":[null,1,0,1,1,1,1,1,1,1,1],"asked":["","A","AE","AEI","AEIO","AEIOU","AEIOUS","AEIOUSN","AEIOUSNB","AEIOUSNBL","AEIOUSNBLT"],"word_state":["_____ ____","__A__ ____","__A__ ____","__AI_ ____","__AI_ _O__","U_AI_ _O__","USAI_ _O__","USAIN _O__","USAIN BO__","USAIN BOL_","USAIN BOLT"]},"hover_log":{"letter":["?","?","?","?","?","?","?","?","?","?","?","?","?","?","?","?","?","?","?","?","?","?","?","?","?","?","?","?","?","?","?","?","?","?","?","?","?","?","?","?","?","?","?","?","?","?","?","?","?","?","?","?","?","?","?","?","?","?","?","?","?","?","?","?","?","?","?","?","?","?","?","?","?","?","?","?","?","?","?","?","?","?","?","?","?","?","?","?","?","?","?","?","?","?","?","?","?","?","?","?","?","?","?","?","?","?","?","?","?","?","?","?","?","?","?","?","?","?","?","?","?","?","?","?","?","?","?","?","?","?","?","?","?","?","?","?","?","?","?","?","?","?","?","?","?","?","?","?","?","?","?","?","?","?","?","?","?","?","?","?","?","?","?","?","?","?","?","?","?","?","?","?","?","?","?","?","?","?","?","?","?","?","?","?","?","?","?","?","?","?","?","?","?","?","?","?","?","?","?","?","?","?","?","?","?","?","?","?","?","?","?","?","?","?","?","?","?","?","?","?","?","?","?","?","?","?","?","?","?","?","?","?","?","?","?","?","?","?","?","?","?","?","?","?","?","?","?","?","?","?","?","?","?","?","?","?","?","?",