[{"success":true,"trial_type":"fullscreen","trial_index":0,"time_elapsed":4332,"internal_node_id":"0.0-0.0","protocol_sum":"","subject_identifier":139,"subject_sum":[199,92,182,106,226,141,142,188,110,222,208,2,194,138,139,160,208,109,58,120,198,181,203,249,178,173,224,81,240,119,90,196],"subject_pair":69,"STUDY_ID":"669a702db1122fc5150a13ce","PROLIFIC_PID":"662047d9ef8599fb4c8a00d5","SESSION_ID":"669b43fc63926528d1caf739","practice_instructions":1,"leaderboard_instructions":0,"bonus":2,"reveal_word":true,"self_rating":"3","confidence":"69"},{"view_history":"[{\"page_index\":0,\"viewing_time\":6400.600000023842}]","rt":6401,"trial_type":"instructions","trial_index":1,"time_elapsed":10733,"internal_node_id":"0.0-1.0","protocol_sum":"","subject_identifier":139,"subject_sum":[199,92,182,106,226,141,142,188,110,222,208,2,194,138,139,160,208,109,58,120,198,181,203,249,178,173,224,81,240,119,90,196],"subject_pair":69,"STUDY_ID":"669a702db1122fc5150a13ce","PROLIFIC_PID":"662047d9ef8599fb4c8a00d5","SESSION_ID":"669b43fc63926528d1caf739","practice_instructions":1,"leaderboard_instructions":0,"bonus":2,"reveal_word":true,"self_rating":"3","confidence":"69"},{"view_history":"[{\"page_index\":0,\"viewing_time\":20538.800000071526}]","rt":20539.100000023842,"trial_type":"instructions","trial_index":2,"time_elapsed":31273,"internal_node_id":"0.0-2.0-0.0","protocol_sum":"","subject_identifier":139,"subject_sum":[199,92,182,106,226,141,142,188,110,222,208,2,194,138,139,160,208,109,58,120,198,181,203,249,178,173,224,81,240,119,90,196],"subject_pair":69,"STUDY_ID":"669a702db1122fc5150a13ce","PROLIFIC_PID":"662047d9ef8599fb4c8a00d5","SESSION_ID":"669b43fc63926528d1caf739","practice_instructions":1,"leaderboard_instructions":0,"bonus":2,"reveal_word":true,"self_rating":"3","confidence":"69"},{"rt":6992.799999952316,"responses":"{\"Q0\":\"... reveal the word with as <b>few letter guesses</b> as possible\"}","question_order":"[0]","trial_type":"survey-multi-choice","trial_index":3,"time_elapsed":38267,"internal_node_id":"0.0-2.0-1.0","protocol_sum":"","subject_identifier":139,"subject_sum":[199,92,182,106,226,141,142,188,110,222,208,2,194,138,139,160,208,109,58,120,198,181,203,249,178,173,224,81,240,119,90,196],"subject_pair":69,"correct":true,"test_part":"multichoice_nonpretend","STUDY_ID":"669a702db1122fc5150a13ce","PROLIFIC_PID":"662047d9ef8599fb4c8a00d5","SESSION_ID":"669b43fc63926528d1caf739","practice_instructions":1,"leaderboard_instructions":0,"bonus":2,"reveal_word":true,"self_rating":"3","confidence":"69"},{"view_history":"[{\"page_index\":0,\"viewing_time\":1666.6000000238419}]","rt":1666.7000000476837,"trial_type":"instructions","trial_index":4,"time_elapsed":39934,"internal_node_id":"0.0-3.0","protocol_sum":"","subject_identifier":139,"subject_sum":[199,92,182,106,226,141,142,188,110,222,208,2,194,138,139,160,208,109,58,120,198,181,203,249,178,173,224,81,240,119,90,196],"subject_pair":69,"STUDY_ID":"669a702db1122fc5150a13ce","PROLIFIC_PID":"662047d9ef8599fb4c8a00d5","SESSION_ID":"669b43fc63926528d1caf739","practice_instructions":1,"leaderboard_instructions":0,"bonus":2,"reveal_word":true,"self_rating":"3","confidence":"69"},{"word":"ZEBRA","click_log":{"letter":["","E","A","Z","B","R"],"t":[0,4832.099999904633,7520.899999976158,10029.099999904633,11702.599999904633,13116.5],"hit":[null,1,1,1,1,1],"asked":["","E","EA","EAZ","EAZB","EAZBR"],"word_state":["_____","_E___","_E__A","ZE__A","ZEB_A","ZEBRA"]},"hover_log":{"letter":["?","?","?","?","?","?","?","?","?","?","?","?","?","?","?","?","?","?","?","?","?","?","?","?","?","?","?","?","?","?","?","?","?","?","?","?","?","?","?","?","?","?","?","?","?","?","?","?","?","?","?","?","?","?","?","?","?","?","?","?","?","?","?","?","?","?","?","?","?","?","?","?","?","?","?","?","?","?","?","?","?","?","?","?","?","?","?","?","?","?","?","?","?","?","?","?","?","?","?","?","S","S","S","S","?","?","?","?","?","?","?","?","?","?","?","?","?","?","?","?","?","?","?","?","?","?","?","?","?","?","?","?","?","?","?","?","?","?","?","?","?","?","?","?","?","?","T","T","T","T","T","T","T","T","T","T","T","T","T","T","T","T","T","T","T","T","T","T","T","T","T","T","T","T","T","T","T","T","T","T","T","T","T","T","T","T","?","?","?","?","?","?","?","U","U","U","U","U","U","U","U","U","U","U","U","U","U","U","U","U","U","U","U","U","U","U","U","U","U","U","U","?","?","?","?","?","?","?","?","?","?","?","?","?","?","?","?","?","?","?","?","?","?","?","M","M","M","M","M","M","M","M","?","?","?","?","?","?","?","?","?","?","?","?","E","E","E","E","E","E","E","E","E","E","E","E","E","E","E","E","E","E","E","E","E","E","E","E","E","E","E","E","E","E","E","E","E","E","E","E","E","E","E","E","?","?","N","N","N","N","N","N","N","N","?","?","?","?","?","?","?","?","?","W","W","W","W","W","W","W","W","W","W","W","W","W","W","W","W","W","W","W","W","W","W","W","W","W","W","W","W","W","W","W","W","W","W","W","W","W","W","W","W","W","W","W","W","W","W","W","W","W","W","W","W","W","W","W","W","W","W","W","W","W","W","W","W","W","W","W","W","W","W","W","W","W","W","W","W","W","W","W","W","W","W","W","W","?","?","M","M","M","?","?","?","?","C","C","C","C","?","?","B","B","B","B","B","B","?","?","?","?","A","A","A","A","A","A","A","A","A","A","A","A","A","A","A","A","A","A","A","A","A","A","A","A","A","A","A","A","A","A","A","A","A","A","A","A","A","A","A","A","A","A","A","A","?","?","?","?","?","?","?","J","J","J","J","J","J","?","?","?","?","?","?","?","?","?","?","?","?","?","?","?","?","?","?","?","?","T","T","T","T","T","T","T","T","T","T","T","T","T","T","T","T","T","T","T","T","T","T","T","T","T","T","T","T","T","T","T","T","T","T","T","T","T","T","T","T","T","T","T","T","T","T","T","T","T","T","T","T","T","T","T","T","T","T","T","?","?","U","U","U","U","?","V","V","V","?","W","W","?","?","X","X","?","?","?","?","Y","Y","Y","Y","Y","?","?","?","?","?","?","?","?","?","Z","Z","Z","Z","Z","Z","Z","Z","Z","Z","Z","Z","Z","Z","Z","Z","Z","Z","Z","Z","Z","Z","Z","Z","Z","Z","Z","Z","Z","Z","Z","Z","Z","Z","Z","Z","Z","Z","Z","Z","Z","Z","Z","Z","Z","Z","Z","?","?","?","?","Y","Y","Y","Y","?","X","X","?","?","?","?","?","N","N","N","?","?","?","?","?","D","D","D","D","D","?","?","C","C","C","C","C","?","?","?","?","?","?","?","?","?","?","?","?","?","?","?","?","?","?","B","B","B","B","B","B","B","B","B","B","B","B","B","B","B","B","B","B","B","B","B","B","B","B","B","B","B","B","B","B","B","B","B","B","B","B","B","B","B","B","B","B","B","B","B","B","B","B","B","?","?","C","C","?","?","?","?","?","?","?","?","O","O","?","?","P","P","P","P","P","P","?","?","Q","Q","Q","Q","Q","Q","Q","Q","Q","Q","Q","Q","?","?","?","?","?","R","R","R","R","R","R","R","R","R","R","R","R","R","R","R","R","R","R","R","R","R","R","R","R","R","R","R","R","R","R","R","R","R","R","R","R","R","R","R","R","R","R","R","R","R","R","R","R","R","R","R","R","R","R","R","R","R","R","R","R","R","R","R","R","R","R","R","R","?","?","?","?","?","?","?","?","?","?","?","?","?","?","?","?","?","?","?","?","?","?","?","Z","Z","Z","Z","Z","?","?","?","?","?","Y","Y","Y","Y","Y","Y","Y","Y","Y","Y","Y","Y","Y","Y","Y","Y","Y","Y","Y","Y","Y","?","?","?","?","?","?","?","?","?","?","?","?","?","?","?","?","?","?","?","?","?","?","?","?","?","?","?","?","?","?","?","?","?"],"t":[31,40,485,501,516,531,547,562,577,593,608,623,640,654,670,686,701,717,731,747,763,778,794,809,823,839,854,871,886,902,918,933,948,965,980,996,1011,1028,1043,1058,1074,1089,1104,1121,1136,1152,1168,1183,1199,1215,1230,1246,1261,1277,1294,1308,1324,1339,1354,1369,1385,1400,1416,1431,1447,1462,1477,1493,1508,1524,1540,1555,1570,1586,1600,1616,1631,1647,1663,1678,1693,1708,1724,1739,1755,1770,1785,1801,1816,1831,1847,1863,1879,1896,1911,1926,1942,1958,1973,1989,2004,2018,2034,2049,2065,2080,2096,2111,2125,2141,2156,2172,2187,2202,2218,2233,2250,2265,2280,2295,2310,2325,2342,2357,2372,2387,2403,2418,2434,2449,2464,2480,2495,2511,2526,2542,2557,2572,2587,2603,2619,2634,2650,2666,2681,2696,2712,2728,2743,2760,2776,2792,2806,2822,2837,2852,2867,2882,2897,2913,2929,2945,2960,2976,2992,3007,3022,3038,3053,3069,3084,3100,3115,3130,3146,3162,3177,3192,3208,3223,3238,3254,3269,3284,3299,3315,3329,3345,3360,3376,3392,3407,3423,3439,3454,3470,3486,3503,3518,3533,3549,3565,3580,3596,3611,3627,3642,3658,3673,3688,3704,3720,3735,3750,3765,3780,3796,3812,3828,3843,3860,3875,3891,3906,3922,3937,3953,3968,3983,3999,4015,4030,4045,4060,4075,4090,4106,4122,4137,4152,4168,4184,4198,4214,4230,4246,4261,4277,4292,4307,4322,4337,4353,4369,4384,4399,4415,4430,4446,4461,4477,4492,4507,4523,4538,4554,4568,4584,4599,4615,4630,4646,4660,4675,4691,4706,4722,4737,4753,4770,4784,4800,4815,4831,4848,4863,4879,4895,4910,4927,4942,4957,4973,4988,5003,5018,5033,5049,5064,5080,5096,5111,5127,5142,5158,5174,5190,5205,5221,5237,5252,5268,5283,5299,5315,5331,5345,5361,5376,5392,5407,5422,5437,5454,5470,5485,5500,5516,5530,5545,5561,5577,5592,5607,5623,5638,5653,5670,5684,5699,5716,5732,5748,5763,5779,5795,5810,5825,5842,5858,5873,5888,5903,5919,5934,5950,5965,5981,5996,6011,6028,6043,6058,6074,6089,6104,6120,6136,6151,6166,6182,6198,6214,6229,6245,6260,6275,6292,6307,6322,6339,6355,6370,6386,6403,6418,6434,6450,6466,6481,6496,6511,6528,6543,6558,6574,6588,6604,6620,6635,6651,6666,6681,6697,6713,6728,6743,6759,6773,6789,6804,6819,6835,6851,6866,6881,6897,6912,6928,6944,6958,6974,6989,7004,7020,7035,7051,7067,7082,7097,7113,7129,7145,7159,7175,7191,7206,7221,7237,7253,7269,7284,7300,7315,7331,7346,7362,7377,7392,7407,7423,7438,7454,7471,7486,7502,7519,7534,7551,7566,7581,7598,7613,7629,7644,7661,7676,7692,7707,7723,7739,7754,7769,7784,7800,7816,7831,7846,7864,7879,7894,7910,7925,7939,7956,7971,7986,8002,8018,8033,8048,8065,8080,8096,8110,8126,8142,8158,8174,8190,8205,8221,8236,8251,8267,8282,8298,8312,8328,8345,8359,8373,8388,8404,8419,8434,8449,8465,8482,8498,8513,8528,8543,8558,8572,8587,8603,8619,8634,8650,8665,8682,8697,8712,8729,8744,8759,8775,8790,8805,8821,8837,8852,8868,8883,8899,8914,8930,8946,8961,8976,8992,9007,9022,9038,9055,9071,9085,9101,9117,9131,9148,9162,9177,9193,9207,9223,9238,9254,9270,9285,9301,9317,9332,9348,9363,9379,9394,9410,9425,9441,9456,9471,9486,9502,9518,9533,9549,9565,9581,9595,9611,9626,9642,9658,9673,9687,9703,9719,9734,9749,9765,9780,9796,9811,9827,9842,9858,9874,9889,9905,9921,9936,9952,9967,9983,9999,10015,10030,10045,10061,10076,10092,10108,10123,10138,10153,10168,10183,10199,10214,10230,10246,10260,10275,10292,10307,10323,10338,10354,10370,10386,10401,10416,10432,10447,10461,10476,10492,10508,10523,10538,10553,10569,10585,10600,10615,10630,10646,10661,10675,10692,10708,10722,10737,10753,10768,10783,10799,10815,10830,10845,10861,10876,10892,10907,10923,10938,10952,10968,10984,10999,11015,11031,11046,11061,11076,11092,11107,11122,11137,11152,11167,11183,11199,11214,11230,11245,11261,11276,11292,11307,11323,11338,11353,11369,11385,11400,11416,11432,11448,11463,11479,11494,11510,11525,11542,11556,11572,11588,11603,11618,11633,11650,11665,11680,11696,11711,11726,11743,11759,11775,11791,11806,11822,11837,11852,11867,11882,11898,11912,11928,11943,11958,11973,11988,12004,12020,12035,12050,12066,12081,12096,12111,12127,12142,12157,12172,12187,12202,12218,12234,12250,12266,12281,12296,12311,12326,12342,12357,12372,12387,12403,12418,12434,12449,12466,12481,12496,12511,12526,12542,12557,12573,12589,12604,12619,12634,12649,12664,12680,12694,12709,12724,12739,12754,12770,12785,12800,12816,12831,12847,12862,12876,12892,12907,12924,12940,12954,12969,12985,13000,13016,13031,13047,13061,13076,13092,13107,13124,13137,13152,13168,13183,13199,13215,13230,13245,13261,13276,13292,13307,13323,13338,13353,13369,13385,13402,13416,13432,13447,13463,13479,13494,13509,13524,13539,13554,13569,13585,13600,13615,13631,13648,13662,13676,13692,13709,13724,13739,13754,13770,13786,13801,13816,13832,13847,13863,13878,13894,13909,13924,13940,13956,13972,13987,14002,14018,14033,14049,14064,14080,14096,14112,14127,14143,14158,14173,14188,14204,14219,14235,14250,14265,14281,14296,14312,14327,14342,14358,14374,14389,14404,14419,14434,14450,14466,14482,14497,14512,14527,14542,14558,14573,14588,14604,14619,14635,14651,14666,14681,14698,14712,14728,14744,14760,14775,14791,14806,14822,14837,14853,14868,14884,14899,14916,14931,14946,14962,14978,14993,15008,15023,15040,15055,15070,15087,15101,15118],"hit":[null],"x":[-2.0408163265306123,-2.0408163265306123,-2.0408163265306123,-2.0408163265306123,-2.0408163265306123,-2.0408163265306123,-2.0408163265306123,-2.0408163265306123,-2.0408163265306123,-2.0408163265306123,-2.0408163265306123,-2.0408163265306123,-2.0408163265306123,-2.0408163265306123,-2.0408163265306123,-2.0408163265306123,-2.0408163265306123,-2.0408163265306123,-2.0408163265306123,-2.0408163265306123,-2.0408163265306123,-2.0408163265306123,-2.0408163265306123,-2.0408163265306123,-2.0408163265306123,-2.0408163265306123,-2.0408163265306123,-2.0408163265306123,-2.0408163265306123,-2.0408163265306123,-2.0408163265306123,-2.0408163265306123,-2.0408163265306123,-2.0408163265306123,-2.0408163265306123,-2.0408163265306123,-2.0408163265306123,-2.0408163265306123,-2.0408163265306123,-2.0408163265306123,-2.0408163265306123,-2.0408163265306123,-2.0408163265306123,-2.0408163265306123,-2.0408163265306123,-2.0408163265306123,-2.0408163265306123,-2.0408163265306123,-2.0408163265306123,-2.0408163265306123,-2.0408163265306123,-2.0408163265306123,-2.0408163265306123,0.013605442176870748,0.017006802721088437,0.017006802721088437,0.017006802721088437,0.017006802721088437,0.017006802721088437,0.017006802721088437,0.017006802721088437,0.017006802721088437,0.017006802721088437,0.017006802721088437,0.017006802721088437,0.017006802721088437,0.017006802721088437,0.017006802721088437,0.017006802721088437,0.017006802721088437,0.017006802721088437,0.017006802721088437,0.017006802721088437,0.017006802721088437,0.017006802721088437,0.017006802721088437,0.017006802721088437,0.017006802721088437,0.017006802721088437,0.017006802721088437,0.017006802721088437,0.023809523809523808,0.027210884353741496,0.027210884353741496,0.034013605442176874,0.034013605442176874,0.034013605442176874,0.03741496598639456,0.04081632653061224,0.04081632653061224,0.04081632653061224,0.047619047619047616,0.047619047619047616,0.05102040816326531,0.05102040816326531,0.05102040816326531,0.05102040816326531,0.05102040816326531,0.05442176870748299,0.05442176870748299,0.05442176870748299,0.05442176870748299,0.05782312925170068,0.05782312925170068,0.061224489795918366,0.061224489795918366,0.061224489795918366,0.06462585034013606,0.06462585034013606,0.06462585034013606,0.06462585034013606,0.06462585034013606,0.06462585034013606,0.06462585034013606,0.06462585034013606,0.06462585034013606,0.06462585034013606,0.06462585034013606,0.06462585034013606,0.06462585034013606,0.06462585034013606,0.06462585034013606,0.06462585034013606,0.06462585034013606,0.06462585034013606,0.06462585034013606,0.06462585034013606,0.06462585034013606,0.06462585034013606,0.06462585034013606,0.06462585034013606,0.06462585034013606,0.06462585034013606,0.06462585034013606,0.06462585034013606,0.06462585034013606,0.06462585034013606,0.06462585034013606,0.06462585034013606,0.06462585034013606,0.06462585034013606,0.06462585034013606,0.06462585034013606,0.06802721088435375,0.06802721088435375,0.0782312925170068,0.08503401360544217,0.09523809523809523,0.10884353741496598,0.11564625850340136,0.12585034013605442,0.1326530612244898,0.1360544217687075,0.13945578231292516,0.14285714285714285,0.14965986394557823,0.14965986394557823,0.15306122448979592,0.15306122448979592,0.1598639455782313,0.1598639455782313,0.16326530612244897,0.16326530612244897,0.16326530612244897,0.16326530612244897,0.16326530612244897,0.16326530612244897,0.16326530612244897,0.16326530612244897,0.16326530612244897,0.16326530612244897,0.16326530612244897,0.16326530612244897,0.16326530612244897,0.16326530612244897,0.16326530612244897,0.16326530612244897,0.16326530612244897,0.16326530612244897,0.16326530612244897,0.16326530612244897,0.16326530612244897,0.17346938775510204,0.18027210884353742,0.19047619047619047,0.20068027210884354,0.20408163265306123,0.20748299319727892,0.2108843537414966,0.21428571428571427,0.21768707482993196,0.22108843537414966,0.22448979591836735,0.22789115646258504,0.22789115646258504,0.22789115646258504,0.22789115646258504,0.23129251700680273,0.23469387755102042,0.23469387755102042,0.24149659863945577,0.24489795918367346,0.24489795918367346,0.24829931972789115,0.25510204081632654,0.2585034013605442,0.2585034013605442,0.2585034013605442,0.2653061224489796,0.2687074829931973,0.272108843537415,0.2857142857142857,0.2925170068027211,0.29931972789115646,0.30272108843537415,0.30612244897959184,0.3129251700680272,0.3129251700680272,0.3129251700680272,0.3163265306122449,0.3231292517006803,0.32653061224489793,0.3299319727891156,0.336734693877551,0.3401360544217687,0.3469387755102041,0.3469387755102041,0.35034013605442177,0.35374149659863946,0.35374149659863946,0.35374149659863946,0.35714285714285715,0.35714285714285715,0.35714285714285715,0.36054421768707484,0.36054421768707484,0.36054421768707484,0.36394557823129253,0.3673469387755102,0.3707482993197279,0.3741496598639456,0.38095238095238093,0.3945578231292517,0.40816326530612246,0.41836734693877553,0.42857142857142855,0.43537414965986393,0.4489795918367347,0.4557823129251701,0.46598639455782315,0.47619047619047616,0.48299319727891155,0.4897959183673469,0.5,0.5034013605442177,0.5068027210884354,0.5136054421768708,0.5170068027210885,0.5170068027210885,0.5204081632653061,0.5238095238095238,0.5306122448979592,0.5340136054421769,0.5408163265306123,0.54421768707483,0.5476190476190477,0.5544217687074829,0.5578231292517006,0.5578231292517006,0.5578231292517006,0.5578231292517006,0.5578231292517006,0.5578231292517006,0.5578231292517006,0.5578231292517006,0.5578231292517006,0.5578231292517006,0.5578231292517006,0.5578231292517006,0.5578231292517006,0.5578231292517006,0.5578231292517006,0.5578231292517006,0.5578231292517006,0.5578231292517006,0.5578231292517006,0.5578231292517006,0.5578231292517006,0.5578231292517006,0.5578231292517006,0.5578231292517006,0.5578231292517006,0.5578231292517006,0.5578231292517006,0.5578231292517006,0.5578231292517006,0.5578231292517006,0.5578231292517006,0.5578231292517006,0.5578231292517006,0.5578231292517006,0.5578231292517006,0.5612244897959183,0.5612244897959183,0.564625850340136,0.5680272108843537,0.5714285714285714,0.5714285714285714,0.5714285714285714,0.5714285714285714,0.5714285714285714,0.5714285714285714,0.5714285714285714,0.5714285714285714,0.5714285714285714,0.5714285714285714,0.5714285714285714,0.5714285714285714,0.5714285714285714,0.5714285714285714,0.5714285714285714,0.5714285714285714,0.5714285714285714,0.5714285714285714,0.5714285714285714,0.5714285714285714,0.5714285714285714,0.5714285714285714,0.5714285714285714,0.5714285714285714,0.5714285714285714,0.5714285714285714,0.5714285714285714,0.5714285714285714,0.5714285714285714,0.5714285714285714,0.5714285714285714,0.5714285714285714,0.5714285714285714,0.5714285714285714,0.5714285714285714,0.5714285714285714,0.5714285714285714,0.5714285714285714,0.5714285714285714,0.5714285714285714,0.5714285714285714,0.5714285714285714,0.5714285714285714,0.5714285714285714,0.5714285714285714,0.5714285714285714,0.5714285714285714,0.5714285714285714,0.5714285714285714,0.5714285714285714,0.5714285714285714,0.5714285714285714,0.5714285714285714,0.5714285714285714,0.5714285714285714,0.5714285714285714,0.5714285714285714,0.5714285714285714,0.5714285714285714,0.5714285714285714,0.5714285714285714,0.5714285714285714,0.5714285714285714,0.5714285714285714,0.5714285714285714,0.5714285714285714,0.5714285714285714,0.5714285714285714,0.5714285714285714,0.5714285714285714,0.5714285714285714,0.5714285714285714,0.5714285714285714,0.5714285714285714,0.5714285714285714,0.5714285714285714,0.5714285714285714,0.5714285714285714,0.5714285714285714,0.5714285714285714,0.5714285714285714,0.5714285714285714,0.5714285714285714,0.5714285714285714,0.5714285714285714,0.5714285714285714,0.5714285714285714,0.5714285714285714,0.5714285714285714,0.5714285714285714,0.5714285714285714,0.5714285714285714,0.5714285714285714,0.5714285714285714,0.5714285714285714,0.5714285714285714,0.5714285714285714,0.5714285714285714,0.5714285714285714,0.564625850340136,0.5510204081632653,0.5272108843537415,0.4931972789115646,0.46598639455782315,0.43537414965986393,0.41496598639455784,0.3945578231292517,0.3741496598639456,0.35714285714285715,0.3401360544217687,0.3163265306122449,0.29591836734693877,0.272108843537415,0.24149659863945577,0.21768707482993196,0.19387755102040816,0.17687074829931973,0.1598639455782313,0.13945578231292516,0.12244897959183673,0.10884353741496598,0.09523809523809523,0.08503401360544217,0.0782312925170068,0.06802721088435375,0.061224489795918366,0.05442176870748299,0.05442176870748299,0.05102040816326531,0.05102040816326531,0.05102040816326531,0.05102040816326531,0.047619047619047616,0.04421768707482993,0.04081632653061224,0.04081632653061224,0.034013605442176874,0.030612244897959183,0.027210884353741496,0.027210884353741496,0.027210884353741496,0.023809523809523808,0.023809523809523808,0.023809523809523808,0.023809523809523808,0.023809523809523808,0.023809523809523808,0.023809523809523808,0.023809523809523808,0.023809523809523808,0.023809523809523808,0.023809523809523808,0.023809523809523808,0.023809523809523808,0.023809523809523808,0.023809523809523808,0.023809523809523808,0.023809523809523808,0.023809523809523808,0.023809523809523808,0.023809523809523808,0.023809523809523808,0.023809523809523808,0.023809523809523808,0.023809523809523808,0.023809523809523808,0.023809523809523808,0.023809523809523808,0.023809523809523808,0.023809523809523808,0.023809523809523808,0.023809523809523808,0.027210884353741496,0.030612244897959183,0.030612244897959183,0.03741496598639456,0.03741496598639456,0.04081632653061224,0.04421768707482993,0.047619047619047616,0.05102040816326531,0.05442176870748299,0.05782312925170068,0.06462585034013606,0.06462585034013606,0.06802721088435375,0.07482993197278912,0.0782312925170068,0.08163265306122448,0.08843537414965986,0.09183673469387756,0.09523809523809523,0.09863945578231292,0.1054421768707483,0.10884353741496598,0.10884353741496598,0.11564625850340136,0.11904761904761904,0.12244897959183673,0.12244897959183673,0.12244897959183673,0.1292517006802721,0.1292517006802721,0.1326530612244898,0.1360544217687075,0.1360544217687075,0.1360544217687075,0.13945578231292516,0.14285714285714285,0.14285714285714285,0.14285714285714285,0.14285714285714285,0.14625850340136054,0.14965986394557823,0.14965986394557823,0.14965986394557823,0.14965986394557823,0.14965986394557823,0.15306122448979592,0.15306122448979592,0.1564625850340136,0.1564625850340136,0.1564625850340136,0.1564625850340136,0.1564625850340136,0.1564625850340136,0.1564625850340136,0.1564625850340136,0.1564625850340136,0.1564625850340136,0.1564625850340136,0.1564625850340136,0.1564625850340136,0.1564625850340136,0.1564625850340136,0.1564625850340136,0.1564625850340136,0.1564625850340136,0.1564625850340136,0.1564625850340136,0.1564625850340136,0.1564625850340136,0.1564625850340136,0.1564625850340136,0.1564625850340136,0.1564625850340136,0.1564625850340136,0.1564625850340136,0.1564625850340136,0.1564625850340136,0.1564625850340136,0.1564625850340136,0.1564625850340136,0.16326530612244897,0.16326530612244897,0.16666666666666666,0.17006802721088435,0.17006802721088435,0.17687074829931973,0.17687074829931973,0.1870748299319728,0.19387755102040816,0.20408163265306123,0.22448979591836735,0.24829931972789115,0.2755102040816326,0.30952380952380953,0.336734693877551,0.35714285714285715,0.38095238095238093,0.40816326530612246,0.4421768707482993,0.48639455782312924,0.5306122448979592,0.5748299319727891,0.6122448979591837,0.6530612244897959,0.6870748299319728,0.7210884353741497,0.7551020408163265,0.7857142857142857,0.8095238095238095,0.8299319727891157,0.8435374149659864,0.8503401360544217,0.8571428571428571,0.8707482993197279,0.8809523809523809,0.8945578231292517,0.9115646258503401,0.9183673469387755,0.9285714285714286,0.9319727891156463,0.9387755102040817,0.9455782312925171,0.9523809523809523,0.9591836734693877,0.9659863945578231,0.9659863945578231,0.9659863945578231,0.9659863945578231,0.9659863945578231,0.9659863945578231,0.9659863945578231,0.9659863945578231,0.9659863945578231,0.9659863945578231,0.9659863945578231,0.9659863945578231,0.9659863945578231,0.9659863945578231,0.9659863945578231,0.9659863945578231,0.9659863945578231,0.9659863945578231,0.9659863945578231,0.9659863945578231,0.9659863945578231,0.9659863945578231,0.9659863945578231,0.9659863945578231,0.9659863945578231,0.9659863945578231,0.9659863945578231,0.9659863945578231,0.9659863945578231,0.9659863945578231,0.9659863945578231,0.9659863945578231,0.9659863945578231,0.9659863945578231,0.9659863945578231,0.9659863945578231,0.9659863945578231,0.9659863945578231,0.9659863945578231,0.9659863945578231,0.9659863945578231,0.9659863945578231,0.9659863945578231,0.9659863945578231,0.9659863945578231,0.9625850340136054,0.9625850340136054,0.9523809523809523,0.9421768707482994,0.9251700680272109,0.9115646258503401,0.8877551020408163,0.8673469387755102,0.8401360544217688,0.8163265306122449,0.7857142857142857,0.7585034013605442,0.7380952380952381,0.7142857142857143,0.6904761904761905,0.6666666666666666,0.6462585034013606,0.6224489795918368,0.5986394557823129,0.5748299319727891,0.5544217687074829,0.5408163265306123,0.5238095238095238,0.5034013605442177,0.4897959183673469,0.47278911564625853,0.4489795918367347,0.43197278911564624,0.41496598639455784,0.3945578231292517,0.38095238095238093,0.3673469387755102,0.35034013605442177,0.3299319727891156,0.3129251700680272,0.2857142857142857,0.2653061224489796,0.24489795918367346,0.22789115646258504,0.2108843537414966,0.20068027210884354,0.19047619047619047,0.19047619047619047,0.1870748299319728,0.1870748299319728,0.1870748299319728,0.1870748299319728,0.1870748299319728,0.1836734693877551,0.1836734693877551,0.1836734693877551,0.1836734693877551,0.1836734693877551,0.1836734693877551,0.1836734693877551,0.1836734693877551,0.18027210884353742,0.18027210884353742,0.17687074829931973,0.17687074829931973,0.17346938775510204,0.17346938775510204,0.17346938775510204,0.17346938775510204,0.17346938775510204,0.17346938775510204,0.17346938775510204,0.17346938775510204,0.17346938775510204,0.17346938775510204,0.17346938775510204,0.17346938775510204,0.17346938775510204,0.17346938775510204,0.17346938775510204,0.17346938775510204,0.17346938775510204,0.17346938775510204,0.17346938775510204,0.17346938775510204,0.17346938775510204,0.17346938775510204,0.17346938775510204,0.17346938775510204,0.17346938775510204,0.17346938775510204,0.17346938775510204,0.17346938775510204,0.17346938775510204,0.17346938775510204,0.17346938775510204,0.17346938775510204,0.17346938775510204,0.17346938775510204,0.17346938775510204,0.17346938775510204,0.17346938775510204,0.17346938775510204,0.17346938775510204,0.17346938775510204,0.17346938775510204,0.17346938775510204,0.17687074829931973,0.1836734693877551,0.19727891156462585,0.2108843537414966,0.23129251700680273,0.2585034013605442,0.2857142857142857,0.3231292517006803,0.36054421768707484,0.4013605442176871,0.445578231292517,0.5034013605442177,0.5578231292517006,0.6122448979591837,0.6598639455782312,0.7006802721088435,0.7346938775510204,0.7687074829931972,0.8027210884353742,0.826530612244898,0.8469387755102041,0.8673469387755102,0.8843537414965986,0.8979591836734694,0.9115646258503401,0.9251700680272109,0.9387755102040817,0.9489795918367347,0.9591836734693877,0.9659863945578231,0.9727891156462585,0.9795918367346939,0.9863945578231292,0.9931972789115646,1.0068027210884354,1.0204081632653061,1.030612244897959,1.0408163265306123,1.0510204081632653,1.0612244897959184,1.064625850340136,1.0748299319727892,1.0782312925170068,1.08843537414966,1.0952380952380953,1.1020408163265305,1.1054421768707483,1.1054421768707483,1.1122448979591837,1.1122448979591837,1.1156462585034013,1.119047619047619,1.1258503401360545,1.129251700680272,1.129251700680272,1.129251700680272,1.129251700680272,1.129251700680272,1.129251700680272,1.129251700680272,1.129251700680272,1.129251700680272,1.129251700680272,1.129251700680272,1.129251700680272,1.129251700680272,1.129251700680272,1.129251700680272,1.129251700680272,1.129251700680272,1.129251700680272,1.129251700680272,1.129251700680272,1.129251700680272,1.129251700680272,1.129251700680272,1.129251700680272,1.129251700680272,1.129251700680272,1.129251700680272,1.129251700680272,1.129251700680272,1.129251700680272,1.129251700680272,1.129251700680272,1.129251700680272,1.129251700680272,1.129251700680272,1.129251700680272,1.129251700680272,1.129251700680272,1.129251700680272,1.129251700680272,1.129251700680272,1.129251700680272,1.129251700680272,1.129251700680272,1.129251700680272,1.129251700680272,1.129251700680272,1.129251700680272,1.129251700680272,1.129251700680272,1.129251700680272,1.129251700680272,1.129251700680272,1.129251700680272,1.129251700680272,1.129251700680272,1.129251700680272,1.1224489795918366,1.1156462585034013,1.1156462585034013,1.1122448979591837,1.1088435374149659,1.1020408163265305,1.1020408163265305,1.0952380952380953,1.08843537414966,1.0850340136054422,1.0816326530612246,1.0748299319727892,1.0748299319727892,1.0714285714285714,1.0680272108843538,1.0680272108843538,1.0612244897959184,1.0510204081632653,1.0408163265306123,1.0272108843537415,1.0204081632653061,1.0136054421768708,1.0068027210884354,1.0068027210884354,1,0.9931972789115646,0.9863945578231292,0.9795918367346939,0.9727891156462585,0.9625850340136054,0.9523809523809523,0.9421768707482994,0.935374149659864,0.9251700680272109,0.9183673469387755,0.9115646258503401,0.9047619047619048,0.8979591836734694,0.8877551020408163,0.8809523809523809,0.8741496598639455,0.8673469387755102,0.8605442176870748,0.8537414965986394,0.8435374149659864,0.8367346938775511,0.8299319727891157,0.826530612244898,0.8231292517006803,0.8197278911564626,0.8163265306122449,0.8163265306122449,0.8163265306122449,0.8163265306122449,0.8163265306122449,0.8163265306122449,0.8129251700680272,0.8095238095238095,0.8061224489795918,0.8061224489795918,0.8061224489795918,0.8027210884353742,0.8027210884353742,0.8027210884353742,0.8027210884353742,0.8027210884353742,0.8027210884353742,0.8027210884353742,0.8027210884353742,0.8027210884353742,0.8027210884353742,0.8027210884353742,0.8027210884353742,0.8027210884353742,0.8027210884353742,0.8027210884353742,0.8027210884353742,0.8027210884353742,0.8027210884353742,0.8027210884353742,0.8027210884353742,0.8027210884353742,0.8027210884353742,0.8027210884353742,0.8027210884353742,0.8027210884353742,0.7993197278911565,0.7959183673469388,0.7925170068027211],"y":[-3.4285714285714284,-3.4285714285714284,-3.4285714285714284,-3.4285714285714284,-3.4285714285714284,-3.4285714285714284,-3.4285714285714284,-3.4285714285714284,-3.4285714285714284,-3.4285714285714284,-3.4285714285714284,-3.4285714285714284,-3.4285714285714284,-3.4285714285714284,-3.4285714285714284,-3.4285714285714284,-3.4285714285714284,-3.4285714285714284,-3.4285714285714284,-3.4285714285714284,-3.4285714285714284,-3.4285714285714284,-3.4285714285714284,-3.4285714285714284,-3.4285714285714284,-3.4285714285714284,-3.4285714285714284,-3.4285714285714284,-3.4285714285714284,-3.4285714285714284,-3.4285714285714284,-3.4285714285714284,-3.4285714285714284,-3.4285714285714284,-3.4285714285714284,-3.4285714285714284,-3.4285714285714284,-3.4285714285714284,-3.4285714285714284,-3.4285714285714284,-3.4285714285714284,-3.4285714285714284,-3.4285714285714284,-3.4285714285714284,-3.4285714285714284,-3.4285714285714284,-3.4285714285714284,-3.4285714285714284,-3.4285714285714284,-3.4285714285714284,-3.4285714285714284,-3.4285714285714284,-3.4285714285714284,0.6857142857142857,0.6857142857142857,0.6857142857142857,0.6857142857142857,0.6857142857142857,0.6857142857142857,0.6857142857142857,0.6857142857142857,0.6857142857142857,0.6857142857142857,0.6857142857142857,0.6857142857142857,0.6857142857142857,0.6857142857142857,0.6857142857142857,0.6857142857142857,0.6857142857142857,0.6857142857142857,0.6857142857142857,0.6857142857142857,0.6857142857142857,0.6857142857142857,0.6857142857142857,0.6857142857142857,0.6857142857142857,0.6857142857142857,0.6857142857142857,0.6857142857142857,0.7047619047619048,0.7333333333333333,0.7523809523809524,0.7714285714285715,0.780952380952381,0.8,0.8095238095238095,0.819047619047619,0.8285714285714286,0.8476190476190476,0.8571428571428571,0.8666666666666667,0.8857142857142857,0.8857142857142857,0.8857142857142857,0.8857142857142857,0.8857142857142857,0.9047619047619048,0.9238095238095239,0.9333333333333333,0.9523809523809523,0.9619047619047619,0.9714285714285714,0.9809523809523809,0.9904761904761905,1,1.0095238095238095,1.019047619047619,1.019047619047619,1.019047619047619,1.019047619047619,1.019047619047619,1.019047619047619,1.019047619047619,1.019047619047619,1.019047619047619,1.019047619047619,1.019047619047619,1.019047619047619,1.019047619047619,1.019047619047619,1.019047619047619,1.019047619047619,1.019047619047619,1.019047619047619,1.019047619047619,1.019047619047619,1.019047619047619,1.019047619047619,1.019047619047619,1.019047619047619,1.019047619047619,1.019047619047619,1.019047619047619,1.019047619047619,1.019047619047619,1.019047619047619,1.019047619047619,1.019047619047619,1.019047619047619,1.019047619047619,1.019047619047619,1.019047619047619,1.019047619047619,1.019047619047619,1.0095238095238095,1.0095238095238095,1,1,1,1,1,1,0.9904761904761905,0.9904761904761905,0.9809523809523809,0.9809523809523809,0.9809523809523809,0.9714285714285714,0.9619047619047619,0.9619047619047619,0.9619047619047619,0.9619047619047619,0.9619047619047619,0.9619047619047619,0.9619047619047619,0.9619047619047619,0.9619047619047619,0.9619047619047619,0.9619047619047619,0.9619047619047619,0.9619047619047619,0.9619047619047619,0.9619047619047619,0.9619047619047619,0.9619047619047619,0.9619047619047619,0.9619047619047619,0.9619047619047619,0.9619047619047619,0.9619047619047619,0.9619047619047619,0.9714285714285714,0.9714285714285714,0.9809523809523809,0.9809523809523809,0.9904761904761905,0.9904761904761905,0.9904761904761905,0.9904761904761905,0.9904761904761905,0.9904761904761905,0.9904761904761905,0.9904761904761905,0.9904761904761905,0.9904761904761905,0.9904761904761905,0.9904761904761905,0.9904761904761905,0.9904761904761905,0.9904761904761905,0.9904761904761905,0.9904761904761905,0.9904761904761905,0.9809523809523809,0.9809523809523809,0.9809523809523809,0.9714285714285714,0.9619047619047619,0.9619047619047619,0.9428571428571428,0.9333333333333333,0.9238095238095239,0.9238095238095239,0.9142857142857143,0.9047619047619048,0.9047619047619048,0.8952380952380953,0.8857142857142857,0.8857142857142857,0.8761904761904762,0.8666666666666667,0.8476190476190476,0.8476190476190476,0.8380952380952381,0.8285714285714286,0.8285714285714286,0.819047619047619,0.8095238095238095,0.8095238095238095,0.8095238095238095,0.8095238095238095,0.8095238095238095,0.8095238095238095,0.8095238095238095,0.8,0.7904761904761904,0.780952380952381,0.7714285714285715,0.7619047619047619,0.7333333333333333,0.7142857142857143,0.6857142857142857,0.6571428571428571,0.6190476190476191,0.6,0.5714285714285714,0.5428571428571428,0.5142857142857142,0.49523809523809526,0.4666666666666667,0.42857142857142855,0.4,0.38095238095238093,0.3523809523809524,0.34285714285714286,0.3333333333333333,0.3142857142857143,0.3047619047619048,0.2857142857142857,0.2571428571428571,0.20952380952380953,0.17142857142857143,0.13333333333333333,0.10476190476190476,0.0761904761904762,0.05714285714285714,0.047619047619047616,0.0380952380952381,0.01904761904761905,0.01904761904761905,0.01904761904761905,0.01904761904761905,0.01904761904761905,0.01904761904761905,0.01904761904761905,0.01904761904761905,0.01904761904761905,0.01904761904761905,0.01904761904761905,0.01904761904761905,0.01904761904761905,0.01904761904761905,0.01904761904761905,0.01904761904761905,0.01904761904761905,0.01904761904761905,0.01904761904761905,0.01904761904761905,0.01904761904761905,0.01904761904761905,0.01904761904761905,0.01904761904761905,0.01904761904761905,0.01904761904761905,0.01904761904761905,0.01904761904761905,0.01904761904761905,0.01904761904761905,0.01904761904761905,0.0380952380952381,0.08571428571428572,0.14285714285714285,0.21904761904761905,0.29523809523809524,0.3904761904761905,0.45714285714285713,0.5142857142857142,0.5619047619047619,0.6,0.6285714285714286,0.6476190476190476,0.6571428571428571,0.6761904761904762,0.6952380952380952,0.6952380952380952,0.7142857142857143,0.7333333333333333,0.7523809523809524,0.7714285714285715,0.8095238095238095,0.8285714285714286,0.8666666666666667,0.9047619047619048,0.9238095238095239,0.9619047619047619,0.9619047619047619,0.9809523809523809,1,1.0095238095238095,1.0285714285714285,1.0380952380952382,1.0476190476190477,1.0761904761904761,1.0761904761904761,1.0857142857142856,1.1047619047619048,1.1142857142857143,1.1142857142857143,1.1142857142857143,1.1142857142857143,1.1142857142857143,1.1142857142857143,1.1142857142857143,1.1142857142857143,1.1142857142857143,1.1142857142857143,1.1142857142857143,1.1142857142857143,1.1142857142857143,1.1142857142857143,1.1142857142857143,1.1142857142857143,1.1142857142857143,1.1142857142857143,1.1142857142857143,1.1142857142857143,1.1142857142857143,1.1142857142857143,1.1142857142857143,1.1142857142857143,1.1142857142857143,1.1142857142857143,1.1142857142857143,1.1142857142857143,1.1142857142857143,1.1142857142857143,1.1142857142857143,1.1142857142857143,1.1142857142857143,1.1142857142857143,1.1142857142857143,1.1142857142857143,1.1142857142857143,1.1142857142857143,1.1142857142857143,1.1142857142857143,1.1142857142857143,1.1142857142857143,1.1142857142857143,1.1142857142857143,1.1142857142857143,1.1142857142857143,1.1142857142857143,1.1142857142857143,1.1142857142857143,1.1142857142857143,1.1142857142857143,1.1142857142857143,1.1142857142857143,1.1142857142857143,1.1142857142857143,1.1142857142857143,1.1142857142857143,1.1142857142857143,1.1142857142857143,1.1142857142857143,1.1142857142857143,1.1142857142857143,1.1142857142857143,1.1142857142857143,1.1142857142857143,1.1142857142857143,1.1142857142857143,1.0761904761904761,0.9714285714285714,0.8666666666666667,0.7142857142857143,0.5904761904761905,0.4666666666666667,0.37142857142857144,0.3047619047619048,0.23809523809523808,0.18095238095238095,0.12380952380952381,0.0761904761904762,0.01904761904761905,-0.02857142857142857,-0.06666666666666667,-0.08571428571428572,-0.10476190476190476,-0.10476190476190476,-0.10476190476190476,-0.10476190476190476,-0.08571428571428572,-0.0761904761904762,-0.06666666666666667,-0.06666666666666667,-0.05714285714285714,-0.047619047619047616,-0.047619047619047616,-0.02857142857142857,-0.02857142857142857,-0.02857142857142857,-0.02857142857142857,-0.02857142857142857,-0.02857142857142857,-0.02857142857142857,-0.02857142857142857,-0.02857142857142857,-0.01904761904761905,-0.009523809523809525,-0.009523809523809525,-0.009523809523809525,-0.009523809523809525,-0.009523809523809525,-0.009523809523809525,-0.009523809523809525,-0.009523809523809525,-0.009523809523809525,-0.009523809523809525,-0.009523809523809525,-0.009523809523809525,-0.009523809523809525,-0.009523809523809525,-0.009523809523809525,-0.009523809523809525,-0.009523809523809525,-0.009523809523809525,-0.009523809523809525,-0.009523809523809525,-0.009523809523809525,-0.009523809523809525,-0.009523809523809525,-0.009523809523809525,-0.009523809523809525,0,0,0,0.009523809523809525,0.009523809523809525,0.02857142857142857,0.05714285714285714,0.09523809523809523,0.13333333333333333,0.17142857142857143,0.20952380952380953,0.24761904761904763,0.2761904761904762,0.3047619047619048,0.3238095238095238,0.3523809523809524,0.38095238095238093,0.4,0.41904761904761906,0.4380952380952381,0.4666666666666667,0.49523809523809526,0.5047619047619047,0.5333333333333333,0.5428571428571428,0.5714285714285714,0.5904761904761905,0.6095238095238096,0.6285714285714286,0.6476190476190476,0.6666666666666666,0.6857142857142857,0.6952380952380952,0.7238095238095238,0.7333333333333333,0.7523809523809524,0.7714285714285715,0.780952380952381,0.7904761904761904,0.8095238095238095,0.8095238095238095,0.8285714285714286,0.8380952380952381,0.8476190476190476,0.8571428571428571,0.8666666666666667,0.8761904761904762,0.8857142857142857,0.8857142857142857,0.8952380952380953,0.9047619047619048,0.9142857142857143,0.9238095238095239,0.9238095238095239,0.9333333333333333,0.9333333333333333,0.9428571428571428,0.9428571428571428,0.9428571428571428,0.9523809523809523,0.9523809523809523,0.9523809523809523,0.9523809523809523,0.9523809523809523,0.9523809523809523,0.9523809523809523,0.9523809523809523,0.9523809523809523,0.9523809523809523,0.9523809523809523,0.9523809523809523,0.9523809523809523,0.9523809523809523,0.9523809523809523,0.9523809523809523,0.9523809523809523,0.9523809523809523,0.9523809523809523,0.9523809523809523,0.9523809523809523,0.9523809523809523,0.9523809523809523,0.9523809523809523,0.9523809523809523,0.9523809523809523,0.9523809523809523,0.9523809523809523,0.9523809523809523,0.9523809523809523,0.9523809523809523,0.9523809523809523,0.9523809523809523,0.9619047619047619,0.9619047619047619,0.9619047619047619,0.9619047619047619,0.9619047619047619,0.9619047619047619,0.9714285714285714,0.9809523809523809,0.9904761904761905,1,1.0095238095238095,1.019047619047619,1.0285714285714285,1.0380952380952382,1.0380952380952382,1.0380952380952382,1.0380952380952382,1.0380952380952382,1.0571428571428572,1.0761904761904761,1.1047619047619048,1.1142857142857143,1.1238095238095238,1.1428571428571428,1.1428571428571428,1.1523809523809523,1.1523809523809523,1.1523809523809523,1.1523809523809523,1.1523809523809523,1.1523809523809523,1.1523809523809523,1.1523809523809523,1.1523809523809523,1.1523809523809523,1.1523809523809523,1.1523809523809523,1.1523809523809523,1.1523809523809523,1.1523809523809523,1.1523809523809523,1.1428571428571428,1.1333333333333333,1.1333333333333333,1.1238095238095238,1.1238095238095238,1.1238095238095238,1.1238095238095238,1.1238095238095238,1.1238095238095238,1.1238095238095238,1.1238095238095238,1.1142857142857143,1.1142857142857143,1.1142857142857143,1.1142857142857143,1.1142857142857143,1.1142857142857143,1.1142857142857143,1.1142857142857143,1.1142857142857143,1.1142857142857143,1.1142857142857143,1.1142857142857143,1.1142857142857143,1.1142857142857143,1.1142857142857143,1.1142857142857143,1.1142857142857143,1.1142857142857143,1.1142857142857143,1.1142857142857143,1.1142857142857143,1.1142857142857143,1.1142857142857143,1.1142857142857143,1.1142857142857143,1.1142857142857143,1.1142857142857143,1.1142857142857143,1.1142857142857143,1.1142857142857143,1.1142857142857143,1.1142857142857143,1.1142857142857143,1.1142857142857143,1.1142857142857143,1.1142857142857143,1.1142857142857143,1.1142857142857143,1.1142857142857143,1.1142857142857143,1.1142857142857143,1.1142857142857143,1.0952380952380953,1.0761904761904761,1.0571428571428572,1.0380952380952382,1,0.9619047619047619,0.9142857142857143,0.8666666666666667,0.819047619047619,0.7714285714285715,0.7238095238095238,0.6666666666666666,0.6,0.5333333333333333,0.4666666666666667,0.4,0.3523809523809524,0.3047619047619048,0.2571428571428571,0.2,0.17142857142857143,0.12380952380952381,0.10476190476190476,0.0761904761904762,0.047619047619047616,0.0380952380952381,0.009523809523809525,0,-0.02857142857142857,-0.0380952380952381,-0.06666666666666667,-0.08571428571428572,-0.10476190476190476,-0.11428571428571428,-0.12380952380952381,-0.13333333333333333,-0.13333333333333333,-0.13333333333333333,-0.13333333333333333,-0.13333333333333333,-0.13333333333333333,-0.13333333333333333,-0.13333333333333333,-0.13333333333333333,-0.13333333333333333,-0.13333333333333333,-0.13333333333333333,-0.13333333333333333,-0.13333333333333333,-0.13333333333333333,-0.12380952380952381,-0.09523809523809523,-0.0761904761904762,-0.047619047619047616,-0.02857142857142857,-0.01904761904761905,-0.009523809523809525,-0.009523809523809525,-0.009523809523809525,-0.009523809523809525,-0.009523809523809525,-0.009523809523809525,-0.009523809523809525,-0.009523809523809525,-0.009523809523809525,-0.009523809523809525,-0.009523809523809525,-0.009523809523809525,-0.009523809523809525,-0.009523809523809525,-0.009523809523809525,-0.009523809523809525,-0.009523809523809525,-0.009523809523809525,-0.009523809523809525,-0.009523809523809525,-0.009523809523809525,-0.009523809523809525,-0.009523809523809525,-0.009523809523809525,-0.009523809523809525,-0.009523809523809525,-0.009523809523809525,-0.009523809523809525,-0.009523809523809525,-0.009523809523809525,-0.009523809523809525,-0.009523809523809525,-0.009523809523809525,-0.009523809523809525,-0.009523809523809525,-0.009523809523809525,-0.009523809523809525,-0.009523809523809525,-0.009523809523809525,-0.009523809523809525,-0.009523809523809525,0,0.02857142857142857,0.047619047619047616,0.06666666666666667,0.08571428571428572,0.10476190476190476,0.12380952380952381,0.1619047619047619,0.18095238095238095,0.2,0.22857142857142856,0.2571428571428571,0.2761904761904762,0.3142857142857143,0.3333333333333333,0.3523809523809524,0.37142857142857144,0.3904761904761905,0.4095238095238095,0.42857142857142855,0.4380952380952381,0.45714285714285713,0.4666666666666667,0.4666666666666667,0.4857142857142857,0.49523809523809526,0.5047619047619047,0.5047619047619047,0.5142857142857142,0.5238095238095238,0.5238095238095238,0.5333333333333333,0.5333333333333333,0.5428571428571428,0.5428571428571428,0.5523809523809524,0.5619047619047619,0.5714285714285714,0.580952380952381,0.580952380952381,0.580952380952381,0.580952380952381,0.580952380952381,0.580952380952381,0.5904761904761905,0.5904761904761905,0.5904761904761905,0.5904761904761905,0.6,0.6,0.6,0.6,0.6,0.6,0.6,0.6,0.6,0.6,0.6,0.6,0.6,0.6,0.6,0.6,0.6,0.6,0.6,0.6,0.6,0.6,0.6,0.6,0.6,0.6,0.6,0.6,0.6,0.6,0.6,0.6,0.6,0.6,0.6,0.6,0.6,0.6,0.6,0.6,0.6,0.6,0.6,0.6,0.6,0.6,0.6,0.6,0.6,0.6,0.6,0.6,0.6,0.6,0.6,0.6095238095238096,0.6095238095238096,0.6095238095238096,0.6095238095238096,0.6095238095238096,0.6095238095238096,0.6190476190476191,0.6285714285714286,0.638095238095238,0.6571428571428571,0.6571428571428571,0.6666666666666666,0.6666666666666666,0.6857142857142857,0.6952380952380952,0.7047619047619048,0.7142857142857143,0.7238095238095238,0.7333333333333333,0.7333333333333333,0.7333333333333333,0.7428571428571429,0.7428571428571429,0.7523809523809524,0.7714285714285715,0.780952380952381,0.8,0.8095238095238095,0.8095238095238095,0.819047619047619,0.819047619047619,0.8285714285714286,0.8380952380952381,0.8476190476190476,0.8476190476190476,0.8571428571428571,0.8761904761904762,0.8857142857142857,0.8952380952380953,0.9047619047619048,0.9142857142857143,0.9238095238095239,0.9333333333333333,0.9523809523809523,0.9619047619047619,0.9714285714285714,0.9904761904761905,1,1.0095238095238095,1.0285714285714285,1.0380952380952382,1.0571428571428572,1.0666666666666667,1.0857142857142856,1.0857142857142856,1.0952380952380953,1.1047619047619048,1.1142857142857143,1.1142857142857143,1.1142857142857143,1.1142857142857143,1.1142857142857143,1.1142857142857143,1.1238095238095238,1.1428571428571428,1.1523809523809523,1.1523809523809523,1.1523809523809523,1.1714285714285715,1.180952380952381,1.1904761904761905,1.1904761904761905,1.1904761904761905,1.1904761904761905,1.2,1.2095238095238094,1.2190476190476192,1.2190476190476192,1.2190476190476192,1.2285714285714286,1.2285714285714286,1.2285714285714286,1.2285714285714286,1.2285714285714286,1.2285714285714286,1.2285714285714286,1.2285714285714286,1.2285714285714286,1.2285714285714286,1.2285714285714286,1.2285714285714286,1.2285714285714286,1.2285714285714286,1.2285714285714286,1.2476190476190476,1.2571428571428571]},"final_keyboard_state":["E","A","Z","B","R"],"num_clicks":5,"points":15,"cheat":false,"trial_type":"Hangman","trial_index":5,"time_elapsed":55056,"internal_node_id":"0.0-4.0","protocol_sum":"","subject_identifier":139,"subject_sum":[199,92,182,106,226,141,142,188,110,222,208,2,194,138,139,160,208,109,58,120,198,181,203,249,178,173,224,81,240,119,90,196],"subject_pair":69,"STUDY_ID":"669a702db1122fc5150a13ce","PROLIFIC_PID":"662047d9ef8599fb4c8a00d5","SESSION_ID":"669b43fc63926528d1caf739","practice_instructions":1,"leaderboard_instructions":0,"bonus":2,"reveal_word":true,"self_rating":"3","confidence":"69"},{"view_history":"[{\"page_index\":0,\"viewing_time\":3697.4000000953674},{\"page_index\":1,\"viewing_time\":18757.099999904633}]","rt":22454.800000071526,"trial_type":"instructions","trial_index":6,"time_elapsed":77512,"internal_node_id":"0.0-5.0","protocol_sum":"","subject_identifier":139,"subject_sum":[199,92,182,106,226,141,142,188,110,222,208,2,194,138,139,160,208,109,58,120,198,181,203,249,178,173,224,81,240,119,90,196],"subject_pair":69,"STUDY_ID":"669a702db1122fc5150a13ce","PROLIFIC_PID":"662047d9ef8599fb4c8a00d5","SESSION_ID":"669b43fc63926528d1caf739","practice_instructions":1,"leaderboard_instructions":0,"bonus":2,"reveal_word":true,"self_rating":"3","confidence":"69"},{"rt":9725,"responses":"{\"Q0\":\"...from <b>a previous session</b> that is part of the upcoming tournament.\"}","question_order":"[0]","trial_type":"survey-multi-choice","trial_index":7,"time_elapsed":87238,"internal_node_id":"0.0-6.0","protocol_sum":"","subject_identifier":139,"subject_sum":[199,92,182,106,226,141,142,188,110,222,208,2,194,138,139,160,208,109,58,120,198,181,203,249,178,173,224,81,240,119,90,196],"subject_pair":69,"correct":false,"test_part":"multichoice_leaderboard","STUDY_ID":"669a702db1122fc5150a13ce","PROLIFIC_PID":"662047d9ef8599fb4c8a00d5","SESSION_ID":"669b43fc63926528d1caf739","practice_instructions":1,"leaderboard_instructions":0,"bonus":2,"reveal_word":true,"self_rating":"3","confidence":"69"},{"view_history":"[{\"page_index\":0,\"viewing_time\":1927.5}]","rt":1927.7000000476837,"trial_type":"instructions","trial_index":8,"time_elapsed":89166,"internal_node_id":"0.0-7.0-0.0","protocol_sum":"","subject_identifier":139,"subject_sum":[199,92,182,106,226,141,142,188,110,222,208,2,194,138,139,160,208,109,58,120,198,181,203,249,178,173,224,81,240,119,90,196],"subject_pair":69,"STUDY_ID":"669a702db1122fc5150a13ce","PROLIFIC_PID":"662047d9ef8599fb4c8a00d5","SESSION_ID":"669b43fc63926528d1caf739","practice_instructions":1,"leaderboard_instructions":0,"bonus":2,"reveal_word":true,"self_rating":"3","confidence":"69"},{"rt":2786.600000023842,"responses":"{\"Q0\":\"...from <b>a previous session</b> that is not part of the upcoming tournament.\"}","question_order":"[0]","trial_type":"survey-multi-choice","trial_index":9,"time_elapsed":91953,"internal_node_id":"0.0-7.0-1.0","protocol_sum":"","subject_identifier":139,"subject_sum":[199,92,182,106,226,141,142,188,110,222,208,2,194,138,139,160,208,109,58,120,198,181,203,249,178,173,224,81,240,119,90,196],"subject_pair":69,"correct":true,"test_part":"multichoice_leaderboard","STUDY_ID":"669a702db1122fc5150a13ce","PROLIFIC_PID":"662047d9ef8599fb4c8a00d5","SESSION_ID":"669b43fc63926528d1caf739","practice_instructions":1,"leaderboard_instructions":0,"bonus":2,"reveal_word":true,"self_rating":"3","confidence":"69"},{"view_history":"[{\"page_index\":0,\"viewing_time\":21529.400000095367}]","rt":21529.400000095367,"trial_type":"instructions","trial_index":10,"time_elapsed":113483,"internal_node_id":"0.0-8.0","protocol_sum":"","subject_identifier":139,"subject_sum":[199,92,182,106,226,141,142,188,110,222,208,2,194,138,139,160,208,109,58,120,198,181,203,249,178,173,224,81,240,119,90,196],"subject_pair":69,"STUDY_ID":"669a702db1122fc5150a13ce","PROLIFIC_PID":"662047d9ef8599fb4c8a00d5","SESSION_ID":"669b43fc63926528d1caf739","practice_instructions":1,"leaderboard_instructions":0,"bonus":2,"reveal_word":true,"self_rating":"3","confidence":"69"},{"rt":7818.299999952316,"responses":"{\"Q0\":\"...players' leaderboard position (in terms of <b>points</b>) in an <b>upcoming tournament.</b>\"}","question_order":"[0]","trial_type":"survey-multi-choice","trial_index":11,"time_elapsed":121302,"internal_node_id":"0.0-9.0","protocol_sum":"","subject_identifier":139,"subject_sum":[199,92,182,106,226,141,142,188,110,222,208,2,194,138,139,160,208,109,58,120,198,181,203,249,178,173,224,81,240,119,90,196],"subject_pair":69,"correct":true,"test_part":"multichoice_tournament","STUDY_ID":"669a702db1122fc5150a13ce","PROLIFIC_PID":"662047d9ef8599fb4c8a00d5","SESSION_ID":"669b43fc63926528d1caf739","practice_instructions":1,"leaderboard_instructions":0,"bonus":2,"reveal_word":true,"self_rating":"3","confidence":"69"},{"view_history":"[{\"page_index\":0,\"viewing_time\":7448.5}]","rt":7448.600000023842,"trial_type":"instructions","trial_index":12,"time_elapsed":128751,"internal_node_id":"0.0-11.0","protocol_sum":"","subject_identifier":139,"subject_sum":[199,92,182,106,226,141,142,188,110,222,208,2,194,138,139,160,208,109,58,120,198,181,203,249,178,173,224,81,240,119,90,196],"subject_pair":69,"STUDY_ID":"669a702db1122fc5150a13ce","PROLIFIC_PID":"662047d9ef8599fb4c8a00d5","SESSION_ID":"669b43fc63926528d1caf739","practice_instructions":1,"leaderboard_instructions":0,"bonus":2,"reveal_word":true,"self_rating":"3","confidence":"69"},{"view_history":"[{\"page_index\":0,\"viewing_time\":16045.299999952316}]","rt":16045.5,"trial_type":"instructions","trial_index":13,"time_elapsed":144797,"internal_node_id":"0.0-12.0-0.0","protocol_sum":"","subject_identifier":139,"subject_sum":[199,92,182,106,226,141,142,188,110,222,208,2,194,138,139,160,208,109,58,120,198,181,203,249,178,173,224,81,240,119,90,196],"subject_pair":69,"STUDY_ID":"669a702db1122fc5150a13ce","PROLIFIC_PID":"662047d9ef8599fb4c8a00d5","SESSION_ID":"669b43fc63926528d1caf739","practice_instructions":1,"leaderboard_instructions":0,"bonus":2,"reveal_word":true,"self_rating":"3","confidence":"69"},{"rt":10273.700000047684,"response":"THIRTY FOUR","responses":["THIRTY FOUR"],"trial_type":"type-this","trial_index":14,"time_elapsed":155573,"internal_node_id":"0.0-12.0-1.0","protocol_sum":"","subject_identifier":139,"subject_sum":[199,92,182,106,226,141,142,188,110,222,208,2,194,138,139,160,208,109,58,120,198,181,203,249,178,173,224,81,240,119,90,196],"subject_pair":69,"STUDY_ID":"669a702db1122fc5150a13ce","PROLIFIC_PID":"662047d9ef8599fb4c8a00d5","SESSION_ID":"669b43fc63926528d1caf739","practice_instructions":1,"leaderboard_instructions":0,"bonus":2,"reveal_word":true,"self_rating":"3","confidence":"69"},{"word":"THIRTY FOUR","click_log":{"letter":["","E","A","I","T","H","R","Y","F","O","U"],"t":[0,4380.599999904633,8749.699999928474,17984.599999904633,24855,26766.699999928474,29921.399999976158,32013.5,35413.59999990463,36064.699999928474,36694.59999990463],"hit":[null,0,0,1,2,1,2,1,1,1,1],"asked":["","E","EA","EAI","EAIT","EAITH","EAITHR","EAITHRY","EAITHRYF","EAITHRYFO","EAITHRYFOU"],"word_state":["______ ____","______ ____","______ ____","__I___ ____","T_I_T_ ____","THI_T_ ____","THIRT_ ___R","THIRTY ___R","THIRTY F__R","THIRTY FO_R","THIRTY FOUR"]},"hover_log":{"letter":["?","?","?","?","?","?","?","?","?","?","?","?","?","?","?","?","?","?","?","?","?","?","?","?","?","?","?","?","?","?","?","?","?","?","?","?","?","?","?","?","?","?","?","?","?","?","?","?","?","?","?","?","?","?","?","?","?","?","?","?","?","?","?","?","?","?","?","?","?","?","?","?","?","?","?","?","?","?","?","?","?","?","?","?","?","?","?","?","?","?","?","?","?","?","?","?","?","?","?","?","?","?","?","?","?","?","?","?","?","?","?","?","?","?","?","?","?","?","?","?","?","?","?","?","?","?","?","?","?","?","?","?","?","?","?","?","?","?","?","?","?","?","?","?","?","?","?","?","?","?","?","?","?","?","?","?","?","?","?","?","?","?","?","?","?","?","?","?","?","?","?","?","?","?","?","?","?","?","?","?","?","?","?","?","?","?","?","?","?","?","?","?","?","?","?","?","?","?","?","?","?","?","?","?","?","?","?","?","?","?","?","?","?","?","?","?","?","?","?","?","?","?","?","?","?","?","?","?","?","?","?","?","?","?","?","?","?","?","?","?","?","?","?","?","?","?","?","?","?","?","?","?","?","?","?","?","?","?","?","?","?","?","?","?","?","?","?","?","?","?","?","?","?","?","?","?","?","?","?","?","?","?","?","?","?","?","?","?","?","?","?","?","?","?","?","?","?","?","?","?","?","?","?","?","?","?","?","?","?","?","?","?","?","?","?","?","?","?","?","?","?","?","?","?","?","?","?","?","?","?","?","?","?","?","?","?","?","?","?","?","?","?","?","?","?","?","?","?","?","?","?","?","?","?","?","?","?","?","?","?","?","?","?","?","?","?","?","?","?","?","?","?","?","?","?","?","?","?","?","?","?","?","?","?","?","?","?","?","?","?","?","?","?","?","?","?","?","?","?","?","?","?","?","?","?","?","?","?","?","?","?","?","?","?","?","?","?","?","?","?","?","?","?","?","?","?","?","?","?","?","?","?","?","?","?","?","?","?","?","?","?","?","?","?","?","?","?","?","?","?","?","?","?","?","?","?","?","?","?","?","?","?","?","?","?","?","?","?","?","?","?","?","?","?","?","?","?","?","?","?","?","?","?","?","?","?","?","?","?","?","?","?","?","?","?","?","?","?","?","?","?","?","?","?","?","?","?","?","?","?","?","?","?","?","?","?","?","?","?","?","?","?","?","?","?","?","?","?","?","?","?","?","?","?","?","?","?","?","?","?","?","?","?","?","?","?","?","?","?","?","?","?","?","?","?","?","?","?","?","?","?","?","?","?","?","?","?","?","?","?","?","?","?","?","?","?","?","?","?","?","?","?","?","?","?","?","?","?","?","?","?","?","?","?","?","?","?","?","?","?","?","?","?","?","?","?","?","?","?","?","?","?","?","?","?","?","?","?","?","?","?","?","?","?","?","?","?","?","?","?","?","?","?","?","?","?","?","?","?","?","?","?","?","?","?","?","?","?","?","?","?","?","?","?","?","?","?","?","?","?","?","?","?","?","?","?","?","?","?","?","?","?","?","?","?","?","?","?","?","?","?","?","?","?","?","?","?","?","?","?","?","?","?","?","?","?","?","?","?","?","?","?","?","?","?","?","?","?","?","?","?","?","?","?","?","?","?","?","?","?","?","?","?","?","?","?","?","?","?","?","?","?","?","?","?","?","?","?","?","?","?","?","?","?","?","?","?","?","?","?","?","?","?","?","?","?","?","?","?","?","?","?","?","?","?","?","?","?","?","?","?","?","?","?","?","?","?","?","?","?","?","?","?","?","?","?","?","?","?","?","?","?","?","?","?","?","?","?","?","?","?","?","?","?","?","?","?","?","?","?","?","?","?","?","?","?","?","?","?","?","?","?","?","?","?","?","?","?","?","?","?","?","?","?","?","?","?","?","?","?","?","?","?","?","?","?","?","?","?","?","?","?","?","?","?","?","?","?","?","?","?","?","?","?","?","?","?","?","?","?","?","?","?","?","?","?","?","?","?","?","?","?","?","?","?","?","?","?","?","?","?","?","?","?","?","?","?","?","?","?","?","?","?","?","?","?","?","?","?","?","?","?","?","?","?","?","?","?","?","?","?","?","?","?","?","?","?","?","?","?","?","?","?","?","?","?","?","?","?","?","?","?","?","?","?","?","?","?","?","?","?","?","?","?","?","?","?","?","?","?","?","?","?","?","?","?","?","?","?","?","?","?","?","?","?","?","?","?","?","?","?","?","?","?","?","?","?","?","?","?","?","?","?","?","?","?","?","?","?","?","?","?","?","?","?","?","?","?","?","?","?","?","?","?","?","?","?","?","?","?","?","?","?","?","?","?","?","?","?","?","?","?","?","?","?","?","?","?","?","?","?","?","?","?","?","?","?","?","?","?","?","?","?","?","?","?","?","?","?","?","?","?","?","?","?","?","?","?","?","?","?","?","?","?","?","?","?","?","?","?","?","?","?","?","?","?","?","?","?","?","?","?","?","?","?","?","?","?","?","?","?","?","?","?","?","?","?","?","?","?","?","?","?","?","?","?","?","?","?","?","?","?","?","?","?","?","?","?","?","?","?","?","?","?","?","?","?","?","?","?","?","?","?","?","?","?","?","?","?","?","?","?","?","?","?","?","?","?","?","?","?","?","?","?","?","?","?","?","?","?","?","?","?","?","?","?","?","?","?","?","?","?","?","?","?","?","?","?","?","?","?","?","?","?","?","?","?","?","?","?","?","?","?","?","?","?","?","?","?","?","?","?","?","?","?","?","?","?","?","?","?","?","?","?","?","?","?","?","?","?","?","?","?","?","?","?","?","?","?","?","?","?","?","?","?","?","?","?","?","?","?","?","?","?","?","?","?","?","?","?","?","?","?","?","?","?","?","?","?","?","?","?","?","?","?","?","?","?","?","?","?","?","?","?","?","?","?","?","?","?","?","?","?","?","?","?","?","?","?","?","?","?","?","?","?","?","?","?","?","?","?","?","?","?","?","?","?","?","?","?","?","?","?","?","?","?","?","?","?","?","?","?","?","?","?","?","?","?","?","?","?","?","?","?","?","?","?","?","?","?","?","?","?","?","?","?","?","?","?","?","?","?","?","?","?","?","?","?","?","?","?","?","?","?","?","?","?","?","?","?","?","?","?","?","?","?","?","?","?","?","?","?","?","?","?","?","?","?","?","?","?","?","?","?","?","?","?","?","?","?","?","?","?","?","?","?","?","?","?","?","?","?","?","?","?","?","?","?","?","?","?","?","?","?","?","?","?","?","?","?","?","?","?","?","?","?","?","?","?","?","?","?","?","?","?","?","?","?","?","?","?","?","?","?","?","?","?","?","?","?","?","?","?","?","?","?","?","?","?","?","?","?","?","?","?","?","?","?","?","?","?","?","?","?","?","?","?","?","?","?","?","?","?","?","?","?","?","?","?","?","?","?","?","?","?","?","?","?","?","?","?","?","?","?","?","?","?","?","?","?","?","?","?","?","?","?","?","?","?","?","?","?","?","?","?","?","?","?","?","?","?","?","?","?","?","?","?","?","?","?","?","?","?","?","?","?","?","?","?","?","?","?","?","?","?","?","?","?","?","?","?","?","?","?","?","?","?","?","?","?","?","?","?","?","?","?","?","?","?","?","?","?","?","?","?","?","?","?","?","?","?","?","?","?","?","?","?","?","?","?","?","?","?","?","?","?","?","?","?","?","?","?","?","?","?","?","?","?","?","?","?","?","?","?","?","?","?","?","?","?","?","?","?","?","?","?","?","?","?","?","?","?","?","?","?","?","?","?","?","?","?","?","?","?","?","?","?","?","?","?","?","?","?","?","?","?","?","?","?","?","?","?","?","?","?","?","?","?","?","?","?","?","?","?","?","?","?","?","?","?","?","?","?","?","?","?","?","?","?","?","?","?","?","?","?","?","?","?","?","?","?","?","?","?","?","?","?","?","?","?","?","?","?","?","?","?","?","?","?","?","?","?","?","?","?","?","?","?","?","?","?","?","?","?","?","?","?","?","?","?","?","?","?","?","?","?","?","?","?","?","?","?","?","?","?","?","?","?","?","?","?","?","?","?","?","?","?","?","?","?","?","?","?","?","?","?","?","?","?","?","?","?","?","?","?","?","?","?","?","?","?","?","?","?","?","?","?","?","?","?","?","?","?","?","?","?","?","?","?","?","?","?","?","?","?","?","?","?","?","?","?","?","?","?","?","?","?","?","?","?","?","?","?","?","?","?","?","?","?","?","?","?","?","?","?","?","?","?","?","?","?","?","?","?","?","?","?","?","?","?","?","?","?","?","?","?","?","?","?","?","?","?","?","?","?","?","?","?","?","?","?","?","?","?","?","?","?","?","?","?","?","?","?","?","?","?","?","?","?","?","?","?","?","?","?","?","?","?","?","?","?","?","?","?","?","?","?","?","?","?","?","?","?","?","?","?","?","?","?","?","?","?","?","?","?","?","?","?","?","?","?","?","?","?","?","?","?","?","?","?","?","?","?","?","?","?","?","?","?","?","?","?","?","?","?","?","?","?","?","?","?","?","?","?","?","?","?","?","?","?","?","?","?","?","?","?","?","?","?","?","?","?","?","?","?","?","?","?","?","?","?","?","?","?","?","?","?","?","?","?","?","?","?","?","?","?","?","?","?","?","?","?","?","?","?","?","?","?","?","?","?","?","?","?","?","?","?","?","?","?","?","?","?","?","?","?","?","?","?","?","?","?","?","?","?","?","?","?","?","?","?","?","?","?","?","?","?","?","?","?","?","?","?","?","?","?","?","?","?","?","?","?","?","?","?","?","?","?","?","?","?","?","?","?","?","?","?","?","?","?","?","?","?","?","?","?","?","?","?","?","?","?","?","?","?","?","?","?","?","?","?","?","?","?","?","?","?","?","?","?","?","?","?","?","?","?","?","?","?","?","?","?","?","?","?","?","?","?","?","?","?","?","?","?","?","?","?","?","?","?","?","?","?","?","?","?","?","?","?","?","?","?","?","?","?","?","?","?","?","?","?","?","?","?","?","?","?","?","?","?","?","?","?","?","?","?","?","?","?","?","?","?","?","?","?","?","?","?","?","?","?","?","?","?","?","?","?","?","?","?","?","?","?","?","?","?","?","?","?","?","?","?","?","?","?","?","?","?","?","?","?","?","?","?","?","?","?","?","?","?","?","?","?","?","?","?","?","?","?","?","?","?","?","?","?","?","?","?","?","?","?","?","?","?","?","?","?","?","?","?","?","?","?","?","?","?","?","?","?","?","?","?","?","?","?","?","?","?","?","?","?","?","?","?","?","?","?","?","?","?","?","?","?","?","?","?","?","?","?","?","?","?","?","?","?","?","?","?","?","?","?","?","?","?","?","?","?","?","?","?","?","?","?","?","?","?","?","?","?","?","?","?","?","?","?","?","?","?","?","?","?","?","?","?","?","?","?","?","?","?","?","?","?","?","?","?","?","?","?","?","?","?","?","?","?","?","?","?","?","?","?","?","?","?","?","?","?","?","?","?","?","?","?","?","?","?","?","?","?","?","?","?","?","?","?","?","?","?","?","?","?","?","?","?","?","?","?","?","?","?","?","?","?","?","?","?","?","?","?","?","?","?","?","?","?","?","?","?","?","?","?","?","?","?","?","?","?","?","?","?","?","?","?","?","?","?","?","?","?","?","?","?","?","?","?","?","?","?","?","?","?","?","?","?","?","?","?","?","?","?","?","?","?","?","?","?","?","?","?","?","?","?","?","?","?","?","?","?","?","?","?","?","?","?","?","?","?","?","?","?","?","?","?","?","?","?","?","?","?","?","?","?","?","?","?","?","?","?","?","?","?","?","?","?","?","?","?","?","?","?","?","?","?","?","?","?","?","?","?","?","?","?","?","?","?","?","?","?","?","?","?","?","?","?","?","?","?","?","?","?","?","?","?","?","?","?","?","?","?","?","?","?","?","?","?","?","?","?","?","?","?","?","?","?","?","?","?","?","?","?","?","?","?","?","?","?","?","?","?","?","?","?","?","?","?","?","?","?","?","?","?","?","?","?","?","?","?","?","?","?","?","?","?","?","?","?","?","?","?","?","?","?","?","?","?","?","?","?","?","?","?","?","?","?","?","?","?","?","?","?","?","?","?","?","?","?","?","?","?","?","?","?","?","?","?","?","?","?","?","?","?","?","?","?","?","?","?","?","?","?","?","?","?","?","?","?","?","?","?","?","?","?","?","?","?","?","?","?","?","?","?","?","?","?","?","?","?","?","?","?","?","?","?","?","?","?","?","?","?","?","?","?","?","?","?","?","?","?","?","?","?","?","?","?","?","?","?","?","?","?","?","?","?","?","?","?","?","?","?","?","?","?","?","?","?","?","?","?","?","?","?","?","?","?","?","?","?","?","?","?","?","?","?","?","?","?","?","?","?","?","?","?","?","?","?","?","?","?","?","?","?","?","?","?","?","?","?","?","?","?","?","?","?","?","?","?","?","?","?","?","?","?","?","?","?","?","?","?","?","?","?","?","?","?","?","?","?","?","?","?","?","?","?","?","?","?","?","?","?","?","?","?","?","?","?","?","?","?","?","?","?","?","?","?","?","?","?","?","?","?","?","?","?","?","?","?","?","?","?","?","?","?","?","?","?","?","?","?","?","?","?","?","?","?","?","?","?","?","?","?","?","?","?","?","?","?","?","?","?","?","?","?","?","?","?","?","?","?","?","?","?","?","?","?","?","?","?","?","?","?","?","?","?","?","?","?","?","?","?","?","?","?","?","?","?","?","?","?","?","?","?","?","?","?","?","?","?","?","?","?","?","?","?","?","?","?","?","?","?","?","?","?","?","?","?","?","?","?","?","?","?","?","?","?","?","?","?","?","?","?","?","?","?","?","?","?","?","?","?","?","?","?","?","?","?","?","?","?","?","?","?","?","?","?","?","?","?","?","?","?","?","?","?","?","?","?","?","?","?","?","?","?","?","?","?","?","?","?","?","?","?","?","?","?","?","?","?","?","?","?","?","?","?","?","?","?","?","?","?","?","?","?","?","?","?","?","?","?","?","?","?","?","?","?","?","?","?","?","?","?","?","?","?","?","?","?","?","?","?","?","?","?","?","?","?","?","?","?","?","?","?","?","?","?","?","?","?","?","?","?","?","?","?","?","?","?","?","?","?","?","?","?","?","?","?","?","?","?","?","?","?","?","?","?","?","?","?","?","?","?","?","?","?","?","?","?","?","?","?","?","?","?","?","?","?","?","?","?","?","?","?","?","?","?","?","?","?","?","?","?","?","?","?","?","?","?","?","?","?","?","?","?","?","?","?","?","?","?","?","?","?","?","?","?","?","?","?","?","?","?","?","?","?","?","?","?","?","?","?","?","?","?","?","?","?","?","?","?","?","?","?","?","?","?","?","?","?","?","?","?","?","?","?","?","?","?","?","?","?","?","?","?","?","?","?","?","?","?","?","?","?","?","?","?","?","?","?","?","?","?","?","?","?","?","?","?","?","?","?","?","?","?","?","?","?","?","?","?","?","?","?","?","?","?","?","?","?","?","?","?","?","?","?","?","?","?","?","?","?","?","?","?","?","?","?","?","?","?","?","?","?","?","?","?","?","?","?","?","?","?","?","?","?","?","?","?","?","?","?","?","?","?","?","?","?","?","?","?","?","?","?","?","?","?","?","?","?","?","?","?","?","?","?","?","?","?","?","?","?","?","?","?","?","?","?","?","?","?","?","?","?","?","?","?","?","?","?","?","?","?","?","?","?","?","?","?","?","?","?","?","?","?","?","?","?","?","?","?","?","?","?","?","?","?","?","?","?","?","?","?","?","?","?","?","?","?","?","?","?","?","?","?","?","?","?","?","?","?","?","?","?","?","?","?","?","?","?","?","?","?","?","?","?","?","?","?","?","?","?","?","?","?","?","?","?","?","?","?","?","?","?","?","?","?","?","?","?","?","?","?","?","?","?","?","?","?","?","?","?","?","?","?","?","?","?","?","?","?","?","?","?","?","?","?","?","?","?","?","?","?","?","?","?","?","?","?","?","?","?","?","?","?","?","?","?","?","?","?","?","?","?","?","?","?","?","?","?","?","?","?","?","?","?","?","?","?","?","?","?","?","?","?","?","?","?","?","?","?","?","?","?","?","?","?","?","?","?","?","?","?","?","?","?","?","?","?","?","?","?","?","?","?","?","?","?","?","?","?","?","?","?","?","?","?","?","?","?","?","?","?","?","?","?","?","?","?","?","?","?","?","?","?","?","?","?","?","?","?","?","?","?","?","?","?","?","?","?","?","?","?","?","?","?","?","?","?","?","?","?","?","?","?","?","?","?","?","?","?","?","?","?","?","?","?","?","?","?","?","?","?","?","?","?","?","?","?","?","?","?","?","?","?","?","?","?","?","?","?","?","?","?","?","?","?","?","?","?","?","?","?","?","?","?","?","?","?","?","?","?","?","?","?","?","?","?","?","?","?","?","?","?","?","?","?","?","?","?","?","?","?","?","?","?","?","?","?","?","?","?","?","?","?","?","?","?","?","?","?","?","?","?","?","?","?","?","?","?","?","?","?","?","?","?","?","?","?","?","?","?","?","?","?","?","?","?","?","?","?","?","?","?","?","?","?","?","?","?","?","?","?","?","?","?","?","?","?","?","?","?","?","?","?","?","?","?","?","?","?","?","?","?","?","?","?","?","?","?","?","?","?","?","?","?","?","?","?","?","?","?","?","?","?","?","?","?","?","?","?","?","?","?","?","?","?","?","?","?","?","?","?","?","?","?","?","?","?","?","?","?","?","?","?","?","?","?","?","?","?","?","?","?","?","?","?","?","?","?","?","?","?","?","?","?","?","?","?","?","?","?","?","?","?","?","?","?","?","?","?","?","?","?","?","?","?","?","?","?","?","?","?","?","?","?","?","?","?","?","?","?","?","?","?","?","?","?","?","?","?","?","?","?","?","?","?","?","?","?","?","?","?","?","?","?","?","?","?","?","?","?","?","?","?","?","?","?","?","?","?","?","?","?","?","?","?","?","?","?","?","?","?","?","?","?","?","?","?","?","?","?","?","?","?","?","?","?","?","?","?","?","?","?","?","?","?","?","?","?","?","?","?","?","?","?","?","?","?","?","?","?","?","?","?","?","?","?","?","?","?","?","?","?","?","?","?","?","?","?","?","?","?","?","?","?","?","?","?","?","?","?","?","?","?","?","?","?","?","?","?","?","?","?","?","?","?","?","?","?","?","?","?","?","?","?","?","?","?","?","?","?","?","?","?","?","?","?","?","?","?","?","?","?","?","?","?","?","?","?","?","?","?","?","?","?","?","?","?","?","?","?","?","?","?","?","?","?","?","?","?","?","?","?","?","?","?","?","?","?","?","?","?","?","?","?","?","?","?","?","?","?","?","?","?","?","?","?","?","?","?","?","?","?","?","?","?","?","?","?","?","?","?","?","?","?","?","?","?","?","?","?","?","?","?","?","?","?","?","?","?","?","?","?","?","?","?","?","?","?","?","?","?","?","?","?","?","?","?","?","?","?","?","?","?","?","?","?","?","?","?","?","?","?","?","?","?","?","?","?","?","?","?","?","?","?","?","?","?","?","?","?","?","?","?","?","?","?","?","?","?","?","?","?","?","?","?","?","?","?","?","?","?","?","?","?","?","?","?","?","?","?","?","?","?","?","?","?","?","?","?","?","?","?","?","?","?","?","?","?","?","?","?","?","?","?","?","?","?","?","?","?","?","?","?","?","?","?","?","?","?","?","?","?","?","?","?","?","?","?","?","?","?","?","?","?","?","?","?","?","?","?","?","?","?","?","?","?","?","?","?","?","?","?","?","?","?","?","?","?","?","?","?","?","?","?","?","?","?","?","?","?","?","?","?","?","?","?","?","?","?","?","?","?","?","?","?","?","?","?","?","?","?","?","?","?","?","?","?","?","?","?","?","?","?","?","?","?","?","?","?","?","?","?","?","?","?","?","?","?","?","?","?","?","?","?","?","?","?","?","?","?","?","?","?","?","?","?","?","?","?","?","?","?","?","?","?","?","?","?","?","?","?","?","?","?","?","?","?","?","?","?","?","?","?","?","?","?","?","?","?","?","?","?","?","?","?","?","?","?","?","?","?","?","?","?","?","?","?","?","?","?","?","?","?","?","?","?","?","?","?","?","?","?","?","?","?","?","?","?","?","?","?","?","?","?","?","?","?","?","?","?","?","?","?","?","?","?","?","?","?","?","?","?","?","?","?","?","?","?","?","?","?","?","?","?","?","?","?","?","?","?","?","?","?","?","?","?","?","?","?","?","?","?","?","?","?","?","?","?","?","?","?","?","?","?","?","?","?","?","?","?","?","?","?","?","?","?","?","?","?","?","?","?","?","?","?","?","?","?","?","?","?","?","?","?","?","?","?","?","?","?","?","?","?","?","?","?","?","?","?","?","?","?","?","?","?","?","?","?","?","?","?","?","?","?","?","?","?","?","?","?","?","?","?","?","?","?","?","?","?","?","?","?","?","?","?","?","?","?","?","?","?","?","?","?","?","?","?","?","?","?","?","?","?","?","?","?","?","?","?","?","?","?","?","?","?","?","?","?","?","?","?","?","?","?","?","?","?","?","?","?","?","?","?","?","?","?","?","?","?","?","?","?","?","?","?","?","?","?","?","?","?","?","?","?","?","?","?","?","?","?","?","?","?","?","?","?","?","?","?","?","?","?","?","?","?","?","?","?","?","?","?","?","?","?","?","?","?","?","?","?","?","?","?","?","?","?","?","?","?","?","?","?","?","?","?","?","?","?","?","?","?","?","?","?","?","?","?","?","?","?","?","?","?","?","?","?","?","?","?","?","?","?","?","?","?","?","?","?","?","?","?","?","?","?","?","?","?","?","?","?","?","?","?","?","?","?","?","?","?","?","?","?","?","?","?","?","?","?","?","?","?","?","?","?","?","?","?","?","?","?","?","?","?","?","?","?","?","?","?","?","?","?","?","?","?","?","?","?","?","?","?","?","?","?","?","?","?","?","?","?","?","?","?","?","?","?","?","?","?","?","?","?","?","?","?","?","?","?","?","?","?","?","?","?","?","?","?","?","?","?","?","?","?","?","?","?","?","?","?","?","?","?","?","?","?","?","?","?","?","?","?","?","?","?","?","?","?","?","?","?","?","?","?","?","?","?","?","?","?","?","?","?","?","?","?","?","?","?","?","?","?","?","?","?","?","?","?","?","?","?","?","?","?","?","?","?","?","?","?","?","?","?","?","?","?","?","?","?","?","?","?","?","?","?","?","?","?","?","?","?","?","?","?","?","?","?","?","?","?","?","?","?","?","?","?","?","?","?","?","?","?","?","?","?","?","?","?","?","?","?","?","?","?","?","?","?","?","?","?","?","?","?","?","?","?","?","?","?","?","?","?","?","?","?","?","?","?","?","?","?","?","?","?","?","?","?","?","?","?","?","?","?","?","?","?","?","?","?","?","?","?","?","?","?","?","?","?","?","?","?","?","?","?","?","?","?","?","?","?","?","?","?","?","?","?","?","?","?","?","?","?","?","?","?","?","?","?","?","?","?","?","?","?","?","?","?","?","?","?","?","?","?","?","?","?","?","?","?","?","?","?","?","?","?","?","?","?","?","?","?","?","?","?","?","?","?","?","?","?","?","?","?","?","?","?","?","?","?","?","?","?","?","?","?","?","?","?","?","?","?","?","?","?","?","?","?","?","?","?","?","?","?","?","?","?","?","?","?","?","?","?","?","?","?","?","?","?","?","?","?","?","?","?","?","?","?","?","?","?","?","?","?","?","?","?","?","?","?","?","?","?","?","?","?","?","?","?","?","?","?","?","?","?","?","?","?","?","?","?","?","?","?","?","?","?","?","?","?","?","?","?","?","?","?","?","?","?","?","?","?","?","?","?","?","?","?","?","?","?","?","?","?","?","?","?","?","?","?","?","?","?","?","?","?","?","?","?","?","?","?","?","?","?","?","?","?","?","?","?","?","?","?","?","?","?","?","?","?","?","?","?","?","?","?","?","?","?","?","?","?","?","?","?","?","?","?","?","?","?","?","?","?","?","?","?","?","?","?","?","?","?","?","?","?","?","?","?","?","?","?","?","?","?","?","?","?","?","?","?","?","?","?","?","?","?","?","?","?","?","?","?","?","?","?","?","?","?","?","?","?","?","?","?","?","?","?","?","?","?","?","?","?","?","?","?","?","?","?","?","?","?","?","?","?","?","?","?","?","?","?","?","?","?","?","?","?","?","?","?","?","?","?","?","?","?","?","?","?","?","?","?","?","?","?","?","?","?","?","?","?","?","?","?","?","?","?","?","?","?","?","?","?","?","?","?","?","?","?","?","?","?","?","?","?","?","?","?","?","?","?","?","?","?","?","?","?","?","?","?","?","?","?","?","?","?","?","?","?","?","?","?","?","?","?","?","?","?","?","?","?","?","?","?","?","?","?","?","?","?","?","?","?","?","?","?","?","?","?","?","?","?","?","?","?","?","?","?","?","?","?","?","?","?","?","?","?","?","?","?","?","?","?","?","?","?","?","?","?","?","?","?","?","?","?","?","?","?","?","?","?","?","?","?","?","?","?","?","?","?","?","?","?","?","?","?","?","?","?","?","?","?","?","?","?","?","?","?","?","?","?","?","?","?","?","?","?","?","?","?","?","?","?","?","?","?","?","?","?","?","?","?","?","?","?","?","?","?","?","?","?","?","?","?","?","?","?","?","?","?","?","?","?","?","?","?","?","?","?","?","?","?","?","?","?","?","?","?","?","?","?","?","?","?","?","?","?","?","?","?","?","?","?","?","?","?","?","?","?","?","?","?","?","?","?","?","?","?","?","?","?","?","?","?","?","?","?","?","?","?","?","?","?","?","?","?","?","?","?","?","?","?","?","?","?","?","?","?","?","?","?","?","?","?","?","?","?","?","?","?","?","?","?","?","?","?","?","?","?","?","?","?","?","?","?","?","?","?","?","?","?","?","?","?","?","?","?","?","?","?","?","?","?","?","?","?","?","?","?","?","?","?","?","?","?","?","?","?","?","?","?","?","?","?","?","?","?","?","?","?","?","?","?","?","?","?","?","?","?","?","?","?","?","?","?","?","?","?","?","?","?","?","?","?","?","?","?","?","?","?","?","?","?","?","?","?","?","?","?","?","?","?","?","?","?","?","?","?","?","?","?","?","?","?","?","?","?","?","?","?","?","?","?","?","?","?","?","?","?","?","?","?","?","?","?","?","?","?","?","?","?","?","?","?","?","?","?","?","?","?","?","?","?","?","?","?","?","?","?","?","?","?","?","?","?","?","?","?","?","?","?","?","?","?","?","?","?","?","?","?","?","?","?","?","?","?","?","?","?","?","?","?","?","?","?","?","?","?","?","?","?","?","?","?","?","?","?","?","?","?","?","?","?","?","?","?","?","?","?","?","?","?","?","?","?","?","?","?","?","?","?","?","?","?","?","?","?","?","?","?","?","?","?","?","?","?","?","?","?","?","?","?","?","?","?","?","?","?","?","?","?","?","?","?","?","?","?","?","?","?","?","?","?","?","?","?","?","?","?","?","?","?","?","?","?","?","?","?","?","?","?","?","?","?","?","?","?","?","?","?","?","?","?","?","?","?","?","?","?","?","?","?","?","?","?","?","?","?","?","?","?","?","?","?","?","?","?","?","?","?","?","?","?","?","?","?","?","?","?","?","?","?","?","?","?","?","?","?","?","?","?","?","?","?","?","?","?","?","?","?","?","?","?","?","?","?","?","?","?","?","?","?","?","?","?","?","?","?","?","?","?","?","?","?","?","?","?","?","?","?","?","?","?","?","?","?","?","?","?","?","?","?","?","?","?","?","?","?","?","?","?","?","?","?","?","?","?","?","?","?","?","?","?","?","?","?","?","?","?","?","?","?","?","?","?","?","?","?","?","?","?","?","?","?","?","?","?","?","?","?","?","?","?","?","?","?","?","?","?","?","?","?","?","?","?","?","?","?","?","?","?","?","?","?","?","?","?","?","?","?","?","?","?","?","?","?","?","?","?","?","?","?","?","?","?","?","?","?","?","?","?","?","?","?","?","?","?","?","?","?","?","?","?","?","?","?","?","?","?","?","?","?","?","?","?","?","?","?","?","?","?","?","?","?","?","?","?","?","?","?","?","?","?","?","?","?","?","?","?","?","?","?","?","?","?","?","?","?","?","?","?","?","?","?","?","?","?","?","?","?","?","?","?","?","?","?","?","?","?","?","?","?","?","?","?","?","?","?","?","?","?","?","?","?","?","?","?","?","?","?","?","?","?","?","?","?","?","?","?","?","?","?","?","?","?","?","?","?","?","?","?","?","?","?","?","?","?","?","?","?","?","?","?","?","?","?","?","?","?","?","?","?","?","?","?","?","?","?","?","?","?","?","?","?","?","?","?","?","?","?","?","?","?","?","?","?","?","?","?","?","?","?","?","?","?","?","?","?","?","?","?","?","?","?","?","?","?","?","?","?","?","?","?","?","?","?","?","?","?","?","?","?","?","?","?","?","?","?","?","?","?","?","?","?","?","?","?","?","?","?","?","?","?","?","?","?","?","?","?","?","?","?","?","?","?","?","?","?","?","?","?","?","?","?","?","?","?","?","?","?","?","?","?","?","?","?","?","?","?","?","?","?","?","?","?","?","?","?","?","?","?","?","?","?","?","?","?","?","?","?","?","?","?","?","?","?","?","?","?","?","?","?","?","?","?","?","?","?","?","?","?","?","?","?","?","?","?","?","?","?","?","?","?","?","?","?","?","?","?","?","?","?","?","?","?","?","?","?","?","?","?","?","?","?","?","?","?","?","?","?","?","?","?","?","?","?","?","?","?","?","?","?","?","?","?","?","?","?","?","?","?","?","?","?","?","?","?","?","?","?","?","?","?","?","?","?","?","?","?","?","?","?","?","?","?","?","?","?","?","?","?","?","?","?","?","?","?","?","?","?","?","?","?","?","?","?","?","?","?","?","?","?","?","?","?","?","?","?","?","?","?","?","?","?","?","?","?","?","?","?","?","?","?","?","?","?","?","?","?","?","?","?","?","?","?","?","?","?","?","?","?","?","?","?","?","?","?","?","?","?","?","?","?","?","?","?","?","?","?","?","?","?","?","?","?","?","?","?","?","?","?","?","?","?","?","?","?","?","?","?","?","?","?","?","?","?","?","?","?","?","?","?","?","?","?","?","?","?","?","?","?","?","?","?","?","?","?","?","?","?","?","?","?","?","?","?","?","?","?","?","?","?","?","?","?","?","?","?","?","?","?","?","?","?","?","?","?","?","?","?","?","?","?","?","?","?","?","?","?","?","?","?","?","?","?","?","?","?","?","?","?","?","?","?","?","?","?","?","?","?","?","?","?","?","?","?","?","?","?","?","?","?","?","?","?","?","?","?","?","?","?","?","?","?","?","?","?","?","?","?","?","?","?","?","?","?","?","?","?","?","?","?","?","?","?","?","?","?","?","?","?","?","?","?","?","?","?","?","?","?","?","?","?","?","?","?","?","?","?","?","?","?","?","?","?","?","?","?","?","?","?","?","?","?","?","?","?","?","?","?","?","?","?","?","?","?","?","?","?","?","?","?","?","?","?","?","?","?","?","?","?","?","?","?","?","?","?","?","?","?","?","?","?","?","?","?","?","?","?","?","?","?","?","?","?","?","?","?","?","?","?","?","?","?","?","?","?","?","?","?","?","?","?","?","?","?","?","?","?","?","?","?","?","?","?","?","?","?","?","?","?","?","?","?","?","?","?","?","?","?","?","?","?","?","?","?","?","?","?","?","?","?","?","?","?","?","?","?","?","?","?","?","?","?","?","?","?","?","?","?","?","?","?","?","?","?","?","?","?","?","?","?","?","?","?","?","?","?","?","?","?","?","?","?","?","?","?","?","?","?","?","?","?","?","?","?","?","?","?","?","?","?","?","?","?","?","?","?","?","?","?","?","?","?","?","?","?","?","?","?","?","?","?","?","?","?","?","?","?","?","?","?","?","?","?","?","?","?","?","?","?","?","?","?","?","?","?","?","?","?","?","?","?","?","?","?","?","?","?","?","?","?","?","?","?","?","?","?","?","?","?","?","?","?","?","?","?","?","?","?","?","?","?","?","?","?","?","?","?","?","?","?","?","?","?","?","?","?","?","?","?","?","?","?","?","?","?","?","?","?","?","?","?","?","?","?","?","?","?","?","?","?","?","?","?","?","?","?","?","?","?","?","?","?","?","?","?","?","?","?","?","?","?","?","?","?","?","?","?","?","?","?","?","?","?","?","?","?","?","?","?","?","?","?","?","?","?","?","?","?","?","?","?","?","?","?","?","?","?","?","?","?","?","?","?","?","?","?","?","?","?","?","?","?","?","?","?","?","?","?","?","?","?","?","?","?","?","?","?","?","?","?","?","?","?","?","?","?","?","?","?","?","?","?","?","?","?","?","?","?","?","?","?","?","?","?","?","?","?","?","?","?","?","?","?","?","?","?","?","?","?","?","?","?","?","?","?","?","?","?","?","?","?","?","?","?","?","?","?","?","?","?","?","?","?","?","?","?","?","?","?","?","?","?","?","?","?","?","?","?","?","?","?","?","?","?","?","?","?","?","?","?","?","?","?","?","?","?","?","?","?","?","?","?","?","?","?","?","?","?","?","?","?","?","?","?","?","?","?","?","?","?","?","?","?","?","?","?","?","?","?","?","?","?","?","?","?","?","?","?","?","?","?","?","?","?","?","?","?","?","?","?","?","?","?","?","?","?","?","?","?","?","?","?","?","?","?","?","?","?","?","?","?","?","?","?","?","?","?","?","?","?","?","?","?","?","?","?","?","?","?","?","?","?","?","?","?","?","?","?","?","?","?","?","?","?","?","?","?","?","?","?","?","?","?","?","?","?","?","?","?","?","?","?","?","?","?","?","?","?","?","?","?","?","?","?","?","?","?","?","?","?","?","?","?","?","?","?","?","?","?","?","?","?","?","?","?","?","?","?","?","?","?","?","?","?","?","?","?","?","?","?","?","?","?","?","?","?","?","?","?","?","?","?","?","?","?","?","?","?","?","?","?","?","?","?","?","?","?","?","?","?","?","?","?","?","?","?","?","?","?","?","?","?","?","?","?","?","?","?","?","?","?","?","?","?","?","?","?","?","?","?","?","?","?","?","?","?","?","?","?","?","?","?","?","?","?","?","?","?","?","?","?","?","?","?","?","?","?","?","?","?","?","?","?","?","?","?","?","?","?","?","?","?","?","?","?","?","?","?","?","?","?","?","?","?","?","?","?","?","?","?","?","?","?","?","?","?","?","?","?","?","?","?","?","?","?","?","?","?","?","?","?","?","?","?","?","?","?","?","?","?","?","?","?","?","?","?","?","?","?","?","?","?","?","?","?","?","?","?","?","?","?","?","?","?","?","?","?","?","?","?","?","?","?","?","?","?","?","?","?","?","?","?","?","?","?","?","?","?","?","?","?","?","?","?","?","?","?","?","?","?","?","?","?","?","?","?","?","?","?","?","?","?","?","?","?","?","?","?","?","?","?","?","?","?","?","?","?","?","?","?","?","?","?","?","?","?","?","?","?","?","?","?","?","?","?","?","?","?","?","?","?","?","?","?","?","?","?","?","?","?","?","?","?","?","?","?","?","?","?","?","?","?","?","?","?","?","?","?","?","?","?","?","?","?","?","?","?","?","?","?","?","?","?","?","?","?","?","?","?","?","?","?","?","?","?","?","?","?","?","?","?","?","?","?","?","?","?","?","?","?","?","?","?","?","?","?","?","?","?","?","?","?","?","?","?","?","?","?","?","?","?","?","?","?","?","?","?","?","?","?","?","?","?","?","?","?","?","?","?","?","?","?","?","?","?","?","?","?","?","?","?","?","?","?","?","?","?","?","?","?","?","?","?","?","?","?","?","?","?","?","?","?","?","?","?","?","?","?","?","?","?","?","?","?","?","?","?","?","?","?","?","?","?","?","?","?","?","?","?","?","?","?","?","?","?","?","?","?","?","?","?","?","?","?","?","?","?","?","?","?","?","?","?","?","?","?","?","?","?","?","?","?","?","?","?","?","?","?","?","?","?","?","?","?","?","?","?","?","?","?","?","?","?","?","?","?","?","?","?","?","?","?","?","?","?","?","?","?","?","?","?","?","?","?","?","?","?","?","?","?","?","?","?","?","?","?","?","?","?","?","?","?","?","?","?","?","?","?","?","?","?","?","?","?","?","?","?","?","?","?","?","?","?","?","?","?","?","?","?","?","?","?","?","?","?","?","?","?","?","?","?","?","?","?","?","?","?","?","?","?","?","?","?","?","?","?","?","?","?","?","?","?","?","?","?","?","?","?","?","?","?","?","?","?","?","?","?","?","?","?","?","?","?","?","?","?","?","?","?","?","?","?","?","?","?","?","?","?","?","?","?","?","?","?","?","?","?","?","?","?","?","?","?","?","?","?","?","?","?","?","?","?","?","?","?","?","?","?","?","?","?","?","?","?","?","?","?","?","?","?","?","?","?","?","?","?","?","?","?","?","?","?","?","?","?","?","?","?","?","?","?","?","?","?","?","?","?","?","?","?","?","?","?","?","?","?","?","?","?","?","?","?","?","?","?","?","?","?","?","?","?","?","?","?","?","?","?","?","?","?","?","?","?","?","?","?","?","?","?","?","?","?","?","?","?","?","?","?","?","?","?","?","?","?","?","?","?","?","?","?","?","?","?","?","?","?","?","?","?","?","?","?","?","?","?","?","?","?","?","?","?","?","?","?","?","?","?","?","?","?","?","?","?","?","?","?","?","?","?","?","?","?","?","?","?","?","?","?","?","?","?","?","?","?","?","?","?","?","?","?","?","?","?","?","?","?","?","?","?","?","?","?","?","?","?","?","?","?","?","?","?","?","?","?","?","?","?","?","?","?","?","?","?","?","?","?","?","?","?","?","?","?","?","?","?","?","?","?","?","?","?","?","?","?","?","?","?","?","?","?","?","?","?","?","?","?","?","?","?","?","?","?","?","?","?","?","?","?","?","?","?","?","?","?","?","?","?","?","?","?","?","?","?","?","?","?","?","?","?","?","?","?","?","?","?","?","?","?","?","?","?","?","?","?","?","?","?","?","?","?","?","?","?","?","?","?","?","?","?","?","?","?","?","?","?","?","?","?","?","?","?","?","?","?","?","?","?","?","?","?","?","?","?","?","?","?","?","?","?","?","?","?","?","?","?","?","?","?","?","?","?","?","?","?","?","?","?","?","?","?","?","?","?","?","?","?","?","?","?","?","?","?","?","?","?","?","?","?","?","?","?","?","?","?","?","?","?","?","?","?","?","?","?","?","?","?","?","?","?","?","?","?","?","?","?","?","?","?","?","?","?","?","?","?","?","?","?","?","?","?","?","?","?","?","?","?","?","?","?","?","?","?","?","?","?","?","?","?","?","?","?","?","?","?","?","?","?","?","?","?","?","?","?","?","?","?","?","?","?","?","?","?","?","?","?","?","?","?","?","?","?","?","?","?","?","?","?","?","?","?","?","?","?","?","?","?","?","?","?","?","?","?","?","?","?","?","?","?","?","?","?","?","?","?","?","?","?","?","?","?","?","?","?","?","?","?","?","?","?","?","?","?","?","?","?","?","?","?","?","?","?","?","?","?","?","?","?","?","?","?","?","?","?","?","?","?","?","?","?","?","?","?","?","?","?","?","?","?","?","?","?","?","?","?","?","?","?","?","?","?","?","?","?","?","?","?","?","?","?","?","?","?","?","?","?","?","?","?","?","?","?","?","?","?","?","?","?","?","?","?","?","?","?","?","?","?","?","?","?","?","?","?","?","?","?","?","?","?","?","?","?","?","?","?","?","?","?","?","?","?","?","?","?","?","?","?","?","?","?","?","?","?","?","?","?","?","?","?","?","?","?","?","?","?","?","?","?","?","?","?","?","?","?","?","?","?","?","?","?","?","?","?","?","?","?","?","?","?","?","?","?","?","?","?","?","?","?","?","?","?","?","?","?","?","?","?","?","?","?","?","?","?","?","?","?","?","?","?","?","?","?","?","?","?","?","?","?","?","?","?","?","?","?","?","?","?","?","?","?","?","?","?","?","?","?","?","?","?","?","?","?","?","?","?","?","?","?","?","?","?","?","?","?","?","?","?","?","?","?","?","?","?","?","?","?","?","?","?","?","?","?","?","?","?","?","?","?","?","?","?","?","?","?","?","?","?","?","?","?","?","?","?","?","?","?","?","?","?","?","?","?","?","?","?","?","?","?","?","?","?","?","?","?","?","?","?","?","?","?","?","?","?","?","?","?","?","?","?","?","?","?","?","?","?","?","?","?","?","?","?","?","?","?","?","?","?","?","?","?","?","?","?","?","?","?","?","?","?","?","?","?","?","?","?","?","?","?","?","?","?","?","?","?","?","?","?","?","?","?","?","?","?","?","?","?","?","?","?","?","?","?","?","?","?","?","?","?","?","?","?","?","?","?","?","?","?","?","?","?","?","?","?","?","?","?","?","?","?","?","?","?","?","?","?","?","?","?","?","?","?","?","?","?","?","?","?","?","?","?","?","?","?","?","?","?","?","?","?","?","?","?","?","?","?","?","?","?","?","?","?","?","?","?","?","?","?","?","?","?","?","?","?","?","?","?","?","?","?","?","?","?","?","?","?","?","?","?","?","?","?","?","?","?","?","?","?","?","?","?","?","?","?","?","?","?","?","?","?","?","?","?","?","?","?","?","?","?","?","?","?","?","?","?","?","?","?","?","?","?","?","?","?","?","?","?","?","?","?","?","?","?","?","?","?","?","?","?","?","?","?","?","?","?","?","?","?","?","?","?","?","?","?","?","?","?","?","?","?","?","?","?","?","?","?","?","?","?","?","?","?","?","?","?","?","?","?","?","?","?","?","?","?","?","?","?","?","?","?","?","?","?","?","?","?","?","?","?","?","?","?","?","?","?","?","?","?","?","?","?","?","?","?","?","?","?","?","?","?","?","?","?","?","?","?","?","?","?","?","?","?","?","?","?","?","?","?","?","?","?","?","?","?","?","?","?","?","?","?","?","?","?","?","?","?","?","?","?","?","?","?","?","?","?","?","?","?","?","?","?","?","?","?","?","?","?","?","?","?","?","?","?","?","?","?","?","?","?","?","?","?","?","?","?","?","?","?","?","?","?","?","?","?","?","?","?","?","?","?","?","?","?","?","?","?","?","?","?","?","?","?","?","?","?","?","?","?","?","?","?","?","?","?","?","?","?","?","?","?","?","?","?","?","?","?","?","?","?","?","?","?","?","?","?","?","?","?","?","?","?","?","?","?","?","?","?","?","?","?","?","?","?","?","?","?","?","?","?","?","?","?","?","?","?","?","?","?","?","?","?","?","?","?","?","?","?","?","?","?","?","?","?","?","?","?","?","?","?","?","?","?","?","?","?","?","?","?","?","?","?","?","?","?","?","?","?","?","?","?","?","?","?","?","?","?","?","?","?","?","?","?","?","?","?","?","?","?","?","?","?","?","?","?","?","?","?","?","?","?","?","?","?","?","?","?","?","?","?","?","?","?","?","?","?","?","?","?","?","?","?","?","?","?","?","?","?","?","?","?","?","?","?","?","?","?","?","?","?","?","?","?","?","?","?","?","?","?","?","?","?","?","?","?","?","?","?","?","?","?","?","?","?","?","?","?","?","?","?","?","?","?","?","?","?","?","?","?","?","?","?","?","?","?","?","?","?","?","?","?","?","?","?","?","?","?","?","?","?","?","?","?","?","?","?","?","?","?","?","?","?","?","?","?","?","?","?","?","?","?","?","?","?","?","?","?","?","?","?","?","?","?","?","?","?","?","?","?","?","?","?","?","?","?","?","?","?","?","?","?","?","?","?","?","?","?","?","?","?","?","?","?","?","?","?","?","?","?","?","?","?","?","?","?","?","?","?","?","?","?","?","?","?","?","?","?","?","?","?","?","?","?","?","?","?","?","?","?","?","?","?","?","?","?","?","?","?","?","?","?","?","?","?","?","?","?","?","?","?","?","?","?","?","?","?","?","?","?","?","?","?","?","?","?","?","?","?","?","?","?","?","?","?","?","?","?","?","?","?","?","?","?","?","?","?","?","?","?","?","?","?","?","?","?","?","?","?","?","?","?","?","?","?","?","?","?","?","?","?","?","?","?","?","?","?","?","?","?","?","?","?","?","?","?","?","?","?","?","?","?","?","?","?","?","?","?","?","?","?","?","?","?","?","?","?","?","?","?","?","?","?","?","?","?","?","?","?","?","?","?","?","?","?","?","?","?","?","?","?","?","?","?","?","?","?","?","?","?","?","?","?","?","?","?","?","?","?","?","?","?","?","?","?","?","?","?","?","?","?","?","?","?","?","?","?","?","?","?","?","?","?","?","?","?","?","?","?","?","?","?","?","?","?","?","?","?","?","?","?","?","?","?","?","?","?","?","?","?","?","?","?","?","?","?","?","?","?","?","?","?","?","?","?","?","?","?","?","?","?","?","?","?","?","?","?","?","?","?","?","?","?","?","?","?","?","?","?","?","?","?","?","?","?","?","?","?","?","?","?","?","?","?","?","?","?","?","?","?","?","?","?","?","?","?","?","?","?","?","?","?","?","?","?","?","?","?","?","?","?","?","?","?","?","?","?","?","?","?","?","?","?","?","?","?","?","?","?","?","?","?","?","?","?","?","?","?","?","?","?","?","?","?","?","?","?","?","?","?","?","?","?","?","?","?","?","?","?","?","?","?","?","?","?","?","?","?","?","?","?","?","?","?","?","?","?","?","?","?","?","?","?","?","?","?","?","?","?","?","?","?","?","?","?","?","?","?","?","?","?","?","?","?","?","?","?","?","?","?","?","?","?","?","?","?","?","?","?","?","?","?","?","?","?","?","?","?","?","?","?","?","?","?","?","?","?","?","?","?","?","?","?","?","?","?","?","?","?","?","?","?","?","?","?","?","?","?","?","?","?","?","?","?","?","?","?","?","?","?","?","?","?","?","?","?","?","?","?","?","?","?","?","?","?","?","?","?","?","?","?","?","?","?","?","?","?","?","?","?","?","?","?","?","?","?","?","?","?","?","?","?","?","?","?","?","?","?","?","?","?","?","?","?","?","?","?","?","?","?","?","?","?","?","?","?","?","?","?","?","?","?","?","?","?","?","?","?","?","?","?","?","?","?","?","?","?","?","?","?","?","?","?","?","?","?","?","?","?","?","?","?","?","?","?","?","?","?","?","?","?","?","?","?","?","?","?","?","?","?","?","?","?","?","?","?","?","?","?","?","?","?","?","?","?","?","?","?","?","?","?","?","?","?","?","?","?","?","?","?","?","?","?","?","?","?","?","?","?","?","?","?","?","?","?","?","?","?","?","?","?","?","?","?","?","?","?","?","?","?","?","?","?","?","?","?","?","?","?","?","?","?","?","?","?","?","?","?","?","?","?","?","?","?","?","?","?","?","?","?","?","?","?","?","?","?","?","?","?","?","?","?","?","?","?","?","?","?","?","?","?","?","?","?","?","?","?","?","?","?","?","?","?","?","?","?","?","?","?","?","?","?","?","?","?","?","?","?","?","?","?","?","?","?","?","?","?","?","?","?","?","?","?","?","?","?","?","?","?","?","?","?","?","?","?","?","?","?","?","?","?","?","?","?","?","?","?","?","?","?","?","?","?","?","?","?","?","?","?","?","?","?","?","?","?","?","?","?","?","?","?","?","?","?","?","?","?","?","?","?","?","?","?","?","?","?","?","?","?","?","?","?","?","?","?","?","?","?","?","?","?","?","?","?","?","?","?","?","?","?","?","?","?","?","?","?","?","?","?","?","?","?","?","?","?","?","?","?","?","?","?","?","?","?","?","?","?","?","?","?","?","?","?","?","?","?","?","?","?","?","?","?","?","?","?","?","?","?","?","?","?","?","?","?","?","?","?","?","?","?","?","?","?","?","?","?","?","?","?","?","?","?","?","?","?","?","?","?","?","?","?","?","?","?","?","?","?","?","?","?","?","?","?","?","?","?","?","?","?","?","?","?","?","?","?","?","?","?","?","?","?","?","?","?","?","?","?","?","?","?","?","?","?","?","?","?","?","?","?","?","?","?","?","?","?","?","?","?","?","?","?","?","?","?","?","?","?","?","?","?","?","?","?","?","?","?","?","?","?","?","?","?","?","?","?","?","?","?","?","?","?","?","?","?","?","?","?","?","?","?","?","?","?","?","?","?","?","?","?","?","?","?","?","?","?","?","?","?","?","?","?","?","?","?","?","?","?","?","?","?","?","?","?","?","?","?","?","?","?","?","?","?","?","?","?","?","?","?","?","?","?","?","?","?","?","?","?","?","?","?","?","?","?","?","?","?","?","?","?","?","?","?","?","?","?","?","?","?","?","?","?","?","?","?","?","?","?","?","?","?","?","?","?","?","?","?","?","?","?","?","?","?","?","?","?","?","?","?","?","?","?","?","?","?","?","?","?","?","?","?","?","?","?","?","?","?","?","?","?","?","?","?","?","?","?","?","?","?","?","?","?","?","?","?","?","?","?","?","?","?","?","?","?","?","?","?","?","?","?","?","?","?","?","?","?","?","?","?","?","?","?","?","?","?","?","?","?","?","?","?","?","?","?","?","?","?","?","?","?","?","?","?","?","?","?","?","?","?","?","?","?","?","?","?","?","?","?","?","?","?","?","?","?","?","?","?","?","?","?","?","?","?","?","?","?","?","?","?","?","?","?","?","?","?","?","?","?","?","?","?","?","?","?","?","?","?","?","?","?","?","?","?","?","?","?","?","?","?","?","?","?","?","?","?","?","?","?","?","?","?","?","?","?","?","?","?","?","?","?","?","?","?","?","?","?","?","?","?","?","?","?","?","?","?","?","?","?","?","?","?","?","?","?","?","?","?","?","?","?","?","?","?","?","?","?","?","?","?","?","?","?","?","?","?","?","?","?","?","?","?","?","?","?","?","?","?","?","?","?","?","?","?","?","?","?","?","?","?","?","?","?","?","?","?","?","?","?","?","?","?","?","?","?","?","?","?","?","?","?","?","?","?","?","?","?","?","?","?","?","?","?","?","?","?","?","?","?","?","?","?","?","?","?","?","?","?","?","?","?","?","?","?","?","?","?","?","?","?","?","?","?","?","?","?","?","?","?","?","?","?","?","?","?","?","?","?","?","?","?","?","?","?","?","?","?","?","?","?","?","?","?","?","?","?","?","?","?","?","?","?","?","?","?","?","?","?","?","?","?","?","?","?","?","?","?","?","?","?","?","?","?","?","?","?","?","?","?","?","?","?","?","?","?","?","?","?","?","?","?","?","?","?","?","?","?","?","?