[{"success":true,"trial_type":"fullscreen","trial_index":0,"time_elapsed":11940,"internal_node_id":"0.0-0.0","protocol_sum":"","subject_identifier":411,"subject_sum":[248,128,154,255,77,105,190,206,121,218,190,53,190,12,112,139,137,13,126,175,184,65,241,33,51,6,103,183,125,46,37,144],"subject_pair":205,"STUDY_ID":"66a22c0758a3d5c9d26873c6","PROLIFIC_PID":"662f93c33fe9ba41a6319363","SESSION_ID":"66a2795153a366da6572b3c7","practice_instructions":1,"leaderboard_instructions":0,"bonus":0,"reveal_word":true,"self_rating":"2","confidence":"68"},{"view_history":"[{\"page_index\":0,\"viewing_time\":9117.099999904633}]","rt":9117.5,"trial_type":"instructions","trial_index":1,"time_elapsed":21059,"internal_node_id":"0.0-1.0","protocol_sum":"","subject_identifier":411,"subject_sum":[248,128,154,255,77,105,190,206,121,218,190,53,190,12,112,139,137,13,126,175,184,65,241,33,51,6,103,183,125,46,37,144],"subject_pair":205,"STUDY_ID":"66a22c0758a3d5c9d26873c6","PROLIFIC_PID":"662f93c33fe9ba41a6319363","SESSION_ID":"66a2795153a366da6572b3c7","practice_instructions":1,"leaderboard_instructions":0,"bonus":0,"reveal_word":true,"self_rating":"2","confidence":"68"},{"view_history":"[{\"page_index\":0,\"viewing_time\":874985.4000000954}]","rt":874985.7999999523,"trial_type":"instructions","trial_index":2,"time_elapsed":896045,"internal_node_id":"0.0-2.0-0.0","protocol_sum":"","subject_identifier":411,"subject_sum":[248,128,154,255,77,105,190,206,121,218,190,53,190,12,112,139,137,13,126,175,184,65,241,33,51,6,103,183,125,46,37,144],"subject_pair":205,"STUDY_ID":"66a22c0758a3d5c9d26873c6","PROLIFIC_PID":"662f93c33fe9ba41a6319363","SESSION_ID":"66a2795153a366da6572b3c7","practice_instructions":1,"leaderboard_instructions":0,"bonus":0,"reveal_word":true,"self_rating":"2","confidence":"68"},{"rt":12925.600000143051,"responses":"{\"Q0\":\"... reveal the word with as <b>few letter guesses</b> as possible\"}","question_order":"[0]","trial_type":"survey-multi-choice","trial_index":3,"time_elapsed":908973,"internal_node_id":"0.0-2.0-1.0","protocol_sum":"","subject_identifier":411,"subject_sum":[248,128,154,255,77,105,190,206,121,218,190,53,190,12,112,139,137,13,126,175,184,65,241,33,51,6,103,183,125,46,37,144],"subject_pair":205,"correct":true,"test_part":"multichoice_nonpretend","STUDY_ID":"66a22c0758a3d5c9d26873c6","PROLIFIC_PID":"662f93c33fe9ba41a6319363","SESSION_ID":"66a2795153a366da6572b3c7","practice_instructions":1,"leaderboard_instructions":0,"bonus":0,"reveal_word":true,"self_rating":"2","confidence":"68"},{"view_history":"[{\"page_index\":0,\"viewing_time\":5366.599999904633}]","rt":5366.899999856949,"trial_type":"instructions","trial_index":4,"time_elapsed":914342,"internal_node_id":"0.0-3.0","protocol_sum":"","subject_identifier":411,"subject_sum":[248,128,154,255,77,105,190,206,121,218,190,53,190,12,112,139,137,13,126,175,184,65,241,33,51,6,103,183,125,46,37,144],"subject_pair":205,"STUDY_ID":"66a22c0758a3d5c9d26873c6","PROLIFIC_PID":"662f93c33fe9ba41a6319363","SESSION_ID":"66a2795153a366da6572b3c7","practice_instructions":1,"leaderboard_instructions":0,"bonus":0,"reveal_word":true,"self_rating":"2","confidence":"68"},{"word":"ZEBRA","click_log":{"letter":["","A","S","B","W","P","R","Z","E"],"t":[0,6446.799999952316,15850.700000047684,23408,35047.299999952316,37899,40160.09999990463,42772.5,44308.200000047684],"hit":[null,1,0,1,0,0,1,1,1],"asked":["","A","AS","ASB","ASBW","ASBWP","ASBWPR","ASBWPRZ","ASBWPRZE"],"word_state":["_____","____A","____A","__B_A","__B_A","__B_A","__BRA","Z_BRA","ZEBRA"]},"hover_log":{"letter":["?","?","?","?","?","?","?","?","?","?","?","?","?","?","?","?","?","?","?","?","?","?","?","?","?","?","?","?","?","?","?","?","?","?","?","?","?","?","?","?","?","?","?","?","?","?","?","?","?","?","?","?","?","?","?","?","?","?","?","?","?","?","?","?","?","?","?","?","?","?","?","?","?","?","?","?","?","?","?","?","?","?","?","?","?","?","?","?","?","?","?","?","?","?","?","?","?","?","?","?","?","?","?","?","?","?","?","?","?","?","?","?","?","?","?","?","?","?","?","?","?","?","?","?","?","?","?","?","?","?","?","?","?","?","?","?","?","?","?","?","?","?","?","?","?","?","?","?","?","?","?","?","?","?","?","?","?","?","?","?","?","?","?","?","J","J","J","J","?","?","?","?","?","?","?","?","?","?","?","A","A","A","A","A","A","A","A","A","A","A","A","A","A","A","A","A","A","A","A","A","A","A","A","A","A","A","A","A","A","A","A","A","A","A","A","A","A","A","A","A","A","A","A","A","A","A","A","A","A","A","A","A","A","A","A","A","A","A","A","A","A","A","A","A","A","A","A","A","A","A","A","A","A","A","A","A","A","A","A","A","A","A","A","A","A","A","A","A","A","A","A","A","A","A","A","A","A","A","A","A","A","A","A","A","?","?","?","?","?","?","?","?","?","?","?","?","?","?","?","?","?","?","?","A","A","A","A","A","A","A","A","A","A","A","A","A","A","A","A","A","A","A","A","A","A","A","A","A","A","A","A","A","A","A","A","A","A","A","A","A","A","A","A","A","A","A","A","A","A","A","A","A","A","A","A","A","A","A","A","A","A","A","A","A","A","A","A","A","A","A","A","A","A","A","A","A","A","A","A","A","A","A","A","A","A","A","A","A","A","A","A","A","A","A","A","A","A","A","A","A","A","A","A","A","A","A","A","A","A","A","A","A","A","A","A","A","A","A","A","A","A","A","A","A","A","A","A","A","A","A","A","A","A","A","A","A","A","A","A","A","A","A","A","A","A","A","A","A","A","A","A","A","A","A","A","A","A","A","A","A","A","?","?","?","?","?","?","?","?","?","?","?","?","?","?","?","?","?","?","?","?","?","?","?","?","?","?","?","?","?","?","?","?","?","?","?","?","?","?","?","?","?","?","?","?","?","?","?","?","?","?","?","?","?","?","?","?","?","?","?","?","?","?","?","?","?","?","?","?","?","?","?","?","?","?","?","?","?","?","?","?","?","?","L","L","L","L","L","L","L","L","L","L","L","L","L","L","L","L","L","L","L","L","L","L","L","L","L","L","L","L","L","L","L","L","L","L","L","L","L","L","L","L","?","?","?","?","?","?","?","?","?","?","?","?","?","?","?","?","?","?","?","?","?","?","?","?","?","?","?","?","?","?","?","?","?","?","?","?","?","?","?","?","?","?","?","?","?","?","?","?","?","?","?","?","?","?","?","?","?","?","?","?","?","?","?","?","?","?","?","?","?","?","?","?","?","?","?","?","?","N","N","?","?","?","?","?","?","?","?","?","?","?","?","?","?","?","?","?","?","?","?","?","?","?","?","?","O","O","O","O","O","O","O","?","?","P","P","P","P","P","P","P","P","?","Q","Q","Q","Q","Q","Q","Q","Q","Q","Q","Q","Q","Q","Q","Q","?","?","?","?","?","?","?","?","?","?","?","?","?","?","?","?","?","?","?","?","?","?","?","?","?","?","?","?","?","?","?","?","?","?","?","?","?","?","?","?","?","?","?","?","?","?","?","?","?","R","R","R","R","R","R","R","R","R","R","R","R","R","R","R","R","R","R","R","R","R","R","R","R","R","R","R","R","R","R","R","R","?","?","Q","Q","Q","Q","Q","P","P","P","P","O","O","O","O","O","O","O","O","O","?","?","?","N","N","N","N","N","?","?","?","?","M","M","M","M","M","M","M","M","M","M","M","M","M","M","M","M","M","M","M","M","M","M","M","M","M","M","M","M","M","M","M","M","M","?","?","?","?","?","?","?","?","?","?","?","?","?","?","?","?","?","?","?","?","?","U","U","?","T","T","T","?","?","?","S","S","S","S","S","S","S","S","S","S","S","S","S","S","S","S","S","S","S","S","S","S","S","S","S","S","S","S","S","S","S","S","S","S","S","S","S","S","S","S","S","S","S","S","S","S","S","S","S","S","S","S","S","S","S","S","S","S","S","S","S","S","S","S","S","S","S","S","S","S","S","S","S","S","S","S","S","S","S","S","S","S","S","S","S","S","S","S","S","S","S","S","S","S","S","S","S","S","S","S","S","S","S","S","S","S","S","S","S","S","S","S","S","S","S","S","S","S","S","S","S","S","S","S","S","S","S","S","S","S","S","S","S","S","S","S","S","S","S","S","S","S","S","S","S","S","S","S","S","S","S","S","S","S","S","S","S","S","S","S","S","S","S","S","S","S","S","S","S","S","S","S","S","S","S","S","S","S","S","S","S","S","S","S","S","S","S","S","S","S","S","S","S","S","S","S","S","S","S","S","S","S","S","S","S","S","S","S","S","S","S","S","S","S","S","S","S","S","S","S","S","S","S","S","S","S","S","S","S","S","S","S","S","S","S","S","S","S","S","S","S","S","S","S","?","T","T","T","T","T","T","T","?","?","?","?","?","?","U","U","U","U","?","?","?","?","?","?","?","?","?","?","?","?","?","?","?","?","?","?","?","?","?","?","?","?","?","?","?","?","?","?","?","?","?","?","?","?","?","?","?","?","?","?","M","M","M","M","M","M","M","M","M","M","M","M","M","?","?","?","?","?","N","N","N","N","N","N","N","N","N","N","N","N","N","N","N","?","?","?","?","?","?","?","?","?","?","?","?","?","?","?","?","?","?","?","?","?","?","?","?","?","?","?","?","?","?","?","?","?","?","?","?","D","D","D","D","D","D","D","D","D","D","D","D","D","D","D","D","D","D","D","D","D","D","D","D","D","D","D","D","D","D","D","D","D","D","D","D","D","D","D","D","D","D","D","D","D","D","D","D","D","D","D","D","D","D","D","D","D","D","D","D","D","D","D","D","D","D","D","D","D","D","D","D","?","?","?","C","C","C","C","C","C","C","C","C","?","?","?","?","?","?","B","B","B","B","B","B","B","B","B","B","B","B","B","B","B","B","B","B","B","B","B","B","B","B","B","B","B","B","B","B","B","B","B","B","B","B","B","B","B","B","B","B","B","B","B","B","B","B","B","B","B","B","B","B","B","B","B","B","B","B","B","B","B","B","B","B","B","B","B","B","B","B","B","B","B","B","B","B","B","B","B","B","B","B","B","B","B","B","B","B","B","B","B","B","B","B","B","B","B","B","B","B","B","B","B","B","B","B","B","B","B","B","B","B","B","B","B","B","B","B","B","B","B","B","B","B","B","B","B","B","B","B","B","B","B","B","B","B","B","B","B","B","B","B","B","B","B","B","B","B","B","B","B","B","B","B","B","B","B","B","B","B","B","B","B","B","B","B","B","B","B","B","B","B","B","B","B","B","B","B","B","B","B","B","B","B","B","B","B","B","B","B","B","B","B","B","B","B","B","B","B","B","?","?","?","?","?","?","?","?","?","?","?","?","?","?","?","?","?","?","?","?","?","?","?","?","?","?","?","?","?","?","?","?","?","?","?","?","?","?","?","?","?","?","?","?","?","?","?","?","?","?","?","?","?","?","?","M","M","M","M","M","M","M","M","M","M","M","M","M","M","M","M","M","M","M","M","M","M","M","M","M","M","M","M","M","M","M","M","M","M","M","M","M","M","M","M","M","M","M","M","M","M","M","M","M","M","M","M","M","M","M","M","M","M","M","M","M","M","M","M","M","M","M","M","M","M","M","M","M","M","M","M","M","M","M","M","M","M","M","M","M","M","M","M","M","M","M","M","M","M","M","M","M","M","M","M","M","M","M","M","M","M","M","M","M","M","M","M","M","M","M","M","M","M","M","M","M","M","M","M","M","M","M","M","M","M","M","M","M","M","M","M","M","M","M","M","M","M","M","M","M","M","M","M","M","M","M","M","M","M","M","M","M","M","M","M","M","M","M","M","M","M","M","M","M","M","M","M","M","M","M","M","M","M","M","M","M","M","M","M","M","M","M","M","M","M","M","M","M","M","M","M","M","M","M","M","M","M","M","M","M","M","M","M","M","M","M","M","M","M","M","M","M","M","M","M","M","M","M","M","M","M","M","M","M","M","M","M","M","M","M","M","M","M","M","M","M","M","M","M","M","M","M","M","M","M","M","M","M","M","M","M","M","M","M","M","M","M","M","M","M","M","M","M","M","M","M","M","M","M","M","M","M","M","M","M","M","M","M","M","M","M","M","M","M","M","M","M","M","M","M","M","M","M","M","M","M","M","M","M","M","M","M","M","M","M","M","M","M","M","M","M","M","M","M","M","M","M","M","M","M","M","M","M","M","M","M","M","M","M","M","M","M","M","M","M","M","M","M","M","M","M","M","M","M","M","M","M","M","M","M","M","M","M","M","?","?","?","?","?","?","?","?","?","?","?","?","?","N","N","N","N","N","N","N","N","N","N","N","N","N","N","N","N","N","N","N","N","N","N","N","N","N","N","N","N","N","N","N","N","N","?","?","?","?","?","?","?","?","?","?","?","?","?","W","W","W","W","W","W","W","W","W","W","W","W","W","W","W","W","W","W","W","W","W","W","W","W","W","W","W","W","W","W","W","W","W","W","W","W","W","W","W","W","W","W","W","W","W","W","W","W","W","W","W","W","W","W","W","W","W","W","W","W","W","W","W","W","W","W","W","W","W","W","W","W","W","W","W","W","W","W","W","W","W","W","W","W","W","W","W","W","W","W","W","W","W","W","W","W","W","W","W","W","W","W","W","W","W","W","W","W","W","W","W","W","W","W","W","W","W","W","W","W","W","W","W","W","W","W","W","W","W","W","W","W","W","W","W","W","W","W","W","W","W","W","?","?","?","?","?","?","?","?","?","?","?","?","?","?","?","N","N","N","?","?","?","?","O","O","O","O","O","O","O","O","O","O","O","O","O","O","O","?","?","?","?","?","?","P","P","P","P","P","P","P","P","P","P","P","P","P","P","P","P","P","P","P","P","P","P","P","P","P","P","P","P","P","P","P","P","P","P","P","P","P","P","P","P","P","P","P","P","P","P","P","P","P","P","P","P","P","P","P","P","P","P","P","P","P","P","P","P","P","P","P","P","P","P","P","P","P","P","P","P","P","P","P","P","P","P","P","P","P","P","P","P","P","P","P","P","P","P","P","P","P","P","P","P","P","P","P","P","P","P","P","P","P","P","P","P","?","?","Q","Q","Q","Q","Q","Q","Q","Q","Q","Q","Q","Q","Q","Q","Q","Q","Q","?","?","?","?","?","R","R","R","R","R","R","R","R","R","R","R","R","R","R","R","R","R","R","R","R","R","R","R","R","R","R","R","R","R","R","R","R","R","R","R","R","R","R","R","R","R","R","R","R","R","R","R","R","R","R","R","R","R","R","R","R","R","R","R","R","R","R","R","R","R","R","R","R","R","R","R","R","R","R","R","R","R","R","R","R","R","R","R","R","R","R","R","R","R","R","R","R","R","R","R","R","R","R","R","R","R","R","R","R","R","R","R","R","R","R","R","R","R","R","R","R","R","R","R","R","R","R","R","R","R","R","R","?","?","Q","Q","Q","Q","Q","Q","Q","Q","Q","Q","?","?","?","?","?","?","?","?","?","?","?","?","?","?","?","?","?","?","?","?","?","?","Z","Z","Z","Z","Z","Z","Z","Z","Z","Z","Z","Z","Z","Z","Z","Z","Z","Z","Z","Z","Z","Z","Z","Z","Z","Z","Z","Z","Z","Z","Z","Z","Z","Z","Z","Z","Z","Z","Z","Z","Z","Z","Z","Z","Z","Z","Z","Z","Z","Z","Z","Z","Z","Z","Z","Z","?","?","?","?","O","O","O","O","O","O","O","O","O","O","O","O","?","?","?","?","?","?","?","?","?","?","?","?","?","?","?","?","?","?","E","E","E","E","E","E","E","E","E","E","E","E","E","E","E","E","E","E","E","E","E","E","E","E","E","E","E","E","E","E","E","E","E","E","E","E","E","E","E","E","E","E","E","E","E","E","E","E","E","E","E","E","E","E","E","E","E","E","E","E","E","E","E","E","E","E","E","E","E","E","E","E","E","E","E","E","E","E","E","E","E","E","E","E","E","E","E","E","E","E","E","E","E","E","E","E","E","E","E","E","E","E","E","E","E","E","E","E","E","E","E","E","E","E","E","E","E","E","E","E","E","E","E","E","E","E","E","E","E","E","E","E","E","E","E","E","E","E","E","E","E","E","E","E","E","E","E","E"],"t":[41,131,153,170,186,203,220,236,253,269,286,302,319,335,352,369,386,403,420,436,452,470,485,502,518,535,552,568,585,602,618,635,652,668,685,702,718,735,752,769,785,802,818,835,851,869,885,902,918,935,952,968,985,1001,1018,1035,1051,1068,1085,1101,1118,1135,1152,1168,1185,1203,1218,1235,1252,1268,1285,1302,1318,1335,1352,1368,1385,1401,1418,1435,1452,1468,1485,1501,1518,1535,1553,1568,1584,1601,1618,1637,1651,1668,1684,1701,1718,1735,1752,1768,1785,1801,1818,1835,1851,1868,1884,1901,1918,1934,1951,1968,1984,2001,2018,2034,2051,2068,2084,2101,2118,2134,2151,2168,2184,2201,2218,2235,2251,2268,2284,2301,2318,2334,2351,2367,2385,2401,2417,2434,2451,2467,2484,2501,2517,2534,2551,2575,2601,2617,2634,2651,2667,2685,2701,2717,2734,2751,2767,2784,2801,2817,2834,2851,2883,2902,2918,2935,2952,2969,2985,3002,3023,3036,3056,3072,3085,3102,3119,3135,3152,3169,3185,3201,3218,3235,3251,3269,3285,3301,3318,3335,3351,3368,3385,3401,3418,3434,3451,3467,3485,3501,3517,3535,3551,3568,3584,3601,3617,3634,3651,3667,3684,3701,3718,3734,3751,3767,3784,3801,3817,3834,3851,3867,3884,3901,3917,3934,3951,3967,3984,4000,4017,4034,4051,4067,4084,4101,4117,4134,4150,4167,4184,4200,4217,4234,4250,4267,4284,4300,4317,4334,4350,4367,4384,4400,4418,4434,4451,4467,4484,4503,4517,4534,4550,4567,4584,4600,4617,4634,4650,4667,4684,4700,4717,4733,4750,4767,4784,4800,4817,4833,4851,4867,4883,4901,4917,4934,4950,4967,4983,5000,5017,5034,5050,5067,5083,5101,5117,5134,5150,5167,5183,5200,5217,5234,5250,5268,5284,5300,5317,5333,5350,5367,5383,5400,5417,5434,5450,5467,5484,5500,5517,5534,5550,5567,5583,5600,5616,5633,5650,5666,5683,5700,5717,5733,5750,5766,5783,5800,5816,5833,5850,5866,5883,5900,5916,5933,5951,5975,6000,6016,6033,6050,6067,6083,6100,6117,6133,6150,6166,6183,6200,6216,6233,6250,6267,6283,6299,6316,6333,6350,6367,6385,6400,6417,6434,6451,6470,6484,6500,6517,6534,6550,6567,6584,6601,6617,6634,6650,6669,6683,6700,6717,6733,6750,6767,6784,6800,6817,6834,6850,6868,6883,6900,6917,6933,6950,6967,6984,7000,7017,7033,7050,7067,7083,7100,7117,7133,7150,7166,7183,7202,7216,7233,7250,7266,7283,7300,7316,7333,7350,7366,7384,7403,7417,7433,7449,7466,7483,7499,7517,7533,7549,7566,7583,7599,7616,7633,7649,7666,7684,7700,7716,7733,7749,7766,7783,7799,7816,7833,7849,7866,7883,7900,7916,7933,7949,7966,7982,7999,8015,8032,8049,8066,8083,8099,8116,8132,8149,8166,8182,8199,8216,8232,8249,8266,8282,8299,8316,8332,8349,8366,8382,8399,8415,8432,8449,8465,8483,8499,8516,8532,8549,8566,8583,8599,8616,8632,8649,8666,8682,8699,8715,8732,8749,8766,8782,8799,8815,8832,8849,8866,8882,8899,8915,8932,8949,8966,8982,8999,9015,9032,9049,9065,9082,9099,9116,9132,9149,9165,9182,9199,9216,9232,9249,9265,9283,9299,9315,9332,9349,9365,9382,9399,9415,9432,9449,9465,9482,9500,9515,9532,9551,9585,9607,9633,9649,9665,9682,9699,9715,9732,9749,9765,9782,9799,9815,9832,9854,9865,9883,9898,9916,9932,9951,9966,9985,9999,10016,10033,10049,10066,10083,10099,10115,10132,10149,10166,10183,10198,10215,10232,10249,10265,10282,10300,10315,10335,10351,10365,10382,10399,10415,10432,10449,10465,10482,10499,10515,10532,10549,10565,10582,10599,10615,10632,10649,10665,10682,10699,10716,10731,10748,10765,10781,10798,10815,10831,10848,10866,10884,10907,10919,10932,10948,10965,10981,10998,11015,11031,11048,11065,11082,11098,11115,11132,11148,11165,11182,11198,11215,11232,11248,11265,11282,11299,11315,11332,11348,11365,11382,11399,11415,11432,11450,11465,11482,11499,11515,11535,11548,11564,11590,11607,11616,11632,11649,11665,11681,11698,11715,11731,11748,11771,11786,11798,11816,11832,11848,11864,11882,11898,11915,11931,11948,11965,11981,12000,12015,12031,12050,12073,12098,12116,12131,12148,12166,12181,12198,12215,12232,12248,12265,12281,12298,12315,12331,12348,12365,12382,12403,12423,12447,12465,12481,12498,12514,12531,12547,12564,12581,12598,12614,12631,12647,12664,12681,12697,12714,12731,12747,12764,12781,12798,12814,12831,12847,12864,12881,12898,12914,12931,12947,12965,12981,12998,13016,13032,13048,13066,13082,13098,13123,13137,13150,13167,13184,13200,13218,13234,13250,13266,13284,13302,13317,13334,13350,13366,13383,13407,13422,13433,13450,13471,13488,13516,13533,13550,13572,13597,13617,13636,13651,13670,13703,13718,13741,13764,13781,13799,13814,13831,13848,13864,13881,13898,13914,13931,13947,13965,13987,13999,14015,14031,14052,14072,14097,14115,14135,14147,14165,14182,14198,14220,14247,14264,14282,14297,14314,14330,14347,14364,14380,14397,14413,14430,14447,14464,14480,14497,14514,14533,14547,14564,14580,14597,14614,14630,14647,14664,14680,14697,14716,14732,14762,14781,14799,14815,14831,14848,14864,14880,14898,14920,14931,14948,14964,14981,14998,15016,15031,15048,15065,15081,15098,15116,15140,15150,15167,15183,15199,15217,15234,15249,15267,15283,15299,15317,15334,15349,15366,15383,15399,15415,15433,15449,15466,15483,15499,15516,15533,15549,15566,15584,15601,15616,15634,15650,15666,15683,15698,15719,15732,15748,15764,15781,15799,15815,15831,15849,15865,15890,15913,15930,15947,15964,15980,15997,16013,16030,16046,16063,16080,16096,16113,16130,16146,16163,16180,16197,16213,16230,16246,16264,16280,16296,16313,16330,16346,16363,16380,16396,16413,16430,16446,16463,16479,16496,16513,16530,16546,16563,16580,16596,16613,16629,16646,16663,16679,16696,16713,16729,16746,16763,16779,16796,16813,16829,16846,16863,16879,16896,16913,16929,16946,16962,16979,16996,17013,17030,17046,17063,17079,17096,17116,17129,17146,17162,17180,17196,17213,17229,17246,17262,17279,17296,17313,17329,17346,17363,17379,17396,17412,17429,17446,17462,17479,17496,17512,17529,17546,17562,17579,17596,17612,17629,17649,17662,17681,17696,17713,17729,17746,17763,17779,17795,17812,17840,17852,17865,17881,17899,17912,17931,17947,17962,17979,17998,18014,18031,18047,18064,18081,18097,18112,18129,18146,18162,18181,18197,18214,18229,18246,18263,18279,18296,18314,18333,18346,18362,18381,18411,18429,18446,18462,18479,18495,18512,18529,18545,18562,18579,18595,18612,18629,18646,18662,18679,18695,18712,18729,18746,18762,18779,18796,18812,18829,18845,18862,18879,18895,18912,18929,18945,18962,18979,18995,19012,19029,19045,19062,19079,19095,19112,19129,19146,19162,19179,19195,19212,19228,19245,19262,19278,19295,19312,19328,19345,19362,19379,19396,19412,19428,19446,19462,19479,19498,19513,19529,19545,19563,19579,19595,19613,19629,19645,19662,19679,19695,19712,19729,19745,19762,19779,19795,19812,19828,19845,19862,19878,19895,19912,19930,19945,19962,19978,19995,20012,20028,20045,20061,20078,20095,20112,20128,20145,20162,20178,20195,20211,20228,20245,20261,20278,20295,20311,20328,20345,20361,20379,20395,20412,20428,20446,20462,20478,20495,20512,20528,20545,20562,20578,20596,20615,20628,20645,20662,20679,20695,20711,20728,20745,20762,20778,20795,20812,20828,20845,20862,20878,20895,20912,20928,20945,20962,20978,20995,21012,21029,21044,21061,21078,21095,21111,21128,21145,21161,21178,21194,21211,21228,21244,21261,21278,21294,21311,21328,21344,21361,21378,21395,21412,21428,21445,21461,21478,21495,21511,21528,21544,21561,21578,21595,21611,21628,21645,21661,21678,21694,21712,21728,21745,21762,21778,21794,21812,21828,21844,21862,21878,21894,21911,21927,21944,21961,21977,21994,22011,22028,22044,22061,22077,22094,22111,22128,22144,22161,22178,22194,22211,22228,22244,22261,22277,22294,22311,22327,22344,22361,22378,22395,22411,22428,22444,22462,22478,22494,22511,22528,22545,22561,22578,22595,22611,22627,22645,22661,22678,22695,22711,22727,22744,22761,22778,22795,22811,22828,22844,22861,22877,22894,22911,22928,22944,22961,22977,22994,23011,23028,23044,23061,23078,23094,23111,23127,23144,23161,23177,23194,23211,23228,23244,23261,23277,23294,23310,23327,23345,23361,23377,23394,23411,23427,23444,23460,23493,23510,23527,23544,23561,23577,23594,23611,23627,23644,23660,23677,23694,23711,23728,23744,23761,23777,23794,23810,23827,23844,23860,23877,23894,23910,23927,23944,23960,23977,23993,24010,24027,24043,24060,24077,24094,24110,24127,24143,24161,24177,24194,24210,24227,24244,24260,24277,24294,24310,24327,24343,24360,24378,24394,24410,24427,24443,24460,24477,24493,24510,24527,24543,24560,24577,24594,24610,24627,24643,24660,24677,24693,24710,24727,24743,24760,24777,24794,24810,24827,24843,24860,24877,24894,24914,24927,24943,24960,24977,24993,25010,25026,25043,25060,25076,25093,25110,25127,25143,25160,25176,25194,25210,25226,25243,25260,25277,25293,25310,25326,25343,25360,25376,25393,25410,25426,25443,25460,25476,25498,25510,25526,25544,25560,25576,25594,25610,25626,25643,25660,25677,25693,25710,25726,25743,25760,25776,25793,25810,25826,25843,25860,25876,25893,25910,25926,25943,25960,25976,25993,26010,26026,26043,26060,26076,26093,26109,26126,26143,26160,26176,26193,26210,26226,26243,26259,26276,26293,26310,26326,26343,26360,26376,26393,26410,26426,26443,26460,26476,26493,26510,26526,26543,26560,26577,26593,26609,26627,26643,26659,26677,26697,26710,26727,26743,26759,26776,26793,26809,26826,26842,26859,26876,26892,26909,26926,26943,26959,26977,26993,27009,27026,27042,27059,27076,27093,27109,27126,27143,27159,27176,27192,27209,27226,27243,27259,27276,27293,27309,27326,27343,27360,27376,27393,27410,27426,27443,27461,27476,27493,27509,27526,27543,27560,27576,27592,27610,27626,27643,27659,27676,27692,27711,27726,27742,27760,27781,27793,27809,27826,27843,27859,27875,27892,27909,27926,27942,27959,27976,27992,28009,28025,28043,28059,28075,28092,28109,28125,28142,28159,28176,28192,28209,28225,28242,28259,28276,28292,28309,28326,28342,28359,28375,28392,28409,28425,28442,28459,28479,28492,28509,28526,28542,28559,28576,28592,28609,28625,28642,28659,28676,28692,28708,28725,28742,28758,28776,28792,28809,28825,28842,28859,28876,28892,28909,28926,28942,28958,28975,28992,29015,29042,29059,29075,29092,29108,29125,29142,29159,29175,29192,29208,29225,29242,29258,29275,29292,29308,29325,29342,29358,29375,29392,29409,29425,29442,29459,29475,29492,29509,29525,29542,29558,29575,29592,29609,29625,29642,29658,29675,29692,29708,29725,29741,29758,29775,29792,29808,29825,29842,29858,29875,29892,29908,29925,29942,29958,29975,29991,30008,30025,30042,30058,30075,30091,30108,30125,30141,30158,30175,30192,30208,30225,30242,30258,30275,30291,30308,30325,30342,30358,30375,30391,30408,30431,30444,30458,30475,30491,30508,30525,30541,30558,30575,30591,30608,30625,30641,30659,30675,30692,30708,30725,30741,30758,30774,30791,30808,30825,30841,30858,30875,30891,30908,30925,30941,30958,30975,30991,31008,31025,31041,31058,31075,31091,31108,31125,31141,31158,31175,31192,31208,31225,31242,31258,31274,31292,31308,31324,31341,31358,31374,31391,31408,31424,31441,31458,31477,31491,31508,31524,31541,31558,31574,31591,31608,31624,31641,31658,31675,31691,31708,31725,31741,31758,31774,31791,31808,31824,31841,31859,31874,31891,31908,31924,31941,31958,31974,31991,32008,32024,32042,32058,32075,32091,32108,32125,32141,32157,32174,32191,32208,32224,32241,32258,32275,32291,32307,32325,32341,32358,32374,32391,32408,32424,32441,32457,32474,32491,32508,32524,32541,32558,32574,32591,32607,32624,32641,32657,32674,32691,32707,32724,32741,32757,32774,32791,32808,32824,32840,32857,32874,32890,32908,32924,32940,32957,32974,32990,33007,33024,33041,33057,33074,33090,33107,33124,33141,33157,33176,33191,33207,33225,33241,33257,33274,33292,33315,33341,33357,33374,33391,33407,33424,33441,33457,33475,33491,33507,33524,33541,33557,33574,33591,33607,33624,33641,33657,33675,33693,33708,33724,33741,33758,33774,33791,33808,33824,33840,33857,33874,33890,33907,33924,33940,33957,33974,33990,34007,34024,34040,34057,34074,34090,34107,34124,34140,34157,34174,34190,34207,34224,34241,34257,34274,34290,34307,34324,34340,34357,34374,34392,34407,34424,34440,34457,34473,34491,34507,34524,34540,34557,34574,34591,34607,34624,34641,34660,34673,34691,34707,34724,34740,34757,34774,34790,34807,34823,34840,34857,34874,34890,34907,34923,34940,34957,34973,34990,35007,35023,35040,35057,35073,35090,35106,35123,35140,35156,35173,35190,35206,35223,35240,35256,35273,35290,35306,35323,35340,35356,35373,35390,35406,35423,35440,35456,35473,35491,35506,35523,35540,35556,35573,35590,35606,35623,35640,35656,35673,35690,35706,35723,35740,35756,35773,35790,35806,35823,35840,35856,35873,35890,35906,35923,35940,35956,35973,35990,36006,36023,36040,36056,36073,36096,36123,36139,36156,36173,36189,36206,36223,36239,36257,36273,36289,36306,36323,36339,36356,36373,36389,36406,36423,36439,36456,36473,36489,36506,36522,36539,36556,36573,36590,36606,36623,36640,36656,36673,36690,36706,36723,36740,36756,36773,36790,36806,36823,36840,36856,36873,36889,36906,36923,36939,36956,36973,36990,37006,37023,37040,37057,37073,37089,37106,37123,37139,37156,37173,37189,37206,37223,37239,37256,37273,37289,37306,37323,37339,37356,37373,37389,37406,37423,37439,37456,37476,37490,37506,37523,37539,37556,37573,37589,37606,37623,37639,37656,37673,37689,37706,37723,37739,37756,37772,37789,37806,37822,37839,37856,37872,37889,37906,37922,37939,37956,37972,37989,38006,38022,38039,38056,38072,38089,38106,38122,38139,38156,38172,38189,38205,38222,38239,38256,38272,38289,38305,38322,38339,38355,38372,38389,38405,38422,38439,38455,38473,38488,38505,38524,38539,38555,38572,38589,38605,38622,38639,38655,38672,38689,38705,38722,38739,38755,38772,38789,38805,38822,38839,38855,38877,38889,38906,38923,38939,38956,38975,38990,39008,39024,39039,39058,39074,39091,39107,39122,39139,39156,39173,39192,39206,39223,39239,39256,39272,39289,39306,39323,39339,39356,39373,39389,39407,39424,39440,39456,39472,39489,39506,39522,39539,39556,39573,39589,39606,39624,39639,39655,39673,39689,39705,39723,39739,39757,39777,39791,39806,39826,39840,39855,39872,39889,39906,39922,39943,39964,39973,39990,40006,40022,40040,40055,40072,40090,40109,40123,40138,40155,40172,40189,40205,40222,40239,40260,40272,40288,40305,40322,40339,40355,40371,40388,40405,40422,40438,40455,40472,40489,40505,40522,40539,40555,40572,40589,40605,40622,40639,40656,40672,40688,40705,40722,40738,40755,40772,40789,40805,40822,40838,40855,40871,40888,40906,40922,40938,40956,40971,40990,41005,41021,41038,41055,41071,41089,41105,41121,41138,41155,41171,41188,41205,41221,41238,41255,41272,41288,41305,41322,41338,41355,41373,41389,41405,41421,41438,41455,41474,41488,41505,41522,41538,41555,41571,41588,41605,41623,41639,41655,41671,41688,41706,41722,41738,41755,41772,41788,41805,41822,41838,41854,41872,41888,41905,41921,41938,41955,41972,41988,42005,42022,42040,42055,42072,42088,42105,42121,42139,42156,42171,42188,42205,42221,42238,42255,42272,42288,42305,42321,42339,42355,42371,42390,42407,42421,42438,42455,42471,42488,42504,42523,42539,42556,42571,42588,42605,42621,42638,42655,42671,42688,42705,42721,42738,42754,42771,42788,42804,42821,42838,42855,42871,42887,42904,42921,42938,42955,42971,42988,43004,43026,43038,43054,43071,43088,43104,43121,43137,43154,43171,43188,43206,43221,43237,43254,43271,43288,43304,43321,43338,43354,43371,43390,43404,43421,43439,43456,43472,43488,43505,43522,43538,43555,43571,43587,43605,43622,43638,43654,43671,43688,43705,43721,43738,43755,43771,43787,43805,43822,43837,43854,43871,43887,43905,43921,43938,43954,43971,43988,44005,44022,44037,44054,44071,44088,44104,44121,44138,44154,44170,44187,44204,44221,44237,44254,44271,44288,44304,44324,44340,44355,44371,44389,44404,44421,44437,44454,44471,44487,44504,44520,44539,44554,44570,44587,44604,44621,44637,44657,44670,44687,44704,44721,44737,44754,44771,44787,44804,44820,44837,44855,44871,44887,44904,44921,44937,44954,44970,44987,45004,45021,45037,45054,45070,45087,45104,45120,45137,45154,45170,45187,45204,45220,45237,45254,45270,45287,45304,45320,45337,45354,45370,45388,45404,45420,45437,45454,45473,45487,45503,45520,45537,45554,45570,45588,45604,45620,45637,45653,45670,45687,45708,45721,45737,45754,45770,45787,45803,45820,45837,45853,45870,45887,45904,45920,45937,45954,45971,45987,46003,46020,46037,46053,46070,46087,46104,46120,46137,46153,46170,46187,46203,46220,46237,46253,46271,46287,46303,46321],"hit":[null],"x":[-2.17687074829932,-2.17687074829932,-2.17687074829932,-2.17687074829932,-2.17687074829932,-2.17687074829932,-2.17687074829932,-2.17687074829932,-2.17687074829932,-2.17687074829932,-2.17687074829932,-2.17687074829932,-2.17687074829932,-2.17687074829932,-2.17687074829932,-2.17687074829932,-2.17687074829932,-2.17687074829932,-2.17687074829932,-2.17687074829932,-2.17687074829932,-2.17687074829932,-2.17687074829932,-2.17687074829932,-2.17687074829932,-2.17687074829932,-2.17687074829932,-2.17687074829932,-2.17687074829932,-2.17687074829932,-2.17687074829932,-2.17687074829932,-2.17687074829932,-2.17687074829932,-2.17687074829932,-2.17687074829932,-2.17687074829932,-2.17687074829932,-2.17687074829932,-2.17687074829932,-2.17687074829932,-2.17687074829932,-2.17687074829932,-2.17687074829932,-2.17687074829932,-2.17687074829932,-2.17687074829932,-2.17687074829932,-2.17687074829932,-2.17687074829932,-2.17687074829932,-2.17687074829932,-2.17687074829932,-2.17687074829932,-2.17687074829932,-2.17687074829932,-2.17687074829932,-2.17687074829932,-2.17687074829932,-2.17687074829932,-2.17687074829932,-2.17687074829932,-2.17687074829932,-2.17687074829932,-2.17687074829932,-2.17687074829932,-2.17687074829932,-2.17687074829932,-2.17687074829932,-2.17687074829932,-2.17687074829932,-2.17687074829932,-2.17687074829932,-2.17687074829932,-2.17687074829932,-2.17687074829932,-2.17687074829932,-2.17687074829932,-2.17687074829932,-2.17687074829932,-2.17687074829932,-2.17687074829932,-2.17687074829932,-2.17687074829932,-2.17687074829932,-2.17687074829932,-2.17687074829932,-2.17687074829932,-2.17687074829932,-2.17687074829932,-2.17687074829932,-2.17687074829932,-2.17687074829932,-2.17687074829932,-2.17687074829932,-2.17687074829932,-2.17687074829932,-2.17687074829932,-2.17687074829932,-2.17687074829932,-2.17687074829932,-2.17687074829932,-2.17687074829932,-2.17687074829932,-2.17687074829932,-2.17687074829932,-2.17687074829932,-2.17687074829932,-2.17687074829932,-2.17687074829932,-2.17687074829932,-2.17687074829932,-2.17687074829932,-2.17687074829932,-2.17687074829932,-2.17687074829932,-2.17687074829932,-2.17687074829932,-2.17687074829932,-2.17687074829932,-2.17687074829932,-2.17687074829932,-2.17687074829932,-2.17687074829932,-2.17687074829932,-2.17687074829932,-2.17687074829932,-2.17687074829932,-2.17687074829932,-2.17687074829932,-2.17687074829932,-2.17687074829932,-2.17687074829932,-2.17687074829932,-2.17687074829932,-2.17687074829932,-2.17687074829932,-2.17687074829932,-2.17687074829932,-2.17687074829932,-2.17687074829932,-2.17687074829932,-2.17687074829932,-2.17687074829932,-2.17687074829932,-2.17687074829932,-2.17687074829932,-2.17687074829932,-2.17687074829932,-2.17687074829932,-2.17687074829932,-2.17687074829932,-2.17687074829932,-2.17687074829932,-2.17687074829932,-2.17687074829932,-2.17687074829932,-2.17687074829932,-2.17687074829932,-2.17687074829932,-2.17687074829932,-2.17687074829932,-2.17687074829932,-2.17687074829932,0.003401360544217687,0.003401360544217687,0.003401360544217687,0.006802721088435374,0.006802721088435374,0.01020408163265306,0.01020408163265306,0.013605442176870748,0.017006802721088437,0.02040816326530612,0.023809523809523808,0.023809523809523808,0.027210884353741496,0.027210884353741496,0.027210884353741496,0.027210884353741496,0.027210884353741496,0.027210884353741496,0.027210884353741496,0.027210884353741496,0.027210884353741496,0.027210884353741496,0.027210884353741496,0.027210884353741496,0.027210884353741496,0.027210884353741496,0.027210884353741496,0.027210884353741496,0.027210884353741496,0.027210884353741496,0.027210884353741496,0.027210884353741496,0.027210884353741496,0.027210884353741496,0.027210884353741496,0.027210884353741496,0.027210884353741496,0.027210884353741496,0.027210884353741496,0.027210884353741496,0.027210884353741496,0.027210884353741496,0.027210884353741496,0.027210884353741496,0.027210884353741496,0.027210884353741496,0.027210884353741496,0.027210884353741496,0.027210884353741496,0.027210884353741496,0.027210884353741496,0.027210884353741496,0.027210884353741496,0.027210884353741496,0.027210884353741496,0.027210884353741496,0.027210884353741496,0.027210884353741496,0.027210884353741496,0.027210884353741496,0.027210884353741496,0.027210884353741496,0.027210884353741496,0.027210884353741496,0.027210884353741496,0.027210884353741496,0.027210884353741496,0.027210884353741496,0.027210884353741496,0.027210884353741496,0.027210884353741496,0.027210884353741496,0.027210884353741496,0.027210884353741496,0.027210884353741496,0.027210884353741496,0.027210884353741496,0.027210884353741496,0.027210884353741496,0.027210884353741496,0.027210884353741496,0.027210884353741496,0.027210884353741496,0.027210884353741496,0.027210884353741496,0.027210884353741496,0.027210884353741496,0.027210884353741496,0.027210884353741496,0.027210884353741496,0.027210884353741496,0.027210884353741496,0.027210884353741496,0.027210884353741496,0.027210884353741496,0.027210884353741496,0.027210884353741496,0.027210884353741496,0.027210884353741496,0.027210884353741496,0.027210884353741496,0.027210884353741496,0.027210884353741496,0.027210884353741496,0.027210884353741496,0.027210884353741496,0.027210884353741496,0.027210884353741496,0.027210884353741496,0.027210884353741496,0.027210884353741496,0.027210884353741496,0.027210884353741496,0.027210884353741496,0.027210884353741496,0.027210884353741496,0.027210884353741496,0.027210884353741496,0.027210884353741496,0.027210884353741496,0.030612244897959183,0.030612244897959183,0.030612244897959183,0.030612244897959183,0.034013605442176874,0.034013605442176874,0.03741496598639456,0.03741496598639456,0.03741496598639456,0.03741496598639456,0.03741496598639456,0.04081632653061224,0.04081632653061224,0.04081632653061224,0.03741496598639456,0.03741496598639456,0.03741496598639456,0.03741496598639456,0.034013605442176874,0.034013605442176874,0.034013605442176874,0.034013605442176874,0.030612244897959183,0.030612244897959183,0.030612244897959183,0.027210884353741496,0.027210884353741496,0.027210884353741496,0.023809523809523808,0.023809523809523808,0.023809523809523808,0.02040816326530612,0.02040816326530612,0.02040816326530612,0.02040816326530612,0.02040816326530612,0.017006802721088437,0.017006802721088437,0.017006802721088437,0.017006802721088437,0.013605442176870748,0.013605442176870748,0.013605442176870748,0.013605442176870748,0.013605442176870748,0.013605442176870748,0.013605442176870748,0.013605442176870748,0.013605442176870748,0.013605442176870748,0.013605442176870748,0.013605442176870748,0.013605442176870748,0.013605442176870748,0.013605442176870748,0.013605442176870748,0.013605442176870748,0.013605442176870748,0.013605442176870748,0.013605442176870748,0.013605442176870748,0.013605442176870748,0.013605442176870748,0.013605442176870748,0.013605442176870748,0.013605442176870748,0.013605442176870748,0.013605442176870748,0.013605442176870748,0.013605442176870748,0.013605442176870748,0.013605442176870748,0.013605442176870748,0.013605442176870748,0.013605442176870748,0.013605442176870748,0.013605442176870748,0.013605442176870748,0.013605442176870748,0.013605442176870748,0.013605442176870748,0.013605442176870748,0.01020408163265306,0.01020408163265306,0.01020408163265306,0.01020408163265306,0.01020408163265306,0.01020408163265306,0.01020408163265306,0.01020408163265306,0.01020408163265306,0.01020408163265306,0.01020408163265306,0.01020408163265306,0.01020408163265306,0.01020408163265306,0.01020408163265306,0.01020408163265306,0.01020408163265306,0.01020408163265306,0.01020408163265306,0.01020408163265306,0.01020408163265306,0.01020408163265306,0.01020408163265306,0.01020408163265306,0.01020408163265306,0.01020408163265306,0.01020408163265306,0.01020408163265306,0.01020408163265306,0.01020408163265306,0.01020408163265306,0.01020408163265306,0.01020408163265306,0.01020408163265306,0.01020408163265306,0.01020408163265306,0.01020408163265306,0.01020408163265306,0.01020408163265306,0.01020408163265306,0.01020408163265306,0.01020408163265306,0.01020408163265306,0.01020408163265306,0.01020408163265306,0.01020408163265306,0.01020408163265306,0.01020408163265306,0.01020408163265306,0.01020408163265306,0.01020408163265306,0.01020408163265306,0.01020408163265306,0.01020408163265306,0.01020408163265306,0.01020408163265306,0.01020408163265306,0.01020408163265306,0.01020408163265306,0.01020408163265306,0.01020408163265306,0.01020408163265306,0.01020408163265306,0.01020408163265306,0.01020408163265306,0.01020408163265306,0.01020408163265306,0.01020408163265306,0.01020408163265306,0.01020408163265306,0.01020408163265306,0.01020408163265306,0.01020408163265306,0.01020408163265306,0.01020408163265306,0.01020408163265306,0.01020408163265306,0.01020408163265306,0.01020408163265306,0.01020408163265306,0.01020408163265306,0.01020408163265306,0.01020408163265306,0.01020408163265306,0.01020408163265306,0.01020408163265306,0.01020408163265306,0.013605442176870748,0.017006802721088437,0.02040816326530612,0.02040816326530612,0.023809523809523808,0.027210884353741496,0.03741496598639456,0.04081632653061224,0.05102040816326531,0.061224489795918366,0.06462585034013606,0.07482993197278912,0.08163265306122448,0.08503401360544217,0.08843537414965986,0.09183673469387756,0.09183673469387756,0.09183673469387756,0.09183673469387756,0.09183673469387756,0.09183673469387756,0.09183673469387756,0.09183673469387756,0.09183673469387756,0.09183673469387756,0.09183673469387756,0.09183673469387756,0.09183673469387756,0.09183673469387756,0.09183673469387756,0.09183673469387756,0.09183673469387756,0.09183673469387756,0.09183673469387756,0.09183673469387756,0.09183673469387756,0.09183673469387756,0.09183673469387756,0.09183673469387756,0.09183673469387756,0.09183673469387756,0.09183673469387756,0.09183673469387756,0.09183673469387756,0.09183673469387756,0.09183673469387756,0.11904761904761904,0.13945578231292516,0.14625850340136054,0.16326530612244897,0.17346938775510204,0.17687074829931973,0.1836734693877551,0.19047619047619047,0.19387755102040816,0.19387755102040816,0.19387755102040816,0.19387755102040816,0.19387755102040816,0.19387755102040816,0.19387755102040816,0.19387755102040816,0.19387755102040816,0.19387755102040816,0.19387755102040816,0.19387755102040816,0.19387755102040816,0.19387755102040816,0.19387755102040816,0.19387755102040816,0.19387755102040816,0.19387755102040816,0.19387755102040816,0.19387755102040816,0.19387755102040816,0.19387755102040816,0.19387755102040816,0.19387755102040816,0.19387755102040816,0.19387755102040816,0.19387755102040816,0.19387755102040816,0.19387755102040816,0.19387755102040816,0.19387755102040816,0.19387755102040816,0.19387755102040816,0.19727891156462585,0.2108843537414966,0.22108843537414966,0.24149659863945577,0.2585034013605442,0.2687074829931973,0.282312925170068,0.2891156462585034,0.2925170068027211,0.29931972789115646,0.30272108843537415,0.30272108843537415,0.30272108843537415,0.30272108843537415,0.30272108843537415,0.30272108843537415,0.30272108843537415,0.30272108843537415,0.30272108843537415,0.30272108843537415,0.30272108843537415,0.30272108843537415,0.30272108843537415,0.30272108843537415,0.30272108843537415,0.30272108843537415,0.30272108843537415,0.30272108843537415,0.30272108843537415,0.30272108843537415,0.30272108843537415,0.30272108843537415,0.30272108843537415,0.30272108843537415,0.30272108843537415,0.30272108843537415,0.30272108843537415,0.30272108843537415,0.30272108843537415,0.30272108843537415,0.30272108843537415,0.30272108843537415,0.30612244897959184,0.3129251700680272,0.3197278911564626,0.32653061224489793,0.3333333333333333,0.336734693877551,0.3401360544217687,0.3435374149659864,0.3435374149659864,0.3469387755102041,0.35034013605442177,0.35034013605442177,0.35374149659863946,0.35374149659863946,0.35374149659863946,0.35714285714285715,0.35714285714285715,0.35714285714285715,0.35714285714285715,0.35714285714285715,0.36054421768707484,0.36054421768707484,0.36394557823129253,0.36394557823129253,0.3673469387755102,0.3741496598639456,0.37755102040816324,0.38095238095238093,0.3843537414965986,0.3877551020408163,0.3877551020408163,0.391156462585034,0.391156462585034,0.391156462585034,0.3945578231292517,0.3979591836734694,0.3979591836734694,0.40476190476190477,0.41496598639455784,0.4217687074829932,0.42857142857142855,0.4387755102040816,0.445578231292517,0.4489795918367347,0.4557823129251701,0.45918367346938777,0.46258503401360546,0.46598639455782315,0.46938775510204084,0.46938775510204084,0.46938775510204084,0.46938775510204084,0.46938775510204084,0.46938775510204084,0.46938775510204084,0.46938775510204084,0.46938775510204084,0.46938775510204084,0.46938775510204084,0.46938775510204084,0.46938775510204084,0.46938775510204084,0.46938775510204084,0.46938775510204084,0.46938775510204084,0.46938775510204084,0.46938775510204084,0.46938775510204084,0.46938775510204084,0.46938775510204084,0.46938775510204084,0.46938775510204084,0.46938775510204084,0.46938775510204084,0.48299319727891155,0.5238095238095238,0.5544217687074829,0.564625850340136,0.5850340136054422,0.5986394557823129,0.6054421768707483,0.6122448979591837,0.6190476190476191,0.6224489795918368,0.6258503401360545,0.6292517006802721,0.6326530612244898,0.6360544217687075,0.6394557823129252,0.6428571428571429,0.6462585034013606,0.6462585034013606,0.6462585034013606,0.6462585034013606,0.6496598639455783,0.6496598639455783,0.6496598639455783,0.6496598639455783,0.6496598639455783,0.6496598639455783,0.6496598639455783,0.6496598639455783,0.6496598639455783,0.6564625850340136,0.6666666666666666,0.6768707482993197,0.6972789115646258,0.7142857142857143,0.7244897959183674,0.7380952380952381,0.7448979591836735,0.7585034013605442,0.7721088435374149,0.7925170068027211,0.8163265306122449,0.8231292517006803,0.8435374149659864,0.8605442176870748,0.8707482993197279,0.8877551020408163,0.9013605442176871,0.9081632653061225,0.9251700680272109,0.9421768707482994,0.9489795918367347,0.9659863945578231,0.9795918367346939,0.9863945578231292,0.9965986394557823,1.010204081632653,1.0170068027210883,1.030612244897959,1.0374149659863945,1.0374149659863945,1.0408163265306123,1.0476190476190477,1.0510204081632653,1.0578231292517006,1.0612244897959184,1.0612244897959184,1.064625850340136,1.064625850340136,1.064625850340136,1.0680272108843538,1.0680272108843538,1.0680272108843538,1.0680272108843538,1.0714285714285714,1.0714285714285714,1.0714285714285714,1.0714285714285714,1.0714285714285714,1.0714285714285714,1.0714285714285714,1.0714285714285714,1.0714285714285714,1.0714285714285714,1.0714285714285714,1.0714285714285714,1.0714285714285714,1.0714285714285714,1.0714285714285714,1.0714285714285714,1.0714285714285714,1.0714285714285714,1.0714285714285714,1.0714285714285714,1.0714285714285714,1.0714285714285714,1.0714285714285714,1.0714285714285714,1.0714285714285714,1.0714285714285714,1.0714285714285714,1.0714285714285714,1.0714285714285714,1.0714285714285714,1.0714285714285714,1.0714285714285714,1.0714285714285714,1.0714285714285714,1.0714285714285714,1.0714285714285714,1.0714285714285714,1.0748299319727892,1.0748299319727892,1.0816326530612246,1.0850340136054422,1.0850340136054422,1.08843537414966,1.0918367346938775,1.0918367346938775,1.0952380952380953,1.0952380952380953,1.0952380952380953,1.0952380952380953,1.0952380952380953,1.098639455782313,1.098639455782313,1.098639455782313,1.1020408163265305,1.1020408163265305,1.1020408163265305,1.1020408163265305,1.1054421768707483,1.1054421768707483,1.1054421768707483,1.1054421768707483,1.1054421768707483,1.1054421768707483,1.1054421768707483,1.1054421768707483,1.1054421768707483,1.1020408163265305,1.098639455782313,1.098639455782313,1.0952380952380953,1.0918367346938775,1.0850340136054422,1.0782312925170068,1.064625850340136,1.054421768707483,1.0374149659863945,1.0238095238095237,1,0.9761904761904762,0.8979591836734694,0.8571428571428571,0.8435374149659864,0.8061224489795918,0.7653061224489796,0.7448979591836735,0.7244897959183674,0.7142857142857143,0.7108843537414966,0.7006802721088435,0.6870748299319728,0.6802721088435374,0.6632653061224489,0.6496598639455783,0.6360544217687075,0.6292517006802721,0.608843537414966,0.5782312925170068,0.5476190476190477,0.5238095238095238,0.5170068027210885,0.5034013605442177,0.5,0.4931972789115646,0.48639455782312924,0.47959183673469385,0.47959183673469385,0.47959183673469385,0.47959183673469385,0.47619047619047616,0.47619047619047616,0.47619047619047616,0.47619047619047616,0.47619047619047616,0.47619047619047616,0.47619047619047616,0.47619047619047616,0.47619047619047616,0.47619047619047616,0.47619047619047616,0.47619047619047616,0.47619047619047616,0.47619047619047616,0.47619047619047616,0.47619047619047616,0.47619047619047616,0.47619047619047616,0.47619047619047616,0.47619047619047616,0.47619047619047616,0.47619047619047616,0.47619047619047616,0.47619047619047616,0.47619047619047616,0.47619047619047616,0.47959183673469385,0.48299319727891155,0.48639455782312924,0.4931972789115646,0.4931972789115646,0.4965986394557823,0.5,0.5,0.5,0.5034013605442177,0.5034013605442177,0.5034013605442177,0.5034013605442177,0.5034013605442177,0.5,0.5,0.4965986394557823,0.4931972789115646,0.48299319727891155,0.46258503401360546,0.4523809523809524,0.41836734693877553,0.37755102040816324,0.3469387755102041,0.29931972789115646,0.2653061224489796,0.22108843537414966,0.19047619047619047,0.1360544217687075,0.09863945578231292,0.08163265306122448,0.061224489795918366,0.05102040816326531,0.04421768707482993,0.03741496598639456,0.030612244897959183,0.027210884353741496,0.023809523809523808,0.02040816326530612,0.02040816326530612,0.017006802721088437,0.017006802721088437,0.017006802721088437,0.013605442176870748,0.013605442176870748,0.013605442176870748,0.013605442176870748,0.013605442176870748,0.013605442176870748,0.013605442176870748,0.01020408163265306,0.01020408163265306,0.01020408163265306,0.01020408163265306,0.01020408163265306,0.01020408163265306,0.01020408163265306,0.01020408163265306,0.01020408163265306,0.01020408163265306,0.01020408163265306,0.01020408163265306,0.01020408163265306,0.01020408163265306,0.01020408163265306,0.01020408163265306,0.01020408163265306,0.01020408163265306,0.01020408163265306,0.01020408163265306,0.01020408163265306,0.01020408163265306,0.01020408163265306,0.01020408163265306,0.01020408163265306,0.01020408163265306,0.01020408163265306,0.01020408163265306,0.01020408163265306,0.01020408163265306,0.01020408163265306,0.01020408163265306,0.01020408163265306,0.01020408163265306,0.01020408163265306,0.01020408163265306,0.01020408163265306,0.01020408163265306,0.01020408163265306,0.01020408163265306,0.01020408163265306,0.01020408163265306,0.01020408163265306,0.01020408163265306,0.01020408163265306,0.01020408163265306,0.01020408163265306,0.01020408163265306,0.01020408163265306,0.01020408163265306,0.01020408163265306,0.01020408163265306,0.01020408163265306,0.01020408163265306,0.01020408163265306,0.01020408163265306,0.01020408163265306,0.01020408163265306,0.01020408163265306,0.01020408163265306,0.01020408163265306,0.01020408163265306,0.01020408163265306,0.01020408163265306,0.01020408163265306,0.01020408163265306,0.01020408163265306,0.01020408163265306,0.01020408163265306,0.01020408163265306,0.01020408163265306,0.01020408163265306,0.01020408163265306,0.01020408163265306,0.01020408163265306,0.01020408163265306,0.01020408163265306,0.01020408163265306,0.01020408163265306,0.01020408163265306,0.01020408163265306,0.01020408163265306,0.01020408163265306,0.01020408163265306,0.01020408163265306,0.01020408163265306,0.01020408163265306,0.01020408163265306,0.01020408163265306,0.01020408163265306,0.01020408163265306,0.01020408163265306,0.01020408163265306,0.01020408163265306,0.01020408163265306,0.01020408163265306,0.01020408163265306,0.01020408163265306,0.01020408163265306,0.01020408163265306,0.01020408163265306,0.01020408163265306,0.01020408163265306,0.01020408163265306,0.01020408163265306,0.01020408163265306,0.01020408163265306,0.01020408163265306,0.01020408163265306,0.01020408163265306,0.01020408163265306,0.01020408163265306,0.01020408163265306,0.01020408163265306,0.01020408163265306,0.01020408163265306,0.01020408163265306,0.01020408163265306,0.01020408163265306,0.01020408163265306,0.01020408163265306,0.01020408163265306,0.01020408163265306,0.01020408163265306,0.01020408163265306,0.01020408163265306,0.01020408163265306,0.01020408163265306,0.01020408163265306,0.01020408163265306,0.01020408163265306,0.01020408163265306,0.01020408163265306,0.01020408163265306,0.01020408163265306,0.01020408163265306,0.01020408163265306,0.01020408163265306,0.01020408163265306,0.01020408163265306,0.01020408163265306,0.01020408163265306,0.01020408163265306,0.01020408163265306,0.01020408163265306,0.01020408163265306,0.01020408163265306,0.01020408163265306,0.01020408163265306,0.01020408163265306,0.01020408163265306,0.01020408163265306,0.01020408163265306,0.01020408163265306,0.01020408163265306,0.01020408163265306,0.01020408163265306,0.01020408163265306,0.01020408163265306,0.01020408163265306,0.01020408163265306,0.01020408163265306,0.01020408163265306,0.01020408163265306,0.01020408163265306,0.01020408163265306,0.01020408163265306,0.01020408163265306,0.01020408163265306,0.01020408163265306,0.01020408163265306,0.01020408163265306,0.01020408163265306,0.01020408163265306,0.01020408163265306,0.01020408163265306,0.01020408163265306,0.01020408163265306,0.01020408163265306,0.01020408163265306,0.01020408163265306,0.01020408163265306,0.01020408163265306,0.01020408163265306,0.01020408163265306,0.01020408163265306,0.01020408163265306,0.01020408163265306,0.01020408163265306,0.01020408163265306,0.01020408163265306,0.01020408163265306,0.01020408163265306,0.01020408163265306,0.01020408163265306,0.01020408163265306,0.01020408163265306,0.01020408163265306,0.01020408163265306,0.01020408163265306,0.01020408163265306,0.01020408163265306,0.01020408163265306,0.01020408163265306,0.01020408163265306,0.01020408163265306,0.01020408163265306,0.01020408163265306,0.01020408163265306,0.01020408163265306,0.01020408163265306,0.01020408163265306,0.01020408163265306,0.01020408163265306,0.01020408163265306,0.01020408163265306,0.01020408163265306,0.01020408163265306,0.01020408163265306,0.01020408163265306,0.01020408163265306,0.01020408163265306,0.01020408163265306,0.01020408163265306,0.01020408163265306,0.01020408163265306,0.04081632653061224,0.07142857142857142,0.08503401360544217,0.09863945578231292,0.11564625850340136,0.12585034013605442,0.15306122448979592,0.17687074829931973,0.1836734693877551,0.19387755102040816,0.20408163265306123,0.20748299319727892,0.21768707482993196,0.22789115646258504,0.23809523809523808,0.24829931972789115,0.2619047619047619,0.272108843537415,0.2755102040816326,0.2857142857142857,0.2925170068027211,0.29931972789115646,0.30952380952380953,0.3163265306122449,0.3197278911564626,0.32653061224489793,0.3299319727891156,0.3299319727891156,0.3299319727891156,0.3299319727891156,0.3299319727891156,0.3299319727891156,0.3299319727891156,0.3299319727891156,0.3299319727891156,0.3299319727891156,0.3299319727891156,0.3299319727891156,0.3299319727891156,0.3299319727891156,0.3299319727891156,0.3299319727891156,0.3299319727891156,0.3299319727891156,0.3299319727891156,0.3299319727891156,0.3299319727891156,0.3299319727891156,0.3299319727891156,0.3299319727891156,0.3299319727891156,0.3299319727891156,0.3299319727891156,0.3299319727891156,0.3299319727891156,0.3299319727891156,0.3299319727891156,0.3401360544217687,0.35374149659863946,0.3843537414965986,0.4013605442176871,0.41156462585034015,0.41836734693877553,0.42517006802721086,0.43197278911564624,0.43197278911564624,0.4387755102040816,0.445578231292517,0.4489795918367347,0.4557823129251701,0.46598639455782315,0.46938775510204084,0.47619047619047616,0.48299319727891155,0.4897959183673469,0.4931972789115646,0.5,0.5034013605442177,0.5068027210884354,0.5136054421768708,0.5136054421768708,0.5170068027210885,0.5170068027210885,0.5170068027210885,0.5204081632653061,0.5204081632653061,0.5204081632653061,0.5204081632653061,0.5238095238095238,0.5238095238095238,0.5238095238095238,0.5272108843537415,0.5374149659863946,0.54421768707483,0.5510204081632653,0.5578231292517006,0.5612244897959183,0.5612244897959183,0.5612244897959183,0.5612244897959183,0.5612244897959183,0.5612244897959183,0.5612244897959183,0.5612244897959183,0.5612244897959183,0.5612244897959183,0.5612244897959183,0.5612244897959183,0.5612244897959183,0.5612244897959183,0.5612244897959183,0.5612244897959183,0.5612244897959183,0.5612244897959183,0.5612244897959183,0.5612244897959183,0.5612244897959183,0.5612244897959183,0.5612244897959183,0.5612244897959183,0.5612244897959183,0.5612244897959183,0.5476190476190477,0.5340136054421769,0.5238095238095238,0.5170068027210885,0.5034013605442177,0.4931972789115646,0.48639455782312924,0.47959183673469385,0.46938775510204084,0.46938775510204084,0.46258503401360546,0.45918367346938777,0.4557823129251701,0.4557823129251701,0.4523809523809524,0.4523809523809524,0.4523809523809524,0.4489795918367347,0.4489795918367347,0.4489795918367347,0.4489795918367347,0.445578231292517,0.445578231292517,0.445578231292517,0.445578231292517,0.4421768707482993,0.4421768707482993,0.4421768707482993,0.4421768707482993,0.4421768707482993,0.4421768707482993,0.4421768707482993,0.4421768707482993,0.4421768707482993,0.4421768707482993,0.4421768707482993,0.4421768707482993,0.4421768707482993,0.4421768707482993,0.4421768707482993,0.4421768707482993,0.4421768707482993,0.4421768707482993,0.4421768707482993,0.4421768707482993,0.4421768707482993,0.4421768707482993,0.4421768707482993,0.4421768707482993,0.4421768707482993,0.4421768707482993,0.4421768707482993,0.4421768707482993,0.4421768707482993,0.4421768707482993,0.4421768707482993,0.4421768707482993,0.4421768707482993,0.4387755102040816,0.4387755102040816,0.4387755102040816,0.43537414965986393,0.43537414965986393,0.43537414965986393,0.43537414965986393,0.43197278911564624,0.43197278911564624,0.43197278911564624,0.43197278911564624,0.42857142857142855,0.42857142857142855,0.42857142857142855,0.42857142857142855,0.42517006802721086,0.4217687074829932,0.4217687074829932,0.41836734693877553,0.41156462585034015,0.40816326530612246,0.3945578231292517,0.37755102040816324,0.3707482993197279,0.35034013605442177,0.3231292517006803,0.30612244897959184,0.2755102040816326,0.2585034013605442,0.24829931972789115,0.24489795918367346,0.24149659863945577,0.23469387755102042,0.23129251700680273,0.22448979591836735,0.22108843537414966,0.21768707482993196,0.2108843537414966,0.20408163265306123,0.20068027210884354,0.19727891156462585,0.19047619047619047,0.19047619047619047,0.1870748299319728,0.1836734693877551,0.18027210884353742,0.17687074829931973,0.17346938775510204,0.17346938775510204,0.17006802721088435,0.16666666666666666,0.16666666666666666,0.16326530612244897,0.16326530612244897,0.1598639455782313,0.1598639455782313,0.1598639455782313,0.1598639455782313,0.1598639455782313,0.1598639455782313,0.1598639455782313,0.1598639455782313,0.1598639455782313,0.1598639455782313,0.1598639455782313,0.1598639455782313,0.1598639455782313,0.1598639455782313,0.1598639455782313,0.1598639455782313,0.1598639455782313,0.1598639455782313,0.1598639455782313,0.1598639455782313,0.1598639455782313,0.1598639455782313,0.1598639455782313,0.1598639455782313,0.1598639455782313,0.1598639455782313,0.1598639455782313,0.1598639455782313,0.1598639455782313,0.1598639455782313,0.1598639455782313,0.1598639455782313,0.1598639455782313,0.1598639455782313,0.1598639455782313,0.1598639455782313,0.1598639455782313,0.1598639455782313,0.1598639455782313,0.1598639455782313,0.1598639455782313,0.1598639455782313,0.1598639455782313,0.1598639455782313,0.1598639455782313,0.1598639455782313,0.1598639455782313,0.1598639455782313,0.1598639455782313,0.1598639455782313,0.1598639455782313,0.1598639455782313,0.1598639455782313,0.1598639455782313,0.1598639455782313,0.1598639455782313,0.1598639455782313,0.1598639455782313,0.1598639455782313,0.1598639455782313,0.1598639455782313,0.1598639455782313,0.1598639455782313,0.1598639455782313,0.1598639455782313,0.1598639455782313,0.1598639455782313,0.1598639455782313,0.1598639455782313,0.1598639455782313,0.1598639455782313,0.1598639455782313,0.1598639455782313,0.1598639455782313,0.1598639455782313,0.1598639455782313,0.1598639455782313,0.1598639455782313,0.1598639455782313,0.1598639455782313,0.1598639455782313,0.1598639455782313,0.1598639455782313,0.1598639455782313,0.1598639455782313,0.1598639455782313,0.1598639455782313,0.1598639455782313,0.1598639455782313,0.1598639455782313,0.1598639455782313,0.1598639455782313,0.1598639455782313,0.1598639455782313,0.1598639455782313,0.1598639455782313,0.1598639455782313,0.1598639455782313,0.1598639455782313,0.1598639455782313,0.1598639455782313,0.1598639455782313,0.1598639455782313,0.1598639455782313,0.1598639455782313,0.1598639455782313,0.1598639455782313,0.1598639455782313,0.1598639455782313,0.1598639455782313,0.1598639455782313,0.1598639455782313,0.1598639455782313,0.1598639455782313,0.1598639455782313,0.1598639455782313,0.1598639455782313,0.1598639455782313,0.1598639455782313,0.1598639455782313,0.1598639455782313,0.1598639455782313,0.1598639455782313,0.1598639455782313,0.1598639455782313,0.1598639455782313,0.1598639455782313,0.1598639455782313,0.1598639455782313,0.1598639455782313,0.1598639455782313,0.1598639455782313,0.1598639455782313,0.1598639455782313,0.1598639455782313,0.1598639455782313,0.1598639455782313,0.1598639455782313,0.1598639455782313,0.1598639455782313,0.1598639455782313,0.1598639455782313,0.1598639455782313,0.1598639455782313,0.1598639455782313,0.1598639455782313,0.1598639455782313,0.1598639455782313,0.1598639455782313,0.1598639455782313,0.1598639455782313,0.1598639455782313,0.1598639455782313,0.1598639455782313,0.1598639455782313,0.1598639455782313,0.1598639455782313,0.1598639455782313,0.1598639455782313,0.1598639455782313,0.1598639455782313,0.1598639455782313,0.1598639455782313,0.1598639455782313,0.1598639455782313,0.1598639455782313,0.1598639455782313,0.1598639455782313,0.1598639455782313,0.1598639455782313,0.1598639455782313,0.1598639455782313,0.1598639455782313,0.1598639455782313,0.1598639455782313,0.1598639455782313,0.1598639455782313,0.1598639455782313,0.1598639455782313,0.1598639455782313,0.1598639455782313,0.1598639455782313,0.1598639455782313,0.1598639455782313,0.1598639455782313,0.1598639455782313,0.1598639455782313,0.1870748299319728,0.19727891156462585,0.21428571428571427,0.22789115646258504,0.23809523809523808,0.24489795918367346,0.2619047619047619,0.272108843537415,0.30272108843537415,0.32653061224489793,0.336734693877551,0.3401360544217687,0.35034013605442177,0.3673469387755102,0.37755102040816324,0.41496598639455784,0.4523809523809524,0.45918367346938777,0.46938775510204084,0.47278911564625853,0.47278911564625853,0.47278911564625853,0.47278911564625853,0.47278911564625853,0.47278911564625853,0.47278911564625853,0.47278911564625853,0.47278911564625853,0.47278911564625853,0.47278911564625853,0.47278911564625853,0.47278911564625853,0.47278911564625853,0.47278911564625853,0.47278911564625853,0.47278911564625853,0.47278911564625853,0.47278911564625853,0.47278911564625853,0.47278911564625853,0.47278911564625853,0.47278911564625853,0.47278911564625853,0.47278911564625853,0.47278911564625853,0.47278911564625853,0.47278911564625853,0.47278911564625853,0.47278911564625853,0.47278911564625853,0.47278911564625853,0.46938775510204084,0.46938775510204084,0.46598639455782315,0.46598639455782315,0.46258503401360546,0.46258503401360546,0.46258503401360546,0.46258503401360546,0.45918367346938777,0.45918367346938777,0.45918367346938777,0.4557823129251701,0.4557823129251701,0.4557823129251701,0.4557823129251701,0.4523809523809524,0.4523809523809524,0.4523809523809524,0.4523809523809524,0.4523809523809524,0.4523809523809524,0.4523809523809524,0.4523809523809524,0.4489795918367347,0.4489795918367347,0.4489795918367347,0.4489795918367347,0.4489795918367347,0.4489795918367347,0.4489795918367347,0.4489795918367347,0.4489795918367347,0.4489795918367347,0.4489795918367347,0.4489795918367347,0.4489795918367347,0.4489795918367347,0.4489795918367347,0.4489795918367347,0.4489795918367347,0.4489795918367347,0.4489795918367347,0.4489795918367347,0.4489795918367347,0.4489795918367347,0.4489795918367347,0.4489795918367347,0.4489795918367347,0.4489795918367347,0.4489795918367347,0.4489795918367347,0.4489795918367347,0.4489795918367347,0.4489795918367347,0.4489795918367347,0.4489795918367347,0.4489795918367347,0.4489795918367347,0.4489795918367347,0.4489795918367347,0.4489795918367347,0.4489795918367347,0.4489795918367347,0.4489795918367347,0.4489795918367347,0.4489795918367347,0.4489795918367347,0.4489795918367347,0.4489795918367347,0.4489795918367347,0.4489795918367347,0.4489795918367347,0.4489795918367347,0.4489795918367347,0.4489795918367347,0.4489795918367347,0.4489795918367347,0.4489795918367347,0.4489795918367347,0.4489795918367347,0.4489795918367347,0.4489795918367347,0.4489795918367347,0.4489795918367347,0.4489795918367347,0.4489795918367347,0.4489795918367347,0.4489795918367347,0.4489795918367347,0.4489795918367347,0.4489795918367347,0.4489795918367347,0.4489795918367347,0.4489795918367347,0.4489795918367347,0.4489795918367347,0.4489795918367347,0.4489795918367347,0.4489795918367347,0.4489795918367347,0.4489795918367347,0.4489795918367347,0.4489795918367347,0.4489795918367347,0.4489795918367347,0.4489795918367347,0.4489795918367347,0.4489795918367347,0.4489795918367347,0.4489795918367347,0.4489795918367347,0.4489795918367347,0.4489795918367347,0.4489795918367347,0.4489795918367347,0.4489795918367347,0.4489795918367347,0.4489795918367347,0.4489795918367347,0.4489795918367347,0.4489795918367347,0.4489795918367347,0.4489795918367347,0.4489795918367347,0.4489795918367347,0.4489795918367347,0.4489795918367347,0.4489795918367347,0.4489795918367347,0.4489795918367347,0.4489795918367347,0.4489795918367347,0.4489795918367347,0.4489795918367347,0.4489795918367347,0.4489795918367347,0.4489795918367347,0.4489795918367347,0.4489795918367347,0.4489795918367347,0.4489795918367347,0.4489795918367347,0.4489795918367347,0.4489795918367347,0.4489795918367347,0.4489795918367347,0.4489795918367347,0.4489795918367347,0.4489795918367347,0.4489795918367347,0.4489795918367347,0.4489795918367347,0.4489795918367347,0.4489795918367347,0.4489795918367347,0.4489795918367347,0.4489795918367347,0.4489795918367347,0.4489795918367347,0.4489795918367347,0.4489795918367347,0.4489795918367347,0.4489795918367347,0.4489795918367347,0.4489795918367347,0.4489795918367347,0.4489795918367347,0.4489795918367347,0.4489795918367347,0.4489795918367347,0.4489795918367347,0.4489795918367347,0.4489795918367347,0.4489795918367347,0.4489795918367347,0.4489795918367347,0.4489795918367347,0.4489795918367347,0.4489795918367347,0.4489795918367347,0.4489795918367347,0.4489795918367347,0.4489795918367347,0.4489795918367347,0.4489795918367347,0.4489795918367347,0.4489795918367347,0.4489795918367347,0.4489795918367347,0.4489795918367347,0.4489795918367347,0.4489795918367347,0.4489795918367347,0.4489795918367347,0.4489795918367347,0.4489795918367347,0.4489795918367347,0.4489795918367347,0.4489795918367347,0.4489795918367347,0.4489795918367347,0.4489795918367347,0.4489795918367347,0.4489795918367347,0.4489795918367347,0.4489795918367347,0.4489795918367347,0.4489795918367347,0.4489795918367347,0.4489795918367347,0.4489795918367347,0.4489795918367347,0.4489795918367347,0.4489795918367347,0.4489795918367347,0.4489795918367347,0.4489795918367347,0.4489795918367347,0.4489795918367347,0.4489795918367347,0.4489795918367347,0.4489795918367347,0.4489795918367347,0.4489795918367347,0.4489795918367347,0.4489795918367347,0.4489795918367347,0.4489795918367347,0.4489795918367347,0.4489795918367347,0.4489795918367347,0.4489795918367347,0.4489795918367347,0.4489795918367347,0.4489795918367347,0.4489795918367347,0.4489795918367347,0.4489795918367347,0.4489795918367347,0.445578231292517,0.445578231292517,0.445578231292517,0.445578231292517,0.445578231292517,0.445578231292517,0.445578231292517,0.445578231292517,0.445578231292517,0.445578231292517,0.445578231292517,0.445578231292517,0.445578231292517,0.445578231292517,0.445578231292517,0.445578231292517,0.445578231292517,0.445578231292517,0.445578231292517,0.445578231292517,0.445578231292517,0.445578231292517,0.445578231292517,0.445578231292517,0.445578231292517,0.445578231292517,0.445578231292517,0.445578231292517,0.445578231292517,0.445578231292517,0.445578231292517,0.445578231292517,0.445578231292517,0.445578231292517,0.445578231292517,0.445578231292517,0.445578231292517,0.445578231292517,0.445578231292517,0.445578231292517,0.445578231292517,0.445578231292517,0.445578231292517,0.445578231292517,0.445578231292517,0.445578231292517,0.445578231292517,0.445578231292517,0.4421768707482993,0.4421768707482993,0.4421768707482993,0.4421768707482993,0.4421768707482993,0.4421768707482993,0.4421768707482993,0.4421768707482993,0.4421768707482993,0.4421768707482993,0.4421768707482993,0.4421768707482993,0.4421768707482993,0.4421768707482993,0.4421768707482993,0.4421768707482993,0.4421768707482993,0.4421768707482993,0.4421768707482993,0.4387755102040816,0.4387755102040816,0.4387755102040816,0.4387755102040816,0.4387755102040816,0.4387755102040816,0.4387755102040816,0.4387755102040816,0.4387755102040816,0.4387755102040816,0.4387755102040816,0.4387755102040816,0.4387755102040816,0.4387755102040816,0.4387755102040816,0.4387755102040816,0.4387755102040816,0.4387755102040816,0.4387755102040816,0.4387755102040816,0.4387755102040816,0.4387755102040816,0.4387755102040816,0.4387755102040816,0.4387755102040816,0.4387755102040816,0.4387755102040816,0.4387755102040816,0.4387755102040816,0.4387755102040816,0.4387755102040816,0.4387755102040816,0.4387755102040816,0.4387755102040816,0.4387755102040816,0.4387755102040816,0.4387755102040816,0.4387755102040816,0.4387755102040816,0.4387755102040816,0.4387755102040816,0.4387755102040816,0.4387755102040816,0.4387755102040816,0.4387755102040816,0.4387755102040816,0.4387755102040816,0.4387755102040816,0.4387755102040816,0.4387755102040816,0.4387755102040816,0.4387755102040816,0.4421768707482993,0.4421768707482993,0.4489795918367347,0.4557823129251701,0.46598639455782315,0.47959183673469385,0.4931972789115646,0.4965986394557823,0.5,0.5034013605442177,0.5034013605442177,0.5068027210884354,0.5068027210884354,0.5068027210884354,0.5102040816326531,0.5102040816326531,0.5102040816326531,0.5102040816326531,0.5102040816326531,0.5136054421768708,0.5136054421768708,0.5136054421768708,0.5136054421768708,0.5170068027210885,0.5170068027210885,0.5170068027210885,0.5170068027210885,0.5204081632653061,0.5204081632653061,0.5204081632653061,0.5204081632653061,0.5204081632653061,0.5204081632653061,0.5204081632653061,0.5204081632653061,0.5204081632653061,0.5204081632653061,0.5204081632653061,0.5204081632653061,0.5204081632653061,0.5204081632653061,0.5204081632653061,0.5204081632653061,0.5204081632653061,0.5204081632653061,0.5204081632653061,0.5204081632653061,0.5238095238095238,0.5272108843537415,0.5272108843537415,0.5272108843537415,0.5306122448979592,0.5306122448979592,0.5340136054421769,0.5340136054421769,0.5374149659863946,0.5374149659863946,0.5408163265306123,0.54421768707483,0.54421768707483,0.5476190476190477,0.5510204081632653,0.5510204081632653,0.5544217687074829,0.5544217687074829,0.5544217687074829,0.5578231292517006,0.5578231292517006,0.5578231292517006,0.5612244897959183,0.5612244897959183,0.5612244897959183,0.564625850340136,0.564625850340136,0.564625850340136,0.5680272108843537,0.5680272108843537,0.5714285714285714,0.5714285714285714,0.5714285714285714,0.5714285714285714,0.5714285714285714,0.5714285714285714,0.5714285714285714,0.5714285714285714,0.5714285714285714,0.5714285714285714,0.5714285714285714,0.5714285714285714,0.5714285714285714,0.5714285714285714,0.5714285714285714,0.5714285714285714,0.5714285714285714,0.5714285714285714,0.5714285714285714,0.5714285714285714,0.5714285714285714,0.5714285714285714,0.5714285714285714,0.5714285714285714,0.5714285714285714,0.5680272108843537,0.5680272108843537,0.5680272108843537,0.5680272108843537,0.5680272108843537,0.5680272108843537,0.5680272108843537,0.5680272108843537,0.5680272108843537,0.5680272108843537,0.5680272108843537,0.5680272108843537,0.5680272108843537,0.5680272108843537,0.5680272108843537,0.5680272108843537,0.5680272108843537,0.5680272108843537,0.5680272108843537,0.5680272108843537,0.5680272108843537,0.5680272108843537,0.5680272108843537,0.5680272108843537,0.5680272108843537,0.5680272108843537,0.5680272108843537,0.5680272108843537,0.5680272108843537,0.5680272108843537,0.5680272108843537,0.5680272108843537,0.5680272108843537,0.5680272108843537,0.5680272108843537,0.5680272108843537,0.5680272108843537,0.5680272108843537,0.5680272108843537,0.5680272108843537,0.5680272108843537,0.5680272108843537,0.5680272108843537,0.5680272108843537,0.5680272108843537,0.5680272108843537,0.5680272108843537,0.5680272108843537,0.5680272108843537,0.5680272108843537,0.5680272108843537,0.5680272108843537,0.5680272108843537,0.5680272108843537,0.5680272108843537,0.5680272108843537,0.5680272108843537,0.5680272108843537,0.5680272108843537,0.5680272108843537,0.5680272108843537,0.5680272108843537,0.5680272108843537,0.5680272108843537,0.5680272108843537,0.5680272108843537,0.5680272108843537,0.5680272108843537,0.5680272108843537,0.5680272108843537,0.5680272108843537,0.5680272108843537,0.5680272108843537,0.5680272108843537,0.5680272108843537,0.5680272108843537,0.5680272108843537,0.5680272108843537,0.5680272108843537,0.5680272108843537,0.5680272108843537,0.5680272108843537,0.5680272108843537,0.5680272108843537,0.5680272108843537,0.5680272108843537,0.5680272108843537,0.5680272108843537,0.5680272108843537,0.5680272108843537,0.5680272108843537,0.5680272108843537,0.5680272108843537,0.5680272108843537,0.5680272108843537,0.5680272108843537,0.5680272108843537,0.5680272108843537,0.5680272108843537,0.5680272108843537,0.5680272108843537,0.5714285714285714,0.5714285714285714,0.5714285714285714,0.5714285714285714,0.5714285714285714,0.5714285714285714,0.5714285714285714,0.5748299319727891,0.5748299319727891,0.5748299319727891,0.5782312925170068,0.5782312925170068,0.5782312925170068,0.5782312925170068,0.5816326530612245,0.5816326530612245,0.5816326530612245,0.5816326530612245,0.5850340136054422,0.5850340136054422,0.5952380952380952,0.6020408163265306,0.6224489795918368,0.6394557823129252,0.6496598639455783,0.6530612244897959,0.6632653061224489,0.6700680272108843,0.6768707482993197,0.6836734693877551,0.6938775510204082,0.7006802721088435,0.7108843537414966,0.7210884353741497,0.7244897959183674,0.7346938775510204,0.7448979591836735,0.7482993197278912,0.7585034013605442,0.7687074829931972,0.7721088435374149,0.7755102040816326,0.7789115646258503,0.7857142857142857,0.7891156462585034,0.7925170068027211,0.7959183673469388,0.7993197278911565,0.8061224489795918,0.8129251700680272,0.8129251700680272,0.8163265306122449,0.8231292517006803,0.8231292517006803,0.826530612244898,0.8299319727891157,0.8299319727891157,0.8333333333333334,0.8333333333333334,0.8333333333333334,0.8333333333333334,0.8367346938775511,0.8367346938775511,0.8367346938775511,0.8367346938775511,0.8401360544217688,0.8401360544217688,0.8401360544217688,0.8401360544217688,0.8401360544217688,0.8401360544217688,0.8401360544217688,0.8401360544217688,0.8401360544217688,0.8401360544217688,0.8401360544217688,0.8401360544217688,0.8401360544217688,0.8401360544217688,0.8401360544217688,0.8401360544217688,0.8401360544217688,0.8401360544217688,0.8401360544217688,0.8401360544217688,0.8401360544217688,0.8401360544217688,0.8401360544217688,0.8401360544217688,0.8401360544217688,0.8401360544217688,0.8401360544217688,0.8401360544217688,0.8401360544217688,0.8401360544217688,0.8401360544217688,0.8401360544217688,0.8401360544217688,0.8401360544217688,0.8401360544217688,0.8401360544217688,0.8401360544217688,0.8401360544217688,0.8401360544217688,0.8401360544217688,0.8401360544217688,0.8401360544217688,0.8401360544217688,0.8401360544217688,0.8401360544217688,0.8401360544217688,0.8401360544217688,0.8401360544217688,0.8401360544217688,0.8401360544217688,0.8401360544217688,0.8401360544217688,0.8401360544217688,0.8401360544217688,0.8401360544217688,0.8401360544217688,0.8401360544217688,0.8401360544217688,0.8401360544217688,0.8401360544217688,0.8401360544217688,0.8401360544217688,0.8401360544217688,0.8401360544217688,0.8401360544217688,0.8401360544217688,0.8401360544217688,0.8401360544217688,0.8401360544217688,0.8401360544217688,0.8401360544217688,0.8367346938775511,0.8367346938775511,0.8333333333333334,0.8299319727891157,0.826530612244898,0.826530612244898,0.8231292517006803,0.8197278911564626,0.8197278911564626,0.8197278911564626,0.8197278911564626,0.8163265306122449,0.8163265306122449,0.8163265306122449,0.8163265306122449,0.8163265306122449,0.8197278911564626,0.8231292517006803,0.8299319727891157,0.8469387755102041,0.8775510204081632,0.891156462585034,0.9149659863945578,0.9285714285714286,0.935374149659864,0.9489795918367347,0.9625850340136054,0.9659863945578231,0.9761904761904762,0.9795918367346939,0.9931972789115646,0.9965986394557823,1.0068027210884354,1.010204081632653,1.0170068027210883,1.0238095238095237,1.030612244897959,1.034013605442177,1.0374149659863945,1.0408163265306123,1.0476190476190477,1.054421768707483,1.0612244897959184,1.064625850340136,1.0714285714285714,1.0782312925170068,1.0816326530612246,1.08843537414966,1.0918367346938775,1.0952380952380953,1.098639455782313,1.1020408163265305,1.1020408163265305,1.1054421768707483,1.1088435374149659,1.1088435374149659,1.1122448979591837,1.1122448979591837,1.1122448979591837,1.1122448979591837,1.1156462585034013,1.1156462585034013,1.1156462585034013,1.1156462585034013,1.119047619047619,1.119047619047619,1.119047619047619,1.119047619047619,1.119047619047619,1.119047619047619,1.119047619047619,1.119047619047619,1.119047619047619,1.119047619047619,1.119047619047619,1.119047619047619,1.119047619047619,1.119047619047619,1.119047619047619,1.119047619047619,1.119047619047619,1.119047619047619,1.119047619047619,1.119047619047619,1.119047619047619,1.119047619047619,1.119047619047619,1.119047619047619,1.119047619047619,1.119047619047619,1.119047619047619,1.119047619047619,1.119047619047619,1.119047619047619,1.119047619047619,1.119047619047619,1.119047619047619,1.119047619047619,1.119047619047619,1.119047619047619,1.119047619047619,1.119047619047619,1.119047619047619,1.119047619047619,1.119047619047619,1.119047619047619,1.119047619047619,1.119047619047619,1.119047619047619,1.119047619047619,1.119047619047619,1.119047619047619,1.119047619047619,1.119047619047619,1.119047619047619,1.119047619047619,1.119047619047619,1.119047619047619,1.119047619047619,1.119047619047619,1.119047619047619,1.119047619047619,1.119047619047619,1.119047619047619,1.119047619047619,1.119047619047619,1.119047619047619,1.119047619047619,1.119047619047619,1.119047619047619,1.119047619047619,1.119047619047619,1.119047619047619,1.119047619047619,1.119047619047619,1.119047619047619,1.119047619047619,1.119047619047619,1.119047619047619,1.119047619047619,1.119047619047619,1.119047619047619,1.119047619047619,1.119047619047619,1.119047619047619,1.119047619047619,1.119047619047619,1.119047619047619,1.119047619047619,1.119047619047619,1.119047619047619,1.119047619047619,1.119047619047619,1.119047619047619,1.119047619047619,1.119047619047619,1.119047619047619,1.119047619047619,1.119047619047619,1.119047619047619,1.119047619047619,1.119047619047619,1.119047619047619,1.119047619047619,1.119047619047619,1.119047619047619,1.119047619047619,1.119047619047619,1.119047619047619,1.1156462585034013,1.1088435374149659,1.1020408163265305,1.0952380952380953,1.0850340136054422,1.0714285714285714,1.064625850340136,1.0476190476190477,1.030612244897959,1.0272108843537415,1.0204081632653061,1.0068027210884354,0.9965986394557823,0.9863945578231292,0.9761904761904762,0.9727891156462585,0.9659863945578231,0.95578231292517,0.9421768707482994,0.935374149659864,0.9217687074829932,0.9149659863945578,0.9081632653061225,0.9047619047619048,0.9013605442176871,0.8979591836734694,0.8979591836734694,0.8945578231292517,0.8945578231292517,0.8945578231292517,0.8945578231292517,0.8979591836734694,0.8979591836734694,0.9013605442176871,0.9047619047619048,0.9115646258503401,0.9183673469387755,0.9251700680272109,0.935374149659864,0.9455782312925171,0.9489795918367347,0.9523809523809523,0.9625850340136054,0.9659863945578231,0.9693877551020408,0.9727891156462585,0.9727891156462585,0.9761904761904762,0.9761904761904762,0.9761904761904762,0.9761904761904762,0.9795918367346939,0.9795918367346939,0.9795918367346939,0.9795918367346939,0.9829931972789115,0.9829931972789115,0.9829931972789115,0.9829931972789115,0.9829931972789115,0.9829931972789115,0.9829931972789115,0.9829931972789115,0.9829931972789115,0.9829931972789115,0.9829931972789115,0.9829931972789115,0.9829931972789115,0.9829931972789115,0.9829931972789115,0.9829931972789115,0.9829931972789115,0.9829931972789115,0.9829931972789115,0.9829931972789115,0.9829931972789115,0.9829931972789115,0.9829931972789115,0.9829931972789115,0.9829931972789115,0.9829931972789115,0.9829931972789115,0.9829931972789115,0.9829931972789115,0.9829931972789115,0.9829931972789115,0.9829931972789115,0.9829931972789115,0.9829931972789115,0.9829931972789115,0.9829931972789115,0.9829931972789115,0.9829931972789115,0.9829931972789115,0.9829931972789115,0.9285714285714286,0.8605442176870748,0.826530612244898,0.7755102040816326,0.7312925170068028,0.7040816326530612,0.6972789115646258,0.6904761904761905,0.6870748299319728,0.6836734693877551,0.6802721088435374,0.6802721088435374,0.6802721088435374,0.6802721088435374,0.6768707482993197,0.6768707482993197,0.673469387755102,0.6700680272108843,0.6666666666666666,0.6632653061224489,0.6598639455782312,0.6564625850340136,0.6530612244897959,0.6462585034013606,0.6462585034013606,0.6394557823129252,0.6360544217687075,0.6360544217687075,0.6326530612244898,0.6292517006802721,0.6258503401360545,0.6224489795918368,0.6190476190476191,0.6190476190476191,0.6122448979591837,0.608843537414966,0.608843537414966,0.6054421768707483,0.6054421768707483,0.6020408163265306,0.6020408163265306,0.5986394557823129,0.5986394557823129,0.5952380952380952,0.5952380952380952,0.5918367346938775,0.5918367346938775,0.5884353741496599,0.5884353741496599,0.5884353741496599,0.5884353741496599,0.5850340136054422,0.5850340136054422,0.5850340136054422,0.5850340136054422,0.5850340136054422,0.5850340136054422,0.5850340136054422,0.5850340136054422,0.5850340136054422,0.5850340136054422,0.5850340136054422,0.5850340136054422,0.5850340136054422,0.5850340136054422,0.5850340136054422,0.5850340136054422,0.5850340136054422,0.5850340136054422,0.5850340136054422,0.5850340136054422,0.5850340136054422,0.5850340136054422,0.5850340136054422,0.5850340136054422,0.5850340136054422,0.5850340136054422,0.5850340136054422,0.5850340136054422,0.5850340136054422,0.5850340136054422,0.5850340136054422,0.5850340136054422,0.5850340136054422,0.5850340136054422,0.5850340136054422,0.5850340136054422,0.5850340136054422,0.5850340136054422,0.5850340136054422,0.5850340136054422,0.5850340136054422,0.5850340136054422,0.5850340136054422,0.5850340136054422,0.5850340136054422,0.5850340136054422,0.5850340136054422,0.5850340136054422,0.5850340136054422,0.5850340136054422,0.5850340136054422,0.5850340136054422,0.5850340136054422,0.5850340136054422,0.5850340136054422,0.5850340136054422,0.5850340136054422,0.5850340136054422,0.5850340136054422,0.5850340136054422,0.5850340136054422,0.5850340136054422,0.5850340136054422,0.5850340136054422,0.5850340136054422,0.5850340136054422,0.5850340136054422,0.5850340136054422,0.5850340136054422,0.5850340136054422,0.5850340136054422,0.5850340136054422,0.5850340136054422,0.5850340136054422,0.5850340136054422,0.5850340136054422,0.5850340136054422,0.5850340136054422,0.5850340136054422,0.5850340136054422,0.5850340136054422,0.5850340136054422,0.5850340136054422,0.5850340136054422,0.5850340136054422,0.5850340136054422,0.5850340136054422,0.5850340136054422,0.5850340136054422,0.5850340136054422,0.5850340136054422,0.5850340136054422,0.5850340136054422,0.5850340136054422,0.5850340136054422,0.5850340136054422,0.5850340136054422,0.5850340136054422,0.5850340136054422,0.5850340136054422,0.5850340136054422,0.5850340136054422,0.5850340136054422,0.5850340136054422,0.5850340136054422,0.5850340136054422,0.5850340136054422,0.5850340136054422,0.5850340136054422,0.5850340136054422,0.5850340136054422,0.5850340136054422,0.5850340136054422,0.5850340136054422,0.5850340136054422,0.5850340136054422,0.5850340136054422,0.5850340136054422,0.5850340136054422,0.5850340136054422,0.5850340136054422,0.5850340136054422,0.5850340136054422,0.5850340136054422,0.5850340136054422,0.5850340136054422,0.5850340136054422,0.5850340136054422,0.5850340136054422,0.5850340136054422,0.5850340136054422],"y":[-3.607142857142857,-3.607142857142857,-3.607142857142857,-3.607142857142857,-3.607142857142857,-3.607142857142857,-3.607142857142857,-3.607142857142857,-3.607142857142857,-3.607142857142857,-3.607142857142857,-3.607142857142857,-3.607142857142857,-3.607142857142857,-3.607142857142857,-3.607142857142857,-3.607142857142857,-3.607142857142857,-3.607142857142857,-3.607142857142857,-3.607142857142857,-3.607142857142857,-3.607142857142857,-3.607142857142857,-3.607142857142857,-3.607142857142857,-3.607142857142857,-3.607142857142857,-3.607142857142857,-3.607142857142857,-3.607142857142857,-3.607142857142857,-3.607142857142857,-3.607142857142857,-3.607142857142857,-3.607142857142857,-3.607142857142857,-3.607142857142857,-3.607142857142857,-3.607142857142857,-3.607142857142857,-3.607142857142857,-3.607142857142857,-3.607142857142857,-3.607142857142857,-3.607142857142857,-3.607142857142857,-3.607142857142857,-3.607142857142857,-3.607142857142857,-3.607142857142857,-3.607142857142857,-3.607142857142857,-3.607142857142857,-3.607142857142857,-3.607142857142857,-3.607142857142857,-3.607142857142857,-3.607142857142857,-3.607142857142857,-3.607142857142857,-3.607142857142857,-3.607142857142857,-3.607142857142857,-3.607142857142857,-3.607142857142857,-3.607142857142857,-3.607142857142857,-3.607142857142857,-3.607142857142857,-3.607142857142857,-3.607142857142857,-3.607142857142857,-3.607142857142857,-3.607142857142857,-3.607142857142857,-3.607142857142857,-3.607142857142857,-3.607142857142857,-3.607142857142857,-3.607142857142857,-3.607142857142857,-3.607142857142857,-3.607142857142857,-3.607142857142857,-3.607142857142857,-3.607142857142857,-3.607142857142857,-3.607142857142857,-3.607142857142857,-3.607142857142857,-3.607142857142857,-3.607142857142857,-3.607142857142857,-3.607142857142857,-3.607142857142857,-3.607142857142857,-3.607142857142857,-3.607142857142857,-3.607142857142857,-3.607142857142857,-3.607142857142857,-3.607142857142857,-3.607142857142857,-3.607142857142857,-3.607142857142857,-3.607142857142857,-3.607142857142857,-3.607142857142857,-3.607142857142857,-3.607142857142857,-3.607142857142857,-3.607142857142857,-3.607142857142857,-3.607142857142857,-3.607142857142857,-3.607142857142857,-3.607142857142857,-3.607142857142857,-3.607142857142857,-3.607142857142857,-3.607142857142857,-3.607142857142857,-3.607142857142857,-3.607142857142857,-3.607142857142857,-3.607142857142857,-3.607142857142857,-3.607142857142857,-3.607142857142857,-3.607142857142857,-3.607142857142857,-3.607142857142857,-3.607142857142857,-3.607142857142857,-3.607142857142857,-3.607142857142857,-3.607142857142857,-3.607142857142857,-3.607142857142857,-3.607142857142857,-3.607142857142857,-3.607142857142857,-3.607142857142857,-3.607142857142857,-3.607142857142857,-3.607142857142857,-3.607142857142857,-3.607142857142857,-3.607142857142857,-3.607142857142857,-3.607142857142857,-3.607142857142857,-3.607142857142857,-3.607142857142857,-3.607142857142857,-3.607142857142857,-3.607142857142857,-3.607142857142857,-3.607142857142857,-3.607142857142857,-3.607142857142857,-3.607142857142857,-3.607142857142857,0.38483630943866004,0.35626488086723146,0.35626488086723146,0.3372172618196124,0.3181696427719934,0.30864583324818384,0.2895982142005648,0.27055059515294577,0.2515029761053267,0.23245535705770765,0.2038839284862791,0.18483630943866003,0.1753124999148505,0.15626488086723145,0.15626488086723145,0.14674107134342193,0.1372172618196124,0.1372172618196124,0.1276934522958029,0.1276934522958029,0.1276934522958029,0.1276934522958029,0.11816964277199336,0.11816964277199336,0.11816964277199336,0.11816964277199336,0.11816964277199336,0.10864583324818385,0.10864583324818385,0.10864583324818385,0.10864583324818385,0.09912202372437431,0.09912202372437431,0.09912202372437431,0.09912202372437431,0.09912202372437431,0.09912202372437431,0.09912202372437431,0.09912202372437431,0.09912202372437431,0.09912202372437431,0.09912202372437431,0.09912202372437431,0.09912202372437431,0.09912202372437431,0.09912202372437431,0.09912202372437431,0.09912202372437431,0.09912202372437431,0.09912202372437431,0.09912202372437431,0.09912202372437431,0.09912202372437431,0.09912202372437431,0.09912202372437431,0.09912202372437431,0.09912202372437431,0.09912202372437431,0.09912202372437431,0.09912202372437431,0.09912202372437431,0.09912202372437431,0.09912202372437431,0.09912202372437431,0.09912202372437431,0.09912202372437431,0.09912202372437431,0.09912202372437431,0.09912202372437431,0.09912202372437431,0.09912202372437431,0.09912202372437431,0.09912202372437431,0.09912202372437431,0.09912202372437431,0.10864583324818385,0.10864583324818385,0.10864583324818385,0.10864583324818385,0.10864583324818385,0.10864583324818385,0.10864583324818385,0.10864583324818385,0.10864583324818385,0.10864583324818385,0.11816964277199336,0.11816964277199336,0.11816964277199336,0.11816964277199336,0.11816964277199336,0.1276934522958029,0.1276934522958029,0.1276934522958029,0.1276934522958029,0.1372172618196124,0.1372172618196124,0.1372172618196124,0.1372172618196124,0.1372172618196124,0.1372172618196124,0.1372172618196124,0.1372172618196124,0.1372172618196124,0.14674107134342193,0.14674107134342193,0.14674107134342193,0.14674107134342193,0.14674107134342193,0.14674107134342193,0.14674107134342193,0.14674107134342193,0.14674107134342193,0.14674107134342193,0.14674107134342193,0.14674107134342193,0.14674107134342193,0.14674107134342193,0.14674107134342193,0.14674107134342193,0.14674107134342193,0.14674107134342193,0.14674107134342193,0.14674107134342193,0.14674107134342193,0.14674107134342193,0.14674107134342193,0.14674107134342193,0.14674107134342193,0.14674107134342193,0.14674107134342193,0.14674107134342193,0.14674107134342193,0.14674107134342193,0.14674107134342193,0.14674107134342193,0.1372172618196124,0.1372172618196124,0.1372172618196124,0.1372172618196124,0.1276934522958029,0.1276934522958029,0.1276934522958029,0.11816964277199336,0.11816964277199336,0.11816964277199336,0.10864583324818385,0.10864583324818385,0.09912202372437431,0.09912202372437431,0.0895982142005648,0.0895982142005648,0.0895982142005648,0.0895982142005648,0.08007440467675526,0.08007440467675526,0.08007440467675526,0.08007440467675526,0.08007440467675526,0.08007440467675526,0.08007440467675526,0.08007440467675526,0.08007440467675526,0.08007440467675526,0.08007440467675526,0.08007440467675526,0.08007440467675526,0.08007440467675526,0.08007440467675526,0.08007440467675526,0.08007440467675526,0.08007440467675526,0.08007440467675526,0.08007440467675526,0.08007440467675526,0.08007440467675526,0.08007440467675526,0.08007440467675526,0.08007440467675526,0.08007440467675526,0.08007440467675526,0.08007440467675526,0.08007440467675526,0.08007440467675526,0.08007440467675526,0.08007440467675526,0.08007440467675526,0.08007440467675526,0.08007440467675526,0.07055059515294575,0.07055059515294575,0.07055059515294575,0.07055059515294575,0.07055059515294575,0.07055059515294575,0.06102678562913622,0.06102678562913622,0.06102678562913622,0.06102678562913622,0.06102678562913622,0.06102678562913622,0.06102678562913622,0.06102678562913622,0.06102678562913622,0.06102678562913622,0.06102678562913622,0.06102678562913622,0.06102678562913622,0.06102678562913622,0.06102678562913622,0.06102678562913622,0.06102678562913622,0.06102678562913622,0.06102678562913622,0.06102678562913622,0.06102678562913622,0.06102678562913622,0.06102678562913622,0.06102678562913622,0.06102678562913622,0.06102678562913622,0.06102678562913622,0.06102678562913622,0.06102678562913622,0.06102678562913622,0.06102678562913622,0.06102678562913622,0.06102678562913622,0.06102678562913622,0.06102678562913622,0.06102678562913622,0.06102678562913622,0.06102678562913622,0.06102678562913622,0.06102678562913622,0.06102678562913622,0.06102678562913622,0.06102678562913622,0.06102678562913622,0.06102678562913622,0.06102678562913622,0.06102678562913622,0.06102678562913622,0.06102678562913622,0.06102678562913622,0.06102678562913622,0.06102678562913622,0.06102678562913622,0.06102678562913622,0.06102678562913622,0.06102678562913622,0.06102678562913622,0.06102678562913622,0.06102678562913622,0.06102678562913622,0.06102678562913622,0.06102678562913622,0.06102678562913622,0.06102678562913622,0.06102678562913622,0.06102678562913622,0.06102678562913622,0.06102678562913622,0.06102678562913622,0.06102678562913622,0.06102678562913622,0.06102678562913622,0.06102678562913622,0.06102678562913622,0.06102678562913622,0.06102678562913622,0.06102678562913622,0.06102678562913622,0.06102678562913622,0.06102678562913622,0.06102678562913622,0.06102678562913622,0.06102678562913622,0.06102678562913622,0.06102678562913622,0.06102678562913622,0.06102678562913622,0.06102678562913622,0.06102678562913622,0.06102678562913622,0.06102678562913622,0.06102678562913622,0.06102678562913622,0.06102678562913622,0.06102678562913622,0.06102678562913622,0.07055059515294575,0.07055059515294575,0.08007440467675526,0.08007440467675526,0.0895982142005648,0.10864583324818385,0.11816964277199336,0.1372172618196124,0.15626488086723145,0.165788690391041,0.18483630943866003,0.2038839284862791,0.2038839284862791,0.22293154753389813,0.23245535705770765,0.23245535705770765,0.23245535705770765,0.23245535705770765,0.23245535705770765,0.23245535705770765,0.23245535705770765,0.23245535705770765,0.23245535705770765,0.23245535705770765,0.23245535705770765,0.23245535705770765,0.23245535705770765,0.23245535705770765,0.23245535705770765,0.23245535705770765,0.23245535705770765,0.23245535705770765,0.23245535705770765,0.23245535705770765,0.23245535705770765,0.23245535705770765,0.23245535705770765,0.23245535705770765,0.23245535705770765,0.23245535705770765,0.23245535705770765,0.23245535705770765,0.23245535705770765,0.23245535705770765,0.23245535705770765,0.2610267856291362,0.28007440467675526,0.2991220237243743,0.3181696427719934,0.3372172618196124,0.3467410713434219,0.365788690391041,0.38483630943866004,0.38483630943866004,0.38483630943866004,0.38483630943866004,0.38483630943866004,0.38483630943866004,0.38483630943866004,0.38483630943866004,0.38483630943866004,0.38483630943866004,0.38483630943866004,0.38483630943866004,0.38483630943866004,0.38483630943866004,0.38483630943866004,0.38483630943866004,0.38483630943866004,0.38483630943866004,0.38483630943866004,0.38483630943866004,0.38483630943866004,0.38483630943866004,0.38483630943866004,0.38483630943866004,0.38483630943866004,0.38483630943866004,0.38483630943866004,0.38483630943866004,0.38483630943866004,0.38483630943866004,0.38483630943866004,0.38483630943866004,0.38483630943866004,0.38483630943866004,0.4038839284862791,0.43245535705770766,0.46102678562913624,0.5086458332481838,0.546741071343422,0.565788690391041,0.5943601189624695,0.6134077380100886,0.6229315475338981,0.6419791665815172,0.6419791665815172,0.6419791665815172,0.6419791665815172,0.6419791665815172,0.6419791665815172,0.6419791665815172,0.6419791665815172,0.6419791665815172,0.6419791665815172,0.6419791665815172,0.6419791665815172,0.6419791665815172,0.6419791665815172,0.6419791665815172,0.6419791665815172,0.6419791665815172,0.6419791665815172,0.6419791665815172,0.6419791665815172,0.6419791665815172,0.6419791665815172,0.6419791665815172,0.6419791665815172,0.6419791665815172,0.6419791665815172,0.6419791665815172,0.6419791665815172,0.6419791665815172,0.6419791665815172,0.6419791665815172,0.6419791665815172,0.6419791665815172,0.6515029761053267,0.6515029761053267,0.6610267856291362,0.6610267856291362,0.6705505951529458,0.6705505951529458,0.6705505951529458,0.6705505951529458,0.6705505951529458,0.6800744046767553,0.6800744046767553,0.6800744046767553,0.6800744046767553,0.6895982142005648,0.6895982142005648,0.6895982142005648,0.6895982142005648,0.6895982142005648,0.6895982142005648,0.6895982142005648,0.6991220237243743,0.6991220237243743,0.6991220237243743,0.7086458332481839,0.7086458332481839,0.7086458332481839,0.7086458332481839,0.7181696427719934,0.7181696427719934,0.7181696427719934,0.7181696427719934,0.7181696427719934,0.7181696427719934,0.7181696427719934,0.7181696427719934,0.7181696427719934,0.7181696427719934,0.7181696427719934,0.7181696427719934,0.7181696427719934,0.7181696427719934,0.7181696427719934,0.7181696427719934,0.7181696427719934,0.7181696427719934,0.7181696427719934,0.7086458332481839,0.7086458332481839,0.7086458332481839,0.7086458332481839,0.7086458332481839,0.7086458332481839,0.7086458332481839,0.7086458332481839,0.7086458332481839,0.7086458332481839,0.7086458332481839,0.7086458332481839,0.7086458332481839,0.7086458332481839,0.7086458332481839,0.7086458332481839,0.7086458332481839,0.7086458332481839,0.7086458332481839,0.7086458332481839,0.7086458332481839,0.7086458332481839,0.7086458332481839,0.7086458332481839,0.7086458332481839,0.7086458332481839,0.7086458332481839,0.7086458332481839,0.7086458332481839,0.6895982142005648,0.6705505951529458,0.6705505951529458,0.6515029761053267,0.6419791665815172,0.6419791665815172,0.6419791665815172,0.6324553570577076,0.6324553570577076,0.6324553570577076,0.6324553570577076,0.6229315475338981,0.6229315475338981,0.6229315475338981,0.6229315475338981,0.6134077380100886,0.6134077380100886,0.6134077380100886,0.6134077380100886,0.6134077380100886,0.6134077380100886,0.6134077380100886,0.6134077380100886,0.6134077380100886,0.6134077380100886,0.6134077380100886,0.6134077380100886,0.6134077380100886,0.6134077380100886,0.603883928486279,0.603883928486279,0.5943601189624695,0.5943601189624695,0.58483630943866,0.58483630943866,0.5753124999148506,0.565788690391041,0.565788690391041,0.5562648808672315,0.546741071343422,0.546741071343422,0.5372172618196124,0.5181696427719934,0.5086458332481838,0.4991220237243743,0.4991220237243743,0.4895982142005648,0.4895982142005648,0.4800744046767553,0.4800744046767553,0.4800744046767553,0.4800744046767553,0.4800744046767553,0.4800744046767553,0.4895982142005648,0.4895982142005648,0.4895982142005648,0.4895982142005648,0.4895982142005648,0.4895982142005648,0.4895982142005648,0.4895982142005648,0.4895982142005648,0.4895982142005648,0.4895982142005648,0.4895982142005648,0.4895982142005648,0.4895982142005648,0.4895982142005648,0.4895982142005648,0.4895982142005648,0.4895982142005648,0.4895982142005648,0.4895982142005648,0.4895982142005648,0.4895982142005648,0.4895982142005648,0.4895982142005648,0.4895982142005648,0.4895982142005648,0.4895982142005648,0.4895982142005648,0.4895982142005648,0.4895982142005648,0.4895982142005648,0.4895982142005648,0.4895982142005648,0.4895982142005648,0.4895982142005648,0.4895982142005648,0.4895982142005648,0.4895982142005648,0.4895982142005648,0.4895982142005648,0.4895982142005648,0.4895982142005648,0.4895982142005648,0.4895982142005648,0.4895982142005648,0.4895982142005648,0.4895982142005648,0.4895982142005648,0.4895982142005648,0.4895982142005648,0.4895982142005648,0.4895982142005648,0.4895982142005648,0.4895982142005648,0.4895982142005648,0.4800744046767553,0.4800744046767553,0.4800744046767553,0.4800744046767553,0.4800744046767553,0.4800744046767553,0.4800744046767553,0.4800744046767553,0.4800744046767553,0.4800744046767553,0.4800744046767553,0.4800744046767553,0.4800744046767553,0.4800744046767553,0.4800744046767553,0.4800744046767553,0.4800744046767553,0.4800744046767553,0.4800744046767553,0.4800744046767553,0.4800744046767553,0.4800744046767553,0.4800744046767553,0.4800744046767553,0.4800744046767553,0.4800744046767553,0.4800744046767553,0.4800744046767553,0.4800744046767553,0.4800744046767553,0.4800744046767553,0.4800744046767553,0.4800744046767553,0.4800744046767553,0.4705505951529457,0.4705505951529457,0.4705505951529457,0.4705505951529457,0.4705505951529457,0.4705505951529457,0.4705505951529457,0.4800744046767553,0.4800744046767553,0.4895982142005648,0.4991220237243743,0.5086458332481838,0.5181696427719934,0.5276934522958029,0.5372172618196124,0.546741071343422,0.546741071343422,0.546741071343422,0.5562648808672315,0.5562648808672315,0.565788690391041,0.565788690391041,0.565788690391041,0.565788690391041,0.5562648808672315,0.5372172618196124,0.4991220237243743,0.4705505951529457,0.4705505951529457,0.46102678562913624,0.46102678562913624,0.4515029761053267,0.44197916658151715,0.44197916658151715,0.44197916658151715,0.44197916658151715,0.44197916658151715,0.44197916658151715,0.44197916658151715,0.44197916658151715,0.44197916658151715,0.44197916658151715,0.44197916658151715,0.44197916658151715,0.44197916658151715,0.44197916658151715,0.44197916658151715,0.44197916658151715,0.44197916658151715,0.44197916658151715,0.44197916658151715,0.44197916658151715,0.44197916658151715,0.44197916658151715,0.44197916658151715,0.44197916658151715,0.441979166581