[{"success":true,"trial_type":"fullscreen","trial_index":0,"time_elapsed":3573,"internal_node_id":"0.0-0.0","protocol_sum":"","subject_identifier":529,"subject_sum":[187,165,137,89,195,42,190,104,141,156,181,34,43,151,222,151,48,2,166,124,65,45,106,140,141,42,121,172,105,47,50,183],"subject_pair":264,"STUDY_ID":"66a3ed3c5d10d0e7d8a6b9da","PROLIFIC_PID":"669f0b253edc47d2e7ffd8c9","SESSION_ID":"66a46440e3c7a218c28d4fe8","practice_instructions":1,"leaderboard_instructions":0,"bonus":0,"reveal_word":true,"self_rating":"3","confidence":"93"},{"view_history":"[{\"page_index\":0,\"viewing_time\":7400.200000017881}]","rt":7400.600000023842,"trial_type":"instructions","trial_index":1,"time_elapsed":10976,"internal_node_id":"0.0-1.0","protocol_sum":"","subject_identifier":529,"subject_sum":[187,165,137,89,195,42,190,104,141,156,181,34,43,151,222,151,48,2,166,124,65,45,106,140,141,42,121,172,105,47,50,183],"subject_pair":264,"STUDY_ID":"66a3ed3c5d10d0e7d8a6b9da","PROLIFIC_PID":"669f0b253edc47d2e7ffd8c9","SESSION_ID":"66a46440e3c7a218c28d4fe8","practice_instructions":1,"leaderboard_instructions":0,"bonus":0,"reveal_word":true,"self_rating":"3","confidence":"93"},{"view_history":"[{\"page_index\":0,\"viewing_time\":53406.40000000596}]","rt":53406.69999998808,"trial_type":"instructions","trial_index":2,"time_elapsed":64383,"internal_node_id":"0.0-2.0-0.0","protocol_sum":"","subject_identifier":529,"subject_sum":[187,165,137,89,195,42,190,104,141,156,181,34,43,151,222,151,48,2,166,124,65,45,106,140,141,42,121,172,105,47,50,183],"subject_pair":264,"STUDY_ID":"66a3ed3c5d10d0e7d8a6b9da","PROLIFIC_PID":"669f0b253edc47d2e7ffd8c9","SESSION_ID":"66a46440e3c7a218c28d4fe8","practice_instructions":1,"leaderboard_instructions":0,"bonus":0,"reveal_word":true,"self_rating":"3","confidence":"93"},{"rt":17176.5,"responses":"{\"Q0\":\"... reveal the word with as <b>few letter guesses</b> as possible\"}","question_order":"[0]","trial_type":"survey-multi-choice","trial_index":3,"time_elapsed":81561,"internal_node_id":"0.0-2.0-1.0","protocol_sum":"","subject_identifier":529,"subject_sum":[187,165,137,89,195,42,190,104,141,156,181,34,43,151,222,151,48,2,166,124,65,45,106,140,141,42,121,172,105,47,50,183],"subject_pair":264,"correct":true,"test_part":"multichoice_nonpretend","STUDY_ID":"66a3ed3c5d10d0e7d8a6b9da","PROLIFIC_PID":"669f0b253edc47d2e7ffd8c9","SESSION_ID":"66a46440e3c7a218c28d4fe8","practice_instructions":1,"leaderboard_instructions":0,"bonus":0,"reveal_word":true,"self_rating":"3","confidence":"93"},{"view_history":"[{\"page_index\":0,\"viewing_time\":3660.199999988079}]","rt":3660.5,"trial_type":"instructions","trial_index":4,"time_elapsed":85223,"internal_node_id":"0.0-3.0","protocol_sum":"","subject_identifier":529,"subject_sum":[187,165,137,89,195,42,190,104,141,156,181,34,43,151,222,151,48,2,166,124,65,45,106,140,141,42,121,172,105,47,50,183],"subject_pair":264,"STUDY_ID":"66a3ed3c5d10d0e7d8a6b9da","PROLIFIC_PID":"669f0b253edc47d2e7ffd8c9","SESSION_ID":"66a46440e3c7a218c28d4fe8","practice_instructions":1,"leaderboard_instructions":0,"bonus":0,"reveal_word":true,"self_rating":"3","confidence":"93"},{"word":"ZEBRA","click_log":{"letter":["","S","N","E","O","A","R","B","Z"],"t":[0,15614.300000011921,22413.69999998808,25874.69999998808,34619.19999998808,37762.5,41211.69999998808,45667.40000000596,46978.40000000596],"hit":[null,0,0,1,0,1,1,1,1],"asked":["","S","SN","SNE","SNEO","SNEOA","SNEOAR","SNEOARB","SNEOARBZ"],"word_state":["_____","_____","_____","_E___","_E___","_E__A","_E_RA","_EBRA","ZEBRA"]},"hover_log":{"letter":["?","?","?","?","?","?","?","?","?","?","?","?","?","?","?","?","?","?","?","?","?","J","J","J","J","J","J","J","J","J","J","J","?","?","?","?","?","?","?","?","?","?","?","?","?","?","?","?","?","?","?","?","?","?","?","?","?","?","?","?","?","?","?","?","?","?","?","?","?","K","K","K","K","K","K","K","K","?","?","?","?","L","L","L","L","L","L","L","L","L","?","K","K","?","?","?","?","?","?","?","?","?","?","?","?","?","?","?","?","?","?","?","?","?","?","?","?","?","?","?","?","?","?","?","?","?","?","?","?","?","?","?","?","?","?","?","?","?","?","?","?","?","?","?","?","?","?","?","?","?","?","?","?","?","J","J","J","J","J","?","?","?","?","?","?","?","K","K","K","K","K","?","?","?","?","?","?","?","?","?","?","?","?","?","?","?","C","C","C","C","C","C","C","C","C","C","C","C","C","C","C","C","C","C","C","C","C","C","C","C","C","C","C","C","C","C","?","?","?","?","?","?","?","?","?","?","?","?","?","?","?","?","?","?","N","N","N","N","N","N","N","N","N","N","N","N","N","N","N","N","N","N","N","?","?","O","O","O","O","O","O","O","?","?","?","X","X","X","X","X","X","X","?","?","W","W","W","W","W","W","W","W","?","?","?","V","V","V","V","V","V","V","V","V","?","?","?","?","U","U","U","U","U","U","U","U","U","U","U","U","U","U","U","U","?","?","?","?","?","?","?","?","?","?","?","?","?","?","L","L","L","L","L","L","L","L","L","L","L","L","L","L","L","L","L","L","L","L","L","L","L","L","L","L","L","L","L","L","L","L","L","L","L","L","L","L","L","L","L","L","L","L","L","L","L","L","L","L","L","L","L","L","L","L","?","?","?","?","?","?","U","U","U","U","U","U","U","U","U","U","U","?","?","?","?","?","?","?","?","?","?","?","?","?","L","L","L","L","?","?","D","D","D","D","?","E","E","E","E","?","F","F","F","F","F","F","F","F","F","F","F","F","F","F","F","F","F","F","?","?","?","?","?","?","?","?","?","?","?","?","?","?","?","?","?","?","?","?","?","?","?","?","?","?","?","?","?","?","?","?","?","?","?","?","?","?","?","?","?","?","?","?","?","?","?","?","?","O","O","O","O","O","O","O","O","O","O","O","O","?","?","?","?","?","?","?","?","W","W","W","W","W","W","W","W","W","W","W","W","?","?","V","V","V","V","V","V","V","V","V","V","V","V","V","V","V","V","?","?","?","?","U","U","U","U","U","U","U","U","U","U","U","U","U","U","U","U","U","?","?","?","?","T","T","T","T","T","T","T","T","T","T","T","T","?","?","?","?","?","?","?","?","?","K","K","K","K","K","K","K","K","K","K","K","K","K","K","?","L","L","L","?","M","M","M","M","M","M","M","?","?","N","N","N","N","N","N","N","N","N","N","N","N","N","N","N","N","N","N","N","N","N","N","N","N","N","N","N","N","N","N","N","N","N","N","N","N","N","N","N","N","N","N","N","N","N","N","N","N","N","N","N","N","N","N","N","N","N","N","N","N","N","N","N","N","N","N","N","N","N","N","N","N","N","N","N","N","?","O","O","O","O","O","O","O","O","O","O","O","?","?","?","P","P","P","P","P","P","P","P","P","P","?","?","?","?","Q","Q","Q","Q","Q","Q","Q","Q","Q","Q","Q","Q","Q","Q","Q","Q","Q","Q","Q","Q","Q","Q","Q","Q","Q","Q","Q","Q","Q","Q","Q","Q","Q","Q","Q","Q","Q","Q","Q","Q","Q","Q","Q","Q","Q","Q","Q","Q","Q","Q","Q","Q","Q","Q","Q","Q","Q","Q","Q","Q","Q","Q","Q","Q","Q","Q","Q","Q","Q","Q","Q","Q","Q","Q","Q","Q","Q","Q","Q","Q","Q","Q","Q","Q","Q","Q","Q","Q","Q","Q","Q","Q","Q","Q","Q","Q","Q","Q","Q","Q","Q","Q","Q","Q","Q","Q","Q","Q","Q","Q","Q","Q","Q","Q","Q","Q","Q","Q","Q","Q","Q","?","P","P","P","P","P","P","P","?","O","O","O","O","O","?","?","?","?","W","?","V","V","?","U","U","U","U","U","?","T","T","T","T","T","?","?","?","?","?","?","?","?","?","?","?","?","?","?","?","?","?","?","S","S","S","S","S","S","S","S","S","S","S","S","S","S","S","S","S","S","S","S","S","S","S","S","S","S","S","S","S","S","S","S","S","S","S","S","S","S","S","S","S","S","S","S","S","S","S","S","S","S","S","S","S","S","S","S","S","S","S","S","S","S","S","S","S","S","S","S","S","S","S","S","S","S","S","S","S","S","S","S","S","S","S","S","S","S","S","S","S","S","S","S","S","S","S","S","S","S","S","S","S","S","S","S","S","S","S","S","S","S","S","S","S","S","S","S","S","S","S","S","S","S","S","S","S","S","S","S","S","S","S","S","S","S","S","S","S","S","S","S","S","S","S","S","S","S","S","S","S","S","S","S","S","S","S","S","S","S","S","S","S","S","S","S","S","S","S","S","S","?","?","?","?","T","T","T","T","T","T","T","T","?","?","?","?","?","?","?","?","?","?","?","?","?","?","?","?","?","?","?","?","?","?","M","M","M","M","M","M","M","M","?","?","?","?","N","N","N","N","N","N","N","N","N","N","N","N","N","N","?","?","?","O","O","O","O","O","O","O","O","O","O","O","O","O","O","O","O","O","O","O","O","O","O","O","O","O","O","O","O","O","O","O","O","O","O","O","O","O","O","O","O","O","O","O","O","O","O","O","O","O","O","O","O","O","O","O","O","O","O","O","O","O","O","O","O","O","O","O","O","O","O","O","O","O","O","O","O","O","O","O","O","O","O","O","O","O","O","O","O","O","O","O","O","O","O","O","O","O","O","O","O","O","O","O","O","O","O","?","?","?","?","?","?","?","?","?","?","?","?","?","?","N","N","N","N","N","N","N","N","N","N","N","N","N","N","N","N","N","N","N","N","N","N","N","N","N","N","N","N","N","N","N","N","N","N","N","N","N","N","N","N","N","N","N","N","N","N","N","N","N","N","N","N","N","N","N","N","N","N","N","N","N","N","N","N","N","N","N","N","N","N","N","N","N","N","N","N","N","N","N","N","N","N","N","N","N","N","N","N","N","N","N","N","N","N","N","N","N","N","N","N","N","N","N","N","N","N","N","N","N","N","N","N","N","N","N","N","N","N","N","N","N","N","N","N","N","N","N","N","N","N","N","N","N","N","N","N","N","N","N","N","N","N","N","N","N","N","N","N","N","N","N","N","N","N","N","N","N","N","N","N","N","N","N","N","N","N","N","N","N","N","N","?","M","?","?","?","?","?","?","?","?","?","?","?","?","?","?","?","?","?","?","?","?","?","?","?","?","?","?","?","?","?","?","?","B","B","B","B","B","B","B","B","B","C","C","?","D","D","D","D","D","D","?","?","?","E","E","E","E","E","E","E","E","E","E","E","E","E","E","E","E","E","?","?","?","?","?","?","?","?","?","?","?","E","E","?","?","?","?","?","?","?","?","?","?","?","?","?","?","?","?","?","E","E","E","E","E","E","E","E","E","E","E","E","E","E","E","E","E","E","E","E","E","E","E","E","E","E","E","E","E","E","E","E","E","E","E","E","E","E","E","E","E","E","E","E","E","E","E","E","E","E","E","E","E","E","E","E","E","E","E","E","E","E","E","E","E","E","E","E","E","E","E","E","E","E","E","E","E","E","E","E","E","E","E","E","E","E","E","E","E","E","E","E","E","E","E","E","E","E","E","E","E","E","E","E","E","E","E","E","E","E","E","E","E","E","E","E","E","E","E","E","E","E","E","E","E","E","E","E","E","E","E","E","E","E","E","E","E","E","E","E","E","E","E","E","E","E","E","E","E","E","E","E","E","E","E","E","E","E","E","E","E","E","E","E","E","E","E","E","E","E","E","E","E","E","E","E","E","E","E","E","E","E","E","E","E","E","E","E","E","E","E","E","E","E","E","E","E","E","E","E","E","E","E","E","E","E","E","E","E","E","E","E","E","E","E","E","E","E","E","E","E","E","E","E","E","E","E","E","E","E","E","E","E","E","E","E","E","E","E","E","E","E","E","E","E","E","E","E","E","E","E","E","E","E","E","E","E","E","E","E","E","E","E","E","E","E","E","E","E","E","E","E","E","E","E","E","E","E","E","E","E","E","E","E","E","E","E","E","E","E","E","E","E","E","E","E","E","E","E","E","E","E","E","E","E","E","E","E","E","E","E","E","E","E","E","E","E","E","E","E","E","E","E","E","E","E","E","E","E","E","E","E","E","E","E","E","E","E","E","E","E","E","E","E","E","E","E","E","E","E","E","E","E","E","E","E","E","E","E","E","E","E","E","E","E","E","E","E","E","E","E","E","E","E","E","E","E","E","E","E","E","E","E","E","E","E","E","E","E","E","E","E","E","E","E","E","E","E","E","E","E","E","E","E","E","E","E","E","E","E","E","E","E","E","?","?","?","?","?","?","N","N","N","N","N","N","N","N","?","?","?","?","?","?","W","W","W","W","W","W","W","W","W","W","W","W","W","W","W","W","W","W","W","?","?","?","?","?","?","?","?","?","V","V","V","V","V","V","V","V","V","V","V","V","V","V","V","V","V","V","V","V","V","V","V","V","V","V","V","?","?","?","W","W","W","W","W","W","W","W","W","W","W","W","W","W","W","W","W","W","W","W","W","?","?","?","?","?","?","?","?","?","?","?","O","O","O","O","O","O","O","O","O","O","O","O","O","O","O","O","O","O","O","O","O","O","O","O","O","O","O","O","O","O","O","O","O","O","O","O","O","O","O","O","O","O","O","O","O","O","O","O","O","O","O","O","O","O","O","O","O","O","O","O","O","O","O","O","O","O","O","O","O","O","O","O","O","O","O","O","O","O","O","O","O","O","O","O","O","O","?","?","?","P","?","Q","Q","Q","Q","Q","Q","Q","Q","Q","?","?","?","?","?","?","?","?","?","?","?","?","?","?","?","?","?","?","I","I","I","I","I","I","I","I","I","I","I","I","I","I","I","I","I","I","I","I","I","I","I","I","I","?","?","?","?","?","?","O","O","N","N","?","M","M","M","M","M","M","M","M","M","?","?","?","?","?","?","?","?","?","?","?","?","?","?","?","?","?","?","B","B","B","?","?","?","?","?","?","?","?","?","A","A","A","A","A","A","A","A","A","A","A","A","A","A","A","A","A","A","A","A","A","A","A","A","A","A","A","A","A","A","A","A","A","A","A","A","A","A","A","A","A","A","A","A","A","A","A","A","A","A","A","A","A","A","A","A","A","A","A","A","A","A","A","A","A","A","A","A","A","A","A","?","?","B","B","B","B","B","B","B","B","B","B","B","?","?","C","C","C","C","C","C","C","?","D","D","D","?","E","?","?","?","?","?","?","?","?","?","?","?","?","?","?","?","?","?","?","?","?","Q","Q","Q","Q","Q","Q","Q","Q","Q","Q","Q","Q","Q","Q","Q","Q","Q","Q","?","?","?","?","?","?","?","?","R","R","R","R","R","R","R","R","R","R","R","R","R","R","R","R","R","R","R","R","R","R","R","R","R","R","R","R","R","R","R","R","R","R","R","R","R","R","R","R","R","R","R","R","R","R","R","R","R","R","R","R","R","R","R","R","R","R","R","R","R","R","R","R","R","R","R","R","R","R","R","R","R","R","R","R","R","R","R","R","R","R","R","R","R","R","R","R","R","R","R","R","R","R","R","R","R","R","R","R","R","R","R","R","R","R","R","R","R","R","R","R","R","R","R","R","R","R","R","R","R","R","R","R","R","R","R","R","R","R","R","R","R","R","R","R","R","R","R","R","R","R","R","R","R","R","R","R","R","R","R","R","R","R","R","R","R","R","R","R","R","R","R","R","R","R","R","R","R","R","R","R","R","R","R","R","R","R","R","R","R","R","R","R","R","R","R","R","R","R","R","R","R","R","R","R","R","R","R","R","R","R","R","R","R","R","R","R","R","R","R","R","R","R","R","R","?","?","?","Q","Q","Q","Q","Q","Q","Q","Q","?","P","P","P","P","P","P","?","?","O","O","O","O","O","O","O","?","N","N","?","M","M","M","M","M","M","?","?","?","?","?","?","?","?","?","?","?","?","?","?","?","?","?","?","?","?","?","?","?","?","?","?","?","?","?","?","?","?","?","?","?","?","?","?","L","L","L","L","L","L","?","?","?","?","?","?","?","?","?","?","?","?","?","?","?","?","?","?","?","?","?","?","?","?","?","?","?","?","?","?","?","B","B","B","B","B","B","B","B","B","B","B","B","B","B","B","B","B","B","B","B","B","B","B","B","B","B","B","B","B","B","B","B","B","B","B","B","C","C","D","?","?","?","?","?","?","?","?","?","?","P","P","P","Q","Q","Q","Q","Q","Q","?","?","?","?","?","?","?","Z","Z","Z","Z","Z","Z","Z","Z","Z","Z","Z","Z","Z","Z","Z","Z","Z","Z","Z","Z","Z","Z","Z","Z","Z","Z","Z","Z","Z","Z","Z","Z","Z","Z","Z","Z","Z","Z","Z","Z","Z","Z","Z","Z","Z","Z","Z","Z","Z","Z","Z","Z","Z","Z","Z","Z","Z","Z","Z","Z","Z","Z","Z","Z","Z","Z","Z","Z","Z","Z","Z","Z","Z","Z","Z","Z","Z","Z","Z","Z","Z","Z","Z","Z","Z","Z","Z","Z","Z","Z","Z","Z","Z","Z","Z","Z","Z","Z","Z","Z","Z","Z","Z","Z","Z","Z","Z","Z","Z","Z","Z","Z","Z","Z","Z","Z","Z","Z","Z","Z","Z","Z","Z","Z","Z","Z","Z","Z","Z","Z","Z","Z","Z","Z","Z","Z","Z","Z","Z","Z","Z","Z","Z","Z","Z","Z","Z","Z","Z","Z","Z","Z","Z","Z","Z","Z","Z","Z","Z","Z"],"t":[55,61,82,99,116,132,150,166,182,200,214,231,248,268,282,299,315,332,348,366,382,401,416,431,448,465,481,499,515,532,549,565,582,599,615,632,649,665,681,698,715,731,748,764,781,799,815,832,848,866,883,900,917,934,950,967,983,1001,1019,1034,1052,1071,1083,1099,1116,1132,1149,1166,1183,1199,1218,1234,1249,1266,1282,1299,1316,1333,1348,1365,1382,1403,1414,1431,1448,1465,1481,1498,1515,1531,1548,1566,1582,1599,1615,1632,1649,1665,1682,1698,1715,1732,1748,1765,1782,1798,1815,1831,1848,1865,1882,1898,1915,1932,1948,1965,1982,1998,2015,2031,2048,2065,2081,2098,2115,2131,2149,2165,2181,2199,2215,2231,2248,2265,2282,2297,2314,2331,2348,2365,2381,2398,2414,2432,2448,2465,2481,2498,2515,2531,2548,2565,2582,2598,2615,2632,2648,2664,2682,2699,2715,2731,2748,2765,2783,2798,2815,2832,2848,2865,2881,2898,2915,2931,2948,2965,2981,2998,3014,3031,3048,3065,3082,3098,3114,3132,3148,3164,3181,3198,3214,3231,3248,3264,3281,3298,3314,3332,3347,3364,3381,3397,3414,3431,3448,3464,3481,3498,3514,3531,3548,3564,3581,3598,3614,3631,3648,3664,3680,3697,3714,3731,3748,3764,3781,3798,3815,3830,3848,3864,3881,3897,3914,3931,3947,3964,3981,3997,4014,4031,4047,4064,4080,4097,4114,4130,4148,4164,4180,4198,4214,4231,4247,4264,4281,4298,4314,4331,4348,4364,4381,4397,4414,4431,4447,4464,4480,4497,4514,4531,4548,4564,4581,4598,4614,4631,4648,4664,4681,4697,4714,4731,4747,4765,4781,4798,4814,4831,4848,4864,4880,4898,4914,4930,4948,4964,4981,4998,5014,5031,5047,5064,5081,5097,5114,5131,5148,5164,5181,5197,5214,5231,5248,5264,5280,5297,5314,5331,5347,5364,5380,5397,5414,5431,5447,5464,5480,5498,5514,5531,5547,5564,5580,5597,5614,5630,5647,5664,5681,5697,5713,5730,5748,5764,5780,5797,5813,5831,5847,5863,5880,5896,5914,5930,5947,5963,5980,5997,6013,6030,6046,6063,6080,6096,6113,6130,6147,6163,6180,6197,6213,6231,6247,6264,6280,6297,6314,6330,6347,6364,6380,6397,6414,6431,6447,6464,6480,6498,6514,6531,6547,6564,6580,6596,6613,6630,6648,6663,6680,6697,6713,6731,6747,6764,6781,6798,6814,6831,6847,6864,6881,6897,6914,6930,6947,6964,6981,6997,7016,7030,7048,7063,7080,7097,7114,7131,7147,7165,7180,7198,7214,7230,7247,7264,7280,7297,7314,7330,7347,7363,7381,7397,7413,7430,7447,7464,7480,7497,7514,7530,7547,7564,7580,7597,7613,7630,7647,7664,7680,7696,7713,7729,7747,7764,7780,7797,7814,7830,7846,7863,7880,7897,7913,7931,7947,7964,7980,7996,8013,8030,8047,8064,8080,8097,8114,8131,8147,8164,8180,8197,8213,8230,8247,8263,8280,8296,8313,8330,8347,8364,8381,8397,8413,8431,8447,8463,8480,8497,8513,8530,8547,8563,8580,8597,8614,8630,8647,8663,8680,8697,8713,8730,8747,8764,8780,8797,8814,8830,8847,8864,8880,8897,8914,8930,8947,8964,8980,8997,9014,9030,9047,9064,9080,9096,9114,9130,9147,9164,9180,9197,9213,9230,9247,9263,9280,9297,9313,9330,9347,9364,9380,9397,9414,9430,9447,9463,9480,9497,9513,9530,9547,9563,9581,9597,9613,9630,9647,9663,9680,9696,9713,9731,9747,9763,9780,9797,9814,9830,9846,9864,9880,9896,9913,9930,9946,9964,9980,9997,10014,10030,10047,10063,10080,10096,10113,10130,10147,10163,10180,10197,10213,10230,10247,10263,10280,10296,10313,10330,10347,10363,10380,10397,10413,10430,10446,10463,10479,10497,10513,10530,10546,10563,10580,10597,10613,10630,10646,10663,10679,10696,10713,10730,10746,10763,10780,10796,10813,10829,10846,10863,10879,10896,10913,10930,10946,10963,10980,10997,11014,11029,11046,11063,11080,11096,11113,11129,11146,11163,11180,11196,11213,11230,11247,11262,11280,11296,11313,11329,11346,11362,11380,11396,11413,11429,11446,11463,11479,11496,11513,11529,11546,11563,11579,11596,11613,11630,11647,11663,11680,11696,11713,11730,11746,11763,11780,11796,11813,11830,11847,11863,11880,11897,11913,11930,11947,11963,11980,11996,12013,12030,12046,12063,12080,12096,12113,12130,12147,12163,12180,12196,12213,12230,12246,12263,12279,12296,12313,12329,12346,12363,12380,12396,12413,12429,12446,12463,12479,12496,12513,12530,12546,12563,12579,12596,12613,12629,12646,12663,12679,12695,12712,12729,12746,12762,12779,12795,12812,12829,12846,12863,12880,12896,12913,12930,12946,12963,12979,12996,13013,13029,13046,13063,13079,13095,13112,13129,13146,13162,13180,13196,13213,13229,13246,13263,13280,13296,13312,13329,13346,13362,13379,13396,13413,13429,13446,13463,13479,13496,13513,13529,13546,13562,13579,13596,13612,13629,13646,13662,13680,13696,13712,13729,13745,13763,13779,13796,13813,13829,13846,13862,13879,13896,13912,13930,13945,13962,13979,13996,14012,14029,14046,14063,14079,14096,14113,14130,14146,14163,14180,14196,14213,14230,14246,14263,14280,14296,14313,14329,14346,14363,14379,14396,14413,14429,14446,14463,14479,14496,14512,14530,14547,14563,14579,14596,14613,14629,14646,14663,14680,14696,14713,14730,14746,14762,14779,14796,14813,14829,14846,14862,14879,14896,14912,14929,14946,14962,14979,14997,15012,15030,15047,15063,15080,15096,15112,15129,15146,15163,15179,15196,15212,15229,15246,15263,15279,15295,15313,15330,15348,15364,15381,15399,15413,15431,15452,15465,15482,15498,15516,15536,15549,15562,15580,15596,15613,15630,15646,15662,15680,15696,15713,15729,15747,15763,15779,15796,15813,15829,15846,15863,15879,15896,15913,15932,15948,15967,15982,15998,16014,16030,16048,16065,16082,16098,16113,16131,16147,16164,16181,16197,16213,16232,16248,16264,16281,16298,16315,16330,16348,16365,16380,16398,16415,16431,16447,16463,16481,16497,16513,16530,16548,16564,16580,16598,16614,16630,16648,16664,16681,16697,16714,16731,16748,16764,16781,16797,16815,16831,16848,16864,16882,16897,16914,16930,16949,16964,16981,16996,17012,17029,17045,17062,17079,17095,17112,17129,17146,17163,17179,17195,17212,17229,17245,17262,17278,17296,17312,17329,17346,17362,17379,17395,17412,17429,17446,17462,17479,17495,17512,17529,17545,17562,17582,17599,17614,17631,17649,17664,17681,17698,17714,17739,17749,17762,17779,17796,17813,17829,17846,17862,17879,17896,17913,17929,17946,17962,17979,17996,18013,18029,18046,18062,18079,18096,18112,18129,18146,18162,18179,18196,18213,18230,18246,18263,18279,18296,18312,18329,18346,18363,18379,18396,18413,18431,18446,18462,18479,18496,18513,18529,18545,18562,18579,18596,18613,18629,18646,18663,18679,18696,18713,18729,18746,18763,18779,18795,18813,18830,18846,18863,18880,18896,18912,18929,18946,18963,18979,18996,19012,19029,19046,19062,19079,19096,19113,19129,19146,19162,19179,19196,19213,19229,19246,19262,19279,19295,19312,19329,19346,19362,19379,19395,19412,19429,19445,19462,19479,19495,19512,19528,19545,19562,19578,19595,19612,19629,19646,19662,19678,19695,19712,19729,19745,19762,19779,19795,19813,19830,19845,19862,19879,19896,19912,19928,19946,19962,19979,19995,20012,20028,20046,20062,20079,20095,20111,20129,20145,20162,20178,20195,20212,20229,20245,20262,20278,20295,20312,20329,20346,20362,20379,20396,20412,20429,20446,20463,20479,20495,20512,20528,20545,20562,20579,20596,20614,20632,20647,20662,20679,20695,20712,20728,20745,20762,20779,20796,20812,20828,20845,20862,20879,20895,20912,20929,20945,20962,20978,20996,21012,21028,21045,21062,21078,21095,21111,21128,21145,21162,21178,21195,21212,21229,21247,21261,21278,21295,21314,21329,21346,21363,21379,21397,21413,21430,21448,21465,21480,21497,21513,21531,21548,21565,21579,21595,21612,21630,21645,21662,21679,21695,21712,21728,21745,21762,21778,21795,21811,21829,21847,21861,21879,21895,21911,21928,21945,21961,21978,21995,22011,22029,22045,22061,22079,22095,22112,22128,22145,22161,22179,22195,22212,22228,22245,22262,22278,22295,22312,22329,22345,22362,22381,22396,22412,22429,22445,22461,22479,22495,22511,22528,22544,22561,22578,22595,22612,22628,22645,22662,22678,22695,22711,22728,22745,22762,22778,22795,22812,22828,22845,22862,22878,22895,22912,22928,22945,22962,22978,22995,23012,23028,23045,23062,23078,23094,23111,23128,23145,23162,23178,23195,23212,23228,23245,23262,23279,23295,23311,23328,23344,23362,23378,23394,23412,23428,23444,23461,23478,23495,23511,23528,23545,23561,23578,23594,23611,23628,23645,23662,23678,23695,23712,23728,23745,23762,23779,23795,23812,23828,23845,23862,23879,23895,23911,23928,23945,23961,23978,23995,24011,24029,24044,24061,24078,24095,24111,24128,24145,24161,24178,24195,24212,24229,24245,24262,24278,24295,24312,24328,24344,24361,24378,24395,24412,24429,24445,24462,24478,24495,24511,24528,24545,24562,24578,24595,24612,24628,24645,24662,24678,24695,24712,24728,24745,24762,24778,24794,24811,24828,24845,24862,24878,24895,24912,24928,24944,24961,24978,24995,25011,25028,25045,25061,25077,25094,25112,25128,25145,25162,25178,25195,25211,25228,25245,25262,25278,25294,25311,25328,25344,25361,25377,25395,25411,25428,25445,25462,25479,25495,25511,25528,25544,25561,25578,25595,25611,25628,25644,25661,25678,25695,25711,25728,25746,25761,25778,25794,25810,25829,25846,25863,25881,25895,25911,25928,25944,25961,25978,25994,26011,26028,26044,26061,26078,26095,26111,26128,26145,26161,26178,26195,26211,26228,26245,26261,26278,26295,26311,26328,26345,26361,26378,26395,26411,26428,26445,26461,26478,26494,26511,26528,26544,26561,26578,26594,26611,26628,26645,26661,26678,26694,26711,26728,26744,26761,26777,26795,26811,26828,26845,26861,26879,26895,26911,26928,26945,26961,26978,26994,27011,27029,27046,27063,27079,27095,27112,27129,27147,27162,27180,27197,27212,27230,27246,27263,27279,27295,27312,27329,27346,27363,27380,27396,27412,27429,27445,27462,27479,27497,27513,27529,27546,27562,27580,27596,27612,27630,27647,27662,27681,27697,27713,27729,27746,27763,27779,27796,27812,27830,27846,27863,27880,27896,27914,27929,27946,27962,27979,27996,28013,28030,28045,28062,28079,28095,28113,28130,28146,28162,28180,28197,28213,28230,28246,28262,28279,28298,28315,28327,28344,28361,28378,28395,28411,28428,28444,28461,28478,28494,28511,28528,28544,28561,28577,28594,28611,28628,28645,28661,28678,28694,28711,28727,28744,28761,28779,28794,28811,28827,28844,28861,28878,28894,28911,28927,28944,28961,28978,28994,29011,29028,29044,29061,29078,29094,29111,29128,29144,29161,29178,29194,29210,29227,29244,29260,29277,29294,29311,29328,29344,29361,29377,29394,29411,29427,29444,29461,29477,29494,29511,29528,29544,29560,29577,29594,29611,29627,29644,29660,29677,29694,29715,29728,29744,29761,29778,29794,29811,29827,29844,29860,29878,29894,29910,29927,29944,29961,29978,29994,30010,30028,30044,30061,30077,30094,30111,30127,30144,30160,30177,30194,30211,30227,30244,30260,30277,30294,30310,30328,30344,30361,30377,30394,30411,30427,30444,30463,30479,30496,30512,30529,30546,30562,30578,30595,30612,30629,30646,30662,30679,30696,30712,30728,30745,30763,30779,30796,30811,30828,30844,30861,30879,30894,30912,30927,30944,30961,30978,30994,31012,31028,31044,31061,31078,31095,31113,31131,31147,31161,31177,31194,31210,31227,31244,31260,31277,31293,31310,31327,31343,31360,31377,31394,31411,31427,31444,31460,31477,31493,31510,31528,31545,31563,31579,31595,31613,31628,31646,31663,31679,31696,31713,31728,31747,31761,31779,31795,31813,31830,31845,31862,31878,31896,31912,31930,31945,31963,31979,31995,32012,32029,32045,32062,32078,32095,32112,32130,32146,32163,32179,32195,32211,32229,32247,32263,32280,32296,32312,32335,32349,32366,32385,32397,32414,32432,32446,32464,32478,32495,32512,32528,32546,32563,32579,32596,32612,32629,32646,32661,32679,32695,32712,32729,32746,32762,32779,32796,32812,32828,32844,32861,32878,32896,32912,32928,32946,32961,32978,32995,33013,33028,33044,33062,33079,33095,33112,33128,33145,33161,33178,33195,33211,33229,33244,33261,33278,33295,33311,33329,33344,33361,33379,33394,33412,33429,33444,33461,33478,33495,33512,33529,33545,33561,33579,33595,33613,33629,33646,33661,33678,33695,33711,33729,33745,33761,33779,33794,33813,33828,33844,33861,33878,33895,33911,33927,33947,33966,33980,33995,34011,34028,34044,34064,34079,34095,34112,34129,34144,34161,34179,34195,34211,34228,34245,34262,34278,34294,34311,34327,34344,34360,34377,34393,34410,34427,34444,34460,34477,34493,34510,34527,34544,34560,34577,34593,34610,34627,34643,34661,34677,34694,34710,34727,34743,34760,34777,34793,34809,34826,34843,34860,34877,34894,34910,34927,34943,34960,34977,34993,35010,35026,35044,35060,35077,35093,35110,35127,35144,35160,35177,35193,35211,35227,35243,35262,35280,35295,35311,35327,35343,35360,35377,35394,35411,35428,35443,35460,35478,35494,35510,35527,35543,35561,35577,35593,35611,35627,35644,35660,35677,35694,35710,35727,35744,35761,35777,35793,35811,35827,35843,35860,35876,35894,35910,35927,35943,35960,35977,35994,36010,36027,36043,36060,36077,36093,36110,36127,36143,36160,36177,36193,36210,36226,36243,36260,36277,36293,36309,36326,36343,36360,36376,36393,36410,36426,36443,36460,36477,36493,36510,36527,36544,36560,36577,36593,36610,36627,36644,36660,36677,36694,36710,36726,36743,36760,36776,36793,36810,36827,36844,36860,36877,36893,36910,36927,36944,36960,36976,36994,37010,37027,37043,37060,37077,37093,37110,37126,37143,37160,37177,37193,37210,37227,37243,37260,37277,37293,37310,37326,37343,37360,37377,37393,37410,37426,37443,37460,37477,37493,37510,37526,37543,37560,37576,37593,37609,37626,37643,37660,37676,37693,37710,37726,37743,37759,37776,37793,37809,37826,37843,37860,37876,37893,37910,37926,37943,37960,37976,37993,38010,38026,38043,38060,38076,38093,38109,38126,38143,38159,38176,38193,38210,38226,38243,38260,38276,38293,38309,38326,38343,38360,38376,38393,38409,38427,38443,38460,38476,38493,38510,38527,38543,38560,38577,38593,38610,38626,38643,38660,38677,38694,38710,38727,38743,38760,38776,38793,38811,38827,38843,38860,38877,38893,38910,38926,38943,38959,38977,38993,39009,39027,39044,39060,39077,39093,39110,39126,39143,39159,39176,39193,39209,39226,39243,39260,39277,39293,39309,39327,39343,39360,39376,39393,39410,39427,39443,39460,39477,39493,39510,39527,39543,39560,39577,39592,39609,39626,39643,39660,39676,39693,39710,39726,39743,39759,39776,39793,39810,39827,39842,39859,39876,39893,39910,39926,39942,39959,39976,39992,40009,40026,40042,40060,40076,40093,40110,40126,40143,40160,40176,40193,40210,40226,40243,40260,40276,40293,40309,40326,40342,40359,40377,40393,40409,40426,40443,40459,40476,40492,40509,40526,40543,40560,40576,40593,40609,40626,40642,40659,40676,40692,40710,40726,40743,40760,40776,40793,40810,40828,40843,40860,40876,40893,40909,40926,40943,40960,40976,40993,41010,41026,41042,41059,41076,41092,41109,41126,41142,41159,41176,41192,41210,41226,41242,41260,41276,41293,41309,41326,41343,41359,41376,41392,41410,41426,41443,41459,41476,41492,41509,41526,41543,41559,41576,41593,41609,41626,41642,41659,41676,41693,41709,41726,41742,41759,41776,41793,41809,41826,41842,41860,41876,41893,41909,41926,41942,41959,41975,41992,42009,42026,42042,42059,42076,42093,42110,42126,42143,42159,42176,42193,42210,42226,42242,42259,42276,42293,42310,42326,42343,42359,42376,42392,42409,42426,42442,42459,42477,42496,42509,42526,42543,42559,42575,42592,42609,42626,42642,42659,42676,42692,42709,42726,42743,42759,42776,42793,42810,42826,42843,42859,42877,42894,42909,42928,42942,42959,42976,42995,43009,43026,43042,43059,43076,43094,43109,43126,43142,43159,43176,43192,43210,43226,43242,43260,43276,43292,43311,43326,43342,43359,43376,43393,43409,43426,43443,43460,43477,43492,43509,43527,43543,43559,43576,43593,43609,43626,43643,43660,43676,43693,43709,43726,43743,43759,43776,43792,43810,43826,43843,43860,43876,43893,43910,43926,43943,43959,43976,43992,44009,44026,44042,44059,44076,44092,44109,44125,44142,44159,44176,44192,44209,44226,44242,44259,44275,44292,44309,44325,44342,44359,44376,44392,44409,44426,44443,44459,44475,44492,44508,44526,44543,44560,44575,44593,44609,44626,44642,44660,44676,44693,44710,44726,44743,44759,44776,44793,44809,44826,44843,44860,44877,44893,44910,44926,44942,44959,44976,44992,45010,45026,45042,45059,45076,45092,45109,45126,45142,45159,45176,45192,45209,45226,45243,45259,45276,45293,45309,45326,45343,45359,45376,45393,45409,45426,45442,45459,45476,45492,45509,45525,45542,45559,45575,45592,45609,45625,45642,45658,45675,45692,45709,45726,45742,45759,45776,45792,45810,45826,45842,45859,45876,45893,45909,45926,45942,45959,45976,45992,46009,46026,46043,46059,46075,46093,46109,46126,46144,46159,46176,46192,46209,46225,46243,46259,46276,46292,46310,46326,46343,46359,46375,46393,46409,46426,46442,46459,46476,46493,46509,46526,46542,46559,46575,46592,46609,46626,46642,46659,46675,46692,46709,46725,46742,46759,46775,46792,46809,46825,46842,46858,46877,46892,46909,46925,46942,46959,46975,46993,47010,47026,47042,47059,47076,47092,47109,47126,47142,47159,47175,47192,47209,47225,47242,47259,47275,47292,47308,47325,47342,47358,47375,47392,47409,47425,47442,47459,47475,47492,47508,47525,47542,47559,47576,47592,47609,47625,47642,47658,47675,47692,47709,47725,47742,47758,47775,47792,47809,47826,47841,47859,47875,47892,47909,47925,47942,47958,47975,47992,48009,48025,48042,48059,48076,48092,48108,48125,48142,48159,48175,48192,48208,48226,48241,48259,48275,48292,48309,48325,48342,48358,48375,48392,48409,48425,48442,48459,48475,48493,48508,48525,48542,48559,48575,48592,48609,48625,48642,48658,48675,48692,48709,48725,48744,48759,48775,48792,48808,48825,48842,48858,48875,48891,48909,48925,48942,48958,48975,48996],"hit":[null],"x":[-2.1496598639455784,-2.1496598639455784,-2.1496598639455784,-2.1496598639455784,-2.1496598639455784,-2.1496598639455784,-2.1496598639455784,-2.1496598639455784,-2.1496598639455784,-2.1496598639455784,-2.1496598639455784,-2.1496598639455784,-2.1496598639455784,-2.1496598639455784,-2.1496598639455784,-2.1496598639455784,-2.1496598639455784,-2.1496598639455784,-2.1496598639455784,-2.1496598639455784,-2.1496598639455784,-0.003401360544217687,-0.003401360544217687,-0.003401360544217687,-0.003401360544217687,0,0,0.01020408163265306,0.013605442176870748,0.02040816326530612,0.027210884353741496,0.034013605442176874,0.034013605442176874,0.03741496598639456,0.03741496598639456,0.03741496598639456,0.03741496598639456,0.03741496598639456,0.03741496598639456,0.03741496598639456,0.03741496598639456,0.03741496598639456,0.03741496598639456,0.03741496598639456,0.03741496598639456,0.03741496598639456,0.03741496598639456,0.03741496598639456,0.03741496598639456,0.03741496598639456,0.03741496598639456,0.03741496598639456,0.03741496598639456,0.03741496598639456,0.03741496598639456,0.03741496598639456,0.03741496598639456,0.03741496598639456,0.04081632653061224,0.04421768707482993,0.04421768707482993,0.04421768707482993,0.05442176870748299,0.05782312925170068,0.06462585034013606,0.06462585034013606,0.06802721088435375,0.06802721088435375,0.07482993197278912,0.09523809523809523,0.11564625850340136,0.13945578231292516,0.1598639455782313,0.17006802721088435,0.18027210884353742,0.1836734693877551,0.19047619047619047,0.20068027210884354,0.21428571428571427,0.22448979591836735,0.22789115646258504,0.23809523809523808,0.23809523809523808,0.23809523809523808,0.23809523809523808,0.23809523809523808,0.23809523809523808,0.23809523809523808,0.23809523809523808,0.23809523809523808,0.22789115646258504,0.19047619047619047,0.1564625850340136,0.09523809523809523,0.05782312925170068,0.027210884353741496,0,-0.013605442176870748,-0.034013605442176874,-0.05102040816326531,-0.06462585034013606,-0.09183673469387756,-0.11564625850340136,-0.13945578231292516,-0.1564625850340136,-0.17687074829931973,-0.2108843537414966,-0.24149659863945577,-0.2687074829931973,-0.2857142857142857,-0.30952380952380953,-0.35714285714285715,-0.40816326530612246,-0.4523809523809524,-0.48639455782312924,-0.5,-0.5102040816326531,-0.5238095238095238,-0.5238095238095238,-0.5238095238095238,-0.5306122448979592,-0.5306122448979592,-0.5374149659863946,-0.54421768707483,-0.5510204081632653,-0.5544217687074829,-0.5612244897959183,-0.5714285714285714,-0.5816326530612245,-0.6020408163265306,-0.6258503401360545,-0.6530612244897959,-0.6836734693877551,-0.6972789115646258,-0.7040816326530612,-0.7040816326530612,-0.7040816326530612,-0.7040816326530612,-0.7040816326530612,-0.7040816326530612,-0.7040816326530612,-0.6768707482993197,-0.5782312925170068,-0.5,-0.42517006802721086,-0.35714285714285715,-0.29931972789115646,-0.2585034013605442,-0.22789115646258504,-0.19047619047619047,-0.16666666666666666,-0.15306122448979592,-0.11904761904761904,-0.08843537414965986,-0.03741496598639456,-0.003401360544217687,0.013605442176870748,0.030612244897959183,0.03741496598639456,0.047619047619047616,0.05782312925170068,0.06462585034013606,0.0782312925170068,0.08503401360544217,0.09523809523809523,0.09863945578231292,0.11224489795918367,0.11564625850340136,0.12244897959183673,0.1326530612244898,0.1360544217687075,0.14965986394557823,0.1564625850340136,0.17346938775510204,0.18027210884353742,0.19047619047619047,0.20068027210884354,0.20748299319727892,0.21428571428571427,0.22108843537414966,0.23129251700680273,0.24149659863945577,0.24829931972789115,0.25510204081632654,0.2585034013605442,0.2653061224489796,0.272108843537415,0.272108843537415,0.2755102040816326,0.2789115646258503,0.282312925170068,0.282312925170068,0.2891156462585034,0.2891156462585034,0.2925170068027211,0.2925170068027211,0.29591836734693877,0.29591836734693877,0.29591836734693877,0.29591836734693877,0.29591836734693877,0.29591836734693877,0.29591836734693877,0.30272108843537415,0.30272108843537415,0.30272108843537415,0.30612244897959184,0.30612244897959184,0.30612244897959184,0.30952380952380953,0.30952380952380953,0.3129251700680272,0.3163265306122449,0.3197278911564626,0.3231292517006803,0.32653061224489793,0.3299319727891156,0.336734693877551,0.3401360544217687,0.3469387755102041,0.35374149659863946,0.36054421768707484,0.3673469387755102,0.38095238095238093,0.3877551020408163,0.41156462585034015,0.4217687074829932,0.43197278911564624,0.4523809523809524,0.47619047619047616,0.4931972789115646,0.5136054421768708,0.5272108843537415,0.5408163265306123,0.5510204081632653,0.5544217687074829,0.5612244897959183,0.564625850340136,0.5748299319727891,0.5748299319727891,0.5816326530612245,0.5816326530612245,0.5850340136054422,0.5884353741496599,0.5918367346938775,0.5918367346938775,0.5918367346938775,0.5918367346938775,0.5918367346938775,0.5918367346938775,0.6020408163265306,0.6122448979591837,0.6224489795918368,0.6326530612244898,0.6428571428571429,0.6598639455782312,0.6802721088435374,0.6904761904761905,0.7040816326530612,0.7074829931972789,0.7074829931972789,0.7074829931972789,0.7074829931972789,0.7074829931972789,0.7040816326530612,0.6972789115646258,0.6904761904761905,0.6836734693877551,0.6768707482993197,0.6700680272108843,0.6632653061224489,0.6598639455782312,0.6564625850340136,0.6496598639455783,0.6258503401360545,0.6054421768707483,0.5850340136054422,0.5680272108843537,0.5510204081632653,0.5340136054421769,0.5238095238095238,0.5204081632653061,0.5102040816326531,0.5034013605442177,0.4897959183673469,0.46938775510204084,0.45918367346938777,0.4523809523809524,0.4489795918367347,0.4421768707482993,0.43537414965986393,0.42857142857142855,0.41836734693877553,0.3979591836734694,0.38095238095238093,0.35714285714285715,0.3469387755102041,0.3401360544217687,0.3333333333333333,0.3299319727891156,0.3197278911564626,0.3129251700680272,0.30952380952380953,0.30272108843537415,0.2925170068027211,0.2857142857142857,0.2789115646258503,0.2755102040816326,0.2755102040816326,0.2687074829931973,0.2653061224489796,0.2653061224489796,0.2653061224489796,0.2619047619047619,0.2585034013605442,0.2585034013605442,0.25510204081632654,0.25510204081632654,0.25510204081632654,0.25510204081632654,0.25510204081632654,0.25510204081632654,0.25510204081632654,0.25510204081632654,0.25510204081632654,0.25510204081632654,0.25510204081632654,0.25510204081632654,0.25510204081632654,0.25510204081632654,0.25510204081632654,0.25510204081632654,0.2585034013605442,0.2585034013605442,0.2585034013605442,0.2619047619047619,0.2619047619047619,0.2653061224489796,0.2687074829931973,0.272108843537415,0.272108843537415,0.2755102040816326,0.2755102040816326,0.2789115646258503,0.2789115646258503,0.2789115646258503,0.2789115646258503,0.2789115646258503,0.2789115646258503,0.2789115646258503,0.2789115646258503,0.2789115646258503,0.282312925170068,0.282312925170068,0.282312925170068,0.282312925170068,0.282312925170068,0.282312925170068,0.282312925170068,0.282312925170068,0.282312925170068,0.282312925170068,0.282312925170068,0.282312925170068,0.282312925170068,0.2857142857142857,0.2857142857142857,0.2857142857142857,0.2857142857142857,0.2857142857142857,0.2857142857142857,0.2891156462585034,0.2925170068027211,0.2925170068027211,0.2925170068027211,0.29591836734693877,0.29591836734693877,0.29591836734693877,0.29591836734693877,0.29591836734693877,0.29591836734693877,0.29591836734693877,0.29591836734693877,0.29591836734693877,0.29591836734693877,0.2925170068027211,0.2891156462585034,0.2789115646258503,0.2755102040816326,0.2653061224489796,0.25510204081632654,0.24829931972789115,0.24489795918367346,0.24489795918367346,0.24489795918367346,0.24489795918367346,0.24489795918367346,0.24489795918367346,0.24489795918367346,0.24489795918367346,0.24489795918367346,0.23809523809523808,0.23469387755102042,0.23129251700680273,0.23129251700680273,0.23129251700680273,0.23129251700680273,0.23129251700680273,0.23129251700680273,0.23129251700680273,0.23129251700680273,0.23129251700680273,0.23129251700680273,0.23469387755102042,0.24149659863945577,0.25510204081632654,0.272108843537415,0.29591836734693877,0.35374149659863946,0.391156462585034,0.41836734693877553,0.445578231292517,0.46258503401360546,0.47959183673469385,0.5,0.5272108843537415,0.5578231292517006,0.5952380952380952,0.6224489795918368,0.6530612244897959,0.6632653061224489,0.6700680272108843,0.6768707482993197,0.6836734693877551,0.6870748299319728,0.6870748299319728,0.6870748299319728,0.6870748299319728,0.6870748299319728,0.6904761904761905,0.6938775510204082,0.6938775510204082,0.6972789115646258,0.6972789115646258,0.6972789115646258,0.6972789115646258,0.6972789115646258,0.6938775510204082,0.6904761904761905,0.6870748299319728,0.6836734693877551,0.6836734693877551,0.6802721088435374,0.6768707482993197,0.673469387755102,0.673469387755102,0.673469387755102,0.673469387755102,0.673469387755102,0.673469387755102,0.673469387755102,0.673469387755102,0.673469387755102,0.673469387755102,0.673469387755102,0.673469387755102,0.673469387755102,0.673469387755102,0.673469387755102,0.673469387755102,0.6802721088435374,0.6802721088435374,0.6802721088435374,0.6836734693877551,0.6870748299319728,0.6904761904761905,0.6938775510204082,0.6938775510204082,0.6938775510204082,0.7040816326530612,0.7040816326530612,0.717687074829932,0.7210884353741497,0.7210884353741497,0.7278911564625851,0.7312925170068028,0.7346938775510204,0.7380952380952381,0.7380952380952381,0.7380952380952381,0.7380952380952381,0.7380952380952381,0.7380952380952381,0.7380952380952381,0.7380952380952381,0.7380952380952381,0.7380952380952381,0.7346938775510204,0.7312925170068028,0.7210884353741497,0.7142857142857143,0.7074829931972789,0.7040816326530612,0.6972789115646258,0.6938775510204082,0.6938775510204082,0.6904761904761905,0.6836734693877551,0.6836734693877551,0.673469387755102,0.6598639455782312,0.6462585034013606,0.6360544217687075,0.6258503401360545,0.6156462585034014,0.6054421768707483,0.6054421768707483,0.6020408163265306,0.6020408163265306,0.5986394557823129,0.5884353741496599,0.5816326530612245,0.5748299319727891,0.5714285714285714,0.5680272108843537,0.5612244897959183,0.5510204081632653,0.5340136054421769,0.5238095238095238,0.5068027210884354,0.4897959183673469,0.47619047619047616,0.46938775510204084,0.46598639455782315,0.4523809523809524,0.445578231292517,0.43197278911564624,0.42517006802721086,0.41156462585034015,0.40816326530612246,0.40476190476190477,0.4013605442176871,0.3979591836734694,0.3945578231292517,0.391156462585034,0.38095238095238093,0.3707482993197279,0.36054421768707484,0.35714285714285715,0.3469387755102041,0.3469387755102041,0.336734693877551,0.32653061224489793,0.3231292517006803,0.3163265306122449,0.3129251700680272,0.30952380952380953,0.30612244897959184,0.29931972789115646,0.29591836734693877,0.2857142857142857,0.2755102040816326,0.272108843537415,0.2619047619047619,0.24829931972789115,0.24149659863945577,0.23469387755102042,0.23129251700680273,0.22108843537414966,0.21768707482993196,0.20748299319727892,0.20068027210884354,0.19727891156462585,0.1836734693877551,0.1836734693877551,0.17687074829931973,0.17006802721088435,0.17006802721088435,0.16666666666666666,0.16666666666666666,0.16326530612244897,0.1598639455782313,0.15306122448979592,0.14625850340136054,0.14285714285714285,0.14285714285714285,0.14285714285714285,0.13945578231292516,0.13945578231292516,0.13945578231292516,0.13945578231292516,0.13945578231292516,0.13945578231292516,0.13945578231292516,0.13945578231292516,0.13945578231292516,0.13945578231292516,0.13945578231292516,0.14285714285714285,0.14625850340136054,0.14625850340136054,0.14965986394557823,0.14965986394557823,0.15306122448979592,0.16326530612244897,0.17346938775510204,0.1870748299319728,0.20408163265306123,0.22789115646258504,0.2653061224489796,0.30612244897959184,0.3673469387755102,0.3945578231292517,0.41156462585034015,0.42857142857142855,0.43537414965986393,0.445578231292517,0.45918367346938777,0.47619047619047616,0.4931972789115646,0.5068027210884354,0.5136054421768708,0.5238095238095238,0.5272108843537415,0.5306122448979592,0.5340136054421769,0.5340136054421769,0.5374149659863946,0.5408163265306123,0.5408163265306123,0.54421768707483,0.54421768707483,0.54421768707483,0.54421768707483,0.54421768707483,0.54421768707483,0.54421768707483,0.54421768707483,0.54421768707483,0.54421768707483,0.54421768707483,0.54421768707483,0.54421768707483,0.54421768707483,0.54421768707483,0.54421768707483,0.54421768707483,0.54421768707483,0.54421768707483,0.54421768707483,0.54421768707483,0.54421768707483,0.54421768707483,0.54421768707483,0.54421768707483,0.54421768707483,0.54421768707483,0.54421768707483,0.54421768707483,0.54421768707483,0.54421768707483,0.54421768707483,0.54421768707483,0.54421768707483,0.54421768707483,0.54421768707483,0.54421768707483,0.54421768707483,0.54421768707483,0.54421768707483,0.54421768707483,0.54421768707483,0.54421768707483,0.54421768707483,0.54421768707483,0.54421768707483,0.54421768707483,0.54421768707483,0.54421768707483,0.54421768707483,0.54421768707483,0.54421768707483,0.54421768707483,0.54421768707483,0.54421768707483,0.54421768707483,0.54421768707483,0.54421768707483,0.54421768707483,0.54421768707483,0.54421768707483,0.54421768707483,0.54421768707483,0.54421768707483,0.5476190476190477,0.5816326530612245,0.6054421768707483,0.6394557823129252,0.6666666666666666,0.6870748299319728,0.7040816326530612,0.7142857142857143,0.7278911564625851,0.7312925170068028,0.7380952380952381,0.7482993197278912,0.7517006802721088,0.7619047619047619,0.7721088435374149,0.7789115646258503,0.7857142857142857,0.7959183673469388,0.8061224489795918,0.8129251700680272,0.8231292517006803,0.8333333333333334,0.8503401360544217,0.8537414965986394,0.8673469387755102,0.8809523809523809,0.891156462585034,0.8979591836734694,0.9149659863945578,0.9285714285714286,0.9455782312925171,0.95578231292517,0.9625850340136054,0.9693877551020408,0.9727891156462585,0.9795918367346939,0.9795918367346939,0.9795918367346939,0.9795918367346939,0.9795918367346939,0.9795918367346939,0.9795918367346939,0.9795918367346939,0.9795918367346939,0.9795918367346939,0.9795918367346939,0.9795918367346939,0.9795918367346939,0.9795918367346939,0.9795918367346939,0.9795918367346939,0.9795918367346939,0.9795918367346939,0.9795918367346939,0.9795918367346939,0.9795918367346939,0.9829931972789115,0.9829931972789115,0.9863945578231292,0.9863945578231292,0.9863945578231292,0.9863945578231292,0.9863945578231292,0.9863945578231292,0.9863945578231292,0.9863945578231292,0.9863945578231292,0.9863945578231292,0.9863945578231292,0.9863945578231292,0.9863945578231292,0.9863945578231292,0.9863945578231292,0.9863945578231292,0.9863945578231292,0.9863945578231292,0.9863945578231292,0.9863945578231292,0.9863945578231292,0.9863945578231292,0.9863945578231292,0.9863945578231292,0.9863945578231292,0.9863945578231292,0.9863945578231292,0.9863945578231292,0.9863945578231292,0.9863945578231292,0.9863945578231292,0.9863945578231292,0.9863945578231292,0.9863945578231292,0.9863945578231292,0.9863945578231292,0.9863945578231292,0.9863945578231292,0.9863945578231292,0.9863945578231292,0.9863945578231292,0.9863945578231292,0.9863945578231292,0.9863945578231292,0.9863945578231292,0.9863945578231292,0.9863945578231292,0.9863945578231292,0.9863945578231292,0.9863945578231292,0.9863945578231292,0.9863945578231292,0.9863945578231292,0.9863945578231292,0.9863945578231292,0.9863945578231292,0.9863945578231292,0.9863945578231292,0.9863945578231292,0.9863945578231292,0.9863945578231292,0.9863945578231292,0.9863945578231292,0.9863945578231292,0.9863945578231292,0.9863945578231292,0.9863945578231292,0.9863945578231292,0.9863945578231292,0.9863945578231292,0.9863945578231292,0.9863945578231292,0.9863945578231292,0.9863945578231292,0.9863945578231292,0.9863945578231292,0.9863945578231292,0.9863945578231292,0.9863945578231292,0.9863945578231292,0.9863945578231292,0.9931972789115646,0.9931972789115646,0.9965986394557823,0.9965986394557823,1,1,1,1,1,1,1,1,0.9931972789115646,0.9659863945578231,0.935374149659864,0.8979591836734694,0.8741496598639455,0.8503401360544217,0.8367346938775511,0.8231292517006803,0.8129251700680272,0.7993197278911565,0.782312925170068,0.7619047619047619,0.7482993197278912,0.7346938775510204,0.7210884353741497,0.7040816326530612,0.6870748299319728,0.6666666666666666,0.6224489795918368,0.5918367346938775,0.5374149659863946,0.48639455782312924,0.4387755102040816,0.3877551020408163,0.35034013605442177,0.3231292517006803,0.30952380952380953,0.30612244897959184,0.2891156462585034,0.2687074829931973,0.21768707482993196,0.18027210884353742,0.14965986394557823,0.1292517006802721,0.11224489795918367,0.10204081632653061,0.08503401360544217,0.07142857142857142,0.06462585034013606,0.06462585034013606,0.06462585034013606,0.06462585034013606,0.06462585034013606,0.061224489795918366,0.061224489795918366,0.061224489795918366,0.061224489795918366,0.061224489795918366,0.061224489795918366,0.061224489795918366,0.061224489795918366,0.061224489795918366,0.061224489795918366,0.061224489795918366,0.05442176870748299,0.05102040816326531,0.05102040816326531,0.04421768707482993,0.04421768707482993,0.04421768707482993,0.04421768707482993,0.04081632653061224,0.04081632653061224,0.03741496598639456,0.03741496598639456,0.03741496598639456,0.03741496598639456,0.03741496598639456,0.03741496598639456,0.03741496598639456,0.03741496598639456,0.03741496598639456,0.03741496598639456,0.034013605442176874,0.034013605442176874,0.034013605442176874,0.030612244897959183,0.030612244897959183,0.030612244897959183,0.030612244897959183,0.030612244897959183,0.030612244897959183,0.030612244897959183,0.030612244897959183,0.030612244897959183,0.030612244897959183,0.030612244897959183,0.030612244897959183,0.030612244897959183,0.030612244897959183,0.030612244897959183,0.030612244897959183,0.030612244897959183,0.030612244897959183,0.030612244897959183,0.030612244897959183,0.030612244897959183,0.030612244897959183,0.030612244897959183,0.030612244897959183,0.030612244897959183,0.030612244897959183,0.030612244897959183,0.030612244897959183,0.030612244897959183,0.030612244897959183,0.030612244897959183,0.030612244897959183,0.030612244897959183,0.030612244897959183,0.030612244897959183,0.030612244897959183,0.030612244897959183,0.030612244897959183,0.030612244897959183,0.030612244897959183,0.030612244897959183,0.030612244897959183,0.030612244897959183,0.030612244897959183,0.030612244897959183,0.030612244897959183,0.030612244897959183,0.030612244897959183,0.030612244897959183,0.030612244897959183,0.030612244897959183,0.030612244897959183,0.030612244897959183,0.030612244897959183,0.030612244897959183,0.030612244897959183,0.030612244897959183,0.030612244897959183,0.030612244897959183,0.030612244897959183,0.030612244897959183,0.030612244897959183,0.030612244897959183,0.030612244897959183,0.030612244897959183,0.030612244897959183,0.030612244897959183,0.030612244897959183,0.030612244897959183,0.030612244897959183,0.030612244897959183,0.030612244897959183,0.030612244897959183,0.030612244897959183,0.030612244897959183,0.030612244897959183,0.030612244897959183,0.030612244897959183,0.030612244897959183,0.030612244897959183,0.030612244897959183,0.030612244897959183,0.030612244897959183,0.030612244897959183,0.030612244897959183,0.030612244897959183,0.030612244897959183,0.030612244897959183,0.030612244897959183,0.030612244897959183,0.030612244897959183,0.030612244897959183,0.030612244897959183,0.030612244897959183,0.030612244897959183,0.030612244897959183,0.030612244897959183,0.030612244897959183,0.030612244897959183,0.030612244897959183,0.030612244897959183,0.030612244897959183,0.030612244897959183,0.030612244897959183,0.030612244897959183,0.030612244897959183,0.030612244897959183,0.030612244897959183,0.030612244897959183,0.030612244897959183,0.030612244897959183,0.030612244897959183,0.030612244897959183,0.030612244897959183,0.030612244897959183,0.030612244897959183,0.030612244897959183,0.030612244897959183,0.030612244897959183,0.030612244897959183,0.030612244897959183,0.030612244897959183,0.030612244897959183,0.030612244897959183,0.030612244897959183,0.030612244897959183,0.030612244897959183,0.030612244897959183,0.030612244897959183,0.030612244897959183,0.030612244897959183,0.030612244897959183,0.030612244897959183,0.030612244897959183,0.030612244897959183,0.030612244897959183,0.030612244897959183,0.030612244897959183,0.030612244897959183,0.030612244897959183,0.034013605442176874,0.034013605442176874,0.03741496598639456,0.04081632653061224,0.04421768707482993,0.047619047619047616,0.05102040816326531,0.06462585034013606,0.07142857142857142,0.0782312925170068,0.08843537414965986,0.09183673469387756,0.09863945578231292,0.11224489795918367,0.12244897959183673,0.1360544217687075,0.13945578231292516,0.15306122448979592,0.16326530612244897,0.18027210884353742,0.19047619047619047,0.20748299319727892,0.21768707482993196,0.23469387755102042,0.25170068027210885,0.2619047619047619,0.272108843537415,0.2891156462585034,0.30272108843537415,0.3129251700680272,0.32653061224489793,0.336734693877551,0.3435374149659864,0.3435374149659864,0.35034013605442177,0.35374149659863946,0.35714285714285715,0.36394557823129253,0.3707482993197279,0.37755102040816324,0.391156462585034,0.4013605442176871,0.41496598639455784,0.4217687074829932,0.42857142857142855,0.43537414965986393,0.445578231292517,0.45918367346938777,0.46938775510204084,0.48299319727891155,0.4897959183673469,0.5,0.5034013605442177,0.5170068027210885,0.5272108843537415,0.5340136054421769,0.5408163265306123,0.54421768707483,0.5510204081632653,0.5578231292517006,0.564625850340136,0.5748299319727891,0.5782312925170068,0.5884353741496599,0.5986394557823129,0.6054421768707483,0.6190476190476191,0.6326530612244898,0.6394557823129252,0.6496598639455783,0.6632653061224489,0.673469387755102,0.6904761904761905,0.7040816326530612,0.7142857142857143,0.7210884353741497,0.7244897959183674,0.7244897959183674,0.7278911564625851,0.7278911564625851,0.7278911564625851,0.7278911564625851,0.7312925170068028,0.7312925170068028,0.7312925170068028,0.7312925170068028,0.7312925170068028,0.7312925170068028,0.7312925170068028,0.7312925170068028,0.7312925170068028,0.7312925170068028,0.7312925170068028,0.7312925170068028,0.7312925170068028,0.7312925170068028,0.7312925170068028,0.7312925170068028,0.7312925170068028,0.7312925170068028,0.7312925170068028,0.7312925170068028,0.7312925170068028,0.7312925170068028,0.7312925170068028,0.7312925170068028,0.7312925170068028,0.7312925170068028,0.7312925170068028,0.7312925170068028,0.7312925170068028,0.7312925170068028,0.7312925170068028,0.7312925170068028,0.7312925170068028,0.7312925170068028,0.7312925170068028,0.7312925170068028,0.7312925170068028,0.7312925170068028,0.7312925170068028,0.7312925170068028,0.7312925170068028,0.7312925170068028,0.7312925170068028,0.7312925170068028,0.7312925170068028,0.7312925170068028,0.7244897959183674,0.7244897959183674,0.7244897959183674,0.7210884353741497,0.7210884353741497,0.717687074829932,0.7142857142857143,0.7142857142857143,0.7142857142857143,0.7142857142857143,0.7142857142857143,0.7142857142857143,0.7142857142857143,0.7142857142857143,0.7142857142857143,0.7142857142857143,0.7142857142857143,0.7142857142857143,0.7142857142857143,0.7142857142857143,0.7142857142857143,0.7142857142857143,0.7142857142857143,0.7142857142857143,0.7142857142857143,0.7142857142857143,0.7142857142857143,0.7142857142857143,0.7142857142857143,0.7142857142857143,0.7142857142857143,0.7108843537414966,0.7040816326530612,0.7006802721088435,0.6972789115646258,0.6938775510204082,0.6904761904761905,0.6870748299319728,0.6836734693877551,0.6836734693877551,0.6836734693877551,0.6768707482993197,0.6768707482993197,0.6768707482993197,0.673469387755102,0.6700680272108843,0.6632653061224489,0.6564625850340136,0.6530612244897959,0.6496598639455783,0.6496598639455783,0.6496598639455783,0.6462585034013606,0.6462585034013606,0.6428571428571429,0.6394557823129252,0.6360544217687075,0.6326530612244898,0.6326530612244898,0.6326530612244898,0.6326530612244898,0.6326530612244898,0.6292517006802721,0.6292517006802721,0.6292517006802721,0.6292517006802721,0.6258503401360545,0.6258503401360545,0.6258503401360545,0.6224489795918368,0.6224489795918368,0.6224489795918368,0.6224489795918368,0.6224489795918368,0.6224489795918368,0.6224489795918368,0.6224489795918368,0.6224489795918368,0.6224489795918368,0.6224489795918368,0.6224489795918368,0.6224489795918368,0.6156462585034014,0.6156462585034014,0.6156462585034014,0.6156462585034014,0.6156462585034014,0.6156462585034014,0.6156462585034014,0.6156462585034014,0.6156462585034014,0.6156462585034014,0.6156462585034014,0.6156462585034014,0.6156462585034014,0.6156462585034014,0.6156462585034014,0.6156462585034014,0.6156462585034014,0.6156462585034014,0.6156462585034014,0.6122448979591837,0.608843537414966,0.6054421768707483,0.6020408163265306,0.6020408163265306,0.6020408163265306,0.6020408163265306,0.6020408163265306,0.6020408163265306,0.6020408163265306,0.6020408163265306,0.6020408163265306,0.6020408163265306,0.6020408163265306,0.6020408163265306,0.6020408163265306,0.6020408163265306,0.6020408163265306,0.6020408163265306,0.6020408163265306,0.6020408163265306,0.6020408163265306,0.6020408163265306,0.6020408163265306,0.6020408163265306,0.6020408163265306,0.6020408163265306,0.6020408163265306,0.6020408163265306,0.6020408163265306,0.6020408163265306,0.6020408163265306,0.6020408163265306,0.6020408163265306,0.6020408163265306,0.6020408163265306,0.6020408163265306,0.6020408163265306,0.6020408163265306,0.6020408163265306,0.6020408163265306,0.6020408163265306,0.6020408163265306,0.6020408163265306,0.6020408163265306,0.6020408163265306,0.6020408163265306,0.6020408163265306,0.6020408163265306,0.6020408163265306,0.6020408163265306,0.6020408163265306,0.6020408163265306,0.6020408163265306,0.6020408163265306,0.6020408163265306,0.6020408163265306,0.6020408163265306,0.6020408163265306,0.6020408163265306,0.6020408163265306,0.6020408163265306,0.6020408163265306,0.6020408163265306,0.6020408163265306,0.6020408163265306,0.6020408163265306,0.6020408163265306,0.6020408163265306,0.6020408163265306,0.6020408163265306,0.6020408163265306,0.6020408163265306,0.6020408163265306,0.6020408163265306,0.6020408163265306,0.6020408163265306,0.6020408163265306,0.6020408163265306,0.6020408163265306,0.6020408163265306,0.6020408163265306,0.6020408163265306,0.6020408163265306,0.6020408163265306,0.6020408163265306,0.6020408163265306,0.6020408163265306,0.6020408163265306,0.6020408163265306,0.6020408163265306,0.6020408163265306,0.6020408163265306,0.6020408163265306,0.6020408163265306,0.6020408163265306,0.6020408163265306,0.6020408163265306,0.6020408163265306,0.6020408163265306,0.6020408163265306,0.6020408163265306,0.6020408163265306,0.6020408163265306,0.6020408163265306,0.6020408163265306,0.6020408163265306,0.6020408163265306,0.6020408163265306,0.6020408163265306,0.6020408163265306,0.6020408163265306,0.6020408163265306,0.6020408163265306,0.6020408163265306,0.6020408163265306,0.6020408163265306,0.6020408163265306,0.6020408163265306,0.6020408163265306,0.6020408163265306,0.6020408163265306,0.6020408163265306,0.6020408163265306,0.6020408163265306,0.6020408163265306,0.6020408163265306,0.5952380952380952,0.5714285714285714,0.5612244897959183,0.5476190476190477,0.5204081632653061,0.4931972789115646,0.4489795918367347,0.3741496598639456,0.29931972789115646,0.23809523809523808,0.1870748299319728,0.16666666666666666,0.1598639455782313,0.1598639455782313,0.1598639455782313,0.1598639455782313,0.1598639455782313,0.1598639455782313,0.1598639455782313,0.1598639455782313,0.1598639455782313,0.1598639455782313,0.1598639455782313,0.1598639455782313,0.1598639455782313,0.1598639455782313,0.1598639455782313,0.1598639455782313,0.1598639455782313,0.1598639455782313,0.1564625850340136,0.1564625850340136,0.1564625850340136,0.1564625850340136,0.15306122448979592,0.15306122448979592,0.15306122448979592,0.15306122448979592,0.15306122448979592,0.15306122448979592,0.15306122448979592,0.15306122448979592,0.15306122448979592,0.15306122448979592,0.15306122448979592,0.15306122448979592,0.17346938775510204,0.24149659863945577,0.29591836734693877,0.3469387755102041,0.3843537414965986,0.4013605442176871,0.42517006802721086,0.4387755102040816,0.46258503401360546,0.47959183673469385,0.4931972789115646,0.5034013605442177,0.5102040816326531,0.5204081632653061,0.5306122448979592,0.5510204081632653,0.5612244897959183,0.5782312925170068,0.5918367346938775,0.6054421768707483,0.6122448979591837,0.6156462585034014,0.6156462585034014,0.6156462585034014,0.6156462585034014,0.6156462585034014,0.6020408163265306,0.5612244897959183,0.5476190476190477,0.5340136054421769,0.5306122448979592,0.5306122448979592,0.5306122448979592,0.5306122448979592,0.5306122448979592,0.5306122448979592,0.5306122448979592,0.5306122448979592,0.5306122448979592,0.5306122448979592,0.5306122448979592,0.5544217687074829,0.5884353741496599,0.6258503401360545,0.6462585034013606,0.6530612244897959,0.6530612244897959,0.6530612244897959,0.6530612244897959,0.6530612244897959,0.6530612244897959,0.6530612244897959,0.6530612244897959,0.6530612244897959,0.6530612244897959,0.6530612244897959,0.6530612244897959,0.6530612244897959,0.6530612244897959,0.6394557823129252,0.6224489795918368,0.608843537414966,0.6020408163265306,0.5986394557823129,0.5986394557823129,0.5986394557823129,0.5986394557823129,0.5986394557823129,0.5986394557823129,0.5986394557823129,0.5952380952380952,0.5918367346938775,0.5884353741496599,0.5884353741496599,0.5884353741496599,0.5850340136054422,0.5850340136054422,0.5850340136054422,0.5850340136054422,0.5850340136054422,0.5850340136054422,0.5850340136054422,0.5850340136054422,0.5850340136054422,0.5850340136054422,0.5850340136054422,0.5850340136054422,0.5850340136054422,0.5850340136054422,0.5850340136054422,0.5850340136054422,0.5850340136054422,0.5850340136054422,0.5850340136054422,0.5850340136054422,0.5850340136054422,0.5850340136054422,0.5850340136054422,0.5850340136054422,0.5850340136054422,0.5850340136054422,0.5850340136054422,0.5850340136054422,0.5850340136054422,0.5850340136054422,0.5850340136054422,0.5850340136054422,0.5850340136054422,0.5850340136054422,0.5850340136054422,0.5850340136054422,0.5850340136054422,0.5850340136054422,0.5850340136054422,0.5850340136054422,0.5850340136054422,0.5850340136054422,0.5850340136054422,0.5850340136054422,0.5850340136054422,0.5850340136054422,0.5850340136054422,0.5850340136054422,0.5850340136054422,0.5850340136054422,0.5850340136054422,0.5850340136054422,0.5850340136054422,0.5850340136054422,0.5850340136054422,0.5850340136054422,0.5850340136054422,0.5850340136054422,0.5850340136054422,0.5850340136054422,0.5850340136054422,0.5850340136054422,0.5850340136054422,0.5850340136054422,0.5850340136054422,0.5850340136054422,0.5850340136054422,0.5850340136054422,0.5850340136054422,0.5850340136054422,0.5850340136054422,0.5850340136054422,0.5850340136054422,0.5850340136054422,0.5850340136054422,0.5850340136054422,0.5850340136054422,0.5850340136054422,0.5850340136054422,0.5850340136054422,0.5850340136054422,0.5850340136054422,0.5850340136054422,0.5850340136054422,0.5850340136054422,0.5850340136054422,0.5850340136054422,0.5850340136054422,0.5850340136054422,0.5850340136054422,0.5850340136054422,0.5850340136054422,0.5850340136054422,0.5850340136054422,0.5850340136054422,0.5850340136054422,0.5850340136054422,0.5850340136054422,0.5850340136054422,0.5850340136054422,0.5850340136054422,0.5850340136054422,0.5850340136054422,0.5850340136054422,0.5850340136054422,0.5850340136054422,0.5850340136054422,0.5850340136054422,0.5850340136054422,0.5850340136054422,0.5850340136054422,0.5850340136054422,0.5850340136054422,0.5850340136054422,0.5850340136054422,0.5850340136054422,0.5850340136054422,0.5850340136054422,0.5850340136054422,0.5850340136054422,0.5850340136054422,0.5850340136054422,0.5850340136054422,0.5850340136054422,0.5850340136054422,0.5850340136054422,0.5850340136054422,0.5850340136054422,0.5850340136054422,0.5850340136054422,0.5850340136054422,0.5850340136054422,0.5850340136054422,0.5850340136054422,0.5850340136054422,0.5850340136054422,0.5850340136054422,0.5850340136054422,0.5850340136054422,0.5850340136054422,0.5850340136054422,0.5850340136054422,0.5850340136054422,0.5850340136054422,0.5850340136054422,0.5850340136054422,0.5850340136054422,0.5850340136054422,0.5850340136054422,0.5850340136054422,0.5850340136054422,0.5850340136054422,0.5850340136054422,0.5850340136054422,0.5850340136054422,0.5850340136054422,0.5850340136054422,0.5850340136054422,0.5850340136054422,0.5850340136054422,0.5850340136054422,0.5850340136054422,0.5850340136054422,0.5850340136054422,0.5850340136054422,0.5850340136054422,0.5850340136054422,0.5850340136054422,0.5850340136054422,0.5850340136054422,0.5850340136054422,0.5850340136054422,0.5850340136054422,0.5850340136054422,0.5850340136054422,0.5850340136054422,0.5850340136054422,0.5850340136054422,0.5850340136054422,0.5850340136054422,0.5850340136054422,0.5850340136054422,0.5850340136054422,0.5850340136054422,0.5850340136054422,0.5850340136054422,0.5850340136054422,0.5850340136054422,0.5850340136054422,0.5850340136054422,0.5850340136054422,0.5850340136054422,0.5850340136054422,0.5850340136054422,0.5850340136054422,0.5850340136054422,0.5850340136054422,0.5850340136054422,0.5850340136054422,0.5850340136054422,0.5850340136054422,0.5850340136054422,0.5850340136054422,0.5850340136054422,0.5850340136054422,0.5850340136054422,0.5850340136054422,0.5850340136054422,0.5850340136054422,0.5850340136054422,0.5850340136054422,0.5850340136054422,0.5850340136054422,0.5850340136054422,0.5850340136054422,0.5850340136054422,0.5850340136054422,0.5850340136054422,0.5850340136054422,0.5850340136054422,0.5850340136054422,0.5850340136054422,0.5850340136054422,0.5850340136054422,0.5850340136054422,0.5850340136054422,0.5850340136054422,0.5850340136054422,0.5850340136054422,0.5850340136054422,0.5850340136054422,0.5850340136054422,0.5850340136054422,0.5850340136054422,0.5850340136054422,0.5850340136054422,0.5850340136054422,0.5850340136054422,0.5850340136054422,0.5850340136054422,0.5850340136054422,0.5850340136054422,0.5850340136054422,0.5850340136054422,0.5850340136054422,0.5850340136054422,0.5850340136054422,0.5850340136054422,0.5850340136054422,0.5850340136054422,0.5850340136054422,0.5850340136054422,0.5850340136054422,0.5850340136054422,0.5850340136054422,0.5850340136054422,0.5850340136054422,0.5850340136054422,0.5850340136054422,0.5850340136054422,0.5850340136054422,0.5850340136054422,0.5850340136054422,0.5850340136054422,0.5850340136054422,0.5850340136054422,0.5850340136054422,0.5850340136054422,0.5850340136054422,0.5850340136054422,0.5850340136054422,0.5850340136054422,0.5850340136054422,0.5850340136054422,0.5850340136054422,0.5850340136054422,0.5850340136054422,0.5850340136054422,0.5850340136054422,0.5850340136054422,0.5850340136054422,0.5850340136054422,0.5850340136054422,0.5850340136054422,0.5850340136054422,0.5850340136054422,0.5850340136054422,0.5850340136054422,0.5850340136054422,0.5850340136054422,0.5850340136054422,0.5850340136054422,0.5850340136054422,0.5850340136054422,0.5850340136054422,0.5850340136054422,0.5850340136054422,0.5850340136054422,0.5850340136054422,0.5850340136054422,0.5850340136054422,0.5850340136054422,0.5850340136054422,0.5850340136054422,0.5850340136054422,0.5850340136054422,0.5850340136054422,0.5850340136054422,0.5850340136054422,0.5850340136054422,0.5850340136054422,0.5850340136054422,0.5850340136054422,0.5850340136054422,0.5850340136054422,0.5850340136054422,0.5850340136054422,0.5850340136054422,0.5850340136054422,0.5850340136054422,0.5850340136054422,0.5850340136054422,0.5850340136054422,0.5850340136054422,0.5850340136054422,0.5850340136054422,0.5850340136054422,0.5850340136054422,0.5850340136054422,0.5850340136054422,0.5850340136054422,0.5850340136054422,0.5850340136054422,0.5850340136054422,0.5850340136054422,0.5850340136054422,0.5850340136054422,0.5850340136054422,0.5850340136054422,0.5850340136054422,0.5850340136054422,0.5850340136054422,0.5850340136054422,0.5850340136054422,0.5850340136054422,0.5850340136054422,0.5850340136054422,0.5850340136054422,0.5850340136054422,0.5850340136054422,0.5850340136054422,0.5850340136054422,0.5850340136054422,0.5850340136054422,0.5850340136054422,0.5850340136054422,0.5850340136054422,0.5850340136054422,0.5850340136054422,0.5850340136054422,0.5850340136054422,0.5850340136054422,0.5850340136054422,0.5850340136054422,0.5850340136054422,0.5850340136054422,0.5850340136054422,0.5850340136054422,0.5850340136054422,0.5850340136054422,0.5850340136054422,0.5850340136054422,0.5850340136054422,0.5850340136054422,0.5850340136054422,0.5850340136054422,0.5850340136054422,0.5850340136054422,0.5850340136054422,0.5850340136054422,0.5850340136054422,0.5850340136054422,0.5850340136054422,0.5850340136054422,0.5850340136054422,0.5850340136054422,0.5850340136054422,0.5850340136054422,0.5850340136054422,0.5850340136054422,0.5850340136054422,0.5850340136054422,0.5850340136054422,0.5850340136054422,0.5850340136054422,0.5850340136054422,0.5850340136054422,0.5850340136054422,0.5850340136054422,0.5884353741496599,0.5884353741496599,0.5884353741496599,0.5884353741496599,0.5884353741496599,0.5884353741496599,0.5850340136054422,0.5816326530612245,0.5816326530612245,0.5816326530612245,0.5782312925170068,0.5748299319727891,0.5714285714285714,0.5714285714285714,0.5680272108843537,0.564625850340136,0.564625850340136,0.5612244897959183,0.5612244897959183,0.5578231292517006,0.5544217687074829,0.5510204081632653,0.5476190476190477,0.5476190476190477,0.5476190476190477,0.5476190476190477,0.54421768707483,0.54421768707483,0.54421768707483,0.54421768707483,0.54421768707483,0.54421768707483,0.54421768707483,0.5408163265306123,0.5374149659863946,0.5306122448979592,0.5306122448979592,0.5272108843537415,0.5204081632653061,0.5102040816326531,0.5068027210884354,0.5034013605442177,0.5,0.5,0.5,0.5,0.5,0.4897959183673469,0.48639455782312924,0.47959183673469385,0.47619047619047616,0.47619047619047616,0.47278911564625853,0.47278911564625853,0.47278911564625853,0.47278911564625853,0.47278911564625853,0.47278911564625853,0.47278911564625853,0.47278911564625853,0.47278911564625853,0.47278911564625853,0.47278911564625853,0.47278911564625853,0.47278911564625853,0.47278911564625853,0.47278911564625853,0.47278911564625853,0.47278911564625853,0.47278911564625853,0.47278911564625853,0.47278911564625853,0.47619047619047616,0.48299319727891155,0.48639455782312924,0.4965986394557823,0.5034013605442177,0.5068027210884354,0.5170068027210885,0.5238095238095238,0.5306122448979592,0.5340136054421769,0.5340136054421769,0.5374149659863946,0.5408163265306123,0.5408163265306123,0.5408163265306123,0.54421768707483,0.5476190476190477,0.5476190476190477,0.5476190476190477,0.5476190476190477,0.5476190476190477,0.5510204081632653,0.5578231292517006,0.5680272108843537,0.5782312925170068,0.5952380952380952,0.6054421768707483,0.6156462585034014,0.6258503401360545,0.6360544217687075,0.6428571428571429,0.6462585034013606,0.6496598639455783,0.6530612244897959,0.6564625850340136,0.6564625850340136,0.6564625850340136,0.6632653061224489,0.6632653061224489,0.6632653061224489,0.6632653061224489,0.6666666666666666,0.6666666666666666,0.6666666666666666,0.6666666666666666,0.6666666666666666,0.673469387755102,0.673469387755102,0.673469387755102,0.6768707482993197,0.6768707482993197,0.6802721088435374,0.6802721088435374,0.6802721088435374,0.6802721088435374,0.6802721088435374,0.6802721088435374,0.6802721088435374,0.6802721088435374,0.6802721088435374,0.6802721088435374,0.6802721088435374,0.6802721088435374,0.6802721088435374,0.6802721088435374,0.6802721088435374,0.6802721088435374,0.6802721088435374,0.6802721088435374,0.6802721088435374,0.6802721088435374,0.6802721088435374,0.6802721088435374,0.6802721088435374,0.6802721088435374,0.6802721088435374,0.6802721088435374,0.6802721088435374,0.6802721088435374,0.6802721088435374,0.6802721088435374,0.6802721088435374,0.6802721088435374,0.6802721088435374,0.6802721088435374,0.6802721088435374,0.6802721088435374,0.6802721088435374,0.6802721088435374,0.6802721088435374,0.6802721088435374,0.6802721088435374,0.6802721088435374,0.6802721088435374,0.6802721088435374,0.6802721088435374,0.6802721088435374,0.6802721088435374,0.6802721088435374,0.6802721088435374,0.6802721088435374,0.6802721088435374,0.6802721088435374,0.6802721088435374,0.6802721088435374,0.6802721088435374,0.6802721088435374,0.6802721088435374,0.6802721088435374,0.6802721088435374,0.6802721088435374,0.6802721088435374,0.6802721088435374,0.6870748299319728,0.6972789115646258,0.7074829931972789,0.717687074829932,0.7278911564625851,0.7312925170068028,0.7414965986394558,0.7517006802721088,0.7517006802721088,0.7585034013605442,0.7619047619047619,0.7687074829931972,0.7721088435374149,0.8061224489795918,0.8537414965986394,0.9217687074829932,0.9829931972789115,1.0034013605442176,1.010204081632653,1.010204081632653,1.010204081632653,1.010204081632653,1.0136054421768708,1.0204081632653061,1.0238095238095237,1.0272108843537415,1.034013605442177,1.0374149659863945,1.0408163265306123,1.0476190476190477,1.054421768707483,1.0578231292517006,1.0680272108843538,1.0782312925170068,1.0850340136054422,1.08843537414966,1.0952380952380953,1.098639455782313,1.1088435374149659,1.1088435374149659,1.1122448979591837,1.119047619047619,1.1224489795918366,1.1258503401360545,1.1258503401360545,1.1258503401360545,1.1326530612244898,1.1326530612244898,1.1326530612244898,1.1326530612244898,1.1326530612244898,1.1326530612244898,1.1326530612244898,1.1326530612244898,1.1326530612244898,1.1326530612244898,1.1326530612244898,1.1326530612244898,1.1326530612244898,1.1326530612244898,1.1326530612244898,1.1326530612244898,1.1326530612244898,1.1326530612244898,1.1326530612244898,1.1326530612244898,1.1326530612244898,1.1224489795918366,1.0476190476190477,0.9727891156462585,0.9047619047619048,0.8537414965986394,0.8163265306122449,0.7925170068027211,0.7482993197278912,0.6904761904761905,0.6156462585034014,0.5306122448979592,0.48299319727891155,0.45918367346938777,0.445578231292517,0.4421768707482993,0.4421768707482993,0.4387755102040816,0.42857142857142855,0.41156462585034015,0.3945578231292517,0.3843537414965986,0.3741496598639456,0.3707482993197279,0.35034013605442177,0.3435374149659864,0.3129251700680272,0.2687074829931973,0.23809523809523808,0.21428571428571427,0.20408163265306123,0.20068027210884354,0.20068027210884354,0.20068027210884354,0.20068027210884354,0.19727891156462585,0.1836734693877551,0.17006802721088435,0.1564625850340136,0.14285714285714285,0.1360544217687075,0.12585034013605442,0.11904761904761904,0.10884353741496598,0.09183673469387756,0.0782312925170068,0.06802721088435375,0.05782312925170068,0.05782312925170068,0.05782312925170068,0.05442176870748299,0.047619047619047616,0.04421768707482993,0.034013605442176874,0.027210884353741496,0.023809523809523808,0.023809523809523808,0.023809523809523808,0.023809523809523808,0.023809523809523808,0.02040816326530612,0.02040816326530612,0.02040816326530612,0.02040816326530612,0.02040816326530612,0.02040816326530612,0.02040816326530612,0.02040816326530612,0.02040816326530612,0.02040816326530612,0.02040816326530612,0.02040816326530612,0.02040816326530612,0.02040816326530612,0.02040816326530612,0.02040816326530612,0.02040816326530612,0.02040816326530612,0.02040816326530612,0.02040816326530612,0.02040816326530612,0.02040816326530612,0.02040816326530612,0.02040816326530612,0.02040816326530612,0.02040816326530612,0.02040816326530612,0.02040816326530612,0.02040816326530612,0.02040816326530612,0.02040816326530612,0.02040816326530612,0.02040816326530612,0.02040816326530612,0.02040816326530612,0.02040816326530612,0.02040816326530612,0.02040816326530612,0.02040816326530612,0.02040816326530612,0.02040816326530612,0.02040816326530612,0.02040816326530612,0.02040816326530612,0.02040816326530612,0.02040816326530612,0.02040816326530612,0.02040816326530612,0.02040816326530612,0.02040816326530612,0.02040816326530612,0.02040816326530612,0.02040816326530612,0.02040816326530612,0.023809523809523808,0.023809523809523808,0.027210884353741496,0.027210884353741496,0.030612244897959183,0.03741496598639456,0.04081632653061224,0.047619047619047616,0.05102040816326531,0.06462585034013606,0.07482993197278912,0.08503401360544217,0.09863945578231292,0.1054421768707483,0.11904761904761904,0.1292517006802721,0.14285714285714285,0.14965986394557823,0.1564625850340136,0.17346938775510204,0.19047619047619047,0.19727891156462585,0.20748299319727892,0.22108843537414966,0.23469387755102042,0.25510204081632654,0.272108843537415,0.2857142857142857,0.30272108843537415,0.3129251700680272,0.3299319727891156,0.36394557823129253,0.4013605442176871,0.4421768707482993,0.47278911564625853,0.5136054421768708,0.54421768707483,0.6020408163265306,0.6904761904761905,0.7959183673469388,0.8741496598639455,0.9489795918367347,0.95578231292517,0.9591836734693877,0.9591836734693877,0.9591836734693877,0.9591836734693877,0.9591836734693877,0.9591836734693877,0.9591836734693877,0.9591836734693877,0.9591836734693877,0.9591836734693877,0.9591836734693877,0.9591836734693877,0.9625850340136054,0.9659863945578231,0.9727891156462585,0.9795918367346939,0.9863945578231292,0.9897959183673469,0.9931972789115646,0.9965986394557823,1,1.0068027210884354,1.0170068027210883,1.0272108843537415,1.030612244897959,1.0408163265306123,1.0408163265306123,1.0442176870748299,1.0442176870748299,1.0442176870748299,1.0476190476190477,1.0476190476190477,1.0578231292517006,1.0578231292517006,1.0578231292517006,1.0578231292517006,1.0714285714285714,1.0748299319727892,1.0748299319727892,1.0782312925170068,1.0850340136054422,1.08843537414966,1.08843537414966,1.08843537414966,1.08843537414966,1.08843537414966,1.08843537414966,1.08843537414966,1.08843537414966,1.08843537414966,1.08843537414966,1.08843537414966,1.08843537414966,1.08843537414966,1.08843537414966,1.08843537414966,1.08843537414966,1.08843537414966,1.08843537414966,1.08843537414966,1.08843537414966,1.08843537414966,1.08843537414966,1.08843537414966,1.08843537414966,1.08843537414966,1.08843537414966,1.08843537414966,1.08843537414966,1.08843537414966,1.08843537414966,1.08843537414966,1.08843537414966,1.08843537414966,1.08843537414966,1.08843537414966,1.08843537414966,1.08843537414966,1.0918367346938775,1.0918367346938775,1.0918367346938775,1.0918367346938775,1.0918367346938775,1.0918367346938775,1.0918367346938775,1.0918367346938775,1.0918367346938775,1.0918367346938775,1.0918367346938775,1.0918367346938775,1.0918367346938775,1.0918367346938775,1.0918367346938775,1.0918367346938775,1.0918367346938775,1.0918367346938775,1.098639455782313,1.1054421768707483,1.1054421768707483,1.1122448979591837,1.1156462585034013,1.1156462585034013,1.1156462585034013,1.119047619047619,1.119047619047619,1.1224489795918366,1.1258503401360545,1.1258503401360545,1.129251700680272,1.129251700680272,1.129251700680272,1.129251700680272,1.129251700680272,1.129251700680272,1.129251700680272,1.129251700680272,1.129251700680272,1.129251700680272,1.129251700680272,1.129251700680272,1.129251700680272,1.129251700680272,1.129251700680272,1.129251700680272,1.129251700680272,1.129251700680272,1.129251700680272,1.129251700680272,1.129251700680272,1.129251700680272,1.129251700680272,1.129251700680272,1.129251700680272,1.129251700680272,1.129251700680272,1.129251700680272,1.129251700680272,1.129251700680272,1.129251700680272,1.129251700680272,1.129251700680272,1.129251700680272,1.129251700680272,1.129251700680272,1.129251700680272,1.129251700680272,1.129251700680272,1.129251700680272,1.129251700680272,1.129251700680272,1.129251700680272,1.129251700680272,1.129251700680272,1.129251700680272,1.129251700680272,1.129251700680272,1.129251700680272,1.129251700680272,1.129251700680272,1.129251700680272,1.129251700680272,1.129251700680272,1.129251700680272,1.129251700680272,1.129251700680272,1.129251700680272,1.129251700680272,1.129251700680272,1.129251700680272,1.129251700680272,1.129251700680272,1.129251700680272,1.129251700680272,1.129251700680272,1.129251700680272,1.129251700680272,1.129251700680272,1.129251700680272,1.129251700680272,1.129251700680272,1.129251700680272,1.129251700680272,1.129251700680272,1.129251700680272,1.129251700680272,1.129251700680272,1.129251700680272,1.129251700680272,1.129251700680272,1.129251700680272,1.129251700680272,1.129251700680272,1.129251700680272,1.129251700680272,1.129251700680272,1.129251700680272,1.129251700680272,1.129251700680272,1.129251700680272,1.129251700680272,1.129251700680272,1.129251700680272,1.129251700680272,1.129251700680272,1.129251700680272,1.129251700680272,1.129251700680272,1.129251700680272,1.129251700680272,1.129251700680272,1.129251700680272,1.129251700680272,1.129251700680272,1.129251700680272,1.129251700680272,1.129251700680272,1.129251700680272,1.129251700680272,1.129251700680272,1.129251700680272,1.129251700680272,1.129251700680272,1.129251700680272,1.129251700680272,1.129251700680272,1.129251700680272,1.129251700680272,1.129251700680272,1.129251700680272,1.129251700680272,1.129251700680272,1.129251700680272,1.129251700680272,1.129251700680272,1.129251700680272,1.129251700680272,1.129251700680272,1.129251700680272,1.129251700680272,1.129251700680272,1.129251700680272,1.129251700680272,1.129251700680272,1.129251700680272,1.129251700680272,1.129251700680272,1.129251700680272,1.129251700680272,1.129251700680272,1.1224489795918366,1.119047619047619,1.1156462585034013,1.1122448979591837,1.1054421768707483,1.0952380952380953,1.08843537414966,1.0782312925170068,1.0680272108843538,1.0612244897959184,1.0510204081632653,1.0442176870748299,1.034013605442177,1.0136054421768708,1.0034013605442176,0.9795918367346939,0.9591836734693877,0.9421768707482994,0.9319727891156463,0.9149659863945578,0.8979591836734694,0.8741496598639455,0.8537414965986394,0.8299319727891157,0.8095238095238095,0.7925170068027211,0.7755102040816326,0.7585034013605442,0.7482993197278912,0.7414965986394558,0.7346938775510204,0.7210884353741497,0.6972789115646258,0.6768707482993197,0.6564625850340136,0.608843537414966,0.5476190476190477,0.4965986394557823,0.46258503401360546,0.42517006802721086,0.4217687074829932,0.41496598639455784,0.40816326530612246,0.4013605442176871,0.3945578231292517,0.391156462585034,0.391156462585034,0.3877551020408163,0.38095238095238093,0.38095238095238093,0.38095238095238093,0.38095238095238093,0.38095238095238093,0.38095238095238093,0.38095238095238093,0.38095238095238093,0.38095238095238093,0.38095238095238093,0.38095238095238093,0.38095238095238093,0.38095238095238093,0.38095238095238093,0.38095238095238093,0.38095238095238093,0.38095238095238093,0.38095238095238093,0.38095238095238093,0.38095238095238093,0.38095238095238093,0.38095238095238093,0.38095238095238093,0.38095238095238093,0.38095238095238093,0.38095238095238093,0.38095238095238093,0.38095238095238093,0.38095238095238093,0.3741496598639456,0.3673469387755102,0.36394557823129253,0.35374149659863946,0.35034013605442177,0.3435374149659864,0.3333333333333333,0.3231292517006803,0.3163265306122449,0.30612244897959184,0.29591836734693877,0.2857142857142857,0.282312925170068,0.2755102040816326,0.2687074829931973,0.2585034013605442,0.24489795918367346,0.23469387755102042,0.22108843537414966,0.20748299319727892,0.20068027210884354,0.19727891156462585,0.19727891156462585,0.19387755102040816,0.19387755102040816,0.19387755102040816,0.19387755102040816,0.19387755102040816,0.19387755102040816,0.19387755102040816,0.19387755102040816,0.19387755102040816,0.19387755102040816,0.1870748299319728,0.1836734693877551,0.18027210884353742,0.17687074829931973,0.17346938775510204,0.17346938775510204,0.17006802721088435,0.16666666666666666,0.16666666666666666,0.1598639455782313,0.1564625850340136,0.15306122448979592,0.15306122448979592,0.14965986394557823,0.14285714285714285,0.14285714285714285,0.14285714285714285,0.1360544217687075,0.1360544217687075,0.1360544217687075,0.1360544217687075,0.1360544217687075,0.1360544217687075,0.1360544217687075,0.1360544217687075,0.1360544217687075,0.1360544217687075,0.1360544217687075,0.1360544217687075,0.1360544217687075,0.1360544217687075,0.1360544217687075,0.1360544217687075,0.1360544217687075,0.1360544217687075,0.1360544217687075,0.1360544217687075,0.1360544217687075,0.1360544217687075,0.1360544217687075,0.1360544217687075,0.1360544217687075,0.1360544217687075,0.14965986394557823,0.19047619047619047,0.25170068027210885,0.3231292517006803,0.41496598639455784,0.5204081632653061,0.6156462585034014,0.7278911564625851,0.7619047619047619,0.7789115646258503,0.7857142857142857,0.7993197278911565,0.8095238095238095,0.8197278911564626,0.8333333333333334,0.8503401360544217,0.8707482993197279,0.8979591836734694,0.9455782312925171,0.9693877551020408,0.9795918367346939,0.9863945578231292,0.9931972789115646,0.9931972789115646,0.9965986394557823,1,1.0034013605442176,1.0068027210884354,1.010204081632653,1.0136054421768708,1.0136054421768708,1.0136054421768708,1.0136054421768708,1.0136054421768708,1.0136054421768708,1.0136054421768708,1.0136054421768708,1.0136054421768708,1.0136054421768708,1.0136054421768708,1.0136054421768708,1.0136054421768708,1.0136054421768708,1.0136054421768708,1.0136054421768708,1.0136054421768708,1.0136054421768708,1.0136054421768708,1.0136054421768708,1.0136054421768708,1.0136054421768708,1.0136054421768708,1.010204081632653,1.010204081632653,1.010204081632653,1.010204081632653,1.010204081632653,1.010204081632653,1.010204081632653,1.010204081632653,1.010204081632653,1.010204081632653,1.010204081632653,1.010204081632653,1.010204081632653,1.010204081632653,1.010204081632653,1.010204081632653,1.010204081632653,1.010204081632653,1.010204081632653,1.010204081632653,1.010204081632653,1.010204081632653,1.010204081632653,1.010204081632653,1.010204081632653,1.010204081632653,1.010204081632653,1.010204081632653,1.010204081632653,1.010204081632653,1.010204081632653,1.010204081632653,1.010204081632653,1.010204081632653,1.010204081632653,1.010204081632653,1.010204081632653,1.010204081632653,1.010204081632653,1.010204081632653,1.010204081632653,1.010204081632653,1.010204081632653,1.010204081632653,1.010204081632653,1.010204081632653,1.010204081632653,1.010204081632653,1.010204081632653,1.010204081632653,1.010204081632653,1.010204081632653,1.010204081632653,1.010204081632653,1.010204081632653,1.010204081632653,1.010204081632653,1.010204081632653,1.010204081632653,1.010204081632653,1.010204081632653,1.010204081632653,1.010204081632653,1.010204081632653,1.010204081632653,1.010204081632653,1.010204081632653,1.010204081632653,1.010204081632653,1.010204081632653,1.010204081632653,1.010204081632653,1.010204081632653,1.010204081632653,1.010204081632653,1.010204081632653,1.010204081632653,1.010204081632653,1.010204081632653,1.010204081632653,1.010204081632653,1.010204081632653,1.010204081632653,1.010204081632653,1.010204081632653,1.010204081632653,1.010204081632653,1.010204081632653,1.010204081632653,1.010204081632653,1.010204081632653,1.010204081632653,1.010204081632653,1.010204081632653,1.010204081632653,1.010204081632653,1.010204081632653,1.010204081632653,1.010204081632653,1.010204081632653,1.010204081632653,1.010204081632653,1.010204081632653,1.010204081632653,1.010204081632653,1.010204081632653,1.010204081632653,1.010204081632653,1.010204081632653,1.010204081632653,1.010204081632653,1.010204081632653,1.010204081632653,1.010204081632653,1.010204081632653,1.010204081632653,1.010204081632653,1.010204081632653,1.010204081632653,1.010204081632653,1.010204081632653,1.010204081632653,1.010204081632653,1.010204081632653,1.010204081632653,1.010204081632653,1.010204081632653,1.010204081632653,1.010204081632653,1.010204081632653,1.010204081632653,1.010204081632653,1.010204081632653,1.010204081632653,1.010204081632653,1.010204081632653,1.010204081632653,1.010204081632653,1.010204081632653],"y":[-3.5714285714285716,-3.5714285714285716,-3.5714285714285716,-3.5714285714285716,-3.5714285714285716,-3.5714285714285716,-3.5714285714285716,-3.5714285714285716,-3.5714285714285716,-3.5714285714285716,-3.5714285714285716,-3.5714285714285716,-3.5714285714285716,-3.5714285714285716,-3.5714285714285716,-3.5714285714285716,-3.5714285714285716,-3.5714285714285716,-3.5714285714285716,-3.5714285714285716,-3.5714285714285716,0.5571428571428572,0.5571428571428572,0.5571428571428572,0.5571428571428572,0.5571428571428572,0.5571428571428572,0.5857142857142857,0.5857142857142857,0.6047619047619047,0.6238095238095238,0.6333333333333333,0.6523809523809524,0.6619047619047619,0.6714285714285714,0.680952380952381,0.6904761904761905,0.6904761904761905,0.6904761904761905,0.6904761904761905,0.6904761904761905,0.6904761904761905,0.6904761904761905,0.6904761904761905,0.6904761904761905,0.6904761904761905,0.6904761904761905,0.6904761904761905,0.6904761904761905,0.6904761904761905,0.6904761904761905,0.6904761904761905,0.6904761904761905,0.6904761904761905,0.6904761904761905,0.6904761904761905,0.6904761904761905,0.6904761904761905,0.6714285714285714,0.6714285714285714,0.6523809523809524,0.6333333333333333,0.6142857142857143,0.6047619047619047,0.6047619047619047,0.6047619047619047,0.5952380952380952,0.5952380952380952,0.5761904761904761,0.5571428571428572,0.5380952380952381,0.5,0.49047619047619045,0.48095238095238096,0.4714285714285714,0.46190476190476193,0.4523809523809524,0.44285714285714284,0.43333333333333335,0.4142857142857143,0.40476190476190477,0.40476190476190477,0.40476190476190477,0.40476190476190477,0.40476190476190477,0.40476190476190477,0.40476190476190477,0.40476190476190477,0.40476190476190477,0.40476190476190477,0.40476190476190477,0.44285714285714284,0.5,0.6047619047619047,0.6619047619047619,0.6904761904761905,0.7476190476190476,0.7571428571428571,0.7857142857142857,0.8047619047619048,0.8238095238095238,0.8333333333333334,0.861904761904762,0.8809523809523809,0.9,0.919047619047619,0.9380952380952381,0.9476190476190476,0.9571428571428572,0.9571428571428572,0.9666666666666667,0.9666666666666667,0.9666666666666667,0.9666666666666667,0.9666666666666667,0.9666666666666667,0.9666666666666667,0.9666666666666667,0.9571428571428572,0.9571428571428572,0.9571428571428572,0.9476190476190476,0.9380952380952381,0.9380952380952381,0.9285714285714286,0.9285714285714286,0.9285714285714286,0.919047619047619,0.919047619047619,0.9095238095238095,0.9,0.9,0.9,0.9,0.9,0.9,0.9,0.9,0.9,0.9,0.8904761904761904,0.8523809523809524,0.7666666666666667,0.719047619047619,0.6714285714285714,0.6428571428571429,0.6047619047619047,0.5761904761904761,0.5476190476190477,0.5095238095238095,0.5,0.48095238095238096,0.4714285714285714,0.44285714285714284,0.43333333333333335,0.4238095238095238,0.4142857142857143,0.40476190476190477,0.3952380952380952,0.3952380952380952,0.3761904761904762,0.3761904761904762,0.3761904761904762,0.36666666666666664,0.36666666666666664,0.36666666666666664,0.35714285714285715,0.35714285714285715,0.3476190476190476,0.3380952380952381,0.3380952380952381,0.32857142857142857,0.32857142857142857,0.319047619047619,0.319047619047619,0.3,0.3,0.2904761904761905,0.28095238095238095,0.2714285714285714,0.2619047619047619,0.23333333333333334,0.21428571428571427,0.20476190476190476,0.18571428571428572,0.15714285714285714,0.14761904761904762,0.12857142857142856,0.11904761904761904,0.1,0.07142857142857142,0.06190476190476191,0.03333333333333333,0.014285714285714285,0.004761904761904762,0.004761904761904762,-0.004761904761904762,-0.004761904761904762,-0.004761904761904762,-0.004761904761904762,-0.004761904761904762,-0.004761904761904762,-0.004761904761904762,-0.004761904761904762,0.004761904761904762,0.004761904761904762,0.004761904761904762,0.023809523809523808,0.023809523809523808,0.04285714285714286,0.04285714285714286,0.06190476190476191,0.07142857142857142,0.09047619047619047,0.1,0.10952380952380952,0.11904761904761904,0.12857142857142856,0.14761904761904762,0.15714285714285714,0.1761904761904762,0.19523809523809524,0.21428571428571427,0.23333333333333334,0.2523809523809524,0.28095238095238095,0.3,0.30952380952380953,0.30952380952380953,0.319047619047619,0.3380952380952381,0.3476190476190476,0.3476190476190476,0.3476190476190476,0.35714285714285715,0.35714285714285715,0.35714285714285715,0.35714285714285715,0.35714285714285715,0.35714285714285715,0.35714285714285715,0.35714285714285715,0.35714285714285715,0.35714285714285715,0.35714285714285715,0.35714285714285715,0.35714285714285715,0.35714285714285715,0.35714285714285715,0.35714285714285715,0.36666666666666664,0.38571428571428573,0.4142857142857143,0.44285714285714284,0.48095238095238096,0.5095238095238095,0.5571428571428572,0.5857142857142857,0.6142857142857143,0.6333333333333333,0.6428571428571429,0.6619047619047619,0.7095238095238096,0.7666666666666667,0.8047619047619048,0.8523809523809524,0.8714285714285714,0.9,0.919047619047619,0.9285714285714286,0.9380952380952381,0.9380952380952381,0.9476190476190476,0.9571428571428572,0.9857142857142858,1.0047619047619047,1.0333333333333334,1.042857142857143,1.061904761904762,1.0714285714285714,1.0714285714285714,1.0809523809523809,1.0904761904761904,1.0904761904761904,1.1,1.1095238095238096,1.1095238095238096,1.1095238095238096,1.1095238095238096,1.1095238095238096,1.1095238095238096,1.1095238095238096,1.1095238095238096,1.1095238095238096,1.1095238095238096,1.1095238095238096,1.0904761904761904,1.0904761904761904,1.0904761904761904,1.0809523809523809,1.0714285714285714,1.061904761904762,1.0523809523809524,1.0523809523809524,1.0333333333333334,1.0142857142857142,1.0047619047619047,0.9857142857142858,0.9761904761904762,0.9666666666666667,0.9380952380952381,0.919047619047619,0.8809523809523809,0.8714285714285714,0.8428571428571429,0.8238095238095238,0.8142857142857143,0.7857142857142857,0.7666666666666667,0.7571428571428571,0.7476190476190476,0.7285714285714285,0.719047619047619,0.7095238095238096,0.6904761904761905,0.680952380952381,0.6714285714285714,0.6523809523809524,0.6428571428571429,0.6142857142857143,0.6142857142857143,0.6142857142857143,0.5952380952380952,0.5952380952380952,0.5857142857142857,0.5666666666666667,0.5571428571428572,0.5571428571428572,0.5476190476190477,0.5380952380952381,0.5380952380952381,0.5380952380952381,0.5380952380952381,0.5285714285714286,0.5285714285714286,0.5285714285714286,0.5285714285714286,0.5285714285714286,0.5285714285714286,0.5285714285714286,0.5285714285714286,0.5285714285714286,0.5285714285714286,0.5285714285714286,0.5285714285714286,0.5285714285714286,0.5285714285714286,0.5285714285714286,0.5285714285714286,0.5285714285714286,0.5285714285714286,0.5285714285714286,0.5285714285714286,0.5285714285714286,0.5285714285714286,0.5285714285714286,0.5285714285714286,0.5285714285714286,0.5285714285714286,0.5285714285714286,0.5285714285714286,0.5285714285714286,0.5285714285714286,0.5285714285714286,0.5285714285714286,0.5476190476190477,0.5666666666666667,0.5857142857142857,0.5857142857142857,0.5952380952380952,0.5952380952380952,0.6047619047619047,0.6333333333333333,0.6428571428571429,0.6714285714285714,0.6904761904761905,0.7380952380952381,0.7666666666666667,0.7952380952380952,0.8238095238095238,0.8714285714285714,0.8809523809523809,0.8904761904761904,0.8904761904761904,0.8904761904761904,0.8904761904761904,0.8904761904761904,0.8904761904761904,0.8904761904761904,0.8904761904761904,0.8904761904761904,0.8904761904761904,0.8809523809523809,0.861904761904762,0.8523809523809524,0.8238095238095238,0.7952380952380952,0.7666666666666667,0.7380952380952381,0.719047619047619,0.7,0.6714285714285714,0.6428571428571429,0.5952380952380952,0.5666666666666667,0.5095238095238095,0.46190476190476193,0.40476190476190477,0.30952380952380953,0.22380952380952382,0.15714285714285714,0.10952380952380952,0.08095238095238096,0.05238095238095238,0.04285714285714286,0.014285714285714285,-0.004761904761904762,-0.023809523809523808,-0.03333333333333333,-0.04285714285714286,-0.04285714285714286,-0.04285714285714286,-0.04285714285714286,-0.04285714285714286,-0.04285714285714286,-0.04285714285714286,-0.04285714285714286,-0.04285714285714286,-0.04285714285714286,-0.04285714285714286,-0.04285714285714286,-0.023809523809523808,0.004761904761904762,0.03333333333333333,0.05238095238095238,0.09047619047619047,0.10952380952380952,0.1380952380952381,0.16666666666666666,0.18571428571428572,0.20476190476190476,0.22380952380952382,0.23333333333333334,0.2523809523809524,0.2619047619047619,0.28095238095238095,0.28095238095238095,0.2904761904761905,0.3,0.3,0.3,0.3,0.3,0.3,0.3,0.3,0.30952380952380953,0.30952380952380953,0.30952380952380953,0.30952380952380953,0.30952380952380953,0.30952380952380953,0.30952380952380953,0.30952380952380953,0.30952380952380953,0.30952380952380953,0.30952380952380953,0.30952380952380953,0.30952380952380953,0.30952380952380953,0.3,0.3,0.3,0.2904761904761905,0.2904761904761905,0.2904761904761905,0.28095238095238095,0.28095238095238095,0.28095238095238095,0.28095238095238095,0.28095238095238095,0.28095238095238095,0.28095238095238095,0.28095238095238095,0.28095238095238095,0.28095238095238095,0.30952380952380953,0.35714285714285715,0.3952380952380952,0.43333333333333335,0.46190476190476193,0.49047619047619045,0.5190476190476191,0.5476190476190477,0.5666666666666667,0.5666666666666667,0.5857142857142857,0.6142857142857143,0.6333333333333333,0.6619047619047619,0.7,0.7476190476190476,0.7761904761904762,0.8047619047619048,0.8333333333333334,0.8523809523809524,0.8523809523809524,0.861904761904762,0.861904761904762,0.8714285714285714,0.8714285714285714,0.8809523809523809,0.8809523809523809,0.8904761904761904,0.9,0.9,0.9095238095238095,0.9095238095238095,0.9285714285714286,0.9380952380952381,0.9380952380952381,0.9476190476190476,0.9571428571428572,0.9571428571428572,0.9666666666666667,0.9761904761904762,0.9857142857142858,0.9952380952380953,1.0047619047619047,1.0047619047619047,1.0047619047619047,1.0047619047619047,1.0047619047619047,1.0047619047619047,1.0047619047619047,1.0047619047619047,1.0047619047619047,1.0047619047619047,1.0047619047619047,1.0047619047619047,1.0047619047619047,1.0047619047619047,1.0047619047619047,1.0047619047619047,1.0047619047619047,1.0047619047619047,1.0047619047619047,1.0047619047619047,1.0047619047619047,0.9952380952380953,0.9952380952380953,0.9857142857142858,0.9857142857142858,0.9857142857142858,0.9857142857142858,0.9857142857142858,0.9666666666666667,0.9666666666666667,0.9666666666666667,0.9666666666666667,0.9571428571428572,0.9571428571428572,0.9571428571428572,0.9476190476190476,0.9380952380952381,0.9380952380952381,0.9380952380952381,0.9285714285714286,0.919047619047619,0.919047619047619,0.919047619047619,0.9,0.8714285714285714,0.8428571428571429,0.8238095238095238,0.8047619047619048,0.7571428571428571,0.7476190476190476,0.7285714285714285,0.719047619047619,0.7,0.7,0.6904761904761905,0.6619047619047619,0.6523809523809524,0.6428571428571429,0.6333333333333333,0.6142857142857143,0.5952380952380952,0.5952380952380952,0.5857142857142857,0.5761904761904761,0.5761904761904761,0.5666666666666667,0.5666666666666667,0.5476190476190477,0.5476190476190477,0.5380952380952381,0.5380952380952381,0.5380952380952381,0.5380952380952381,0.5380952380952381,0.5380952380952381,0.5380952380952381,0.5380952380952381,0.5380952380952381,0.5380952380952381,0.5380952380952381,0.5380952380952381,0.5380952380952381,0.5380952380952381,0.5380952380952381,0.5380952380952381,0.5380952380952381,0.5190476190476191,0.5190476190476191,0.5190476190476191,0.5095238095238095,0.5095238095238095,0.5095238095238095,0.49047619047619045,0.49047619047619045,0.49047619047619045,0.49047619047619045,0.49047619047619045,0.49047619047619045,0.49047619047619045,0.49047619047619045,0.49047619047619045,0.49047619047619045,0.49047619047619045,0.490476190