[{"success":true,"trial_type":"fullscreen","trial_index":0,"time_elapsed":12817,"internal_node_id":"0.0-0.0","protocol_sum":"","subject_identifier":419,"subject_sum":[131,248,20,247,169,46,54,92,189,121,249,173,220,238,209,133,118,26,141,56,160,106,45,67,80,187,31,228,183,99,43,52],"subject_pair":209,"STUDY_ID":"66a22c0758a3d5c9d26873c6","PROLIFIC_PID":"65cb708afe5755feaeec417f","SESSION_ID":"66a2a703c84dfcf0ffe5a3a3","practice_instructions":1,"leaderboard_instructions":0,"bonus":0,"reveal_word":true,"self_rating":"4","confidence":"52"},{"view_history":"[{\"page_index\":0,\"viewing_time\":5461.60000000149}]","rt":5461.89999999851,"trial_type":"instructions","trial_index":1,"time_elapsed":18281,"internal_node_id":"0.0-1.0","protocol_sum":"","subject_identifier":419,"subject_sum":[131,248,20,247,169,46,54,92,189,121,249,173,220,238,209,133,118,26,141,56,160,106,45,67,80,187,31,228,183,99,43,52],"subject_pair":209,"STUDY_ID":"66a22c0758a3d5c9d26873c6","PROLIFIC_PID":"65cb708afe5755feaeec417f","SESSION_ID":"66a2a703c84dfcf0ffe5a3a3","practice_instructions":1,"leaderboard_instructions":0,"bonus":0,"reveal_word":true,"self_rating":"4","confidence":"52"},{"view_history":"[{\"page_index\":0,\"viewing_time\":14470.29999999702}]","rt":14470.79999999702,"trial_type":"instructions","trial_index":2,"time_elapsed":32754,"internal_node_id":"0.0-2.0-0.0","protocol_sum":"","subject_identifier":419,"subject_sum":[131,248,20,247,169,46,54,92,189,121,249,173,220,238,209,133,118,26,141,56,160,106,45,67,80,187,31,228,183,99,43,52],"subject_pair":209,"STUDY_ID":"66a22c0758a3d5c9d26873c6","PROLIFIC_PID":"65cb708afe5755feaeec417f","SESSION_ID":"66a2a703c84dfcf0ffe5a3a3","practice_instructions":1,"leaderboard_instructions":0,"bonus":0,"reveal_word":true,"self_rating":"4","confidence":"52"},{"rt":9724.29999999702,"responses":"{\"Q0\":\"... reveal the word with as <b>few letter guesses</b> as possible\"}","question_order":"[0]","trial_type":"survey-multi-choice","trial_index":3,"time_elapsed":42482,"internal_node_id":"0.0-2.0-1.0","protocol_sum":"","subject_identifier":419,"subject_sum":[131,248,20,247,169,46,54,92,189,121,249,173,220,238,209,133,118,26,141,56,160,106,45,67,80,187,31,228,183,99,43,52],"subject_pair":209,"correct":true,"test_part":"multichoice_nonpretend","STUDY_ID":"66a22c0758a3d5c9d26873c6","PROLIFIC_PID":"65cb708afe5755feaeec417f","SESSION_ID":"66a2a703c84dfcf0ffe5a3a3","practice_instructions":1,"leaderboard_instructions":0,"bonus":0,"reveal_word":true,"self_rating":"4","confidence":"52"},{"view_history":"[{\"page_index\":0,\"viewing_time\":1030.7999999970198}]","rt":1031,"trial_type":"instructions","trial_index":4,"time_elapsed":43515,"internal_node_id":"0.0-3.0","protocol_sum":"","subject_identifier":419,"subject_sum":[131,248,20,247,169,46,54,92,189,121,249,173,220,238,209,133,118,26,141,56,160,106,45,67,80,187,31,228,183,99,43,52],"subject_pair":209,"STUDY_ID":"66a22c0758a3d5c9d26873c6","PROLIFIC_PID":"65cb708afe5755feaeec417f","SESSION_ID":"66a2a703c84dfcf0ffe5a3a3","practice_instructions":1,"leaderboard_instructions":0,"bonus":0,"reveal_word":true,"self_rating":"4","confidence":"52"},{"word":"ZEBRA","click_log":{"letter":["","A","B","M","W","O","D","C","R","E","Z"],"t":[0,2978.5,44613.90000000596,46918,48405.10000000149,49391.90000000596,50644.5,51249.20000000298,52650.20000000298,56794.70000000298,58516.20000000298],"hit":[null,1,1,0,0,0,0,0,1,1,1],"asked":["","A","AB","ABM","ABMW","ABMWO","ABMWOD","ABMWODC","ABMWODCR","ABMWODCRE","ABMWODCREZ"],"word_state":["_____","____A","__B_A","__B_A","__B_A","__B_A","__B_A","__B_A","__BRA","_EBRA","ZEBRA"]},"hover_log":{"letter":["?","?","?","?","?","?","?","?","?","?","?","?","?","?","?","?","?","?","?","Z","?","?","?","Q","Q","Q","Q","Q","Q","Q","Q","Q","Q","Q","Q","Q","Q","Q","Q","Q","?","?","?","?","?","?","?","?","?","?","?","?","?","?","?","?","?","?","?","?","?","?","?","?","?","?","?","?","?","?","?","?","?","?","?","?","?","?","?","?","?","?","?","?","?","?","?","?","?","?","?","?","?","?","?","?","?","?","?","?","?","?","?","?","?","?","?","?","?","?","?","?","?","?","?","B","B","B","B","B","B","B","B","B","B","B","B","B","B","B","B","B","B","B","B","B","B","B","B","B","B","B","B","B","B","B","B","B","B","B","B","B","B","B","B","?","?","A","A","A","A","A","A","A","A","A","A","A","A","A","A","A","A","A","A","A","A","A","A","A","A","A","A","A","A","A","A","?","?","B","B","?","D","D","D","D","D","D","D","D","D","D","D","D","D","?","?","?","?","?","?","?","?","?","?","?","?","?","?","?","?","?","?","?","?","?","?","?","?","?","?","?","?","?","?","?","?","?","?","?","?","?","?","?","?","?","?","?","?","?","?","?","?","?","?","?","?","?","?","?","?","?","?","?","?","?","?","?","?","?","?","?","?","?","?","?","?","?","?","?","?","?","?","?","?","?","?","?","?","?","?","?","?","?","?","?","?","?","?","?","?","?","?","?","?","?","?","?","?","?","?","?","?","?","?","?","?","?","?","?","?","?","?","?","?","?","?","?","?","?","?","?","?","?","?","?","?","?","?","?","?","?","?","?","?","?","?","?","?","?","?","?","?","?","?","?","?","?","?","?","?","?","?","?","?","?","?","?","?","?","?","?","?","?","?","?","?","?","?","?","?","?","?","?","?","?","?","?","?","?","?","?","?","?","?","?","?","F","F","F","F","F","F","F","F","F","F","F","F","F","F","F","F","F","F","F","F","F","F","?","?","?","?","?","?","?","?","?","N","N","N","N","N","N","N","N","N","N","N","N","N","N","N","N","N","N","N","N","N","N","N","N","N","N","N","N","N","N","N","N","N","N","N","N","N","N","N","N","N","N","N","N","N","N","N","N","N","N","N","N","N","N","N","N","N","N","N","N","N","N","N","N","N","N","N","N","N","N","N","N","N","N","N","N","N","N","N","N","N","N","N","N","N","N","N","N","N","N","N","N","N","N","N","N","N","N","N","N","N","N","N","N","N","N","N","N","N","N","N","N","N","N","N","N","N","N","N","N","N","N","N","N","N","N","N","N","N","N","N","N","N","N","N","N","N","N","N","N","N","N","N","N","N","N","N","N","N","N","N","N","N","N","N","N","N","N","N","N","N","N","N","N","N","N","N","N","N","N","N","N","N","N","N","N","N","N","N","N","N","N","N","N","N","N","N","N","N","N","N","N","N","N","N","N","N","N","N","N","N","N","N","N","N","N","N","N","N","N","N","N","N","N","N","N","N","N","N","N","N","N","N","N","N","N","N","N","N","N","N","N","N","N","N","N","N","N","N","N","N","N","N","N","N","N","N","N","N","N","N","N","N","N","N","N","N","N","N","N","N","N","N","N","N","N","N","N","N","N","N","N","N","N","N","N","N","N","N","N","N","N","N","N","N","N","N","N","N","N","N","N","N","N","N","N","N","N","N","N","N","N","N","N","N","N","N","N","N","N","N","N","N","N","N","N","N","N","N","N","N","N","N","N","N","N","N","N","N","N","N","N","N","N","N","N","N","N","N","N","N","N","N","N","N","N","N","N","N","N","N","N","N","N","N","N","N","N","N","N","N","N","N","N","N","N","N","N","N","N","N","N","N","N","N","N","N","N","N","N","N","N","N","N","N","N","N","N","N","N","N","N","N","N","N","N","N","N","N","N","N","N","N","N","N","N","N","N","N","N","N","N","N","N","N","N","N","N","N","N","N","N","N","N","N","N","N","N","N","N","N","N","N","N","N","N","N","N","N","N","N","N","N","N","N","N","N","N","N","N","N","N","N","N","N","N","N","N","N","N","N","N","N","N","N","N","N","N","N","N","N","N","N","N","N","N","N","N","N","N","N","N","N","N","N","N","N","N","N","N","N","N","N","N","N","N","N","N","N","N","N","N","N","N","N","N","N","N","N","N","N","N","N","N","N","N","N","N","N","N","N","N","N","N","N","N","N","N","N","N","N","N","N","N","N","N","N","N","N","N","N","N","N","N","N","N","N","N","N","N","N","N","N","N","N","N","N","N","N","N","N","N","N","N","N","N","N","N","N","N","N","N","N","N","N","N","N","N","N","N","N","N","N","N","N","N","N","N","N","N","N","N","N","N","N","N","N","N","N","N","N","N","N","N","N","N","N","N","N","N","N","N","N","N","N","N","N","N","N","N","N","N","N","N","N","N","N","N","N","N","N","N","N","N","N","N","N","N","N","N","N","N","N","N","N","N","N","N","N","N","N","N","N","N","N","N","N","N","N","N","N","N","N","N","N","N","N","N","N","N","N","N","N","N","N","N","N","N","N","N","N","N","N","N","N","N","N","N","N","N","N","N","N","N","N","N","N","N","N","N","N","N","N","N","N","N","N","N","N","N","N","N","N","N","N","N","N","N","N","N","N","N","N","N","N","N","N","N","N","N","N","N","N","N","N","N","N","N","N","N","N","N","N","N","N","N","N","N","N","N","N","N","N","N","N","N","N","N","N","N","N","N","N","N","N","N","N","N","N","N","N","N","N","N","N","N","N","N","N","N","N","N","N","N","N","N","N","N","N","N","N","N","N","N","N","N","N","N","N","N","N","N","N","N","N","N","N","N","N","N","N","N","N","N","N","N","N","N","N","N","N","N","N","N","N","N","N","N","N","N","N","N","N","N","N","N","N","N","N","N","N","N","N","N","N","N","N","N","N","N","N","N","N","N","N","N","N","N","N","N","N","N","N","N","N","N","N","N","N","N","N","N","N","N","N","N","N","N","N","N","N","N","N","N","N","N","N","N","N","N","N","N","N","N","N","N","N","N","N","N","N","N","N","N","N","N","N","N","N","N","N","N","N","N","N","N","N","N","N","N","N","N","N","N","N","N","N","N","N","N","N","N","N","N","N","N","N","N","N","N","N","N","N","N","N","N","N","N","N","N","N","N","N","N","N","N","N","N","N","N","N","N","N","N","N","N","N","N","N","N","N","N","N","N","N","N","N","N","N","N","N","N","N","N","N","N","N","N","N","N","N","N","N","N","N","N","N","N","N","N","N","N","N","N","N","N","N","N","N","N","N","N","N","N","N","N","N","N","N","N","N","N","N","N","N","N","N","N","N","N","N","N","N","N","N","N","N","N","N","N","N","N","N","N","N","N","N","N","N","N","N","N","N","N","N","N","N","N","N","N","N","N","N","N","N","N","N","N","N","N","N","N","N","N","N","N","N","N","N","N","N","N","N","N","N","N","N","N","N","N","N","N","N","N","N","N","N","N","N","N","N","N","N","N","N","N","N","N","N","N","N","N","N","N","N","N","N","N","N","N","N","N","N","N","N","N","N","N","N","N","N","N","N","N","N","N","N","N","N","N","N","N","N","N","N","N","N","N","N","N","N","N","N","N","N","N","N","N","N","N","N","N","N","N","N","N","N","N","N","N","N","N","N","N","N","N","N","N","N","N","N","N","N","N","N","N","N","N","N","N","N","N","N","N","N","N","N","N","N","N","N","N","N","N","N","N","N","N","N","N","N","N","N","N","N","N","N","N","N","N","N","N","N","N","N","N","N","N","N","N","N","N","N","N","N","N","N","N","N","N","N","N","N","N","N","N","N","N","N","N","N","N","N","N","N","N","N","N","N","N","N","N","N","N","N","N","N","N","N","N","N","N","N","N","N","N","N","N","N","N","N","N","N","N","N","N","N","N","N","N","N","N","N","N","N","N","N","N","N","N","N","N","N","N","N","N","N","N","N","N","N","N","N","N","N","N","N","N","N","N","N","N","N","N","N","N","N","N","N","N","N","N","N","N","N","N","N","N","N","N","N","N","N","N","N","N","N","N","N","N","N","N","N","N","N","N","N","N","N","N","N","N","N","N","N","N","N","N","N","N","N","N","N","N","N","N","N","N","N","N","N","N","N","N","N","N","N","N","N","N","N","N","N","N","N","N","N","N","N","N","N","N","N","N","N","N","N","N","N","N","N","N","N","N","N","N","N","N","N","N","N","N","N","N","N","N","N","N","N","N","N","N","N","N","N","N","N","N","N","N","N","N","N","N","N","N","N","N","N","N","N","N","N","N","N","N","N","N","N","N","N","N","N","N","N","N","N","N","N","N","N","N","N","N","N","N","N","N","N","N","N","N","N","N","N","N","N","N","N","N","N","N","N","N","N","N","N","N","N","N","N","N","N","N","N","N","N","N","N","N","N","N","N","N","N","N","N","N","N","N","N","N","N","N","N","N","N","N","N","N","N","N","N","N","N","N","N","N","N","N","N","N","N","N","N","N","N","N","N","N","N","N","N","N","N","N","N","N","N","N","N","N","N","N","N","N","N","N","N","N","N","N","N","N","N","N","N","N","N","N","N","N","N","N","N","N","N","N","N","N","N","N","N","N","N","N","N","N","N","N","N","N","N","N","N","N","N","N","N","N","N","N","N","N","N","N","N","N","N","N","N","N","N","N","N","N","N","N","N","N","N","N","N","N","N","N","N","N","N","N","N","N","N","N","N","N","N","N","N","N","N","N","N","N","N","N","N","N","N","N","N","N","N","N","N","N","N","N","N","N","N","N","N","N","N","N","N","N","N","N","N","N","N","N","N","N","N","N","N","N","N","N","N","N","N","N","N","N","N","N","N","N","N","N","N","N","N","N","N","N","N","N","N","N","N","N","N","N","N","N","N","N","N","N","N","N","N","N","N","N","N","N","N","N","N","N","N","N","N","N","N","N","N","N","N","N","N","N","N","N","N","N","N","N","N","N","N","N","N","N","N","N","N","N","N","N","N","N","N","N","N","N","N","N","N","N","N","N","N","N","N","N","N","N","N","N","N","N","N","N","N","N","N","N","N","N","N","N","N","N","N","N","N","N","N","N","N","N","N","N","N","N","N","N","N","N","N","N","N","N","N","N","N","N","N","N","N","N","N","N","N","N","N","N","N","N","N","N","N","N","N","N","N","N","N","N","N","N","N","N","N","N","N","N","N","N","N","N","N","N","N","N","N","N","N","N","N","N","N","N","N","N","N","N","N","N","N","N","N","N","N","N","N","N","N","N","N","N","N","N","N","N","N","N","N","N","N","N","N","N","N","N","N","N","N","N","N","N","N","N","N","N","N","N","N","N","N","N","N","N","N","N","N","N","N","N","N","N","N","N","N","N","N","N","N","N","N","N","N","N","N","N","N","N","N","N","N","N","N","N","N","N","N","N","N","N","N","N","N","N","N","N","N","N","N","N","N","N","N","N","N","N","N","N","N","N","N","N","N","N","N","N","N","N","N","N","N","N","N","N","N","N","N","N","N","N","N","N","N","N","N","N","N","N","N","N","N","N","N","N","N","N","N","N","N","N","N","N","N","N","N","N","N","N","N","N","N","N","N","N","N","N","N","N","N","N","N","N","N","N","N","N","N","N","N","N","N","N","N","N","N","N","N","N","N","N","N","N","N","N","N","N","N","N","N","N","N","N","N","N","N","N","N","N","N","N","N","N","N","N","N","N","N","N","N","N","N","N","N","N","N","N","N","N","N","N","N","N","N","N","N","N","N","N","N","N","N","N","N","N","N","N","N","N","N","N","N","N","N","N","N","N","N","N","N","?","E","E","?","F","?","H","?","?","?","?","?","?","?","?","?","?","X","?","?","?","?","?","?","?","?","?","?","?","?","?","?","?","M","?","?","?","?","B","B","B","B","B","B","B","B","B","B","B","B","B","B","B","B","B","B","B","B","B","B","B","B","B","B","B","B","B","B","B","B","B","B","B","B","B","?","?","?","?","?","?","M","M","M","M","M","M","M","M","M","M","M","M","M","M","M","M","?","?","?","?","?","?","?","?","?","?","?","?","?","?","?","?","?","?","?","?","?","?","?","?","?","?","?","?","?","?","?","?","?","?","?","?","?","?","?","?","?","?","?","M","M","M","M","M","M","M","M","M","M","M","M","M","M","M","M","?","?","?","?","?","?","?","?","?","?","?","?","?","?","?","?","?","?","M","M","M","M","M","M","M","M","M","M","M","M","M","M","M","M","M","M","M","M","M","M","M","M","M","M","M","M","M","M","M","M","M","M","M","M","M","M","M","M","M","?","?","?","?","N","N","N","N","N","N","N","N","N","N","N","N","N","N","N","N","N","N","N","N","N","N","N","N","?","?","?","?","?","?","?","?","?","?","?","?","?","?","?","?","?","W","W","W","W","W","W","W","W","W","W","W","W","W","W","W","W","W","W","W","W","W","W","W","W","W","W","W","W","W","W","W","W","W","W","W","W","W","W","W","?","?","?","?","?","O","O","O","O","?","?","?","?","?","?","?","?","?","?","O","O","O","O","O","O","O","O","O","O","O","O","O","O","O","O","O","O","O","O","O","O","O","O","O","O","O","O","O","O","O","O","O","O","O","?","?","?","?","E","E","E","E","E","E","E","E","E","E","E","E","E","E","E","E","E","E","E","E","E","E","E","E","E","E","E","E","E","E","E","E","?","?","?","?","?","?","D","D","D","D","D","D","D","D","D","D","D","D","D","D","D","D","D","D","D","D","D","D","D","D","D","D","D","D","D","D","D","D","D","D","D","?","C","C","C","C","C","C","C","C","C","C","C","C","C","C","C","C","C","C","C","C","C","C","C","C","C","C","C","C","C","C","C","C","C","C","C","C","C","C","C","D","E","F","G","G","?","H","H","?","?","?","?","?","I","I","I","I","I","I","I","I","I","I","I","I","I","I","I","I","I","I","I","?","?","R","R","R","R","R","R","R","R","R","R","R","R","R","R","R","R","R","R","R","R","R","R","R","R","R","R","R","R","R","R","R","R","R","R","R","R","R","R","R","R","R","R","R","R","R","?","?","?","H","?","?","?","?","?","?","?","?","?","?","?","?","?","?","?","?","?","?","?","?","?","?","?","?","?","?","?","?","?","?","?","E","E","?","?","?","?","?","?","L","L","L","L","L","L","L","?","?","?","?","?","?","?","?","?","?","?","?","?","?","?","?","?","?","?","?","?","?","?","?","?","?","?","?","?","?","?","?","?","?","?","?","?","?","?","?","?","?","?","?","?","?","?","?","?","?","?","?","?","?","?","?","?","?","?","?","?","?","?","?","?","?","?","?","?","?","?","?","?","?","?","?","?","?","?","?","?","?","?","?","?","?","?","?","?","?","?","?","?","?","?","?","?","?","?","?","?","?","?","?","?","?","?","?","?","?","?","?","?","?","?","?","?","?","?","?","?","?","?","?","?","?","?","?","?","?","?","?","?","?","?","?","?","?","?","?","?","?","?","?","?","?","?","?","E","E","E","E","E","E","E","E","E","E","E","E","E","E","E","E","E","E","E","E","E","E","E","E","E","E","E","E","E","E","E","E","E","E","E","?","N","N","N","?","?","?","?","?","?","?","?","?","?","?","?","?","?","?","?","?","?","?","?","?","?","?","?","?","?","?","?","?","?","T","T","?","S","S","S","S","S","S","S","S","S","S","?","T","T","?","U","V","V","W","W","X","X","Y","Y","Y","Y","?","?","Z","Z","Z","Z","Z","Z","Z","Z","Z","Z","Z","Z","Z","Z","Z","Z","Z","Z","Z","Z","Z","Z","Z","Z","Z","Z","Z","Z","Z","Z","Z","Z","Z","Z","Z","?","?","?","?","?","?","?","?","?","?","?","?","?","?","?","?","?","?","?","?","?","?","?","?","?","?","?","?","?","?","?","?","?","?","?","?","?","?","?","?","?","?","?","?","?","?","?","?","?","?","?","?","?","?","?","?","?","?","?","?","?","?","?","?","?","?","?","?","?","?","?","?","?","?","?","?","?","?","?","?","?","?","?","?","?","?","?","?","?","?","?","?","?","?","?","?","?","?","?","?","?","?"],"t":[43,88,102,115,134,148,167,183,200,216,235,250,265,282,299,316,334,349,365,383,399,415,432,452,468,484,500,516,533,550,567,585,601,615,635,657,666,684,701,717,734,751,766,784,801,817,834,851,868,884,902,917,935,949,967,983,1000,1016,1033,1053,1069,1085,1102,1118,1135,1153,1169,1184,1206,1219,1235,1254,1271,1285,1303,1318,1334,1352,1367,1386,1403,1420,1436,1453,1472,1500,1521,1534,1556,1570,1589,1606,1620,1640,1654,1672,1686,1701,1718,1734,1752,1769,1786,1802,1818,1834,1854,1869,1886,1902,1918,1936,1953,1972,1987,2005,2020,2037,2054,2070,2087,2103,2119,2136,2153,2170,2187,2205,2222,2238,2254,2270,2287,2304,2321,2342,2353,2373,2387,2403,2422,2437,2455,2473,2486,2504,2522,2538,2554,2574,2588,2604,2623,2638,2655,2672,2687,2705,2721,2738,2756,2773,2788,2806,2823,2840,2856,2872,2889,2908,2925,2961,2975,2991,3007,3026,3040,3056,3073,3090,3106,3125,3142,3157,3174,3193,3208,3226,3240,3256,3275,3329,3345,3360,3375,3396,3407,3426,3439,3456,3474,3493,3507,3523,3540,3556,3573,3590,3607,3623,3639,3657,3673,3690,3707,3723,3742,3757,3774,3791,3806,3824,3842,3858,3874,3892,3906,3924,3942,3958,3975,3992,4009,4026,4041,4059,4074,4093,4111,4127,4143,4159,4176,4193,4209,4226,4243,4260,4275,4294,4312,4326,4344,4358,4405,4428,4444,4460,4475,4493,4511,4526,4543,4561,4577,4595,4611,4628,4644,4660,4676,4694,4711,4728,4743,4762,4780,4794,4811,4827,4843,4863,4877,4894,4910,4928,4942,4962,4977,4994,5010,5027,5044,5061,5077,5093,5113,5128,5144,5163,5181,5195,5213,5229,5244,5261,5280,5294,5313,5330,5347,5362,5381,5396,5413,5429,5446,5462,5478,5494,5513,5530,5548,5564,5579,5595,5615,5630,5646,5663,5679,5696,5712,5729,5745,5762,5779,5798,5813,5864,5880,5895,5912,5930,5946,5963,5980,5995,6013,6029,6046,6064,6080,6096,6114,6132,6146,6163,6182,6197,6213,6230,6247,6264,6283,6298,6313,6333,6347,6364,6381,6397,6415,6431,6450,6465,6483,6498,6515,6532,6547,6565,6581,6600,6615,6632,6651,6665,6683,6699,6715,6733,6749,6765,6782,6798,6815,6834,6851,6867,6883,6900,6916,6934,6950,6965,6984,7000,7016,7034,7050,7066,7083,7102,7116,7134,7149,7167,7183,7201,7218,7234,7251,7268,7284,7337,7352,7367,7384,7404,7418,7434,7454,7468,7484,7502,7517,7535,7554,7567,7584,7603,7618,7635,7653,7670,7684,7701,7718,7734,7751,7768,7785,7801,7818,7835,7851,7868,7885,7901,7919,7935,7953,7971,7985,8003,8021,8037,8054,8069,8086,8103,8119,8136,8153,8171,8188,8206,8222,8236,8254,8271,8286,8304,8319,8337,8356,8370,8388,8404,8423,8436,8455,8472,8487,8504,8522,8538,8555,8570,8587,8604,8622,8637,8653,8670,8687,8704,8723,8738,8754,8800,8823,8837,8854,8872,8889,8905,8924,8939,8955,8972,8990,9005,9023,9039,9056,9072,9087,9106,9123,9140,9154,9172,9189,9206,9222,9240,9255,9273,9288,9306,9323,9339,9355,9372,9390,9407,9422,9440,9455,9474,9490,9505,9524,9540,9557,9574,9590,9606,9623,9639,9657,9673,9689,9705,9723,9740,9756,9773,9789,9806,9822,9840,9857,9873,9890,9907,9924,9942,9957,9973,9992,10007,10023,10041,10058,10074,10092,10109,10124,10141,10158,10174,10192,10209,10244,10258,10275,10293,10308,10325,10343,10359,10375,10392,10411,10425,10441,10458,10475,10493,10510,10526,10544,10559,10575,10593,10609,10626,10643,10660,10676,10693,10712,10726,10743,10761,10776,10794,10811,10826,10843,10861,10878,10893,10910,10927,10943,10961,10977,10993,11011,11027,11044,11063,11076,11095,11110,11127,11145,11162,11178,11194,11211,11227,11244,11262,11278,11294,11312,11327,11344,11361,11378,11394,11411,11427,11444,11462,11479,11495,11513,11527,11546,11562,11578,11595,11612,11630,11645,11681,11695,11711,11728,11745,11762,11778,11796,11812,11829,11846,11862,11879,11897,11912,11931,11946,11966,11982,11997,12015,12029,12047,12064,12078,12096,12113,12130,12146,12163,12182,12196,12213,12231,12246,12264,12281,12296,12315,12330,12348,12363,12381,12397,12414,12430,12448,12464,12483,12498,12514,12532,12548,12564,12582,12598,12614,12633,12650,12663,12682,12699,12715,12733,12748,12766,12781,12798,12815,12832,12848,12865,12883,12900,12916,12933,12950,12966,12982,12999,13015,13033,13051,13065,13082,13100,13136,13148,13166,13183,13200,13215,13233,13253,13269,13283,13301,13318,13334,13350,13367,13385,13402,13416,13433,13450,13468,13483,13500,13516,13534,13549,13567,13585,13602,13617,13633,13650,13668,13683,13700,13717,13734,13752,13767,13784,13800,13817,13834,13851,13867,13884,13902,13918,13936,13951,13968,13986,14002,14019,14035,14052,14068,14086,14102,14120,14138,14152,14170,14185,14203,14220,14237,14253,14271,14287,14303,14322,14336,14352,14374,14387,14402,14419,14435,14454,14470,14486,14503,14522,14537,14586,14612,14621,14641,14654,14669,14688,14704,14720,14737,14753,14770,14787,14803,14823,14838,14854,14873,14886,14903,14921,14938,14954,14972,14987,15003,15022,15038,15054,15073,15086,15103,15120,15137,15155,15171,15187,15204,15222,15238,15254,15273,15289,15305,15322,15338,15355,15372,15388,15406,15421,15439,15456,15473,15490,15506,15522,15539,15555,15572,15590,15606,15622,15640,15656,15673,15689,15705,15722,15740,15755,15773,15790,15805,15823,15838,15855,15873,15890,15907,15923,15940,15957,15973,15990,16028,16040,16058,16074,16094,16112,16125,16146,16158,16174,16196,16223,16242,16257,16273,16292,16309,16324,16342,16358,16374,16392,16409,16424,16442,16460,16475,16491,16509,16525,16542,16558,16576,16592,16610,16626,16644,16658,16674,16693,16710,16726,16742,16759,16776,16793,16808,16827,16843,16860,16876,16893,16910,16926,16944,16958,16976,16994,17009,17026,17044,17060,17076,17093,17110,17126,17144,17158,17176,17193,17211,17226,17244,17262,17277,17293,17311,17327,17343,17361,17377,17394,17410,17426,17443,17479,17494,17511,17528,17543,17563,17577,17594,17612,17629,17643,17662,17678,17693,17711,17726,17744,17760,17777,17794,17810,17828,17844,17860,17878,17894,17912,17929,17946,17962,17980,17995,18012,18030,18046,18062,18079,18096,18113,18131,18145,18162,18180,18196,18214,18230,18247,18263,18282,18297,18313,18330,18346,18363,18382,18397,18414,18431,18446,18464,18481,18496,18514,18529,18547,18564,18581,18596,18614,18631,18648,18664,18682,18698,18713,18734,18746,18764,18782,18798,18815,18832,18847,18864,18882,18898,18915,18957,18982,18999,19015,19033,19047,19066,19094,19100,19115,19132,19148,19166,19183,19198,19215,19233,19250,19265,19284,19299,19316,19333,19350,19366,19383,19401,19415,19433,19450,19466,19484,19500,19517,19533,19550,19566,19583,19600,19616,19633,19651,19666,19682,19699,19716,19733,19750,19766,19783,19800,19817,19833,19850,19866,19882,19902,19918,19933,19952,19967,19984,20001,20017,20034,20052,20067,20083,20102,20118,20134,20151,20168,20183,20202,20218,20234,20251,20268,20285,20302,20318,20336,20352,20370,20385,20429,20443,20468,20490,20504,20523,20535,20552,20575,20585,20603,20619,20636,20653,20670,20686,20704,20719,20735,20754,20771,20786,20803,20820,20837,20854,20870,20886,20904,20920,20937,20954,20971,20987,21004,21022,21037,21053,21072,21087,21103,21122,21138,21153,21170,21186,21204,21220,21238,21253,21272,21287,21303,21322,21339,21354,21371,21388,21404,21420,21437,21454,21472,21488,21506,21523,21540,21554,21571,21587,21605,21621,21638,21654,21672,21688,21705,21722,21738,21754,21772,21788,21805,21822,21838,21874,21888,21905,21922,21939,21955,21973,21989,22008,22022,22039,22055,22073,22089,22106,22123,22139,22156,22173,22190,22207,22223,22241,22256,22273,22290,22306,22322,22342,22358,22374,22391,22406,22423,22439,22457,22474,22493,22508,22523,22543,22558,22574,22592,22608,22625,22642,22658,22674,22691,22708,22725,22742,22758,22775,22794,22808,22825,22842,22858,22876,22892,22909,22925,22943,22960,22976,22993,23008,23026,23043,23060,23075,23093,23110,23126,23142,23158,23176,23193,23210,23227,23243,23260,23304,23327,23343,23362,23377,23394,23410,23426,23443,23463,23477,23493,23511,23527,23543,23562,23577,23593,23613,23627,23644,23662,23678,23693,23710,23727,23744,23760,23777,23793,23810,23827,23844,23861,23878,23893,23912,23928,23945,23962,23978,23995,24012,24030,24044,24063,24078,24095,24111,24130,24145,24162,24178,24195,24212,24230,24246,24263,24278,24296,24313,24328,24346,24362,24379,24395,24414,24428,24450,24475,24494,24513,24533,24547,24565,24580,24596,24613,24630,24646,24663,24680,24696,24714,24730,24747,24764,24810,24831,24847,24865,24882,24898,24914,24930,24949,24965,24982,24998,25013,25030,25048,25063,25082,25097,25114,25131,25149,25165,25182,25199,25214,25235,25249,25264,25283,25299,25314,25331,25348,25364,25381,25397,25414,25431,25448,25465,25482,25500,25515,25533,25549,25566,25582,25598,25616,25634,25649,25666,25683,25698,25716,25732,25750,25765,25783,25799,25816,25833,25849,25866,25882,25900,25917,25934,25950,25966,25983,26002,26017,26033,26050,26066,26084,26102,26118,26134,26150,26167,26184,26202,26218,26234,26253,26292,26303,26317,26335,26352,26368,26384,26402,26419,26434,26453,26467,26485,26501,26518,26535,26552,26569,26586,26602,26618,26635,26653,26668,26685,26703,26719,26734,26753,26770,26786,26803,26818,26836,26853,26870,26886,26902,26920,26936,26954,26971,26986,27004,27020,27036,27054,27071,27087,27104,27121,27137,27153,27170,27187,27203,27221,27236,27254,27271,27286,27304,27321,27338,27353,27372,27387,27404,27420,27437,27454,27473,27487,27503,27522,27538,27554,27572,27587,27604,27622,27638,27655,27671,27686,27704,27721,27770,27788,27805,27822,27838,27854,27871,27888,27904,27922,27938,27955,27972,27988,28006,28022,28039,28057,28073,28088,28104,28123,28139,28156,28174,28189,28206,28224,28240,28256,28273,28291,28307,28324,28340,28357,28372,28390,28406,28423,28440,28456,28475,28490,28506,28523,28542,28557,28573,28590,28607,28624,28642,28658,28674,28690,28709,28723,28742,28758,28774,28791,28807,28824,28842,28858,28873,28891,28908,28925,28942,28959,28975,28993,29009,29024,29042,29059,29075,29092,29109,29124,29142,29158,29175,29192,29210,29251,29275,29293,29310,29325,29343,29359,29375,29393,29409,29425,29443,29460,29476,29494,29510,29526,29543,29559,29576,29593,29611,29626,29643,29662,29677,29693,29710,29726,29742,29760,29775,29793,29810,29826,29843,29859,29876,29893,29911,29928,29943,29963,29977,29994,30012,30027,30044,30062,30077,30093,30112,30128,30144,30162,30179,30195,30212,30229,30246,30261,30278,30296,30311,30329,30346,30362,30379,30395,30412,30427,30446,30462,30478,30495,30511,30529,30547,30563,30578,30596,30613,30630,30646,30664,30680,30726,30746,30764,30783,30798,30813,30832,30847,30863,30882,30896,30913,30930,30946,30962,30980,30996,31013,31032,31047,31063,31080,31097,31116,31131,31147,31163,31183,31198,31214,31231,31248,31264,31282,31298,31314,31332,31348,31363,31382,31398,31414,31431,31448,31465,31482,31498,31515,31532,31550,31564,31582,31600,31614,31631,31649,31666,31681,31698,31714,31731,31749,31765,31782,31799,31815,31832,31849,31865,31882,31900,31916,31933,31950,31965,31983,32002,32017,32033,32050,32066,32084,32100,32116,32133,32149,32166,32184,32227,32233,32252,32268,32323,32334,32352,32367,32384,32402,32420,32435,32457,32469,32485,32504,32519,32535,32553,32569,32585,32602,32620,32634,32653,32667,32686,32702,32718,32734,32753,32771,32786,32803,32819,32836,32855,32870,32886,32903,32922,32936,32952,32970,32987,33003,33020,33037,33054,33070,33086,33103,33122,33136,33154,33172,33187,33204,33219,33237,33255,33269,33287,33305,33323,33337,33354,33372,33387,33404,33420,33436,33455,33470,33486,33505,33523,33537,33554,33571,33588,33605,33620,33638,33679,33702,33720,33737,33753,33770,33787,33804,33821,33837,33854,33870,33888,33903,33922,33938,33955,33971,33988,34006,34021,34038,34055,34074,34090,34105,34122,34138,34154,34172,34188,34205,34223,34238,34256,34272,34290,34306,34323,34339,34355,34373,34388,34406,34422,34438,34456,34473,34490,34507,34524,34540,34556,34573,34591,34606,34623,34641,34656,34673,34691,34706,34724,34740,34757,34773,34790,34807,34824,34842,34856,34874,34890,34907,34924,34941,34958,34974,34993,35008,35024,35043,35058,35074,35092,35139,35152,35168,35191,35208,35225,35242,35258,35274,35292,35310,35325,35342,35358,35374,35393,35407,35424,35442,35458,35474,35494,35511,35526,35542,35559,35574,35594,35608,35626,35644,35659,35676,35692,35708,35726,35742,35760,35776,35792,35809,35825,35842,35860,35876,35893,35910,35927,35944,35960,35976,35993,36011,36027,36044,36061,36077,36093,36111,36127,36143,36161,36178,36193,36212,36228,36245,36262,36278,36295,36312,36328,36344,36362,36378,36395,36413,36427,36445,36462,36478,36495,36512,36528,36545,36590,36612,36630,36646,36663,36679,36696,36714,36730,36745,36764,36778,36795,36813,36830,36846,36862,36880,36897,36914,36929,36946,36963,36980,36996,37013,37031,37046,37064,37080,37096,37113,37130,37146,37162,37180,37196,37213,37231,37247,37263,37280,37296,37313,37330,37348,37363,37382,37397,37414,37430,37447,37463,37482,37497,37514,37533,37548,37563,37582,37598,37614,37632,37648,37665,37682,37697,37714,37731,37748,37764,37781,37798,37814,37830,37848,37864,37882,37900,37915,37932,37949,37966,37983,37998,38015,38032,38077,38100,38116,38193,38216,38235,38248,38268,38282,38301,38317,38334,38350,38365,38382,38399,38416,38433,38450,38466,38483,38500,38516,38532,38550,38566,38583,38599,38617,38633,38650,38666,38685,38704,38717,38733,38752,38768,38784,38802,38818,38834,38852,38867,38884,38902,38918,38934,38952,38967,38984,39002,39019,39035,39053,39068,39085,39102,39118,39135,39151,39169,39186,39203,39220,39235,39252,39270,39285,39302,39318,39335,39354,39371,39385,39403,39420,39435,39454,39470,39486,39504,39520,39537,39553,39589,39602,39620,39637,39654,39671,39686,39702,39720,39737,39753,39771,39786,39803,39819,39837,39853,39870,39887,39902,39923,39937,39954,39972,39987,40004,40021,40037,40055,40071,40087,40104,40121,40138,40153,40171,40188,40205,40222,40237,40255,40272,40289,40306,40321,40338,40356,40372,40389,40406,40422,40438,40455,40472,40488,40505,40522,40539,40555,40574,40589,40606,40623,40640,40656,40674,40688,40706,40723,40740,40756,40773,40790,40807,40824,40841,40857,40874,40891,40906,40923,40940,40957,40973,40990,41007,41043,41056,41073,41090,41107,41123,41141,41156,41174,41192,41206,41225,41242,41258,41274,41293,41307,41325,41342,41358,41375,41392,41408,41424,41442,41458,41475,41491,41509,41526,41542,41560,41574,41592,41609,41626,41642,41659,41675,41692,41708,41725,41742,41758,41774,41792,41808,41825,41842,41858,41874,41892,41909,41927,41944,41959,41976,41993,42010,42026,42044,42060,42076,42093,42111,42126,42143,42160,42176,42193,42210,42227,42243,42262,42277,42293,42313,42327,42343,42362,42377,42394,42410,42427,42444,42483,42496,42518,42528,42548,42562,42580,42597,42615,42628,42645,42662,42680,42695,42714,42729,42745,42763,42780,42797,42812,42830,42846,42862,42879,42896,42912,42930,42947,42964,42979,42996,43014,43030,43046,43063,43081,43097,43115,43131,43148,43164,43180,43197,43214,43228,43247,43264,43279,43297,43315,43331,43347,43364,43383,43396,43414,43430,43447,43464,43482,43497,43514,43531,43547,43565,43583,43598,43613,43630,43647,43663,43681,43697,43715,43732,43749,43764,43781,43798,43814,43832,43847,43865,43883,43900,43952,43964,43981,43998,44014,44030,44047,44066,44082,44100,44115,44132,44148,44165,44182,44199,44215,44232,44249,44266,44283,44299,44315,44333,44348,44365,44382,44402,44416,44433,44450,44465,44482,44498,44515,44532,44550,44565,44583,44600,44616,44637,44650,44665,44684,44701,44718,44734,44751,44767,44783,44800,44818,44834,44852,44867,44885,44901,44917,44934,44951,44967,44984,45003,45018,45034,45054,45068,45084,45103,45116,45134,45152,45168,45186,45203,45219,45235,45254,45268,45285,45301,45344,45359,45387,45403,45422,45437,45453,45470,45486,45502,45518,45536,45552,45570,45585,45602,45620,45636,45653,45673,45685,45703,45719,45736,45753,45769,45789,45804,45821,45836,45854,45869,45886,45903,45920,45940,45953,45972,45989,46005,46021,46037,46053,46070,46092,46103,46120,46137,46155,46172,46186,46204,46222,46238,46254,46271,46287,46304,46322,46338,46354,46371,46387,46404,46421,46438,46454,46475,46489,46506,46523,46538,46555,46572,46588,46605,46622,46637,46654,46672,46690,46707,46764,46789,46808,46824,46840,46857,46873,46892,46908,46924,46940,46956,46973,46991,47006,47023,47041,47055,47072,47089,47106,47123,47140,47156,47173,47190,47207,47223,47241,47257,47273,47290,47307,47324,47344,47356,47374,47392,47409,47424,47441,47457,47474,47492,47507,47523,47542,47557,47575,47592,47608,47625,47642,47658,47674,47691,47708,47725,47741,47758,47774,47791,47809,47824,47842,47857,47875,47892,47910,47925,47942,47959,47975,47994,48010,48025,48042,48058,48076,48093,48156,48173,48194,48212,48225,48245,48260,48277,48293,48310,48329,48343,48360,48376,48395,48410,48426,48443,48461,48478,48493,48511,48527,48543,48562,48577,48593,48610,48628,48643,48660,48678,48693,48712,48728,48744,48762,48777,48795,48811,48827,48845,48862,48878,48896,48913,48930,48945,48963,48978,48995,49011,49030,49045,49062,49078,49096,49112,49129,49145,49164,49178,49194,49212,49230,49246,49262,49280,49296,49312,49329,49346,49363,49380,49397,49413,49430,49448,49466,49480,49496,49514,49531,49580,49596,49613,49630,49646,49663,49680,49696,49713,49730,49746,49763,49780,49797,49814,49830,49846,49864,49883,49897,49913,49931,49948,49963,49983,49998,50014,50032,50048,50065,50083,50097,50114,50132,50147,50164,50183,50200,50214,50234,50249,50267,50282,50298,50315,50332,50348,50366,50382,50400,50417,50432,50448,50466,50483,50499,50515,50534,50549,50566,50583,50600,50618,50634,50650,50666,50683,50701,50716,50733,50750,50766,50783,50800,50817,50833,50869,50883,50899,50916,50932,50950,50965,50984,51002,51018,51034,51051,51068,51083,51102,51117,51134,51150,51170,51200,51225,51248,51268,51284,51303,51317,51334,51353,51368,51384,51402,51417,51434,51452,51467,51484,51502,51519,51535,51552,51570,51586,51602,51618,51636,51652,51670,51685,51702,51720,51735,51752,51769,51785,51801,51820,51835,51853,51869,51887,51903,51919,51936,51953,51970,51986,52003,52023,52038,52055,52072,52087,52105,52120,52137,52153,52171,52187,52203,52222,52238,52295,52323,52336,52353,52372,52388,52404,52422,52438,52455,52471,52487,52504,52522,52537,52554,52571,52589,52605,52623,52639,52655,52672,52688,52704,52721,52739,52754,52772,52788,52804,52822,52838,52855,52871,52890,52904,52922,52938,52955,52973,52990,53006,53023,53038,53055,53072,53089,53105,53123,53138,53158,53174,53194,53205,53224,53241,53257,53274,53290,53306,53323,53339,53357,53374,53392,53407,53422,53440,53458,53474,53490,53507,53523,53543,53558,53574,53592,53608,53625,53641,53657,53674,53724,53741,53757,53774,53792,53808,53824,53842,53857,53874,53892,53908,53925,53942,53957,53976,53993,54008,54024,54041,54058,54075,54091,54110,54125,54143,54162,54178,54194,54208,54226,54242,54260,54276,54292,54310,54327,54346,54361,54376,54394,54410,54426,54445,54462,54477,54495,54510,54526,54544,54562,54578,54595,54611,54627,54644,54660,54679,54694,54712,54727,54744,54763,54777,54794,54812,54827,54844,54860,54877,54894,54913,54928,54945,54963,54980,54995,55012,55029,55044,55063,55078,55095,55134,55150,55164,55182,55195,55213,55232,55246,55265,55278,55295,55313,55330,55346,55363,55380,55395,55413,55428,55446,55463,55480,55496,55514,55530,55546,55563,55580,55597,55614,55632,55648,55663,55680,55696,55713,55730,55746,55763,55781,55797,55814,55830,55846,55864,55880,55900,55915,55934,55948,55964,55981,55998,56014,56032,56048,56064,56083,56099,56115,56133,56147,56166,56184,56198,56216,56232,56248,56264,56283,56298,56314,56333,56349,56367,56384,56400,56416,56433,56448,56465,56513,56538,56548,56568,56585,56603,56616,56633,56650,56665,56682,56700,56715,56733,56751,56766,56782,56798,56816,56834,56850,56867,56883,56899,56917,56933,56950,56966,56983,57000,57016,57034,57050,57066,57085,57102,57119,57135,57151,57167,57183,57200,57217,57234,57250,57268,57284,57301,57318,57334,57352,57368,57384,57401,57418,57434,57453,57468,57485,57505,57521,57535,57553,57569,57584,57602,57618,57634,57653,57669,57685,57701,57718,57735,57751,57768,57785,57801,57818,57878,57903,57920,57936,57953,57968,57985,58004,58018,58035,58054,58073,58085,58104,58120,58136,58154,58170,58186,58203,58222,58239,58255,58270,58287,58304,58320,58336,58353,58371,58386,58404,58419,58438,58455,58472,58488,58504,58523,58538,58553,58571,58586,58604,58624,58638,58654,58672,58688,58704,58723,58738,58754,58772,58789,58805,58823,58839,58855,58872,58888,58905,58921,58938,58955,58974,58987,59006,59023,59038,59055,59073,59087,59106,59122,59140,59154,59173,59220,59240,59255,59274,59289,59305,59322,59339,59357,59375,59394,59406,59424,59440,59456,59474,59489,59505,59526,59540,59557,59574,59588,59607,59624,59642,59658,59675,59693,59708,59723,59744,59757,59775,59794,59810,59825,59842,59859,59876,59896,59908,59925,59944,59961,59976,59994,60009,60025,60045,60058,60074,60092,60109,60125,60143,60159,60176,60193,60210,60227,60245,60259,60276,60293,60312,60324,60342,60359,60375,60393,60411,60426,60443,60461,60476,60494,60510,60527],"hit":[null],"x":[-0.7789115646258503,-0.7789115646258503,-0.7789115646258503,-0.7789115646258503,-0.7789115646258503,-0.7789115646258503,-0.7789115646258503,-0.7789115646258503,-0.7789115646258503,-0.7789115646258503,-0.7789115646258503,-0.7789115646258503,-0.7789115646258503,-0.7789115646258503,-0.7789115646258503,1.1020408163265305,1.0918367346938775,1.0714285714285714,1.0476190476190477,1.0204081632653061,0.9965986394557823,0.9795918367346939,0.9727891156462585,0.9659863945578231,0.9625850340136054,0.9625850340136054,0.9625850340136054,0.9625850340136054,0.9625850340136054,0.9625850340136054,0.9625850340136054,0.9625850340136054,0.9625850340136054,0.9625850340136054,0.9625850340136054,0.9625850340136054,0.9625850340136054,0.9625850340136054,0.9625850340136054,0.9625850340136054,0.9387755102040817,0.8979591836734694,0.7789115646258503,0.6598639455782312,0.5850340136054422,0.5102040816326531,0.47278911564625853,0.4523809523809524,0.43197278911564624,0.4217687074829932,0.41836734693877553,0.41496598639455784,0.41496598639455784,0.41496598639455784,0.41156462585034015,0.41156462585034015,0.41156462585034015,0.41156462585034015,0.40816326530612246,0.40816326530612246,0.40476190476190477,0.4013605442176871,0.4013605442176871,0.3979591836734694,0.3945578231292517,0.3843537414965986,0.37755102040816324,0.3741496598639456,0.3673469387755102,0.36394557823129253,0.36394557823129253,0.36054421768707484,0.36054421768707484,0.35714285714285715,0.35714285714285715,0.35714285714285715,0.35374149659863946,0.35034013605442177,0.35034013605442177,0.3469387755102041,0.3435374149659864,0.3435374149659864,0.3435374149659864,0.3401360544217687,0.3401360544217687,0.336734693877551,0.336734693877551,0.336734693877551,0.336734693877551,0.336734693877551,0.336734693877551,0.336734693877551,0.336734693877551,0.336734693877551,0.336734693877551,0.336734693877551,0.336734693877551,0.336734693877551,0.336734693877551,0.336734693877551,0.336734693877551,0.336734693877551,0.336734693877551,0.3333333333333333,0.3231292517006803,0.30952380952380953,0.29591836734693877,0.282312925170068,0.272108843537415,0.25170068027210885,0.24149659863945577,0.22789115646258504,0.21428571428571427,0.19387755102040816,0.17006802721088435,0.14625850340136054,0.1326530612244898,0.12244897959183673,0.11564625850340136,0.10884353741496598,0.10884353741496598,0.1054421768707483,0.1054421768707483,0.1054421768707483,0.1054421768707483,0.1054421768707483,0.1054421768707483,0.1054421768707483,0.10884353741496598,0.10884353741496598,0.11224489795918367,0.11564625850340136,0.11904761904761904,0.11904761904761904,0.12244897959183673,0.12244897959183673,0.12244897959183673,0.12244897959183673,0.12585034013605442,0.12585034013605442,0.12585034013605442,0.12585034013605442,0.12585034013605442,0.12585034013605442,0.12585034013605442,0.12585034013605442,0.12585034013605442,0.12585034013605442,0.12585034013605442,0.12585034013605442,0.12244897959183673,0.11564625850340136,0.1054421768707483,0.09523809523809523,0.08503401360544217,0.07142857142857142,0.06462585034013606,0.05782312925170068,0.05442176870748299,0.05102040816326531,0.04421768707482993,0.04081632653061224,0.03741496598639456,0.034013605442176874,0.030612244897959183,0.030612244897959183,0.030612244897959183,0.027210884353741496,0.027210884353741496,0.027210884353741496,0.027210884353741496,0.027210884353741496,0.027210884353741496,0.027210884353741496,0.027210884353741496,0.027210884353741496,0.027210884353741496,0.027210884353741496,0.027210884353741496,0.027210884353741496,0.027210884353741496,0.027210884353741496,0.027210884353741496,0.027210884353741496,0.027210884353741496,0.03741496598639456,0.047619047619047616,0.06462585034013606,0.08163265306122448,0.10884353741496598,0.14965986394557823,0.3435374149659864,0.3877551020408163,0.40476190476190477,0.4387755102040816,0.4557823129251701,0.46598639455782315,0.46938775510204084,0.47278911564625853,0.47278911564625853,0.47278911564625853,0.47278911564625853,0.47278911564625853,0.47278911564625853,0.47278911564625853,0.47278911564625853,0.47278911564625853,0.47278911564625853,0.47278911564625853,0.47278911564625853,0.47278911564625853,0.47278911564625853,0.47278911564625853,0.47278911564625853,0.47278911564625853,0.47278911564625853,0.47278911564625853,0.47278911564625853,0.47278911564625853,0.47278911564625853,0.47278911564625853,0.47278911564625853,0.47278911564625853,0.47278911564625853,0.47278911564625853,0.47278911564625853,0.47278911564625853,0.47278911564625853,0.47278911564625853,0.47278911564625853,0.47278911564625853,0.47278911564625853,0.47278911564625853,0.47278911564625853,0.47278911564625853,0.46938775510204084,0.45918367346938777,0.4387755102040816,0.41496598639455784,0.38095238095238093,0.35034013605442177,0.32653061224489793,0.30272108843537415,0.2789115646258503,0.2687074829931973,0.2619047619047619,0.2585034013605442,0.25510204081632654,0.25510204081632654,0.25510204081632654,0.25510204081632654,0.25510204081632654,0.25510204081632654,0.25510204081632654,0.25510204081632654,0.25510204081632654,0.25510204081632654,0.25510204081632654,0.25510204081632654,0.25510204081632654,0.25510204081632654,0.25510204081632654,0.25510204081632654,0.25510204081632654,0.25510204081632654,0.25510204081632654,0.25510204081632654,0.25170068027210885,0.24829931972789115,0.24489795918367346,0.24489795918367346,0.24489795918367346,0.24149659863945577,0.24149659863945577,0.24149659863945577,0.24149659863945577,0.24149659863945577,0.24149659863945577,0.24149659863945577,0.24149659863945577,0.24149659863945577,0.24149659863945577,0.24149659863945577,0.24149659863945577,0.24149659863945577,0.24149659863945577,0.24149659863945577,0.24149659863945577,0.24149659863945577,0.24149659863945577,0.24149659863945577,0.24149659863945577,0.24149659863945577,0.24149659863945577,0.24489795918367346,0.24489795918367346,0.24489795918367346,0.24489795918367346,0.24829931972789115,0.24829931972789115,0.24829931972789115,0.24829931972789115,0.24829931972789115,0.24829931972789115,0.24829931972789115,0.24829931972789115,0.24829931972789115,0.24829931972789115,0.24829931972789115,0.24829931972789115,0.24829931972789115,0.25170068027210885,0.25170068027210885,0.25170068027210885,0.25170068027210885,0.25170068027210885,0.25170068027210885,0.25170068027210885,0.25170068027210885,0.25170068027210885,0.25170068027210885,0.25510204081632654,0.25510204081632654,0.25510204081632654,0.25510204081632654,0.25510204081632654,0.25510204081632654,0.25510204081632654,0.25510204081632654,0.25510204081632654,0.25510204081632654,0.25510204081632654,0.25510204081632654,0.25510204081632654,0.25510204081632654,0.25510204081632654,0.25510204081632654,0.25510204081632654,0.25510204081632654,0.25510204081632654,0.25510204081632654,0.25510204081632654,0.25510204081632654,0.25510204081632654,0.25510204081632654,0.25510204081632654,0.25510204081632654,0.25510204081632654,0.25510204081632654,0.25510204081632654,0.25510204081632654,0.25510204081632654,0.25510204081632654,0.25510204081632654,0.25510204081632654,0.25510204081632654,0.25510204081632654,0.25510204081632654,0.25510204081632654,0.25510204081632654,0.25510204081632654,0.25510204081632654,0.25510204081632654,0.25510204081632654,0.25510204081632654,0.25510204081632654,0.25510204081632654,0.25510204081632654,0.25510204081632654,0.25510204081632654,0.25510204081632654,0.25510204081632654,0.25510204081632654,0.25510204081632654,0.25510204081632654,0.25510204081632654,0.25510204081632654,0.25510204081632654,0.25510204081632654,0.25510204081632654,0.25510204081632654,0.25510204081632654,0.25510204081632654,0.25510204081632654,0.25510204081632654,0.2585034013605442,0.2653061224489796,0.2857142857142857,0.30952380952380953,0.3435374149659864,0.4013605442176871,0.46258503401360546,0.5340136054421769,0.5816326530612245,0.608843537414966,0.6394557823129252,0.6496598639455783,0.6598639455782312,0.6632653061224489,0.6632653061224489,0.6632653061224489,0.6632653061224489,0.6632653061224489,0.6632653061224489,0.6632653061224489,0.6632653061224489,0.6632653061224489,0.6632653061224489,0.6632653061224489,0.6632653061224489,0.6632653061224489,0.6632653061224489,0.6632653061224489,0.6632653061224489,0.6632653061224489,0.6632653061224489,0.6632653061224489,0.6632653061224489,0.6632653061224489,0.6530612244897959,0.6428571428571429,0.6326530612244898,0.6224489795918368,0.6122448979591837,0.6054421768707483,0.5748299319727891,0.5714285714285714,0.5612244897959183,0.5578231292517006,0.5544217687074829,0.5510204081632653,0.5510204081632653,0.5510204081632653,0.5510204081632653,0.5510204081632653,0.5510204081632653,0.5510204081632653,0.5510204081632653,0.5510204081632653,0.5510204081632653,0.5510204081632653,0.5510204081632653,0.5544217687074829,0.5544217687074829,0.5578231292517006,0.5578231292517006,0.5578231292517006,0.5612244897959183,0.5612244897959183,0.5612244897959183,0.5612244897959183,0.5612244897959183,0.5612244897959183,0.5612244897959183,0.5612244897959183,0.5612244897959183,0.5612244897959183,0.5612244897959183,0.5612244897959183,0.5612244897959183,0.5612244897959183,0.5612244897959183,0.5612244897959183,0.5612244897959183,0.5612244897959183,0.5612244897959183,0.5612244897959183,0.5612244897959183,0.5612244897959183,0.5612244897959183,0.5612244897959183,0.5612244897959183,0.5612244897959183,0.5612244897959183,0.5612244897959183,0.5612244897959183,0.5612244897959183,0.5612244897959183,0.5612244897959183,0.5612244897959183,0.5612244897959183,0.5612244897959183,0.5612244897959183,0.5612244897959183,0.5612244897959183,0.5612244897959183,0.5612244897959183,0.5612244897959183,0.5612244897959183,0.5612244897959183,0.5612244897959183,0.5612244897959183,0.5612244897959183,0.5612244897959183,0.5612244897959183,0.5612244897959183,0.5612244897959183,0.5612244897959183,0.5612244897959183,0.5612244897959183,0.5612244897959183,0.5612244897959183,0.5612244897959183,0.5612244897959183,0.5612244897959183,0.5612244897959183,0.5612244897959183,0.5612244897959183,0.5612244897959183,0.5612244897959183,0.5612244897959183,0.5612244897959183,0.5612244897959183,0.5612244897959183,0.5612244897959183,0.5612244897959183,0.5612244897959183,0.5612244897959183,0.5612244897959183,0.5612244897959183,0.5612244897959183,0.5612244897959183,0.5612244897959183,0.5612244897959183,0.5612244897959183,0.5612244897959183,0.5612244897959183,0.5612244897959183,0.5612244897959183,0.5612244897959183,0.5612244897959183,0.5612244897959183,0.5612244897959183,0.5612244897959183,0.5612244897959183,0.5612244897959183,0.5612244897959183,0.5612244897959183,0.5612244897959183,0.5612244897959183,0.5612244897959183,0.5612244897959183,0.5612244897959183,0.5612244897959183,0.5612244897959183,0.5612244897959183,0.5612244897959183,0.5612244897959183,0.5612244897959183,0.5612244897959183,0.5612244897959183,0.5612244897959183,0.5612244897959183,0.5612244897959183,0.5612244897959183,0.5612244897959183,0.5612244897959183,0.5612244897959183,0.5612244897959183,0.5612244897959183,0.5612244897959183,0.5612244897959183,0.5612244897959183,0.5612244897959183,0.5612244897959183,0.5612244897959183,0.5612244897959183,0.5612244897959183,0.5612244897959183,0.5612244897959183,0.5612244897959183,0.5612244897959183,0.5612244897959183,0.5612244897959183,0.5612244897959183,0.5612244897959183,0.5612244897959183,0.5612244897959183,0.5612244897959183,0.5612244897959183,0.5612244897959183,0.5612244897959183,0.5612244897959183,0.5612244897959183,0.5612244897959183,0.5612244897959183,0.5612244897959183,0.5612244897959183,0.5612244897959183,0.5612244897959183,0.5612244897959183,0.5612244897959183,0.5612244897959183,0.5612244897959183,0.5612244897959183,0.5612244897959183,0.5612244897959183,0.5612244897959183,0.5612244897959183,0.5612244897959183,0.5612244897959183,0.5612244897959183,0.5612244897959183,0.5612244897959183,0.5612244897959183,0.5612244897959183,0.5612244897959183,0.5612244897959183,0.5612244897959183,0.5612244897959183,0.5612244897959183,0.5612244897959183,0.5612244897959183,0.5612244897959183,0.5612244897959183,0.5612244897959183,0.5612244897959183,0.5612244897959183,0.5612244897959183,0.5612244897959183,0.5612244897959183,0.5612244897959183,0.5612244897959183,0.5612244897959183,0.5612244897959183,0.5612244897959183,0.5612244897959183,0.5612244897959183,0.5612244897959183,0.5612244897959183,0.5612244897959183,0.5612244897959183,0.5612244897959183,0.5612244897959183,0.5612244897959183,0.5612244897959183,0.5612244897959183,0.5612244897959183,0.5612244897959183,0.5612244897959183,0.5612244897959183,0.5612244897959183,0.5612244897959183,0.5612244897959183,0.5612244897959183,0.5612244897959183,0.5612244897959183,0.5612244897959183,0.5612244897959183,0.5612244897959183,0.5612244897959183,0.5612244897959183,0.5612244897959183,0.5612244897959183,0.5612244897959183,0.5612244897959183,0.5612244897959183,0.5612244897959183,0.5612244897959183,0.5612244897959183,0.5612244897959183,0.5612244897959183,0.5612244897959183,0.5612244897959183,0.5612244897959183,0.5612244897959183,0.5612244897959183,0.5612244897959183,0.5612244897959183,0.5612244897959183,0.5612244897959183,0.5612244897959183,0.5612244897959183,0.5612244897959183,0.5612244897959183,0.5612244897959183,0.5612244897959183,0.5612244897959183,0.5612244897959183,0.5612244897959183,0.5612244897959183,0.5612244897959183,0.5612244897959183,0.5612244897959183,0.5612244897959183,0.5612244897959183,0.5612244897959183,0.5612244897959183,0.5612244897959183,0.5612244897959183,0.5612244897959183,0.5612244897959183,0.5612244897959183,0.5612244897959183,0.5612244897959183,0.5612244897959183,0.5612244897959183,0.5612244897959183,0.5612244897959183,0.5612244897959183,0.5612244897959183,0.5612244897959183,0.5612244897959183,0.5612244897959183,0.5612244897959183,0.5612244897959183,0.5612244897959183,0.5612244897959183,0.5612244897959183,0.5612244897959183,0.5612244897959183,0.5612244897959183,0.5612244897959183,0.5612244897959183,0.5612244897959183,0.5612244897959183,0.5612244897959183,0.5612244897959183,0.5612244897959183,0.5612244897959183,0.5612244897959183,0.5612244897959183,0.5612244897959183,0.5612244897959183,0.5612244897959183,0.5612244897959183,0.5612244897959183,0.5612244897959183,0.5612244897959183,0.5612244897959183,0.5612244897959183,0.5612244897959183,0.5612244897959183,0.5612244897959183,0.5612244897959183,0.5612244897959183,0.5612244897959183,0.5612244897959183,0.5612244897959183,0.5612244897959183,0.5612244897959183,0.5612244897959183,0.5612244897959183,0.5612244897959183,0.5612244897959183,0.5612244897959183,0.5612244897959183,0.5612244897959183,0.5612244897959183,0.5612244897959183,0.5612244897959183,0.5612244897959183,0.5612244897959183,0.5612244897959183,0.5612244897959183,0.5612244897959183,0.5612244897959183,0.5612244897959183,0.5612244897959183,0.5612244897959183,0.5612244897959183,0.5612244897959183,0.5612244897959183,0.5612244897959183,0.5612244897959183,0.5612244897959183,0.5612244897959183,0.5612244897959183,0.5612244897959183,0.5612244897959183,0.5612244897959183,0.5612244897959183,0.5612244897959183,0.5612244897959183,0.5612244897959183,0.5612244897959183,0.5612244897959183,0.5612244897959183,0.5612244897959183,0.5612244897959183,0.5612244897959183,0.5612244897959183,0.5612244897959183,0.5612244897959183,0.5612244897959183,0.5612244897959183,0.5612244897959183,0.5612244897959183,0.5612244897959183,0.5612244897959183,0.5612244897959183,0.5612244897959183,0.5612244897959183,0.5612244897959183,0.5612244897959183,0.5612244897959183,0.5612244897959183,0.5612244897959183,0.5612244897959183,0.5612244897959183,0.5612244897959183,0.5612244897959183,0.5612244897959183,0.5612244897959183,0.5612244897959183,0.5612244897959183,0.5612244897959183,0.5612244897959183,0.5612244897959183,0.5612244897959183,0.5612244897959183,0.5612244897959183,0.5612244897959183,0.5612244897959183,0.5612244897959183,0.5612244897959183,0.5612244897959183,0.5612244897959183,0.5612244897959183,0.5612244897959183,0.5612244897959183,0.5612244897959183,0.5612244897959183,0.5612244897959183,0.5612244897959183,0.5612244897959183,0.5612244897959183,0.5612244897959183,0.5612244897959183,0.5612244897959183,0.5612244897959183,0.5612244897959183,0.5612244897959183,0.5612244897959183,0.5612244897959183,0.5612244897959183,0.5612244897959183,0.5612244897959183,0.5612244897959183,0.5612244897959183,0.5612244897959183,0.5612244897959183,0.5612244897959183,0.5612244897959183,0.5612244897959183,0.5612244897959183,0.5612244897959183,0.5612244897959183,0.5612244897959183,0.5612244897959183,0.5612244897959183,0.5612244897959183,0.5612244897959183,0.5612244897959183,0.5612244897959183,0.5612244897959183,0.5612244897959183,0.5612244897959183,0.5612244897959183,0.5612244897959183,0.5612244897959183,0.5612244897959183,0.5612244897959183,0.5612244897959183,0.5612244897959183,0.5612244897959183,0.5612244897959183,0.5612244897959183,0.5612244897959183,0.5612244897959183,0.5612244897959183,0.5612244897959183,0.5612244897959183,0.5612244897959183,0.5612244897959183,0.5612244897959183,0.5612244897959183,0.5612244897959183,0.5612244897959183,0.5612244897959183,0.5612244897959183,0.5612244897959183,0.5612244897959183,0.5612244897959183,0.5612244897959183,0.5612244897959183,0.5612244897959183,0.5612244897959183,0.5612244897959183,0.5612244897959183,0.5612244897959183,0.5612244897959183,0.5612244897959183,0.5612244897959183,0.5612244897959183,0.5612244897959183,0.5612244897959183,0.5612244897959183,0.5612244897959183,0.5612244897959183,0.5612244897959183,0.5612244897959183,0.5612244897959183,0.5612244897959183,0.5612244897959183,0.5612244897959183,0.5612244897959183,0.5612244897959183,0.5612244897959183,0.5612244897959183,0.5612244897959183,0.5612244897959183,0.5612244897959183,0.5612244897959183,0.5612244897959183,0.5612244897959183,0.5612244897959183,0.5612244897959183,0.5612244897959183,0.5612244897959183,0.5612244897959183,0.5612244897959183,0.5612244897959183,0.5612244897959183,0.5612244897959183,0.5612244897959183,0.5612244897959183,0.5612244897959183,0.5612244897959183,0.5612244897959183,0.5612244897959183,0.5612244897959183,0.5612244897959183,0.5612244897959183,0.5612244897959183,0.5612244897959183,0.5612244897959183,0.5612244897959183,0.5612244897959183,0.5612244897959183,0.5612244897959183,0.5612244897959183,0.5612244897959183,0.5612244897959183,0.5612244897959183,0.5612244897959183,0.5612244897959183,0.5612244897959183,0.5612244897959183,0.5612244897959183,0.5612244897959183,0.5612244897959183,0.5612244897959183,0.5612244897959183,0.5612244897959183,0.5612244897959183,0.5612244897959183,0.5612244897959183,0.5612244897959183,0.5612244897959183,0.5612244897959183,0.5612244897959183,0.5612244897959183,0.5612244897959183,0.5612244897959183,0.5612244897959183,0.5612244897959183,0.5612244897959183,0.5612244897959183,0.5612244897959183,0.5612244897959183,0.5612244897959183,0.5612244897959183,0.5612244897959183,0.5612244897959183,0.5612244897959183,0.5612244897959183,0.5612244897959183,0.5612244897959183,0.5612244897959183,0.5612244897959183,0.5612244897959183,0.5612244897959183,0.5612244897959183,0.5612244897959183,0.5612244897959183,0.5612244897959183,0.5612244897959183,0.5612244897959183,0.5612244897959183,0.5612244897959183,0.5612244897959183,0.5612244897959183,0.5612244897959183,0.5612244897959183,0.5612244897959183,0.5612244897959183,0.5612244897959183,0.5612244897959183,0.5612244897959183,0.5612244897959183,0.5612244897959183,0.5612244897959183,0.5612244897959183,0.5612244897959183,0.5612244897959183,0.5612244897959183,0.5612244897959183,0.5612244897959183,0.5612244897959183,0.5612244897959183,0.5612244897959183,0.5612244897959183,0.5612244897959183,0.5612244897959183,0.5612244897959183,0.5612244897959183,0.5612244897959183,0.5612244897959183,0.5612244897959183,0.5612244897959183,0.5612244897959183,0.5612244897959183,0.5612244897959183,0.5612244897959183,0.5612244897959183,0.5612244897959183,0.5612244897959183,0.5612244897959183,0.5612244897959183,0.5612244897959183,0.5612244897959183,0.5612244897959183,0.5612244897959183,0.5612244897959183,0.5612244897959183,0.5612244897959183,0.5612244897959183,0.5612244897959183,0.5612244897959183,0.5612244897959183,0.5612244897959183,0.5612244897959183,0.5612244897959183,0.5612244897959183,0.5612244897959183,0.5612244897959183,0.5612244897959183,0.5612244897959183,0.5612244897959183,0.5612244897959183,0.5612244897959183,0.5612244897959183,0.5612244897959183,0.5612244897959183,0.5612244897959183,0.5612244897959183,0.5612244897959183,0.5612244897959183,0.5612244897959183,0.5612244897959183,0.5612244897959183,0.5612244897959183,0.5612244897959183,0.5612244897959183,0.5612244897959183,0.5612244897959183,0.5612244897959183,0.5612244897959183,0.5612244897959183,0.5612244897959183,0.5612244897959183,0.5612244897959183,0.5612244897959183,0.5612244897959183,0.5612244897959183,0.5612244897959183,0.5612244897959183,0.5612244897959183,0.5612244897959183,0.5612244897959183,0.5612244897959183,0.5612244897959183,0.5612244897959183,0.5612244897959183,0.5612244897959183,0.5612244897959183,0.5612244897959183,0.5612244897959183,0.5612244897959183,0.5612244897959183,0.5612244897959183,0.5612244897959183,0.5612244897959183,0.5612244897959183,0.5612244897959183,0.5612244897959183,0.5612244897959183,0.5612244897959183,0.5612244897959183,0.5612244897959183,0.5612244897959183,0.5612244897959183,0.5612244897959183,0.5612244897959183,0.5612244897959183,0.5612244897959183,0.5612244897959183,0.5612244897959183,0.5612244897959183,0.5612244897959183,0.5612244897959183,0.5612244897959183,0.5612244897959183,0.5612244897959183,0.5612244897959183,0.5612244897959183,0.5612244897959183,0.5612244897959183,0.5612244897959183,0.5612244897959183,0.5612244897959183,0.5612244897959183,0.5612244897959183,0.5612244897959183,0.5612244897959183,0.5612244897959183,0.5612244897959183,0.5612244897959183,0.5612244897959183,0.5612244897959183,0.5612244897959183,0.5612244897959183,0.5612244897959183,0.5612244897959183,0.5612244897959183,0.5612244897959183,0.5612244897959183,0.5612244897959183,0.5612244897959183,0.5612244897959183,0.5612244897959183,0.5612244897959183,0.5612244897959183,0.5612244897959183,0.5612244897959183,0.5612244897959183,0.5612244897959183,0.5612244897959183,0.5612244897959183,0.5612244897959183,0.5612244897959183,0.5612244897959183,0.5612244897959183,0.5612244897959183,0.5612244897959183,0.5612244897959183,0.5612244897959183,0.5612244897959183,0.5612244897959183,0.5612244897959183,0.5612244897959183,0.5612244897959183,0.5612244897959183,0.5612244897959183,0.5612244897959183,0.5612244897959183,0.5612244897959183,0.5612244897959183,0.5612244897959183,0.5612244897959183,0.5612244897959183,0.5612244897959183,0.5612244897959183,0.5612244897959183,0.5612244897959183,0.5612244897959183,0.5612244897959183,0.5612244897959183,0.5612244897959183,0.5612244897959183,0.5612244897959183,0.5612244897959183,0.5612244897959183,0.5612244897959183,0.5612244897959183,0.5612244897959183,0.5612244897959183,0.5612244897959183,0.5612244897959183,0.5612244897959183,0.5612244897959183,0.5612244897959183,0.5612244897959183,0.5612244897959183,0.5612244897959183,0.5612244897959183,0.5612244897959183,0.5612244897959183,0.5612244897959183,0.5612244897959183,0.5612244897959183,0.5612244897959183,0.5612244897959183,0.5612244897959183,0.5612244897959183,0.5612244897959183,0.5612244897959183,0.5612244897959183,0.5612244897959183,0.5612244897959183,0.5612244897959183,0.5612244897959183,0.5612244897959183,0.5612244897959183,0.5612244897959183,0.5612244897959183,0.5612244897959183,0.5612244897959183,0.5612244897959183,0.5612244897959183,0.5612244897959183,0.5612244897959183,0.5612244897959183,0.5612244897959183,0.5612244897959183,0.5612244897959183,0.5612244897959183,0.5612244897959183,0.5612244897959183,0.5612244897959183,0.5612244897959183,0.5612244897959183,0.5612244897959183,0.5612244897959183,0.5612244897959183,0.5612244897959183,0.5612244897959183,0.5612244897959183,0.5612244897959183,0.5612244897959183,0.5612244897959183,0.5612244897959183,0.5612244897959183,0.5612244897959183,0.5612244897959183,0.5612244897959183,0.5612244897959183,0.5612244897959183,0.5612244897959183,0.5612244897959183,0.5612244897959183,0.5612244897959183,0.5612244897959183,0.5612244897959183,0.5612244897959183,0.5612244897959183,0.5612244897959183,0.5612244897959183,0.5612244897959183,0.5612244897959183,0.5612244897959183,0.5612244897959183,0.5612244897959183,0.5612244897959183,0.5612244897959183,0.5612244897959183,0.5612244897959183,0.5612244897959183,0.5612244897959183,0.5612244897959183,0.5612244897959183,0.5612244897959183,0.5612244897959183,0.5612244897959183,0.5612244897959183,0.5612244897959183,0.5612244897959183,0.5612244897959183,0.5612244897959183,0.5612244897959183,0.5612244897959183,0.5612244897959183,0.5612244897959183,0.5612244897959183,0.5612244897959183,0.5612244897959183,0.5612244897959183,0.5612244897959183,0.5612244897959183,0.5612244897959183,0.5612244897959183,0.5612244897959183,0.5612244897959183,0.5612244897959183,0.5612244897959183,0.5612244897959183,0.5612244897959183,0.5612244897959183,0.5612244897959183,0.5612244897959183,0.5612244897959183,0.5612244897959183,0.5612244897959183,0.5612244897959183,0.5612244897959183,0.5612244897959183,0.5612244897959183,0.5612244897959183,0.5612244897959183,0.5612244897959183,0.5612244897959183,0.5612244897959183,0.5612244897959183,0.5612244897959183,0.5612244897959183,0.5612244897959183,0.5612244897959183,0.5612244897959183,0.5612244897959183,0.5612244897959183,0.5612244897959183,0.5612244897959183,0.5612244897959183,0.5612244897959183,0.5612244897959183,0.5612244897959183,0.5612244897959183,0.5612244897959183,0.5612244897959183,0.5612244897959183,0.5612244897959183,0.5612244897959183,0.5612244897959183,0.5612244897959183,0.5612244897959183,0.5612244897959183,0.5612244897959183,0.5612244897959183,0.5612244897959183,0.5612244897959183,0.5612244897959183,0.5612244897959183,0.5612244897959183,0.5612244897959183,0.5612244897959183,0.5612244897959183,0.5612244897959183,0.5612244897959183,0.5612244897959183,0.5612244897959183,0.5612244897959183,0.5612244897959183,0.5612244897959183,0.5612244897959183,0.5612244897959183,0.5612244897959183,0.5612244897959183,0.5612244897959183,0.5612244897959183,0.5612244897959183,0.5612244897959183,0.5612244897959183,0.5612244897959183,0.5612244897959183,0.5612244897959183,0.5612244897959183,0.5612244897959183,0.5612244897959183,0.5612244897959183,0.5612244897959183,0.5612244897959183,0.5612244897959183,0.5612244897959183,0.5612244897959183,0.5612244897959183,0.5612244897959183,0.5612244897959183,0.5612244897959183,0.5612244897959183,0.5612244897959183,0.5612244897959183,0.5612244897959183,0.5612244897959183,0.5612244897959183,0.5612244897959183,0.5612244897959183,0.5612244897959183,0.5612244897959183,0.5612244897959183,0.5612244897959183,0.5612244897959183,0.5612244897959183,0.5612244897959183,0.5612244897959183,0.5612244897959183,0.5612244897959183,0.5612244897959183,0.5612244897959183,0.5612244897959183,0.5612244897959183,0.5612244897959183,0.5612244897959183,0.5612244897959183,0.5612244897959183,0.5612244897959183,0.5612244897959183,0.5612244897959183,0.5612244897959183,0.5612244897959183,0.5612244897959183,0.5612244897959183,0.5612244897959183,0.5612244897959183,0.5612244897959183,0.5612244897959183,0.5612244897959183,0.5612244897959183,0.5612244897959183,0.5612244897959183,0.5612244897959183,0.5612244897959183,0.5612244897959183,0.5612244897959183,0.5612244897959183,0.5612244897959183,0.5612244897959183,0.5612244897959183,0.5612244897959183,0.5612244897959183,0.5612244897959183,0.5612244897959183,0.5612244897959183,0.5612244897959183,0.5612244897959183,0.5612244897959183,0.5612244897959183,0.5612244897959183,0.5612244897959183,0.5612244897959183,0.5612244897959183,0.5612244897959183,0.5612244897959183,0.5612244897959183,0.5612244897959183,0.5612244897959183,0.5612244897959183,0.5612244897959183,0.5612244897959183,0.5612244897959183,0.5612244897959183,0.5612244897959183,0.5612244897959183,0.5612244897959183,0.5612244897959183,0.5612244897959183,0.5612244897959183,0.5612244897959183,0.5612244897959183,0.5612244897959183,0.5612244897959183,0.5612244897959183,0.5612244897959183,0.5612244897959183,0.5612244897959183,0.5612244897959183,0.5612244897959183,0.5612244897959183,0.5612244897959183,0.5612244897959183,0.5612244897959183,0.5612244897959183,0.5612244897959183,0.5612244897959183,0.5612244897959183,0.5612244897959183,0.5612244897959183,0.5612244897959183,0.5612244897959183,0.5612244897959183,0.5612244897959183,0.5612244897959183,0.5612244897959183,0.5612244897959183,0.5612244897959183,0.5612244897959183,0.5612244897959183,0.5612244897959183,0.5612244897959183,0.5612244897959183,0.5612244897959183,0.5612244897959183,0.5612244897959183,0.5612244897959183,0.5612244897959183,0.5612244897959183,0.5612244897959183,0.5612244897959183,0.5612244897959183,0.5612244897959183,0.5612244897959183,0.5612244897959183,0.5612244897959183,0.5612244897959183,0.5612244897959183,0.5612244897959183,0.5612244897959183,0.5612244897959183,0.5612244897959183,0.5612244897959183,0.5612244897959183,0.5612244897959183,0.5612244897959183,0.5612244897959183,0.5612244897959183,0.5612244897959183,0.5612244897959183,0.5612244897959183,0.5612244897959183,0.5612244897959183,0.5612244897959183,0.5612244897959183,0.5612244897959183,0.5612244897959183,0.5612244897959183,0.5612244897959183,0.5612244897959183,0.5612244897959183,0.5612244897959183,0.5612244897959183,0.5612244897959183,0.5612244897959183,0.5612244897959183,0.5612244897959183,0.5612244897959183,0.5612244897959183,0.5612244897959183,0.5612244897959183,0.5612244897959183,0.5612244897959183,0.5612244897959183,0.5612244897959183,0.5612244897959183,0.5612244897959183,0.5612244897959183,0.5612244897959183,0.5612244897959183,0.5612244897959183,0.5612244897959183,0.5612244897959183,0.5612244897959183,0.5612244897959183,0.5612244897959183,0.5612244897959183,0.5612244897959183,0.5612244897959183,0.5612244897959183,0.5612244897959183,0.5612244897959183,0.5612244897959183,0.5612244897959183,0.5612244897959183,0.5612244897959183,0.5612244897959183,0.5612244897959183,0.5612244897959183,0.5612244897959183,0.5612244897959183,0.5612244897959183,0.5612244897959183,0.5612244897959183,0.5612244897959183,0.5612244897959183,0.5612244897959183,0.5612244897959183,0.5612244897959183,0.5612244897959183,0.5612244897959183,0.5612244897959183,0.5612244897959183,0.5612244897959183,0.5612244897959183,0.5612244897959183,0.5612244897959183,0.5612244897959183,0.5612244897959183,0.5612244897959183,0.5612244897959183,0.5612244897959183,0.5612244897959183,0.5612244897959183,0.5612244897959183,0.5612244897959183,0.5612244897959183,0.5612244897959183,0.5612244897959183,0.5612244897959183,0.5612244897959183,0.5612244897959183,0.5612244897959183,0.5612244897959183,0.5612244897959183,0.5612244897959183,0.5612244897959183,0.5612244897959183,0.5612244897959183,0.5612244897959183,0.5612244897959183,0.5612244897959183,0.5612244897959183,0.5612244897959183,0.5612244897959183,0.5612244897959183,0.5612244897959183,0.5612244897959183,0.5612244897959183,0.5612244897959183,0.5612244897959183,0.5612244897959183,0.5612244897959183,0.5612244897959183,0.5612244897959183,0.5612244897959183,0.5612244897959183,0.5612244897959183,0.5612244897959183,0.5612244897959183,0.5612244897959183,0.5612244897959183,0.5612244897959183,0.5612244897959183,0.5612244897959183,0.5612244897959183,0.5612244897959183,0.5612244897959183,0.5612244897959183,0.5612244897959183,0.5612244897959183,0.5612244897959183,0.5612244897959183,0.5612244897959183,0.5612244897959183,0.5612244897959183,0.5612244897959183,0.5612244897959183,0.5612244897959183,0.5612244897959183,0.5612244897959183,0.5612244897959183,0.5612244897959183,0.5612244897959183,0.5612244897959183,0.5612244897959183,0.5612244897959183,0.5612244897959183,0.5612244897959183,0.5612244897959183,0.5612244897959183,0.5612244897959183,0.5612244897959183,0.5612244897959183,0.5612244897959183,0.5612244897959183,0.5612244897959183,0.5612244897959183,0.5612244897959183,0.5612244897959183,0.5612244897959183,0.5612244897959183,0.5612244897959183,0.5612244897959183,0.5612244897959183,0.5612244897959183,0.5612244897959183,0.5612244897959183,0.5612244897959183,0.5612244897959183,0.5612244897959183,0.5612244897959183,0.5612244897959183,0.5612244897959183,0.5612244897959183,0.5612244897959183,0.5612244897959183,0.5612244897959183,0.5612244897959183,0.5612244897959183,0.5612244897959183,0.5612244897959183,0.5612244897959183,0.5612244897959183,0.5612244897959183,0.5612244897959183,0.5612244897959183,0.5612244897959183,0.5612244897959183,0.5612244897959183,0.5612244897959183,0.5612244897959183,0.5612244897959183,0.5612244897959183,0.5612244897959183,0.5612244897959183,0.5612244897959183,0.5612244897959183,0.5612244897959183,0.5612244897959183,0.5612244897959183,0.5612244897959183,0.5612244897959183,0.5612244897959183,0.5612244897959183,0.5612244897959183,0.5612244897959183,0.5612244897959183,0.5612244897959183,0.5612244897959183,0.5612244897959183,0.5612244897959183,0.5612244897959183,0.5612244897959183,0.5612244897959183,0.5612244897959183,0.5612244897959183,0.5612244897959183,0.5612244897959183,0.5612244897959183,0.5612244897959183,0.5612244897959183,0.5612244897959183,0.5612244897959183,0.5612244897959183,0.5612244897959183,0.5612244897959183,0.5612244897959183,0.5612244897959183,0.5612244897959183,0.5612244897959183,0.5612244897959183,0.5612244897959183,0.5612244897959183,0.5612244897959183,0.5612244897959183,0.5612244897959183,0.5612244897959183,0.5612244897959183,0.5612244897959183,0.5612244897959183,0.5612244897959183,0.5612244897959183,0.5612244897959183,0.5612244897959183,0.5612244897959183,0.5612244897959183,0.5612244897959183,0.5612244897959183,0.5612244897959183,0.5612244897959183,0.5612244897959183,0.5612244897959183,0.5612244897959183,0.5612244897959183,0.5612244897959183,0.5612244897959183,0.5612244897959183,0.5612244897959183,0.5612244897959183,0.5612244897959183,0.5612244897959183,0.5612244897959183,0.5612244897959183,0.5612244897959183,0.5612244897959183,0.5612244897959183,0.5612244897959183,0.5612244897959183,0.5612244897959183,0.5612244897959183,0.5612244897959183,0.5612244897959183,0.5612244897959183,0.5612244897959183,0.5612244897959183,0.5612244897959183,0.5612244897959183,0.5612244897959183,0.5612244897959183,0.5612244897959183,0.5612244897959183,0.5612244897959183,0.5612244897959183,0.5612244897959183,0.5612244897959183,0.5612244897959183,0.5612244897959183,0.5612244897959183,0.5612244897959183,0.5612244897959183,0.5612244897959183,0.5612244897959183,0.5612244897959183,0.5612244897959183,0.5612244897959183,0.5612244897959183,0.5612244897959183,0.5612244897959183,0.5612244897959183,0.5612244897959183,0.5612244897959183,0.5612244897959183,0.5612244897959183,0.5612244897959183,0.5612244897959183,0.5612244897959183,0.5612244897959183,0.5612244897959183,0.5612244897959183,0.5612244897959183,0.5612244897959183,0.5612244897959183,0.5612244897959183,0.5612244897959183,0.5612244897959183,0.5612244897959183,0.5612244897959183,0.5612244897959183,0.5612244897959183,0.5612244897959183,0.5612244897959183,0.5612244897959183,0.5612244897959183,0.5612244897959183,0.5612244897959183,0.5612244897959183,0.5612244897959183,0.5612244897959183,0.5612244897959183,0.5612244897959183,0.5612244897959183,0.5612244897959183,0.5612244897959183,0.5612244897959183,0.5612244897959183,0.5612244897959183,0.5612244897959183,0.5612244897959183,0.5612244897959183,0.5612244897959183,0.5612244897959183,0.5612244897959183,0.5612244897959183,0.5612244897959183,0.5612244897959183,0.5612244897959183,0.5612244897959183,0.5612244897959183,0.5612244897959183,0.5612244897959183,0.5612244897959183,0.5612244897959183,0.5612244897959183,0.5612244897959183,0.5612244897959183,0.5612244897959183,0.5612244897959183,0.5612244897959183,0.5612244897959183,0.5612244897959183,0.5612244897959183,0.5612244897959183,0.5612244897959183,0.5612244897959183,0.5612244897959183,0.5612244897959183,0.5612244897959183,0.5612244897959183,0.5612244897959183,0.5612244897959183,0.5612244897959183,0.5612244897959183,0.5612244897959183,0.5612244897959183,0.5612244897959183,0.5612244897959183,0.5612244897959183,0.5612244897959183,0.5612244897959183,0.5612244897959183,0.5612244897959183,0.5612244897959183,0.5612244897959183,0.5612244897959183,0.5612244897959183,0.5612244897959183,0.5612244897959183,0.5612244897959183,0.5612244897959183,0.5612244897959183,0.5612244897959183,0.5612244897959183,0.5612244897959183,0.5612244897959183,0.5612244897959183,0.5612244897959183,0.5612244897959183,0.5612244897959183,0.5612244897959183,0.5612244897959183,0.5612244897959183,0.5612244897959183,0.5612244897959183,0.5612244897959183,0.5612244897959183,0.5612244897959183,0.5612244897959183,0.5612244897959183,0.5612244897959183,0.5612244897959183,0.5612244897959183,0.5612244897959183,0.5612244897959183,0.5612244897959183,0.5612244897959183,0.5612244897959183,0.5612244897959183,0.5612244897959183,0.5612244897959183,0.5612244897959183,0.5612244897959183,0.5612244897959183,0.5612244897959183,0.5612244897959183,0.5612244897959183,0.5612244897959183,0.5612244897959183,0.5612244897959183,0.5612244897959183,0.5612244897959183,0.5612244897959183,0.5612244897959183,0.5612244897959183,0.5612244897959183,0.5612244897959183,0.5612244897959183,0.5612244897959183,0.5612244897959183,0.5612244897959183,0.5612244897959183,0.5612244897959183,0.5612244897959183,0.5612244897959183,0.5612244897959183,0.5612244897959183,0.5612244897959183,0.5612244897959183,0.5612244897959183,0.5612244897959183,0.5612244897959183,0.5612244897959183,0.5612244897959183,0.5612244897959183,0.5612244897959183,0.5612244897959183,0.5612244897959183,0.5612244897959183,0.5612244897959183,0.5612244897959183,0.5612244897959183,0.5612244897959183,0.5612244897959183,0.5612244897959183,0.5612244897959183,0.5612244897959183,0.5612244897959183,0.5612244897959183,0.5612244897959183,0.5612244897959183,0.5612244897959183,0.5612244897959183,0.5612244897959183,0.5612244897959183,0.5612244897959183,0.5612244897959183,0.5612244897959183,0.5612244897959183,0.5612244897959183,0.5612244897959183,0.5612244897959183,0.5612244897959183,0.5612244897959183,0.5612244897959183,0.5612244897959183,0.5612244897959183,0.5612244897959183,0.5612244897959183,0.5612244897959183,0.5612244897959183,0.5612244897959183,0.5612244897959183,0.5612244897959183,0.5612244897959183,0.5612244897959183,0.5612244897959183,0.5612244897959183,0.5612244897959183,0.5612244897959183,0.5612244897959183,0.5612244897959183,0.5612244897959183,0.5612244897959183,0.5612244897959183,0.5612244897959183,0.5612244897959183,0.5612244897959183,0.5612244897959183,0.5612244897959183,0.5612244897959183,0.5612244897959183,0.5612244897959183,0.5612244897959183,0.5612244897959183,0.5612244897959183,0.5612244897959183,0.5612244897959183,0.5612244897959183,0.5612244897959183,0.5612244897959183,0.5612244897959183,0.5612244897959183,0.5612244897959183,0.5612244897959183,0.5612244897959183,0.5612244897959183,0.5612244897959183,0.5612244897959183,0.5612244897959183,0.5612244897959183,0.5612244897959183,0.5612244897959183,0.5612244897959183,0.5612244897959183,0.5612244897959183,0.5612244897959183,0.5612244897959183,0.5612244897959183,0.5612244897959183,0.5612244897959183,0.5612244897959183,0.5612244897959183,0.5612244897959183,0.5612244897959183,0.5612244897959183,0.5612244897959183,0.5612244897959183,0.5612244897959183,0.5612244897959183,0.5612244897959183,0.5612244897959183,0.5612244897959183,0.5612244897959183,0.5612244897959183,0.5612244897959183,0.5612244897959183,0.5612244897959183,0.5612244897959183,0.5612244897959183,0.5612244897959183,0.5612244897959183,0.5612244897959183,0.5612244897959183,0.5612244897959183,0.5612244897959183,0.5612244897959183,0.5612244897959183,0.5612244897959183,0.5612244897959183,0.5612244897959183,0.5612244897959183,0.5612244897959183,0.5612244897959183,0.5612244897959183,0.5612244897959183,0.5612244897959183,0.5612244897959183,0.5612244897959183,0.5612244897959183,0.5612244897959183,0.5612244897959183,0.5612244897959183,0.5612244897959183,0.5612244897959183,0.5612244897959183,0.5612244897959183,0.5612244897959183,0.5612244897959183,0.5612244897959183,0.5612244897959183,0.5612244897959183,0.5612244897959183,0.5612244897959183,0.5612244897959183,0.5612244897959183,0.5612244897959183,0.5612244897959183,0.5612244897959183,0.5612244897959183,0.5612244897959183,0.5612244897959183,0.5612244897959183,0.5612244897959183,0.5612244897959183,0.5612244897959183,0.5612244897959183,0.5612244897959183,0.5612244897959183,0.5612244897959183,0.5612244897959183,0.5612244897959183,0.5612244897959183,0.5612244897959183,0.5612244897959183,0.5612244897959183,0.5612244897959183,0.5612244897959183,0.5612244897959183,0.5612244897959183,0.5612244897959183,0.5612244897959183,0.5612244897959183,0.5612244897959183,0.5612244897959183,0.5612244897959183,0.5612244897959183,0.5612244897959183,0.5612244897959183,0.5612244897959183,0.5612244897959183,0.5612244897959183,0.5612244897959183,0.5612244897959183,0.5612244897959183,0.5612244897959183,0.5612244897959183,0.5612244897959183,0.5612244897959183,0.5612244897959183,0.5612244897959183,0.5612244897959183,0.5612244897959183,0.5612244897959183,0.5612244897959183,0.5612244897959183,0.5612244897959183,0.5612244897959183,0.5612244897959183,0.5612244897959183,0.5612244897959183,0.5612244897959183,0.5612244897959183,0.5612244897959183,0.5612244897959183,0.5612244897959183,0.5612244897959183,0.5612244897959183,0.5612244897959183,0.5612244897959183,0.5612244897959183,0.5612244897959183,0.5612244897959183,0.5612244897959183,0.5612244897959183,0.5612244897959183,0.5612244897959183,0.5612244897959183,0.5612244897959183,0.5612244897959183,0.5612244897959183,0.5612244897959183,0.5612244897959183,0.5612244897959183,0.5612244897959183,0.5612244897959183,0.5612244897959183,0.5612244897959183,0.5612244897959183,0.5612244897959183,0.5612244897959183,0.5612244897959183,0.5612244897959183,0.5612244897959183,0.5612244897959183,0.5612244897959183,0.5612244897959183,0.5612244897959183,0.5612244897959183,0.5612244897959183,0.5612244897959183,0.5612244897959183,0.5612244897959183,0.5612244897959183,0.5612244897959183,0.5612244897959183,0.5612244897959183,0.5612244897959183,0.5612244897959183,0.5612244897959183,0.5612244897959183,0.5612244897959183,0.5612244897959183,0.5612244897959183,0.5612244897959183,0.5612244897959183,0.5612244897959183,0.5612244897959183,0.5612244897959183,0.5612244897959183,0.5612244897959183,0.5612244897959183,0.5612244897959183,0.5612244897959183,0.5612244897959183,0.5612244897959183,0.5612244897959183,0.5612244897959183,0.5612244897959183,0.5612244897959183,0.5612244897959183,0.5612244897959183,0.5612244897959183,0.5612244897959183,0.5612244897959183,0.5612244897959183,0.5612244897959183,0.5612244897959183,0.5612244897959183,0.5612244897959183,0.5612244897959183,0.5612244897959183,0.5612244897959183,0.5612244897959183,0.5612244897959183,0.5612244897959183,0.5612244897959183,0.5612244897959183,0.5612244897959183,0.5612244897959183,0.5612244897959183,0.5612244897959183,0.5612244897959183,0.5612244897959183,0.5612244897959183,0.5612244897959183,0.5612244897959183,0.5612244897959183,0.5612244897959183,0.5612244897959183,0.5612244897959183,0.5612244897959183,0.5612244897959183,0.5612244897959183,0.5612244897959183,0.5612244897959183,0.5612244897959183,0.5612244897959183,0.5612244897959183,0.5612244897959183,0.5612244897959183,0.5612244897959183,0.5612244897959183,0.5612244897959183,0.5612244897959183,0.5612244897959183,0.5612244897959183,0.5612244897959183,0.5612244897959183,0.5612244897959183,0.5612244897959183,0.5612244897959183,0.5612244897959183,0.5612244897959183,0.5612244897959183,0.5612244897959183,0.5612244897959183,0.5612244897959183,0.5612244897959183,0.5612244897959183,0.5612244897959183,0.5612244897959183,0.5612244897959183,0.5612244897959183,0.5612244897959183,0.5612244897959183,0.5612244897959183,0.5612244897959183,0.5612244897959183,0.5612244897959183,0.5612244897959183,0.5612244897959183,0.5612244897959183,0.5612244897959183,0.5612244897959183,0.5612244897959183,0.5612244897959183,0.5612244897959183,0.5612244897959183,0.5612244897959183,0.5612244897959183,0.5612244897959183,0.5612244897959183,0.5612244897959183,0.5612244897959183,0.5612244897959183,0.5612244897959183,0.5612244897959183,0.5612244897959183,0.5612244897959183,0.5612244897959183,0.5612244897959183,0.5612244897959183,0.5612244897959183,0.5612244897959183,0.5612244897959183,0.5612244897959183,0.5612244897959183,0.5612244897959183,0.5612244897959183,0.5612244897959183,0.5612244897959183,0.5612244897959183,0.5612244897959183,0.5612244897959183,0.5612244897959183,0.5612244897959183,0.5612244897959183,0.5612244897959183,0.5612244897959183,0.5612244897959183,0.5612244897959183,0.5612244897959183,0.5612244897959183,0.5612244897959183,0.5612244897959183,0.5612244897959183,0.5612244897959183,0.5612244897959183,0.5612244897959183,0.5612244897959183,0.5612244897959183,0.5612244897959183,0.5612244897959183,0.5612244897959183,0.5612244897959183,0.5612244897959183,0.5612244897959183,0.5612244897959183,0.5612244897959183,0.5612244897959183,0.5612244897959183,0.5612244897959183,0.5612244897959183,0.5612244897959183,0.5612244897959183,0.5612244897959183,0.5612244897959183,0.5612244897959183,0.5612244897959183,0.5612244897959183,0.5612244897959183,0.5612244897959183,0.5612244897959183,0.5612244897959183,0.5612244897959183,0.5612244897959183,0.5612244897959183,0.5612244897959183,0.5612244897959183,0.5612244897959183,0.5612244897959183,0.5612244897959183,0.5612244897959183,0.5612244897959183,0.5612244897959183,0.5612244897959183,0.5612244897959183,0.5612244897959183,0.5612244897959183,0.5612244897959183,0.5612244897959183,0.5612244897959183,0.5612244897959183,0.5612244897959183,0.5612244897959183,0.5612244897959183,0.5612244897959183,0.5612244897959183,0.5612244897959183,0.5612244897959183,0.5612244897959183,0.5612244897959183,0.5612244897959183,0.5612244897959183,0.5612244897959183,0.5612244897959183,0.5612244897959183,0.5612244897959183,0.5612244897959183,0.5612244897959183,0.5612244897959183,0.5612244897959183,0.5612244897959183,0.5612244897959183,0.5612244897959183,0.5612244897959183,0.5612244897959183,0.5612244897959183,0.5612244897959183,0.5612244897959183,0.5612244897959183,0.5612244897959183,0.5612244897959183,0.5612244897959183,0.5612244897959183,0.5612244897959183,0.5612244897959183,0.5612244897959183,0.5612244897959183,0.5612244897959183,0.5612244897959183,0.5612244897959183,0.5612244897959183,0.5612244897959183,0.5612244897959183,0.5612244897959183,0.5612244897959183,0.5612244897959183,0.5612244897959183,0.5612244897959183,0.5612244897959183,0.5612244897959183,0.5612244897959183,0.5612244897959183,0.5612244897959183,0.5612244897959183,0.5612244897959183,0.5612244897959183,0.5612244897959183,0.5612244897959183,0.5612244897959183,0.5612244897959183,0.5612244897959183,0.5612244897959183,0.5612244897959183,0.5612244897959183,0.5612244897959183,0.5612244897959183,0.5612244897959183,0.5612244897959183,0.5612244897959183,0.5612244897959183,0.5612244897959183,0.5612244897959183,0.5612244897959183,0.5612244897959183,0.5612244897959183,0.5612244897959183,0.5612244897959183,0.5612244897959183,0.5612244897959183,0.5612244897959183,0.5612244897959183,0.5612244897959183,0.5612244897959183,0.5612244897959183,0.5612244897959183,0.5612244897959183,0.5612244897959183,0.5612244897959183,0.5612244897959183,0.5612244897959183,0.5612244897959183,0.5612244897959183,0.5612244897959183,0.5612244897959183,0.5612244897959183,0.5612244897959183,0.5612244897959183,0.5612244897959183,0.5612244897959183,0.5612244897959183,0.5612244897959183,0.5612244897959183,0.5612244897959183,0.5612244897959183,0.5612244897959183,0.5612244897959183,0.5612244897959183,0.5612244897959183,0.5612244897959183,0.5612244897959183,0.5612244897959183,0.5612244897959183,0.5612244897959183,0.5612244897959183,0.5612244897959183,0.5612244897959183,0.5612244897959183,0.5612244897959183,0.5612244897959183,0.5612244897959183,0.5612244897959183,0.5612244897959183,0.5612244897959183,0.5612244897959183,0.5612244897959183,0.5612244897959183,0.5612244897959183,0.5612244897959183,0.5612244897959183,0.5612244897959183,0.5612244897959183,0.5612244897959183,0.5612244897959183,0.5612244897959183,0.5612244897959183,0.5612244897959183,0.5612244897959183,0.5612244897959183,0.5612244897959183,0.5612244897959183,0.5612244897959183,0.5612244897959183,0.5612244897959183,0.5612244897959183,0.5612244897959183,0.5612244897959183,0.5612244897959183,0.5612244897959183,0.5612244897959183,0.5612244897959183,0.5612244897959183,0.5612244897959183,0.5612244897959183,0.5612244897959183,0.5612244897959183,0.5612244897959183,0.5612244897959183,0.5612244897959183,0.5612244897959183,0.5612244897959183,0.5612244897959183,0.5612244897959183,0.5612244897959183,0.5612244897959183,0.5578231292517006,0.564625850340136,0.5952380952380952,0.6360544217687075,0.7040816326530612,0.935374149659864,1.0204081632653061,1.2687074829931972,1.3673469387755102,1.445578231292517,1.5204081632653061,1.5476190476190477,1.5612244897959184,1.564625850340136,1.4863945578231292,1.316326530612245,0.8095238095238095,0.6836734693877551,0.5850340136054422,0.5782312925170068,0.5782312925170068,0.5782312925170068,0.5782312925170068,0.5782312925170068,0.5782312925170068,0.5782312925170068,0.5782312925170068,0.5782312925170068,0.5782312925170068,0.5782312925170068,0.5748299319727891,0.5612244897959183,0.5170068027210885,0.43537414965986393,0.35714285714285715,0.2687074829931973,0.22448979591836735,0.20068027210884354,0.18027210884353742,0.17006802721088435,0.16326530612244897,0.1598639455782313,0.1564625850340136,0.15306122448979592,0.14625850340136054,0.14625850340136054,0.14285714285714285,0.14285714285714285,0.14285714285714285,0.14285714285714285,0.14285714285714285,0.14285714285714285,0.14285714285714285,0.14285714285714285,0.14285714285714285,0.14285714285714285,0.14285714285714285,0.14285714285714285,0.14285714285714285,0.14285714285714285,0.14285714285714285,0.14285714285714285,0.14285714285714285,0.14285714285714285,0.14285714285714285,0.14285714285714285,0.14285714285714285,0.14285714285714285,0.14285714285714285,0.14285714285714285,0.14285714285714285,0.14285714285714285,0.14285714285714285,0.1564625850340136,0.1836734693877551,0.20068027210884354,0.23809523809523808,0.2789115646258503,0.3163265306122449,0.35034013605442177,0.38095238095238093,0.40816326530612246,0.42517006802721086,0.4387755102040816,0.4489795918367347,0.4523809523809524,0.4557823129251701,0.4557823129251701,0.4557823129251701,0.4557823129251701,0.4557823129251701,0.4557823129251701,0.4557823129251701,0.4557823129251701,0.4557823129251701,0.4523809523809524,0.445578231292517,0.42517006802721086,0.3707482993197279,0.3435374149659864,0.3197278911564626,0.30612244897959184,0.29591836734693877,0.2891156462585034,0.2857142857142857,0.282312925170068,0.282312925170068,0.282312925170068,0.282312925170068,0.282312925170068,0.282312925170068,0.282312925170068,0.282312925170068,0.282312925170068,0.2857142857142857,0.2925170068027211,0.29931972789115646,0.3129251700680272,0.3231292517006803,0.3299319727891156,0.336734693877551,0.3435374149659864,0.3469387755102041,0.35034013605442177,0.35034013605442177,0.35374149659863946,0.35714285714285715,0.35714285714285715,0.35714285714285715,0.35714285714285715,0.35714285714285715,0.35714285714285715,0.35714285714285715,0.36054421768707484,0.36054421768707484,0.36054421768707484,0.36394557823129253,0.36394557823129253,0.3673469387755102,0.3707482993197279,0.38095238095238093,0.3877551020408163,0.3979591836734694,0.41156462585034015,0.42857142857142855,0.4387755102040816,0.4523809523809524,0.46258503401360546,0.46938775510204084,0.47619047619047616,0.47959183673469385,0.48299319727891155,0.48639455782312924,0.48639455782312924,0.48639455782312924,0.48639455782312924,0.4897959183673469,0.4897959183673469,0.4897959183673469,0.4897959183673469,0.4897959183673469,0.4897959183673469,0.4897959183673469,0.4897959183673469,0.4897959183673469,0.4897959183673469,0.4897959183673469,0.4897959183673469,0.4897959183673469,0.4897959183673469,0.4897959183673469,0.4897959183673469,0.4897959183673469,0.4897959183673469,0.48299319727891155,0.46938775510204084,0.45918367346938777,0.4523809523809524,0.445578231292517,0.445578231292517,0.4421768707482993,0.4421768707482993,0.4421768707482993,0.4421768707482993,0.4421768707482993,0.4421768707482993,0.4421768707482993,0.4421768707482993,0.4421768707482993,0.4421768707482993,0.4421768707482993,0.4421768707482993,0.4421768707482993,0.4421768707482993,0.4421768707482993,0.4421768707482993,0.4421768707482993,0.4421768707482993,0.4421768707482993,0.4421768707482993,0.4421768707482993,0.4421768707482993,0.4421768707482993,0.4421768707482993,0.4421768707482993,0.4421768707482993,0.4421768707482993,0.4421768707482993,0.4421768707482993,0.4421768707482993,0.4421768707482993,0.4489795918367347,0.46258503401360546,0.47278911564625853,0.48299319727891155,0.4897959183673469,0.5,0.5068027210884354,0.5136054421768708,0.5204081632653061,0.5272108843537415,0.5306122448979592,0.5374149659863946,0.5408163265306123,0.54421768707483,0.5476190476190477,0.5476190476190477,0.5510204081632653,0.5544217687074829,0.5578231292517006,0.5578231292517006,0.5612244897959183,0.564625850340136,0.5680272108843537,0.5748299319727891,0.5782312925170068,0.5850340136054422,0.5884353741496599,0.5918367346938775,0.5952380952380952,0.6020408163265306,0.6054421768707483,0.608843537414966,0.6156462585034014,0.6190476190476191,0.6224489795918368,0.6224489795918368,0.6224489795918368,0.6224489795918368,0.6224489795918368,0.6224489795918368,0.6224489795918368,0.6190476190476191,0.6190476190476191,0.6156462585034014,0.6122448979591837,0.6054421768707483,0.6020408163265306,0.5986394557823129,0.5918367346938775,0.5816326530612245,0.5748299319727891,0.5748299319727891,0.5748299319727891,0.5748299319727891,0.5748299319727891,0.5748299319727891,0.5748299319727891,0.5748299319727891,0.5748299319727891,0.5748299319727891,0.5748299319727891,0.5748299319727891,0.5748299319727891,0.5748299319727891,0.5748299319727891,0.5748299319727891,0.5748299319727891,0.5748299319727891,0.5748299319727891,0.5748299319727891,0.5748299319727891,0.5748299319727891,0.5748299319727891,0.5748299319727891,0.5748299319727891,0.5748299319727891,0.5748299319727891,0.5748299319727891,0.5748299319727891,0.5748299319727891,0.5748299319727891,0.5748299319727891,0.5748299319727891,0.5748299319727891,0.5748299319727891,0.5748299319727891,0.5748299319727891,0.5850340136054422,0.5986394557823129,0.6122448979591837,0.6258503401360545,0.6394557823129252,0.6564625850340136,0.673469387755102,0.6870748299319728,0.6972789115646258,0.7040816326530612,0.7108843537414966,0.717687074829932,0.717687074829932,0.7210884353741497,0.7210884353741497,0.7210884353741497,0.7244897959183674,0.7244897959183674,0.7244897959183674,0.7244897959183674,0.7244897959183674,0.7244897959183674,0.7244897959183674,0.7244897959183674,0.7244897959183674,0.7244897959183674,0.7244897959183674,0.7244897959183674,0.7244897959183674,0.7244897959183674,0.7244897959183674,0.7244897959183674,0.7244897959183674,0.7244897959183674,0.7244897959183674,0.7244897959183674,0.7244897959183674,0.7244897959183674,0.7244897959183674,0.7244897959183674,0.7244897959183674,0.7244897959183674,0.7244897959183674,0.7244897959183674,0.7244897959183674,0.7244897959183674,0.7244897959183674,0.7244897959183674,0.7244897959183674,0.7244897959183674,0.7244897959183674,0.7244897959183674,0.7210884353741497,0.7142857142857143,0.6904761904761905,0.6700680272108843,0.6462585034013606,0.6224489795918368,0.6054421768707483,0.5918367346938775,0.5816326530612245,0.5748299319727891,0.5714285714285714,0.5714285714285714,0.5714285714285714,0.5714285714285714,0.5714285714285714,0.5714285714285714,0.5714285714285714,0.5714285714285714,0.5714285714285714,0.5714285714285714,0.5714285714285714,0.5714285714285714,0.5714285714285714,0.5714285714285714,0.5714285714285714,0.5714285714285714,0.5714285714285714,0.5714285714285714,0.5714285714285714,0.5714285714285714,0.5714285714285714,0.5714285714285714,0.5714285714285714,0.5714285714285714,0.564625850340136,0.5510204081632653,0.5340136054421769,0.5238095238095238,0.5136054421768708,0.5102040816326531,0.5102040816326531,0.5102040816326531,0.5102040816326531,0.5068027210884354,0.5,0.48639455782312924,0.46598639455782315,0.4523809523809524,0.4387755102040816,0.42857142857142855,0.42857142857142855,0.42857142857142855,0.42857142857142855,0.42857142857142855,0.42857142857142855,0.42857142857142855,0.42857142857142855,0.42857142857142855,0.42857142857142855,0.42857142857142855,0.42857142857142855,0.42857142857142855,0.42857142857142855,0.42857142857142855,0.42857142857142855,0.42857142857142855,0.42857142857142855,0.42857142857142855,0.42857142857142855,0.42857142857142855,0.42857142857142855,0.42857142857142855,0.42857142857142855,0.42857142857142855,0.42857142857142855,0.42857142857142855,0.42857142857142855,0.42517006802721086,0.40816326530612246,0.3843537414965986,0.35714285714285715,0.336734693877551,0.30952380952380953,0.30272108843537415,0.29591836734693877,0.2925170068027211,0.2925170068027211,0.2925170068027211,0.2925170068027211,0.2925170068027211,0.2925170068027211,0.2925170068027211,0.2925170068027211,0.2925170068027211,0.2925170068027211,0.2925170068027211,0.2925170068027211,0.2925170068027211,0.2925170068027211,0.2925170068027211,0.2925170068027211,0.2925170068027211,0.2925170068027211,0.2925170068027211,0.2925170068027211,0.2925170068027211,0.2925170068027211,0.2925170068027211,0.2925170068027211,0.2925170068027211,0.2925170068027211,0.2925170068027211,0.2925170068027211,0.2925170068027211,0.2925170068027211,0.2925170068027211,0.2925170068027211,0.2925170068027211,0.30952380952380953,0.3435374149659864,0.46938775510204084,0.5850340136054422,0.7074829931972789,0.8095238095238095,0.8741496598639455,0.9421768707482994,0.9897959183673469,1.0272108843537415,1.0442176870748299,1.0612244897959184,1.0748299319727892,1.08843537414966,1.0952380952380953,1.098639455782313,1.1020408163265305,1.1020408163265305,1.1054421768707483,1.1054421768707483,1.1088435374149659,1.1122448979591837,1.119047619047619,1.119047619047619,1.1224489795918366,1.1224489795918366,1.1258503401360545,1.1258503401360545,1.1258503401360545,1.1258503401360545,1.1258503401360545,1.1258503401360545,1.1258503401360545,1.129251700680272,1.1360544217687074,1.1394557823129252,1.1428571428571428,1.1462585034013606,1.1462585034013606,1.1496598639455782,1.1496598639455782,1.1496598639455782,1.1496598639455782,1.1496598639455782,1.1496598639455782,1.1496598639455782,1.1496598639455782,1.1496598639455782,1.1496598639455782,1.1496598639455782,1.1496598639455782,1.1496598639455782,1.1496598639455782,1.1496598639455782,1.1496598639455782,1.1496598639455782,1.1496598639455782,1.1496598639455782,1.1496598639455782,1.1496598639455782,1.1496598639455782,1.1496598639455782,1.1496598639455782,1.1496598639455782,1.1496598639455782,1.1496598639455782,1.1496598639455782,1.1496598639455782,1.1496598639455782,1.1496598639455782,1.1496598639455782,1.1496598639455782,1.1496598639455782,1.1496598639455782,1.1496598639455782,1.1496598639455782,1.1496598639455782,1.1496598639455782,1.1428571428571428,1.1326530612244898,1.1258503401360545,1.1054421768707483,1.0850340136054422,1.054421768707483,1.0170068027210883,0.9387755102040817,0.8571428571428571,0.7925170068027211,0.717687074829932,0.6530612244897959,0.5986394557823129,0.5680272108843537,0.5544217687074829,0.5340136054421769,0.5204081632653061,0.5068027210884354,0.5,0.5,0.5,0.5,0.5,0.5,0.5,0.5,0.5,0.5,0.5,0.5,0.5,0.5,0.5,0.5,0.5,0.5,0.5102040816326531,0.5272108843537415,0.5272108843537415,0.5272108843537415,0.5136054421768708,0.48639455782312924,0.4421768707482993,0.391156462585034,0.336734693877551,0.3299319727891156,0.30272108843537415,0.29931972789115646,0.29591836734693877,0.29591836734693877,0.2925170068027211,0.2891156462585034,0.2857142857142857,0.2789115646258503,0.2687074829931973,0.2653061224489796,0.25510204081632654,0.25510204081632654,0.25170068027210885,0.25170068027210885,0.25170068027210885,0.25170068027210885,0.25170068027210885,0.25170068027210885,0.25170068027210885,0.24829931972789115,0.24829931972789115,0.24829931972789115,0.24829931972789115,0.24829931972789115,0.24829931972789115,0.24829931972789115,0.24829931972789115,0.24829931972789115,0.24829931972789115,0.24829931972789115,0.24829931972789115,0.24829931972789115,0.24829931972789115,0.24829931972789115,0.24829931972789115,0.24829931972789115,0.24829931972789115,0.24829931972789115,0.24829931972789115,0.24829931972789115,0.24829931972789115,0.24829931972789115,0.24829931972789115,0.24829931972789115,0.24829931972789115,0.24829931972789115,0.24829931972789115,0.24829931972789115,0.24829931972789115,0.24829931972789115,0.24829931972789115,0.24829931972789115,0.24829931972789115,0.24829931972789115,0.24829931972789115,0.24829931972789115,0.24829931972789115,0.24829931972789115,0.24829931972789115,0.24829931972789115,0.24829931972789115,0.24489795918367346,0.24489795918367346,0.24149659863945577,0.24149659863945577,0.24149659863945577,0.23809523809523808,0.23809523809523808,0.23809523809523808,0.23469387755102042,0.23469387755102042,0.23469387755102042,0.23469387755102042,0.23469387755102042,0.23469387755102042,0.23469387755102042,0.23469387755102042,0.23469387755102042,0.23469387755102042,0.23469387755102042,0.23469387755102042,0.23469387755102042,0.23469387755102042,0.23469387755102042,0.23469387755102042,0.23469387755102042,0.23469387755102042,0.23469387755102042,0.23469387755102042,0.234693