[{"success":true,"trial_type":"fullscreen","trial_index":0,"time_elapsed":2946,"internal_node_id":"0.0-0.0","protocol_sum":"","subject_identifier":410,"subject_sum":[248,128,154,255,77,105,190,206,121,218,190,53,190,12,112,139,137,13,126,175,184,65,241,33,51,6,103,183,125,46,37,144],"subject_pair":205,"STUDY_ID":"66a22c0758a3d5c9d26873c6","PROLIFIC_PID":"66958897614f900eb86ddeed","SESSION_ID":"66a276fbb31653ef01ad866e","practice_instructions":1,"leaderboard_instructions":1,"bonus":1,"reveal_word":false,"self_rating":"2","confidence":"85"},{"view_history":"[{\"page_index\":0,\"viewing_time\":7997.0999999996275}]","rt":7997.5,"trial_type":"instructions","trial_index":1,"time_elapsed":10946,"internal_node_id":"0.0-1.0","protocol_sum":"","subject_identifier":410,"subject_sum":[248,128,154,255,77,105,190,206,121,218,190,53,190,12,112,139,137,13,126,175,184,65,241,33,51,6,103,183,125,46,37,144],"subject_pair":205,"STUDY_ID":"66a22c0758a3d5c9d26873c6","PROLIFIC_PID":"66958897614f900eb86ddeed","SESSION_ID":"66a276fbb31653ef01ad866e","practice_instructions":1,"leaderboard_instructions":1,"bonus":1,"reveal_word":false,"self_rating":"2","confidence":"85"},{"view_history":"[{\"page_index\":0,\"viewing_time\":12796.900000000373}]","rt":12797.099999999627,"trial_type":"instructions","trial_index":2,"time_elapsed":23744,"internal_node_id":"0.0-2.0-0.0","protocol_sum":"","subject_identifier":410,"subject_sum":[248,128,154,255,77,105,190,206,121,218,190,53,190,12,112,139,137,13,126,175,184,65,241,33,51,6,103,183,125,46,37,144],"subject_pair":205,"STUDY_ID":"66a22c0758a3d5c9d26873c6","PROLIFIC_PID":"66958897614f900eb86ddeed","SESSION_ID":"66a276fbb31653ef01ad866e","practice_instructions":1,"leaderboard_instructions":1,"bonus":1,"reveal_word":false,"self_rating":"2","confidence":"85"},{"rt":24548.800000000745,"responses":"{\"Q0\":\"... reveal the word with as <b>few letter guesses</b> as possible\"}","question_order":"[0]","trial_type":"survey-multi-choice","trial_index":3,"time_elapsed":48296,"internal_node_id":"0.0-2.0-1.0","protocol_sum":"","subject_identifier":410,"subject_sum":[248,128,154,255,77,105,190,206,121,218,190,53,190,12,112,139,137,13,126,175,184,65,241,33,51,6,103,183,125,46,37,144],"subject_pair":205,"correct":true,"test_part":"multichoice_nonpretend","STUDY_ID":"66a22c0758a3d5c9d26873c6","PROLIFIC_PID":"66958897614f900eb86ddeed","SESSION_ID":"66a276fbb31653ef01ad866e","practice_instructions":1,"leaderboard_instructions":1,"bonus":1,"reveal_word":false,"self_rating":"2","confidence":"85"},{"view_history":"[{\"page_index\":0,\"viewing_time\":2129.199999999255}]","rt":2129.300000000745,"trial_type":"instructions","trial_index":4,"time_elapsed":50427,"internal_node_id":"0.0-3.0","protocol_sum":"","subject_identifier":410,"subject_sum":[248,128,154,255,77,105,190,206,121,218,190,53,190,12,112,139,137,13,126,175,184,65,241,33,51,6,103,183,125,46,37,144],"subject_pair":205,"STUDY_ID":"66a22c0758a3d5c9d26873c6","PROLIFIC_PID":"66958897614f900eb86ddeed","SESSION_ID":"66a276fbb31653ef01ad866e","practice_instructions":1,"leaderboard_instructions":1,"bonus":1,"reveal_word":false,"self_rating":"2","confidence":"85"},{"word":"ZEBRA","click_log":{"letter":["","N","A","Z","E","B","R"],"t":[0,17559.900000000373,20564.599999999627,45927.09999999963,47617.70000000112,49892,52402.09999999963],"hit":[null,0,1,1,1,1,1],"asked":["","N","NA","NAZ","NAZE","NAZEB","NAZEBR"],"word_state":["_____","_____","____A","Z___A","ZE__A","ZEB_A","ZEBRA"]},"hover_log":{"letter":["?","?","?","?","?","?","?","?","?","?","?","?","?","?","?","?","?","?","?","?","?","?","?","?","J","J","J","J","J","J","J","J","J","J","J","J","J","J","J","J","J","J","J","J","J","J","J","J","J","J","J","J","J","J","J","J","J","J","J","J","J","J","J","J","J","J","J","J","J","J","J","J","J","?","?","?","?","?","?","?","?","?","?","?","?","?","?","?","?","?","?","?","?","?","?","?","?","?","?","?","?","?","?","?","?","?","?","?","?","?","?","?","?","?","?","?","?","?","?","?","?","?","?","?","?","?","?","?","?","?","?","?","?","?","?","?","?","?","?","?","?","?","?","?","?","?","?","?","?","?","?","?","?","?","?","?","?","?","?","?","?","?","?","?","?","?","?","?","?","?","?","?","?","?","?","?","?","?","?","?","?","?","?","?","?","?","?","?","?","?","?","?","?","?","?","?","?","?","?","?","?","?","?","?","?","?","?","?","?","?","?","?","?","?","?","?","?","?","?","?","?","?","?","?","?","?","?","?","?","?","?","?","?","?","?","?","?","?","?","?","?","?","?","?","?","?","?","?","?","?","?","?","?","?","?","?","?","?","?","?","?","?","?","?","?","?","?","?","?","?","?","?","?","?","?","?","?","?","?","?","?","?","?","?","?","?","?","?","?","?","?","?","?","?","?","?","?","?","?","?","?","?","?","?","?","?","?","?","?","?","?","?","?","?","?","?","?","?","?","?","?","?","?","?","?","?","?","?","?","?","?","?","?","?","?","?","?","?","?","?","?","?","?","?","?","?","?","?","?","?","?","?","?","?","?","?","?","?","?","?","?","?","?","?","?","?","?","?","?","?","?","?","?","?","?","?","?","?","?","?","?","?","?","?","?","?","?","?","?","?","?","?","?","?","?","?","?","?","?","?","?","?","?","?","?","?","?","?","?","?","?","?","?","?","?","?","?","?","?","?","?","?","?","?","?","?","?","?","?","?","?","?","?","?","?","?","?","?","?","?","?","?","?","?","?","?","?","?","?","?","?","?","?","?","?","?","?","?","?","?","?","?","?","?","?","?","?","?","?","?","?","?","?","?","?","?","?","?","?","?","?","?","?","?","?","?","?","?","?","?","?","?","?","?","?","?","?","?","?","?","?","?","?","?","?","?","?","?","?","?","?","?","?","?","?","?","?","?","?","?","?","?","?","?","?","?","?","?","?","?","?","?","?","?","?","?","?","?","?","?","?","?","?","?","?","?","?","?","?","?","?","?","?","?","?","?","?","?","?","?","?","?","?","?","?","?","?","?","?","?","?","?","?","?","?","?","?","?","?","?","?","?","?","?","?","?","?","?","?","?","?","?","?","?","?","?","?","?","?","?","?","?","?","?","?","?","?","?","?","?","?","?","?","?","?","?","?","?","?","?","?","?","?","?","?","?","?","?","?","?","?","?","?","?","?","?","?","?","?","?","?","?","?","?","?","?","?","?","?","?","?","?","?","?","?","?","?","?","?","?","?","?","?","?","?","?","?","?","?","?","?","?","?","?","?","?","?","?","?","?","?","?","?","?","?","?","?","?","?","?","?","?","?","?","?","?","?","?","?","?","?","?","?","?","?","?","?","?","?","?","?","?","?","?","?","?","?","?","?","?","?","?","?","?","?","?","?","?","?","?","?","?","?","?","?","?","?","?","?","?","?","?","?","?","?","?","?","?","?","?","?","?","?","?","?","?","?","?","?","?","?","?","?","?","?","?","?","?","?","?","?","?","?","?","?","?","?","?","?","?","?","?","?","?","?","?","?","?","?","?","?","?","?","?","?","?","?","?","?","?","?","?","?","?","?","?","?","?","?","?","?","?","?","?","?","?","?","?","?","?","?","?","?","?","?","?","?","?","?","?","?","?","?","?","?","?","?","?","?","?","?","?","?","?","?","?","?","?","?","?","?","?","?","?","?","?","?","?","?","?","?","?","?","?","?","?","?","?","?","?","?","?","?","?","?","?","?","?","?","?","?","?","?","?","?","?","?","?","?","?","?","?","?","?","?","?","?","?","?","?","?","?","?","?","?","?","?","?","?","?","?","?","?","?","?","?","?","?","?","?","?","?","?","?","?","?","?","?","?","?","?","?","?","?","?","?","?","?","?","?","?","?","?","?","?","?","?","?","?","?","?","?","?","?","?","?","?","?","?","?","?","?","?","?","?","?","?","?","?","?","?","?","?","?","?","?","?","?","?","?","?","?","?","?","?","?","?","?","?","?","?","?","?","?","?","?","?","?","F","F","F","F","F","F","F","F","F","?","?","?","?","?","?","?","?","?","?","?","?","?","?","?","?","?","?","?","?","?","?","N","N","N","N","N","N","N","N","N","N","N","N","N","N","N","N","N","N","N","N","N","N","N","N","N","N","N","N","N","N","N","N","N","N","N","N","N","N","N","N","N","N","N","N","N","N","N","N","N","N","N","N","N","N","N","N","N","N","N","N","N","N","N","?","?","?","?","?","?","?","M","M","M","M","M","M","M","M","M","M","M","M","M","M","M","M","M","?","?","?","?","L","L","L","L","L","?","?","?","K","K","K","?","?","?","?","?","?","?","?","?","?","?","?","?","?","?","?","?","?","?","?","?","?","?","?","?","?","?","?","?","?","?","?","?","?","?","?","?","?","?","?","?","?","?","?","?","?","?","?","?","?","?","?","?","?","?","?","?","?","?","?","?","?","?","?","?","?","?","?","?","?","?","?","?","?","?","?","?","?","A","A","A","A","A","A","A","A","A","A","A","A","A","A","A","A","A","A","A","A","A","A","A","A","A","A","A","A","A","A","A","A","A","A","A","A","?","?","B","?","?","?","?","?","?","?","?","?","?","?","?","?","?","?","?","?","?","?","?","?","?","?","?","?","?","?","?","?","?","?","?","?","?","?","?","?","?","?","?","?","?","?","?","?","?","?","?","?","?","?","?","?","?","?","?","?","?","?","?","?","?","?","?","?","?","?","?","?","?","?","?","?","?","?","?","?","?","?","?","?","?","?","?","?","?","?","?","?","?","?","?","?","?","?","?","?","?","?","?","?","?","?","?","?","?","?","?","?","?","?","?","?","?","?","?","?","?","?","?","?","?","?","?","?","?","?","?","?","?","?","?","?","?","?","?","?","?","?","?","?","?","?","?","?","?","?","?","?","?","?","?","?","?","?","?","?","?","?","?","?","?","?","?","?","?","?","?","?","?","?","?","?","?","?","?","?","?","?","?","?","?","?","?","?","?","?","?","?","?","?","?","?","?","?","?","?","?","?","?","?","?","?","?","?","?","?","?","?","?","?","?","?","?","?","?","?","?","?","?","?","?","?","?","?","?","?","?","?","?","?","?","?","?","?","?","?","?","?","?","?","?","?","?","?","?","?","?","?","?","?","?","?","?","?","?","?","?","?","?","?","?","?","?","?","?","?","?","?","?","?","?","?","?","?","?","?","?","?","?","?","?","?","?","?","?","?","?","?","?","?","?","?","?","?","?","?","?","?","?","?","?","?","?","?","?","?","?","?","?","?","?","?","?","?","?","?","?","?","?","?","?","?","?","?","?","?","?","?","?","?","?","?","?","?","?","?","?","?","?","?","?","?","?","?","?","?","?","?","?","?","?","?","?","?","?","?","?","?","?","?","?","?","?","?","?","?","?","?","?","?","?","?","?","?","?","?","?","?","?","?","?","?","?","?","?","?","?","?","?","?","?","?","?","?","?","?","?","?","?","?","?","?","?","?","?","?","?","?","?","?","?","?","?","?","?","?","?","?","?","?","?","?","?","?","?","?","?","?","?","?","?","?","?","?","?","?","?","?","?","?","?","?","?","?","?","?","?","?","?","?","?","?","?","?","?","?","?","?","?","?","?","?","?","?","?","?","?","?","?","?","?","?","?","?","?","?","?","?","?","?","?","?","?","?","?","?","?","?","?","?","?","?","?","?","?","?","?","?","?","?","?","?","?","?","?","?","?","?","?","?","?","?","?","?","?","?","?","?","?","?","?","?","?","?","?","?","?","?","?","?","?","?","?","?","?","?","?","?","?","?","?","?","?","?","?","?","?","?","?","?","?","?","?","?","?","?","?","?","?","?","?","?","?","?","?","?","?","?","?","?","?","?","?","?","?","?","?","?","?","?","?","?","?","?","?","?","?","?","?","?","?","?","?","?","?","?","?","?","?","?","?","?","?","?","?","?","?","?","?","?","?","?","?","?","?","?","?","?","?","?","?","?","?","?","?","?","?","?","?","?","?","?","?","?","?","?","?","?","?","?","?","?","?","?","?","?","?","?","?","?","?","?","?","?","?","?","?","?","?","?","?","?","?","?","?","?","?","?","?","?","?","?","?","?","?","?","?","?","?","?","?","?","?","?","?","?","?","?","?","?","?","?","?","?","?","?","?","?","?","?","?","?","?","?","?","?","?","?","?","?","?","?","?","?","?","?","?","?","?","?","?","?","?","?","?","?","?","?","?","?","?","?","?","?","?","?","?","?","?","?","?","?","?","?","?","?","?","?","?","?","?","?","?","?","?","?","?","?","?","?","?","?","?","?","?","?","?","?","?","?","?","?","?","?","?","?","?","?","?","?","?","?","?","?","?","?","?","?","?","?","?","?","?","?","?","?","?","?","?","?","?","?","?","?","?","?","?","?","?","?","?","?","?","?","?","?","?","?","?","?","?","?","?","?","?","?","?","?","?","?","?","?","?","?","?","?","?","?","?","?","?","?","?","?","?","?","?","?","?","?","?","?","?","?","?","?","?","?","?","?","?","?","?","?","?","?","?","?","?","?","?","?","?","?","?","?","?","?","?","?","?","?","?","?","?","?","?","?","?","?","?","?","?","?","?","?","?","?","?","?","?","?","?","?","?","?","?","?","?","?","?","?","?","?","?","?","?","?","?","?","?","?","?","?","?","?","?","?","?","?","?","?","?","?","?","?","?","?","?","?","?","?","?","?","?","?","?","?","?","?","?","?","?","?","?","?","?","?","?","?","?","?","?","?","?","?","?","?","?","?","?","?","?","?","?","?","?","?","?","?","?","?","?","?","?","?","?","?","?","?","?","?","?","?","?","?","?","?","?","?","?","?","?","?","?","?","?","?","?","?","?","?","?","?","?","?","?","?","?","?","?","?","?","?","?","?","?","?","?","?","?","?","?","?","?","?","?","?","?","?","?","?","?","?","?","?","?","?","?","?","?","?","?","?","?","?","?","?","?","?","?","?","?","?","?","?","?","?","?","?","?","?","?","?","?","?","?","?","?","?","?","?","?","?","?","?","?","?","?","?","?","?","?","?","?","?","?","?","?","?","?","?","?","?","?","?","?","?","?","?","?","?","?","?","?","?","?","?","?","?","?","?","?","?","?","?","?","?","?","?","?","?","?","?","?","?","?","?","?","?","?","?","?","?","?","?","?","?","?","?","?","?","?","?","?","?","?","?","?","?","?","?","?","?","?","?","?","?","?","?","?","?","?","?","?","?","?","?","?","?","?","?","?","?","?","?","?","?","?","?","?","?","?","?","?","?","?","?","?","?","?","?","?","?","?","?","?","?","?","?","?","?","?","?","?","?","?","?","?","?","?","?","?","?","?","?","?","?","?","?","?","?","?","?","?","?","?","?","?","?","?","?","?","?","?","?","?","?","?","?","?","?","?","?","?","?","?","?","?","?","?","?","?","?","?","?","?","?","?","?","?","?","?","?","?","?","?","?","?","?","?","?","?","?","?","?","?","?","?","?","?","?","?","?","?","?","?","?","?","?","?","?","?","?","?","?","?","?","?","?","?","?","?","?","?","?","?","?","?","?","?","?","?","?","?","?","?","?","?","?","?","?","?","?","?","?","?","?","?","?","?","?","?","?","?","?","?","?","?","?","?","?","?","?","?","?","?","?","?","?","?","?","?","?","?","?","?","?","?","?","?","?","?","?","?","?","?","?","?","?","?","?","?","?","?","?","?","?","?","?","?","?","?","?","?","?","?","?","?","?","?","?","?","?","?","?","?","?","?","?","?","?","?","?","?","?","?","?","?","?","?","?","?","?","?","?","?","?","?","?","?","?","?","?","?","?","?","?","?","?","?","?","?","?","G","G","G","G","G","G","G","G","?","?","P","?","?","?","?","?","?","?","?","?","?","?","?","?","?","?","?","?","?","Y","Y","Y","Y","Y","Y","?","?","?","?","Z","Z","Z","Z","Z","Z","Z","Z","Z","Z","Z","Z","Z","Z","Z","Z","Z","Z","Z","Z","Z","Z","Z","Z","Z","Z","Z","Z","Z","Z","Z","Z","Z","Z","Z","Z","Z","Z","Z","Z","Z","Z","Z","Z","Z","Z","Z","Z","Z","Z","Z","?","Y","Y","?","X","?","?","W","?","V","?","?","?","?","?","?","?","?","?","?","?","?","?","?","?","?","?","?","?","?","?","?","?","C","C","C","C","C","C","C","C","C","C","?","D","D","?","E","E","E","E","E","E","E","E","E","E","E","E","E","E","E","E","E","E","E","E","E","E","E","E","E","E","E","E","E","E","E","E","E","E","E","E","?","?","?","?","?","?","M","M","M","M","M","?","?","?","?","?","?","?","?","?","?","?","?","?","?","?","?","?","?","?","V","V","V","W","W","W","W","W","W","W","W","W","W","?","?","?","?","?","?","?","?","P","P","P","P","P","P","P","P","P","P","P","P","P","P","P","P","P","P","?","?","?","?","?","?","F","F","?","E","?","D","?","?","C","C","C","C","C","C","C","C","C","C","C","C","C","C","C","C","?","?","B","B","B","B","B","B","B","B","B","B","B","B","B","B","B","B","B","B","B","B","B","B","B","B","B","B","B","B","B","B","B","B","B","B","B","B","B","?","?","?","?","K","K","K","K","K","K","K","K","K","?","?","?","?","?","?","?","?","?","?","?","?","?","?","?","?","?","?","?","?","?","?","?","?","?","?","?","?","?","?","?","?","?","?","?","?","?","?","?","N","?","?","O","O","O","O","?","?","?","?","?","?","?","?","?","?","?","?","O","O","?","?","?","?","?","?","?","?","?","?","W","W","W","W","?","X","Y","?","Z","?","?","?","?","?","?","R","R","R","R","R","R","R","R","R","R","R","?","?","?","?","?","?","?","R","R","R","R","R","R","R","R","R","R","R","R","R","R","R","R","R","R","R","R","R","R","R","R","R","R","R","R","R","R","R","R","?","Q","?","?","?","?","?","?","?","W","U","T","?","?","S","S","S","?","?","?","?","?","?","?","?","?","?","?","?","?","?","?","?","?","?","?","?","?","?","?","?","?","?","?","?","?","?","?","?","?","?","?","?","?","?","?","?","?","?","?","?","?","?","?","?","?","?","?","?","?","?","?","?","?","?","?","?","?","?","?","?","S","T","T","U","U","V","W","X","X","X","X","X","X","X","X","X","X","X","X","X","X","X","X","X","X","X","X","X","X","X"],"t":[33,42,66,83,99,116,134,151,169,186,202,219,234,250,267,285,302,318,334,350,367,384,401,418,438,450,466,482,499,517,534,551,569,586,602,617,635,650,668,684,699,717,733,750,768,785,802,818,834,851,868,886,900,917,934,951,969,985,1000,1017,1034,1051,1069,1085,1101,1119,1135,1151,1168,1183,1200,1216,1233,1249,1269,1282,1299,1316,1336,1352,1367,1382,1399,1416,1434,1449,1466,1482,1499,1516,1532,1550,1566,1583,1599,1615,1633,1649,1667,1682,1699,1716,1733,1750,1767,1785,1801,1818,1835,1850,1867,1885,1901,1917,1934,1952,1967,1983,1999,2016,2033,2050,2066,2082,2099,2116,2133,2150,2166,2183,2199,2216,2233,2250,2266,2282,2299,2316,2332,2349,2365,2382,2399,2416,2432,2448,2465,2482,2499,2516,2532,2549,2566,2584,2601,2619,2635,2651,2667,2683,2700,2718,2735,2751,2766,2783,2800,2817,2835,2850,2866,2882,2899,2915,2932,2949,2966,2984,3001,3018,3035,3052,3067,3084,3101,3118,3132,3149,3166,3183,3200,3216,3233,3250,3267,3284,3299,3316,3333,3350,3367,3384,3401,3417,3433,3451,3467,3485,3501,3518,3533,3549,3565,3582,3599,3616,3633,3651,3666,3683,3701,3718,3735,3751,3767,3784,3800,3817,3834,3850,3866,3882,3899,3916,3933,3950,3967,3984,4000,4015,4032,4049,4065,4083,4099,4117,4134,4150,4168,4184,4201,4217,4234,4251,4267,4284,4301,4316,4332,4349,4365,4382,4399,4416,4433,4450,4466,4482,4499,4517,4534,4551,4566,4583,4601,4617,4634,4651,4667,4684,4701,4717,4734,4751,4767,4783,4799,4815,4835,4850,4866,4882,4899,4916,4932,4949,4966,4983,5000,5018,5034,5051,5067,5083,5099,5116,5133,5150,5166,5184,5199,5215,5232,5249,5266,5282,5299,5316,5332,5350,5366,5384,5400,5416,5432,5449,5466,5483,5499,5515,5532,5549,5566,5582,5599,5615,5632,5649,5665,5682,5699,5716,5732,5749,5766,5783,5802,5818,5835,5850,5866,5883,5900,5915,5932,5949,5966,5982,6000,6016,6034,6050,6066,6082,6099,6116,6134,6150,6166,6182,6199,6216,6233,6250,6269,6283,6299,6317,6334,6351,6367,6383,6400,6417,6434,6450,6467,6482,6498,6515,6532,6549,6565,6582,6599,6615,6632,6649,6666,6682,6699,6716,6733,6750,6768,6784,6801,6817,6834,6851,6867,6884,6900,6917,6935,6951,6968,6984,7001,7017,7034,7050,7066,7084,7101,7118,7134,7151,7166,7182,7199,7217,7232,7249,7266,7283,7300,7318,7335,7350,7369,7384,7401,7416,7432,7448,7465,7482,7499,7515,7532,7549,7566,7583,7601,7618,7634,7651,7666,7683,7699,7716,7732,7749,7766,7783,7800,7816,7834,7851,7868,7885,7901,7918,7933,7949,7965,7982,7999,8017,8034,8051,8068,8084,8100,8117,8133,8149,8166,8182,8201,8218,8234,8250,8267,8285,8302,8316,8333,8350,8366,8384,8400,8416,8433,8451,8469,8485,8502,8519,8534,8551,8569,8583,8599,8616,8633,8650,8667,8683,8699,8716,8733,8749,8765,8783,8799,8816,8833,8849,8866,8883,8900,8917,8934,8950,8966,8983,9000,9018,9034,9050,9066,9085,9100,9115,9133,9149,9166,9182,9199,9216,9233,9251,9268,9283,9300,9317,9334,9351,9367,9384,9401,9417,9433,9449,9466,9482,9499,9516,9532,9549,9565,9582,9598,9615,9632,9648,9665,9685,9701,9718,9732,9749,9766,9782,9799,9815,9832,9849,9866,9883,9900,9917,9934,9951,9968,9984,10001,10018,10033,10049,10066,10083,10101,10116,10133,10150,10168,10183,10201,10218,10235,10249,10266,10283,10299,10316,10333,10349,10365,10382,10399,10416,10432,10449,10466,10483,10500,10517,10535,10552,10567,10583,10600,10616,10633,10649,10666,10682,10699,10716,10732,10749,10766,10783,10799,10817,10834,10851,10868,10885,10901,10917,10933,10951,10968,10985,11001,11017,11033,11051,11067,11084,11101,11117,11133,11149,11165,11183,11199,11216,11233,11249,11267,11285,11301,11318,11335,11350,11367,11384,11400,11417,11435,11451,11468,11484,11499,11516,11532,11556,11583,11599,11617,11634,11651,11667,11684,11701,11717,11733,11750,11766,11784,11800,11817,11833,11850,11866,11882,11899,11916,11933,11951,11969,11986,12000,12016,12033,12050,12066,12083,12101,12118,12133,12150,12166,12183,12202,12218,12234,12251,12268,12284,12302,12318,12334,12351,12367,12384,12401,12417,12434,12450,12466,12484,12502,12518,12533,12549,12566,12582,12599,12615,12632,12649,12666,12683,12699,12716,12733,12750,12766,12784,12801,12818,12834,12851,12868,12884,12901,12917,12933,12950,12968,12984,13001,13017,13033,13050,13065,13082,13100,13117,13133,13151,13168,13185,13200,13217,13235,13251,13268,13283,13300,13318,13334,13351,13368,13385,13401,13418,13434,13450,13468,13484,13500,13517,13534,13551,13568,13583,13599,13615,13632,13649,13666,13683,13700,13717,13734,13751,13767,13783,13800,13818,13833,13850,13867,13884,13901,13917,13934,13951,13968,13984,14001,14017,14033,14050,14066,14082,14099,14117,14133,14149,14166,14182,14199,14216,14233,14250,14266,14285,14302,14318,14334,14350,14366,14383,14400,14418,14433,14449,14465,14482,14499,14516,14533,14550,14567,14584,14598,14616,14633,14651,14668,14684,14700,14716,14733,14750,14767,14784,14801,14818,14833,14850,14866,14883,14900,14917,14932,14949,14966,14982,14999,15016,15032,15050,15067,15084,15101,15118,15134,15151,15167,15184,15201,15217,15235,15251,15266,15282,15299,15317,15332,15349,15366,15383,15400,15417,15434,15451,15468,15484,15501,15518,15534,15551,15567,15583,15600,15618,15635,15650,15666,15682,15699,15716,15733,15749,15766,15783,15800,15818,15834,15851,15867,15883,15900,15917,15934,15950,15968,15985,16000,16017,16033,16049,16066,16082,16099,16117,16132,16149,16166,16183,16200,16217,16234,16251,16268,16284,16300,16316,16333,16349,16366,16384,16400,16416,16434,16451,16468,16485,16499,16518,16532,16549,16566,16582,16599,16615,16632,16649,16665,16683,16702,16718,16735,16752,16768,16784,16800,16816,16832,16850,16866,16883,16899,16916,16933,16949,16966,16982,17000,17017,17034,17051,17068,17085,17101,17118,17134,17150,17166,17183,17200,17216,17232,17249,17266,17283,17299,17316,17332,17349,17366,17383,17402,17417,17433,17449,17466,17483,17500,17516,17532,17550,17567,17583,17599,17616,17633,17650,17666,17683,17700,17716,17733,17749,17766,17782,17799,17816,17836,17850,17865,17882,17899,17916,17933,17950,17967,17984,18000,18016,18035,18052,18069,18083,18099,18116,18133,18149,18166,18183,18199,18216,18234,18251,18268,18285,18300,18317,18334,18349,18366,18385,18401,18417,18433,18449,18466,18483,18499,18516,18532,18549,18566,18583,18600,18616,18633,18649,18666,18683,18702,18719,18734,18749,18766,18783,18799,18817,18833,18849,18866,18885,18901,18918,18933,18950,18967,18983,18999,19016,19033,19050,19066,19084,19102,19119,19135,19151,19168,19185,19200,19219,19234,19252,19267,19283,19299,19316,19333,19349,19366,19383,19399,19416,19433,19449,19466,19483,19502,19518,19533,19549,19565,19583,19599,19616,19632,19649,19666,19683,19699,19716,19733,19750,19767,19784,19801,19817,19835,19851,19867,19883,19901,19917,19934,19949,19966,19983,19999,20016,20033,20049,20066,20083,20100,20117,20133,20149,20166,20183,20200,20216,20234,20249,20266,20282,20299,20316,20332,20349,20366,20383,20400,20417,20434,20451,20467,20482,20499,20516,20533,20550,20571,20583,20600,20618,20635,20651,20667,20684,20701,20718,20733,20751,20767,20784,20799,20816,20833,20849,20866,20883,20899,20916,20933,20949,20966,20983,21000,21016,21033,21049,21066,21083,21101,21116,21133,21149,21166,21183,21199,21216,21233,21249,21266,21282,21299,21319,21335,21352,21366,21383,21399,21415,21432,21449,21466,21483,21500,21517,21535,21549,21565,21583,21600,21617,21633,21650,21666,21683,21700,21717,21735,21751,21768,21785,21800,21816,21833,21850,21867,21884,21901,21918,21934,21950,21967,21984,22000,22017,22033,22050,22068,22084,22101,22118,22133,22150,22166,22183,22199,22216,22233,22249,22266,22284,22301,22318,22335,22351,22367,22385,22400,22417,22433,22451,22467,22483,22499,22516,22532,22549,22566,22583,22600,22617,22635,22651,22667,22683,22700,22717,22734,22751,22768,22785,22801,22818,22834,22851,22867,22885,22901,22917,22935,22950,22968,22984,23001,23018,23034,23049,23066,23082,23100,23116,23132,23149,23166,23183,23200,23217,23235,23255,23269,23283,23299,23316,23333,23349,23366,23383,23401,23418,23435,23451,23469,23485,23500,23517,23534,23550,23567,23584,23601,23616,23633,23650,23667,23684,23701,23718,23735,23751,23768,23785,23800,23817,23833,23849,23866,23884,23901,23917,23935,23952,23968,23985,24001,24018,24035,24051,24067,24083,24100,24117,24134,24151,24168,24184,24201,24217,24232,24249,24266,24283,24299,24317,24334,24351,24368,24385,24400,24418,24435,24450,24467,24483,24499,24516,24533,24550,24567,24584,24601,24617,24634,24650,24667,24685,24701,24718,24734,24751,24768,24785,24800,24816,24832,24849,24866,24883,24900,24917,24935,24951,24968,24985,25000,25018,25035,25051,25068,25085,25100,25117,25133,25150,25167,25184,25201,25218,25234,25251,25267,25284,25301,25317,25335,25351,25368,25385,25400,25417,25434,25451,25468,25485,25501,25518,25535,25551,25568,25585,25601,25618,25634,25650,25667,25684,25701,25717,25733,25749,25766,25783,25801,25818,25835,25850,25866,25884,25901,25918,25932,25950,25967,25984,26002,26018,26035,26050,26068,26084,26101,26117,26134,26149,26166,26183,26200,26217,26234,26251,26268,26284,26301,26318,26335,26351,26368,26385,26401,26418,26435,26450,26466,26484,26501,26518,26535,26550,26568,26584,26600,26617,26634,26652,26668,26684,26701,26718,26735,26750,26767,26785,26802,26818,26835,26851,26868,26884,26901,26918,26934,26951,26967,26984,27001,27018,27035,27051,27067,27085,27102,27118,27135,27151,27167,27183,27201,27218,27235,27251,27267,27284,27301,27318,27336,27349,27366,27383,27400,27416,27434,27451,27468,27485,27501,27517,27533,27549,27566,27582,27599,27616,27633,27650,27666,27684,27701,27718,27735,27751,27768,27784,27801,27817,27834,27852,27867,27883,27900,27917,27935,27951,27967,27983,28000,28017,28037,28051,28067,28084,28101,28117,28133,28151,28167,28185,28201,28217,28235,28251,28268,28285,28300,28316,28334,28351,28368,28385,28401,28417,28435,28451,28468,28485,28501,28518,28535,28551,28568,28585,28602,28616,28633,28650,28666,28683,28700,28717,28735,28751,28768,28784,28801,28816,28833,28849,28866,28883,28900,28916,28934,28951,28968,28985,29000,29016,29033,29051,29069,29085,29101,29117,29133,29149,29166,29183,29200,29217,29235,29251,29268,29284,29302,29318,29335,29350,29367,29384,29400,29416,29433,29450,29467,29484,29501,29518,29535,29551,29568,29585,29600,29616,29634,29651,29668,29685,29701,29718,29734,29751,29768,29785,29801,29817,29833,29850,29868,29883,29900,29917,29933,29951,29968,29985,30001,30018,30034,30051,30068,30085,30101,30118,30135,30151,30168,30185,30201,30219,30233,30249,30266,30283,30299,30316,30333,30350,30366,30385,30401,30418,30434,30452,30468,30485,30501,30518,30534,30550,30567,30584,30602,30618,30635,30650,30666,30683,30701,30717,30734,30751,30767,30785,30801,30817,30834,30851,30868,30884,30901,30918,30933,30949,30966,30983,31000,31016,31033,31050,31067,31084,31101,31118,31134,31150,31167,31185,31201,31218,31235,31252,31266,31283,31300,31316,31333,31350,31367,31385,31401,31417,31434,31451,31468,31483,31500,31517,31534,31551,31568,31584,31600,31617,31633,31650,31666,31682,31699,31716,31733,31751,31769,31785,31800,31816,31833,31850,31866,31884,31902,31916,31933,31950,31967,31984,32001,32018,32035,32051,32068,32085,32102,32118,32134,32151,32168,32184,32201,32218,32235,32251,32268,32285,32301,32317,32333,32350,32367,32384,32401,32417,32434,32450,32468,32485,32499,32516,32533,32549,32566,32582,32599,32616,32633,32650,32667,32685,32701,32717,32734,32752,32768,32784,32801,32818,32834,32851,32868,32885,32901,32918,32935,32950,32967,32984,33001,33016,33033,33049,33066,33083,33100,33118,33135,33151,33167,33184,33201,33217,33233,33251,33268,33285,33300,33317,33334,33350,33368,33385,33401,33418,33434,33450,33467,33484,33501,33518,33535,33549,33566,33583,33600,33618,33635,33651,33667,33684,33701,33718,33735,33751,33768,33785,33800,33818,33834,33851,33868,33885,33901,33917,33934,33950,33967,33984,34001,34018,34035,34051,34068,34084,34100,34117,34133,34150,34166,34183,34200,34216,34233,34250,34268,34285,34301,34317,34334,34350,34367,34384,34401,34418,34433,34449,34466,34483,34499,34516,34533,34550,34568,34585,34601,34618,34634,34651,34668,34683,34700,34717,34734,34751,34767,34784,34800,34817,34834,34851,34868,34884,34900,34917,34933,34950,34967,34984,35001,35018,35035,35051,35068,35085,35101,35116,35133,35150,35168,35185,35202,35218,35234,35251,35268,35285,35301,35318,35334,35351,35368,35384,35400,35417,35434,35451,35468,35485,35501,35518,35535,35550,35566,35583,35600,35617,35634,35650,35667,35685,35701,35718,35735,35751,35767,35783,35800,35817,35834,35851,35868,35883,35900,35916,35933,35950,35967,35984,36001,36018,36035,36050,36066,36083,36100,36117,36134,36151,36168,36184,36201,36217,36233,36250,36267,36284,36299,36316,36334,36351,36366,36383,36400,36417,36434,36451,36468,36485,36500,36516,36534,36551,36567,36585,36602,36618,36633,36650,36666,36684,36700,36719,36734,36751,36768,36785,36801,36817,36835,36852,36868,36885,36901,36918,36935,36950,36967,36984,37001,37018,37035,37052,37068,37084,37101,37117,37134,37151,37168,37185,37201,37217,37234,37251,37268,37283,37299,37316,37333,37350,37368,37385,37401,37419,37434,37450,37467,37483,37500,37517,37533,37549,37565,37582,37599,37616,37633,37650,37667,37684,37701,37717,37734,37750,37767,37784,37801,37818,37835,37850,37868,37884,37901,37917,37934,37952,37968,37985,38001,38018,38035,38051,38068,38085,38101,38117,38134,38151,38167,38184,38201,38218,38235,38251,38268,38285,38301,38318,38335,38351,38368,38385,38401,38417,38435,38451,38468,38484,38501,38518,38534,38551,38568,38585,38601,38618,38634,38650,38666,38684,38700,38716,38733,38750,38768,38785,38802,38818,38834,38851,38868,38885,38901,38918,38934,38951,38968,38985,39002,39017,39035,39051,39068,39084,39100,39117,39133,39152,39168,39185,39200,39216,39233,39250,39268,39285,39300,39318,39334,39351,39368,39385,39402,39418,39435,39452,39467,39483,39500,39517,39534,39552,39568,39584,39601,39617,39634,39651,39667,39684,39701,39718,39734,39751,39768,39785,39801,39818,39835,39851,39867,39885,39902,39918,39934,39951,39968,39985,40001,40017,40033,40052,40067,40083,40100,40117,40133,40150,40166,40184,40201,40218,40235,40251,40268,40285,40302,40317,40334,40351,40368,40385,40402,40418,40435,40452,40468,40484,40500,40517,40534,40550,40566,40583,40600,40616,40633,40649,40666,40683,40701,40718,40734,40752,40768,40784,40800,40818,40835,40851,40868,40885,40902,40917,40934,40951,40968,40984,41001,41018,41035,41051,41067,41083,41100,41118,41135,41152,41168,41184,41200,41216,41233,41250,41267,41284,41302,41318,41335,41352,41367,41385,41401,41418,41435,41450,41468,41484,41502,41518,41536,41549,41566,41583,41600,41617,41634,41650,41667,41684,41701,41717,41735,41751,41768,41785,41801,41818,41835,41852,41868,41885,41901,41917,41935,41952,41968,41985,42002,42017,42034,42052,42068,42085,42102,42118,42133,42150,42168,42185,42202,42218,42234,42251,42267,42285,42302,42318,42334,42352,42368,42385,42401,42418,42437,42450,42467,42483,42499,42516,42532,42549,42566,42583,42599,42616,42633,42649,42666,42683,42701,42718,42735,42750,42767,42784,42801,42818,42835,42852,42868,42884,42902,42918,42935,42952,42969,42983,43000,43016,43034,43051,43068,43085,43101,43118,43134,43151,43168,43185,43201,43217,43234,43251,43268,43285,43301,43318,43335,43351,43368,43385,43401,43417,43434,43452,43468,43485,43500,43517,43533,43550,43568,43584,43601,43619,43633,43649,43668,43685,43700,43717,43734,43751,43768,43785,43801,43817,43834,43852,43868,43885,43901,43917,43934,43950,43968,43985,44002,44018,44035,44051,44067,44083,44100,44116,44133,44150,44168,44185,44201,44217,44234,44250,44267,44284,44301,44318,44334,44350,44368,44383,44400,44416,44433,44450,44467,44483,44500,44517,44533,44551,44568,44585,44602,44618,44634,44650,44667,44683,44700,44717,44735,44751,44768,44783,44800,44817,44833,44849,44866,44883,44900,44916,44933,44950,44969,44985,45002,45017,45033,45050,45066,45086,45102,45118,45133,45149,45166,45185,45202,45218,45235,45252,45267,45284,45299,45316,45333,45350,45367,45384,45401,45418,45433,45450,45466,45483,45502,45519,45536,45551,45567,45584,45599,45616,45633,45650,45666,45683,45699,45716,45734,45751,45767,45783,45800,45818,45834,45849,45866,45883,45900,45917,45933,45950,45967,45984,46002,46018,46034,46052,46068,46085,46102,46117,46134,46151,46168,46185,46202,46217,46234,46251,46268,46285,46301,46317,46335,46351,46367,46384,46401,46417,46435,46451,46466,46483,46500,46517,46533,46550,46566,46583,46600,46619,46633,46650,46667,46683,46699,46716,46733,46750,46766,46783,46800,46817,46833,46850,46866,46883,46899,46916,46933,46950,46966,46983,47000,47016,47033,47050,47066,47083,47100,47116,47133,47149,47167,47183,47200,47216,47233,47250,47266,47283,47300,47316,47333,47351,47368,47386,47401,47416,47433,47450,47467,47484,47501,47517,47534,47550,47566,47582,47599,47616,47633,47650,47668,47684,47701,47718,47735,47752,47768,47784,47802,47817,47833,47850,47867,47883,47900,47916,47933,47949,47966,47983,48000,48016,48033,48050,48068,48083,48100,48117,48134,48151,48168,48183,48200,48217,48233,48249,48266,48283,48300,48316,48333,48350,48367,48383,48400,48417,48433,48450,48469,48485,48500,48516,48533,48550,48566,48583,48600,48616,48633,48650,48666,48683,48700,48716,48733,48750,48766,48783,48800,48817,48833,48850,48867,48884,48901,48919,48934,48951,48967,48983,49002,49019,49035,49051,49067,49083,49099,49117,49133,49150,49166,49183,49200,49217,49233,49250,49267,49283,49300,49316,49333,49350,49368,49385,49402,49418,49433,49450,49466,49486,49502,49518,49535,49552,49568,49585,49601,49618,49636,49652,49667,49683,49700,49716,49733,49750,49767,49784,49801,49819,49833,49850,49866,49883,49900,49917,49934,49951,49969,49985,50002,50018,50033,50050,50067,50083,50100,50117,50133,50150,50166,50186,50200,50216,50233,50250,50267,50283,50300,50316,50333,50350,50367,50383,50399,50417,50433,50450,50467,50484,50501,50518,50535,50552,50568,50584,50600,50617,50633,50650,50667,50684,50701,50719,50736,50751,50767,50784,50801,50819,50835,50852,50869,50884,50900,50917,50933,50952,50968,50984,51000,51016,51033,51050,51066,51083,51100,51116,51133,51150,51168,51184,51201,51218,51235,51253,51270,51286,51301,51317,51333,51350,51367,51383,51400,51417,51434,51451,51468,51483,51500,51516,51533,51550,51566,51583,51600,51617,51634,51653,51668,51683,51700,51716,51733,51750,51767,51783,51800,51817,51833,51850,51867,51884,51900,51917,51933,51950,51967,51984,52001,52019,52035,52051,52067,52084,52100,52117,52133,52150,52168,52185,52203,52219,52234,52250,52266,52283,52300,52317,52333,52350,52366,52383,52400,52421,52434,52450,52468,52484,52500,52516,52533,52550,52566,52583,52600,52616,52633,52649,52666,52683,52699,52716,52733,52750,52766,52783,52800,52817,52833,52850,52867,52883,52900,52916,52933,52950,52967,52983,53001,53018,53036,53052,53069,53084,53102,53119,53135,53152,53168,53185,53201,53217,53234,53251,53269,53285,53301,53317,53333,53351,53367,53385,53402,53419,53434,53450,53467,53484,53501,53518,53536,53552,53568,53584,53602,53618,53635,53651,53667,53683,53700,53717,53734,53752,53768,53783,53800,53817,53833,53850,53867,53884,53902,53918,53935,53953,53967,53983,54000,54017,54033,54050,54067,54083,54100,54117,54133,54150,54167,54184,54200,54219,54233,54250,54267,54284,54302,54318,54334,54350,54367,54384,54401,54420],"hit":[null],"x":[-2.0408163265306123,-2.0408163265306123,-2.0408163265306123,-2.0408163265306123,-2.0408163265306123,-2.0408163265306123,-2.0408163265306123,-2.0408163265306123,-2.0408163265306123,-2.0408163265306123,-2.0408163265306123,-2.0408163265306123,-2.0408163265306123,-2.0408163265306123,-2.0408163265306123,-2.0408163265306123,-2.0408163265306123,-2.0408163265306123,-2.0408163265306123,-2.0408163265306123,-2.0408163265306123,-2.0408163265306123,-2.0408163265306123,-2.0408163265306123,0.017006802721088437,0.013605442176870748,0.013605442176870748,0.013605442176870748,0.013605442176870748,0.013605442176870748,0.01020408163265306,0.006802721088435374,0.006802721088435374,0.006802721088435374,0.003401360544217687,0.003401360544217687,0.003401360544217687,0.003401360544217687,0.003401360544217687,0.003401360544217687,0.003401360544217687,0.003401360544217687,0.003401360544217687,0.003401360544217687,0.003401360544217687,0.003401360544217687,0.003401360544217687,0.003401360544217687,0.003401360544217687,0,0,0,0,0,0,0,0,0,0,0,0,0,0,0,0,0,0,0,0,0,-0.013605442176870748,-0.027210884353741496,-0.047619047619047616,-0.06802721088435375,-0.10204081632653061,-0.12244897959183673,-0.14285714285714285,-0.15306122448979592,-0.16326530612244897,-0.17346938775510204,-0.19387755102040816,-0.21768707482993196,-0.25170068027210885,-0.282312925170068,-0.3299319727891156,-0.3401360544217687,-0.3673469387755102,-0.391156462585034,-0.40816326530612246,-0.41836734693877553,-0.4217687074829932,-0.4217687074829932,-0.4217687074829932,-0.40816326530612246,-0.38095238095238093,-0.3231292517006803,-0.2925170068027211,-0.25510204081632654,-0.23809523809523808,-0.23129251700680273,-0.23129251700680273,-0.23129251700680273,-0.23129251700680273,-0.23129251700680273,-0.23129251700680273,-0.23129251700680273,-0.23129251700680273,-0.23129251700680273,-0.23129251700680273,-0.23129251700680273,-0.23129251700680273,-0.23129251700680273,-0.23129251700680273,-0.23129251700680273,-0.22448979591836735,-0.21768707482993196,-0.21428571428571427,-0.20748299319727892,-0.20408163265306123,-0.20068027210884354,-0.19387755102040816,-0.19047619047619047,-0.18027210884353742,-0.17346938775510204,-0.17346938775510204,-0.17346938775510204,-0.17006802721088435,-0.16666666666666666,-0.16666666666666666,-0.16666666666666666,-0.16666666666666666,-0.16326530612244897,-0.1598639455782313,-0.1598639455782313,-0.14965986394557823,-0.1292517006802721,-0.10884353741496598,-0.09523809523809523,-0.07142857142857142,-0.061224489795918366,-0.05442176870748299,-0.04081632653061224,-0.027210884353741496,-0.006802721088435374,0.017006802721088437,0.04081632653061224,0.11224489795918367,0.18027210884353742,0.24489795918367346,0.272108843537415,0.272108843537415,0.272108843537415,0.272108843537415,0.272108843537415,0.272108843537415,0.272108843537415,0.272108843537415,0.272108843537415,0.272108843537415,0.272108843537415,0.272108843537415,0.272108843537415,0.272108843537415,0.272108843537415,0.272108843537415,0.272108843537415,0.272108843537415,0.272108843537415,0.272108843537415,0.272108843537415,0.272108843537415,0.272108843537415,0.272108843537415,0.272108843537415,0.272108843537415,0.272108843537415,0.272108843537415,0.272108843537415,0.272108843537415,0.272108843537415,0.272108843537415,0.272108843537415,0.272108843537415,0.272108843537415,0.272108843537415,0.272108843537415,0.272108843537415,0.272108843537415,0.272108843537415,0.272108843537415,0.272108843537415,0.272108843537415,0.272108843537415,0.272108843537415,0.272108843537415,0.272108843537415,0.272108843537415,0.272108843537415,0.272108843537415,0.272108843537415,0.272108843537415,0.272108843537415,0.272108843537415,0.272108843537415,0.272108843537415,0.272108843537415,0.272108843537415,0.272108843537415,0.272108843537415,0.272108843537415,0.272108843537415,0.272108843537415,0.272108843537415,0.272108843537415,0.272108843537415,0.272108843537415,0.272108843537415,0.272108843537415,0.272108843537415,0.272108843537415,0.272108843537415,0.272108843537415,0.272108843537415,0.272108843537415,0.272108843537415,0.272108843537415,0.272108843537415,0.272108843537415,0.272108843537415,0.272108843537415,0.272108843537415,0.272108843537415,0.272108843537415,0.272108843537415,0.272108843537415,0.272108843537415,0.272108843537415,0.272108843537415,0.29931972789115646,0.30612244897959184,0.336734693877551,0.3435374149659864,0.3435374149659864,0.3435374149659864,0.3435374149659864,0.3435374149659864,0.3435374149659864,0.3435374149659864,0.3435374149659864,0.3435374149659864,0.3435374149659864,0.3469387755102041,0.3469387755102041,0.3469387755102041,0.3469387755102041,0.3469387755102041,0.3469387755102041,0.35374149659863946,0.3741496598639456,0.3979591836734694,0.4387755102040816,0.5068027210884354,0.5578231292517006,0.5986394557823129,0.6156462585034014,0.6190476190476191,0.6190476190476191,0.6190476190476191,0.6190476190476191,0.6190476190476191,0.6190476190476191,0.6190476190476191,0.6190476190476191,0.6190476190476191,0.6224489795918368,0.6224489795918368,0.6224489795918368,0.6224489795918368,0.6224489795918368,0.6224489795918368,0.6224489795918368,0.6224489795918368,0.6224489795918368,0.6224489795918368,0.6224489795918368,0.6360544217687075,0.6598639455782312,0.6802721088435374,0.7074829931972789,0.7244897959183674,0.7346938775510204,0.7414965986394558,0.7448979591836735,0.7482993197278912,0.7482993197278912,0.7482993197278912,0.7482993197278912,0.7482993197278912,0.7482993197278912,0.7482993197278912,0.7482993197278912,0.7482993197278912,0.7482993197278912,0.7482993197278912,0.7482993197278912,0.7482993197278912,0.7619047619047619,0.7857142857142857,0.8095238095238095,0.8367346938775511,0.8707482993197279,0.9115646258503401,0.9489795918367347,0.9795918367346939,0.9897959183673469,0.9931972789115646,0.9931972789115646,0.9931972789115646,0.9931972789115646,0.9931972789115646,0.9931972789115646,0.9931972789115646,0.9931972789115646,0.9931972789115646,0.9931972789115646,0.9931972789115646,0.9931972789115646,0.9795918367346939,0.9523809523809523,0.9183673469387755,0.8163265306122449,0.7108843537414966,0.6360544217687075,0.5544217687074829,0.5238095238095238,0.5068027210884354,0.4931972789115646,0.48299319727891155,0.47619047619047616,0.46938775510204084,0.46258503401360546,0.4489795918367347,0.42517006802721086,0.3707482993197279,0.3299319727891156,0.3129251700680272,0.29591836734693877,0.2857142857142857,0.272108843537415,0.2653061224489796,0.2619047619047619,0.2585034013605442,0.2585034013605442,0.2585034013605442,0.2585034013605442,0.2585034013605442,0.25510204081632654,0.25510204081632654,0.25510204081632654,0.25510204081632654,0.25510204081632654,0.25510204081632654,0.25510204081632654,0.25510204081632654,0.25510204081632654,0.25510204081632654,0.25510204081632654,0.25510204081632654,0.25510204081632654,0.25510204081632654,0.25510204081632654,0.25510204081632654,0.2653061224489796,0.2925170068027211,0.3197278911564626,0.41156462585034015,0.46258503401360546,0.46258503401360546,0.46258503401360546,0.46258503401360546,0.46258503401360546,0.46258503401360546,0.46258503401360546,0.46258503401360546,0.46258503401360546,0.46258503401360546,0.4489795918367347,0.42857142857142855,0.40476190476190477,0.3843537414965986,0.3673469387755102,0.35374149659863946,0.32653061224489793,0.30612244897959184,0.2857142857142857,0.272108843537415,0.24829931972789115,0.23809523809523808,0.23129251700680273,0.22789115646258504,0.22448979591836735,0.22448979591836735,0.22448979591836735,0.22448979591836735,0.22448979591836735,0.22448979591836735,0.22448979591836735,0.22448979591836735,0.22448979591836735,0.22448979591836735,0.22448979591836735,0.22448979591836735,0.22448979591836735,0.22448979591836735,0.22448979591836735,0.22448979591836735,0.22448979591836735,0.22448979591836735,0.22448979591836735,0.22448979591836735,0.22448979591836735,0.22448979591836735,0.22448979591836735,0.22448979591836735,0.22448979591836735,0.22448979591836735,0.22448979591836735,0.22448979591836735,0.22448979591836735,0.22448979591836735,0.22448979591836735,0.22448979591836735,0.22448979591836735,0.22448979591836735,0.22448979591836735,0.22448979591836735,0.22448979591836735,0.22448979591836735,0.22789115646258504,0.23809523809523808,0.25170068027210885,0.272108843537415,0.2857142857142857,0.29931972789115646,0.29931972789115646,0.29931972789115646,0.29931972789115646,0.29931972789115646,0.29931972789115646,0.29931972789115646,0.29931972789115646,0.29931972789115646,0.29931972789115646,0.29931972789115646,0.29931972789115646,0.29931972789115646,0.29931972789115646,0.2925170068027211,0.2857142857142857,0.2755102040816326,0.2687074829931973,0.2619047619047619,0.2619047619047619,0.2619047619047619,0.2619047619047619,0.2619047619047619,0.2619047619047619,0.2585034013605442,0.2585034013605442,0.2585034013605442,0.2585034013605442,0.2585034013605442,0.2585034013605442,0.272108843537415,0.29931972789115646,0.3435374149659864,0.42517006802721086,0.4489795918367347,0.4489795918367347,0.4489795918367347,0.4489795918367347,0.4421768707482993,0.41836734693877553,0.3877551020408163,0.32653061224489793,0.2857142857142857,0.23129251700680273,0.21768707482993196,0.2108843537414966,0.2108843537414966,0.2108843537414966,0.2108843537414966,0.2108843537414966,0.2108843537414966,0.2108843537414966,0.2108843537414966,0.2108843537414966,0.2108843537414966,0.2108843537414966,0.2108843537414966,0.2108843537414966,0.21428571428571427,0.23129251700680273,0.2585034013605442,0.2585034013605442,0.2619047619047619,0.2619047619047619,0.2619047619047619,0.2619047619047619,0.2619047619047619,0.2619047619047619,0.2619047619047619,0.2619047619047619,0.2619047619047619,0.2619047619047619,0.2619047619047619,0.2619047619047619,0.2619047619047619,0.2619047619047619,0.2619047619047619,0.2619047619047619,0.2619047619047619,0.2755102040816326,0.2891156462585034,0.3129251700680272,0.35034013605442177,0.38095238095238093,0.3979591836734694,0.4013605442176871,0.4013605442176871,0.4013605442176871,0.4013605442176871,0.4013605442176871,0.4013605442176871,0.4013605442176871,0.4013605442176871,0.4013605442176871,0.4013605442176871,0.4013605442176871,0.4013605442176871,0.4013605442176871,0.40476190476190477,0.41496598639455784,0.43197278911564624,0.4557823129251701,0.4931972789115646,0.5136054421768708,0.5204081632653061,0.5272108843537415,0.5272108843537415,0.5272108843537415,0.5272108843537415,0.5272108843537415,0.5272108843537415,0.5272108843537415,0.5272108843537415,0.5272108843537415,0.5272108843537415,0.5272108843537415,0.5272108843537415,0.5272108843537415,0.5272108843537415,0.5272108843537415,0.5306122448979592,0.564625850340136,0.6122448979591837,0.6768707482993197,0.7482993197278912,0.8129251700680272,0.8571428571428571,0.8843537414965986,0.8843537414965986,0.8843537414965986,0.8843537414965986,0.8843537414965986,0.8843537414965986,0.8843537414965986,0.8843537414965986,0.8843537414965986,0.8843537414965986,0.8843537414965986,0.8843537414965986,0.8775510204081632,0.8639455782312925,0.8435374149659864,0.8299319727891157,0.8163265306122449,0.7993197278911565,0.7959183673469388,0.7959183673469388,0.7925170068027211,0.7925170068027211,0.7925170068027211,0.7925170068027211,0.7925170068027211,0.7925170068027211,0.7925170068027211,0.7925170068027211,0.7925170068027211,0.7925170068027211,0.8027210884353742,0.8197278911564626,0.8503401360544217,0.8809523809523809,0.9081632653061225,0.9149659863945578,0.9149659863945578,0.9149659863945578,0.9149659863945578,0.9149659863945578,0.9149659863945578,0.9149659863945578,0.9149659863945578,0.9149659863945578,0.9115646258503401,0.8639455782312925,0.7789115646258503,0.6802721088435374,0.5408163265306123,0.35034013605442177,0.282312925170068,0.21428571428571427,0.17687074829931973,0.1564625850340136,0.14285714285714285,0.14285714285714285,0.14285714285714285,0.14285714285714285,0.14285714285714285,0.14285714285714285,0.14285714285714285,0.13945578231292516,0.13945578231292516,0.13945578231292516,0.13945578231292516,0.14285714285714285,0.14965986394557823,0.16326530612244897,0.17346938775510204,0.18027210884353742,0.18027210884353742,0.1870748299319728,0.1870748299319728,0.1870748299319728,0.1870748299319728,0.1870748299319728,0.1870748299319728,0.1870748299319728,0.1870748299319728,0.1870748299319728,0.1870748299319728,0.1870748299319728,0.1870748299319728,0.1870748299319728,0.1870748299319728,0.1870748299319728,0.1870748299319728,0.1870748299319728,0.1870748299319728,0.1870748299319728,0.1870748299319728,0.1870748299319728,0.1870748299319728,0.1870748299319728,0.1870748299319728,0.1870748299319728,0.1870748299319728,0.1870748299319728,0.1870748299319728,0.1870748299319728,0.1870748299319728,0.1870748299319728,0.1870748299319728,0.1870748299319728,0.1870748299319728,0.1870748299319728,0.1870748299319728,0.1870748299319728,0.1870748299319728,0.1870748299319728,0.1870748299319728,0.1870748299319728,0.1870748299319728,0.1870748299319728,0.1870748299319728,0.1870748299319728,0.19047619047619047,0.19387755102040816,0.19387755102040816,0.19387755102040816,0.19387755102040816,0.19727891156462585,0.19727891156462585,0.19727891156462585,0.19727891156462585,0.19727891156462585,0.19727891156462585,0.19727891156462585,0.19727891156462585,0.19727891156462585,0.19727891156462585,0.19727891156462585,0.19727891156462585,0.19727891156462585,0.19727891156462585,0.19727891156462585,0.19727891156462585,0.19727891156462585,0.19727891156462585,0.19727891156462585,0.19727891156462585,0.19727891156462585,0.19727891156462585,0.19727891156462585,0.19727891156462585,0.19727891156462585,0.20068027210884354,0.20068027210884354,0.20068027210884354,0.20068027210884354,0.20068027210884354,0.20408163265306123,0.20408163265306123,0.20408163265306123,0.20408163265306123,0.20408163265306123,0.20748299319727892,0.20748299319727892,0.20748299319727892,0.2108843537414966,0.2108843537414966,0.2108843537414966,0.2108843537414966,0.2108843537414966,0.2108843537414966,0.2108843537414966,0.2108843537414966,0.2108843537414966,0.2108843537414966,0.2108843537414966,0.2108843537414966,0.2108843537414966,0.2108843537414966,0.2108843537414966,0.2108843537414966,0.2108843537414966,0.2108843537414966,0.21428571428571427,0.21428571428571427,0.21428571428571427,0.21428571428571427,0.21768707482993196,0.21768707482993196,0.21768707482993196,0.21768707482993196,0.21768707482993196,0.21768707482993196,0.21768707482993196,0.21768707482993196,0.21768707482993196,0.21768707482993196,0.21768707482993196,0.21768707482993196,0.21768707482993196,0.21768707482993196,0.21768707482993196,0.21768707482993196,0.21768707482993196,0.21768707482993196,0.21768707482993196,0.21768707482993196,0.21768707482993196,0.21768707482993196,0.21768707482993196,0.21768707482993196,0.22108843537414966,0.22108843537414966,0.22108843537414966,0.22108843537414966,0.22108843537414966,0.22448979591836735,0.22448979591836735,0.22448979591836735,0.22448979591836735,0.22448979591836735,0.22448979591836735,0.22448979591836735,0.22448979591836735,0.22448979591836735,0.22448979591836735,0.22448979591836735,0.22448979591836735,0.22448979591836735,0.22448979591836735,0.22448979591836735,0.22448979591836735,0.22448979591836735,0.22448979591836735,0.22448979591836735,0.22448979591836735,0.22448979591836735,0.22448979591836735,0.22448979591836735,0.22448979591836735,0.22448979591836735,0.22448979591836735,0.22448979591836735,0.22448979591836735,0.22448979591836735,0.22448979591836735,0.22448979591836735,0.22448979591836735,0.22448979591836735,0.22448979591836735,0.22448979591836735,0.22448979591836735,0.22448979591836735,0.22448979591836735,0.22448979591836735,0.22448979591836735,0.22448979591836735,0.22448979591836735,0.22448979591836735,0.22448979591836735,0.22448979591836735,0.22448979591836735,0.22448979591836735,0.22448979591836735,0.22448979591836735,0.22448979591836735,0.22448979591836735,0.22448979591836735,0.22448979591836735,0.22448979591836735,0.22448979591836735,0.22448979591836735,0.22448979591836735,0.22448979591836735,0.22448979591836735,0.22448979591836735,0.22448979591836735,0.22448979591836735,0.22448979591836735,0.22448979591836735,0.22448979591836735,0.22448979591836735,0.22448979591836735,0.22448979591836735,0.22448979591836735,0.22448979591836735,0.22448979591836735,0.22448979591836735,0.22448979591836735,0.22789115646258504,0.23809523809523808,0.24489795918367346,0.24829931972789115,0.25170068027210885,0.25510204081632654,0.25510204081632654,0.25510204081632654,0.25510204081632654,0.25510204081632654,0.25510204081632654,0.25510204081632654,0.25510204081632654,0.25510204081632654,0.25510204081632654,0.25510204081632654,0.25510204081632654,0.25510204081632654,0.25510204081632654,0.25510204081632654,0.25510204081632654,0.25510204081632654,0.25510204081632654,0.25510204081632654,0.25510204081632654,0.25510204081632654,0.25510204081632654,0.25510204081632654,0.25510204081632654,0.25510204081632654,0.25510204081632654,0.25510204081632654,0.25510204081632654,0.25510204081632654,0.25510204081632654,0.25510204081632654,0.25510204081632654,0.25510204081632654,0.2585034013605442,0.2857142857142857,0.3231292517006803,0.336734693877551,0.35034013605442177,0.35374149659863946,0.35374149659863946,0.35374149659863946,0.35374149659863946,0.35374149659863946,0.35374149659863946,0.35374149659863946,0.35374149659863946,0.35374149659863946,0.35374149659863946,0.35374149659863946,0.35374149659863946,0.35374149659863946,0.35374149659863946,0.36054421768707484,0.3945578231292517,0.42517006802721086,0.46258503401360546,0.5034013605442177,0.5340136054421769,0.5510204081632653,0.5578231292517006,0.5578231292517006,0.5578231292517006,0.5578231292517006,0.5578231292517006,0.5578231292517006,0.5578231292517006,0.5578231292517006,0.5578231292517006,0.5578231292517006,0.5578231292517006,0.5578231292517006,0.5578231292517006,0.5578231292517006,0.5578231292517006,0.5578231292517006,0.5578231292517006,0.5680272108843537,0.5748299319727891,0.5748299319727891,0.5748299319727891,0.5952380952380952,0.6122448979591837,0.6224489795918368,0.6258503401360545,0.6360544217687075,0.6360544217687075,0.6360544217687075,0.6360544217687075,0.6360544217687075,0.6360544217687075,0.6360544217687075,0.6360544217687075,0.6360544217687075,0.6360544217687075,0.6360544217687075,0.6360544217687075,0.6360544217687075,0.6394557823129252,0.6496598639455783,0.6666666666666666,0.6972789115646258,0.7414965986394558,0.8129251700680272,0.8503401360544217,0.8741496598639455,0.891156462585034,0.891156462585034,0.8945578231292517,0.8945578231292517,0.8945578231292517,0.8945578231292517,0.8945578231292517,0.8945578231292517,0.8945578231292517,0.8945578231292517,0.8945578231292517,0.8945578231292517,0.8945578231292517,0.8945578231292517,0.8945578231292517,0.8945578231292517,0.8945578231292517,0.8945578231292517,0.8945578231292517,0.8945578231292517,0.8945578231292517,0.891156462585034,0.8843537414965986,0.8673469387755102,0.8469387755102041,0.8367346938775511,0.8231292517006803,0.7993197278911565,0.7891156462585034,0.7619047619047619,0.7517006802721088,0.7448979591836735,0.7380952380952381,0.7346938775510204,0.7278911564625851,0.7210884353741497,0.7210884353741497,0.7210884353741497,0.7210884353741497,0.7210884353741497,0.7210884353741497,0.7210884353741497,0.7210884353741497,0.7210884353741497,0.7210884353741497,0.7210884353741497,0.7074829931972789,0.6972789115646258,0.6904761904761905,0.673469387755102,0.6666666666666666,0.6564625850340136,0.6564625850340136,0.6564625850340136,0.6564625850340136,0.6564625850340136,0.6564625850340136,0.6564625850340136,0.6598639455782312,0.6598639455782312,0.6598639455782312,0.6598639455782312,0.6598639455782312,0.6530612244897959,0.6428571428571429,0.6360544217687075,0.6258503401360545,0.6224489795918368,0.6156462585034014,0.6122448979591837,0.6054421768707483,0.5986394557823129,0.5952380952380952,0.5816326530612245,0.5714285714285714,0.5714285714285714,0.564625850340136,0.564625850340136,0.5612244897959183,0.5578231292517006,0.5578231292517006,0.5578231292517006,0.5578231292517006,0.5578231292517006,0.5578231292517006,0.5578231292517006,0.5578231292517006,0.5578231292517006,0.5578231292517006,0.5578231292517006,0.5578231292517006,0.5578231292517006,0.5578231292517006,0.5578231292517006,0.5578231292517006,0.5578231292517006,0.5578231292517006,0.5578231292517006,0.5578231292517006,0.5578231292517006,0.5578231292517006,0.5578231292517006,0.5544217687074829,0.5510204081632653,0.54421768707483,0.54421768707483,0.5374149659863946,0.5340136054421769,0.5306122448979592,0.5306122448979592,0.5306122448979592,0.5272108843537415,0.5272108843537415,0.5272108843537415,0.5238095238095238,0.5238095238095238,0.5238095238095238,0.5238095238095238,0.5204081632653061,0.5204081632653061,0.5204081632653061,0.5204081632653061,0.5204081632653061,0.5170068027210885,0.5170068027210885,0.5170068027210885,0.5170068027210885,0.5170068027210885,0.5136054421768708,0.5102040816326531,0.5102040816326531,0.5034013605442177,0.5034013605442177,0.5,0.4931972789115646,0.4897959183673469,0.48299319727891155,0.47619047619047616,0.47619047619047616,0.47278911564625853,0.46258503401360546,0.4557823129251701,0.4387755102040816,0.42517006802721086,0.41496598639455784,0.40816326530612246,0.40476190476190477,0.3979591836734694,0.3979591836734694,0.3945578231292517,0.391156462585034,0.3877551020408163,0.38095238095238093,0.3741496598639456,0.3673469387755102,0.35374149659863946,0.3435374149659864,0.3333333333333333,0.3129251700680272,0.29931972789115646,0.2857142857142857,0.272108843537415,0.23469387755102042,0.20408163265306123,0.1836734693877551,0.1598639455782313,0.14285714285714285,0.13945578231292516,0.1326530612244898,0.1292517006802721,0.12244897959183673,0.11224489795918367,0.1054421768707483,0.09523809523809523,0.09523809523809523,0.09523809523809523,0.09523809523809523,0.09183673469387756,0.09183673469387756,0.09183673469387756,0.09183673469387756,0.08843537414965986,0.08843537414965986,0.08843537414965986,0.08843537414965986,0.08843537414965986,0.08503401360544217,0.08503401360544217,0.08503401360544217,0.08163265306122448,0.08163265306122448,0.08163265306122448,0.08163265306122448,0.08163265306122448,0.08163265306122448,0.08163265306122448,0.08163265306122448,0.0782312925170068,0.0782312925170068,0.07482993197278912,0.06462585034013606,0.05442176870748299,0.04421768707482993,0.04081632653061224,0.030612244897959183,0.027210884353741496,0.027210884353741496,0.027210884353741496,0.027210884353741496,0.027210884353741496,0.03741496598639456,0.04081632653061224,0.047619047619047616,0.05442176870748299,0.05442176870748299,0.05782312925170068,0.061224489795918366,0.06462585034013606,0.06802721088435375,0.06802721088435375,0.06802721088435375,0.06802721088435375,0.06802721088435375,0.06802721088435375,0.06802721088435375,0.06802721088435375,0.06802721088435375,0.06802721088435375,0.06802721088435375,0.06802721088435375,0.06802721088435375,0.06802721088435375,0.06802721088435375,0.05782312925170068,0.04421768707482993,0.04081632653061224,0.04081632653061224,0.04081632653061224,0.04081632653061224,0.04081632653061224,0.04421768707482993,0.047619047619047616,0.047619047619047616,0.047619047619047616,0.047619047619047616,0.03741496598639456,0.027210884353741496,0.013605442176870748,0,-0.006802721088435374,-0.006802721088435374,-0.006802721088435374,-0.006802721088435374,-0.01020408163265306,-0.01020408163265306,-0.013605442176870748,-0.013605442176870748,-0.013605442176870748,-0.013605442176870748,-0.013605442176870748,-0.013605442176870748,-0.013605442176870748,-0.013605442176870748,-0.013605442176870748,-0.013605442176870748,-0.013605442176870748,-0.013605442176870748,-0.013605442176870748,-0.013605442176870748,-0.013605442176870748,-0.013605442176870748,-0.013605442176870748,-0.013605442176870748,-0.013605442176870748,-0.013605442176870748,-0.013605442176870748,-0.013605442176870748,-0.013605442176870748,-0.013605442176870748,-0.003401360544217687,0.003401360544217687,0.027210884353741496,0.05102040816326531,0.08163265306122448,0.14625850340136054,0.19047619047619047,0.282312925170068,0.3299319727891156,0.4013605442176871,0.4489795918367347,0.47619047619047616,0.4965986394557823,0.5102040816326531,0.5204081632653061,0.5272108843537415,0.5306122448979592,0.5306122448979592,0.5306122448979592,0.5306122448979592,0.5306122448979592,0.5340136054421769,0.5340136054421769,0.5374149659863946,0.5374149659863946,0.5408163265306123,0.54421768707483,0.5476190476190477,0.5544217687074829,0.5578231292517006,0.5578231292517006,0.5782312925170068,0.5884353741496599,0.608843537414966,0.6224489795918368,0.6428571428571429,0.6598639455782312,0.6666666666666666,0.6700680272108843,0.6768707482993197,0.6802721088435374,0.6802721088435374,0.6802721088435374,0.6802721088435374,0.6802721088435374,0.6802721088435374,0.6802721088435374,0.6802721088435374,0.6802721088435374,0.6802721088435374,0.6802721088435374,0.6802721088435374,0.6802721088435374,0.6802721088435374,0.6802721088435374,0.6802721088435374,0.6802721088435374,0.6802721088435374,0.6802721088435374,0.6802721088435374,0.6802721088435374,0.6802721088435374,0.6802721088435374,0.6802721088435374,0.6802721088435374,0.6802721088435374,0.6802721088435374,0.6802721088435374,0.6802721088435374,0.6802721088435374,0.6802721088435374,0.6802721088435374,0.6802721088435374,0.6802721088435374,0.6802721088435374,0.6802721088435374,0.6802721088435374,0.6802721088435374,0.6802721088435374,0.6802721088435374,0.6802721088435374,0.6802721088435374,0.6802721088435374,0.6802721088435374,0.6802721088435374,0.6802721088435374,0.6802721088435374,0.6802721088435374,0.6802721088435374,0.6802721088435374,0.6802721088435374,0.6802721088435374,0.6802721088435374,0.6802721088435374,0.6802721088435374,0.6802721088435374,0.6802721088435374,0.6802721088435374,0.6802721088435374,0.6802721088435374,0.6802721088435374,0.6802721088435374,0.6802721088435374,0.6802721088435374,0.6802721088435374,0.6802721088435374,0.6802721088435374,0.6802721088435374,0.6802721088435374,0.6802721088435374,0.6802721088435374,0.6802721088435374,0.6802721088435374,0.6802721088435374,0.6802721088435374,0.6802721088435374,0.6802721088435374,0.6802721088435374,0.6802721088435374,0.6802721088435374,0.6802721088435374,0.6802721088435374,0.6802721088435374,0.6802721088435374,0.6802721088435374,0.6802721088435374,0.6802721088435374,0.6802721088435374,0.6802721088435374,0.6802721088435374,0.6802721088435374,0.6802721088435374,0.6802721088435374,0.6802721088435374,0.6802721088435374,0.6802721088435374,0.6802721088435374,0.6802721088435374,0.6802721088435374,0.6802721088435374,0.6802721088435374,0.6802721088435374,0.6802721088435374,0.6802721088435374,0.6802721088435374,0.6802721088435374,0.6802721088435374,0.6802721088435374,0.6802721088435374,0.6802721088435374,0.6802721088435374,0.6802721088435374,0.6802721088435374,0.6802721088435374,0.6802721088435374,0.6802721088435374,0.6802721088435374,0.6802721088435374,0.6802721088435374,0.6768707482993197,0.6768707482993197,0.6768707482993197,0.6768707482993197,0.6768707482993197,0.6768707482993197,0.6768707482993197,0.6768707482993197,0.6768707482993197,0.6768707482993197,0.6768707482993197,0.6768707482993197,0.6768707482993197,0.6768707482993197,0.6768707482993197,0.6768707482993197,0.6768707482993197,0.6768707482993197,0.6768707482993197,0.6768707482993197,0.6768707482993197,0.6768707482993197,0.6768707482993197,0.6768707482993197,0.6768707482993197,0.6768707482993197,0.6768707482993197,0.6768707482993197,0.6768707482993197,0.6768707482993197,0.6768707482993197,0.6768707482993197,0.6768707482993197,0.6768707482993197,0.6768707482993197,0.6768707482993197,0.6768707482993197,0.6768707482993197,0.6768707482993197,0.6768707482993197,0.6768707482993197,0.6768707482993197,0.6768707482993197,0.6768707482993197,0.6768707482993197,0.6768707482993197,0.6768707482993197,0.6768707482993197,0.6768707482993197,0.6768707482993197,0.6768707482993197,0.6768707482993197,0.6768707482993197,0.6768707482993197,0.6768707482993197,0.6768707482993197,0.6768707482993197,0.6768707482993197,0.6768707482993197,0.6768707482993197,0.6768707482993197,0.6768707482993197,0.6768707482993197,0.6768707482993197,0.6768707482993197,0.6768707482993197,0.6768707482993197,0.6768707482993197,0.6768707482993197,0.6768707482993197,0.6768707482993197,0.6768707482993197,0.6768707482993197,0.6768707482993197,0.6768707482993197,0.6768707482993197,0.6768707482993197,0.6768707482993197,0.6768707482993197,0.6768707482993197,0.6768707482993197,0.6768707482993197,0.6768707482993197,0.6768707482993197,0.6768707482993197,0.6768707482993197,0.6768707482993197,0.6768707482993197,0.6768707482993197,0.6768707482993197,0.6768707482993197,0.6768707482993197,0.6768707482993197,0.6768707482993197,0.6768707482993197,0.6768707482993197,0.6768707482993197,0.6768707482993197,0.6768707482993197,0.6768707482993197,0.6768707482993197,0.6768707482993197,0.6768707482993197,0.6768707482993197,0.6768707482993197,0.6768707482993197,0.6768707482993197,0.6768707482993197,0.6768707482993197,0.6768707482993197,0.6768707482993197,0.6768707482993197,0.6768707482993197,0.6768707482993197,0.6768707482993197,0.6768707482993197,0.6768707482993197,0.6768707482993197,0.6768707482993197,0.6768707482993197,0.6768707482993197,0.6768707482993197,0.6768707482993197,0.6768707482993197,0.6768707482993197,0.6768707482993197,0.6768707482993197,0.6768707482993197,0.6768707482993197,0.6768707482993197,0.6768707482993197,0.6768707482993197,0.6768707482993197,0.6768707482993197,0.6768707482993197,0.6768707482993197,0.6768707482993197,0.6768707482993197,0.6768707482993197,0.6768707482993197,0.6768707482993197,0.6768707482993197,0.6768707482993197,0.6768707482993197,0.6768707482993197,0.6768707482993197,0.6768707482993197,0.6768707482993197,0.6768707482993197,0.6768707482993197,0.6768707482993197,0.6768707482993197,0.6768707482993197,0.6768707482993197,0.6768707482993197,0.6768707482993197,0.6768707482993197,0.6768707482993197,0.6768707482993197,0.6768707482993197,0.6768707482993197,0.6768707482993197,0.6768707482993197,0.6768707482993197,0.6768707482993197,0.6768707482993197,0.6768707482993197,0.6768707482993197,0.6768707482993197,0.6768707482993197,0.6768707482993197,0.6768707482993197,0.6768707482993197,0.6768707482993197,0.6768707482993197,0.6768707482993197,0.6768707482993197,0.6768707482993197,0.6768707482993197,0.6768707482993197,0.6768707482993197,0.6768707482993197,0.6768707482993197,0.6768707482993197,0.6768707482993197,0.6768707482993197,0.6768707482993197,0.6768707482993197,0.6768707482993197,0.6768707482993197,0.6768707482993197,0.6768707482993197,0.6768707482993197,0.6768707482993197,0.6768707482993197,0.6768707482993197,0.6768707482993197,0.6768707482993197,0.6768707482993197,0.6768707482993197,0.6768707482993197,0.6768707482993197,0.6768707482993197,0.6768707482993197,0.6768707482993197,0.6768707482993197,0.6768707482993197,0.6768707482993197,0.6768707482993197,0.6768707482993197,0.6768707482993197,0.6768707482993197,0.6768707482993197,0.6768707482993197,0.6768707482993197,0.6768707482993197,0.6768707482993197,0.6768707482993197,0.6768707482993197,0.6768707482993197,0.6768707482993197,0.6768707482993197,0.6768707482993197,0.6768707482993197,0.6768707482993197,0.6768707482993197,0.6768707482993197,0.6768707482993197,0.6768707482993197,0.6768707482993197,0.6768707482993197,0.6768707482993197,0.6768707482993197,0.6768707482993197,0.6768707482993197,0.6768707482993197,0.6768707482993197,0.6768707482993197,0.6768707482993197,0.6768707482993197,0.6768707482993197,0.6768707482993197,0.6768707482993197,0.6768707482993197,0.6768707482993197,0.6768707482993197,0.6768707482993197,0.6768707482993197,0.6768707482993197,0.6768707482993197,0.6768707482993197,0.6768707482993197,0.6768707482993197,0.6768707482993197,0.6768707482993197,0.6768707482993197,0.6768707482993197,0.6768707482993197,0.6768707482993197,0.6768707482993197,0.6768707482993197,0.6768707482993197,0.6768707482993197,0.6768707482993197,0.6768707482993197,0.6768707482993197,0.6768707482993197,0.6768707482993197,0.6768707482993197,0.6768707482993197,0.6768707482993197,0.6768707482993197,0.6768707482993197,0.6768707482993197,0.6768707482993197,0.6768707482993197,0.6768707482993197,0.6768707482993197,0.6768707482993197,0.6768707482993197,0.6768707482993197,0.6768707482993197,0.6768707482993197,0.6768707482993197,0.6768707482993197,0.6768707482993197,0.6768707482993197,0.6768707482993197,0.6768707482993197,0.6768707482993197,0.6768707482993197,0.6768707482993197,0.6768707482993197,0.6768707482993197,0.6768707482993197,0.6768707482993197,0.6768707482993197,0.6768707482993197,0.6768707482993197,0.6768707482993197,0.6768707482993197,0.6768707482993197,0.6768707482993197,0.6768707482993197,0.6768707482993197,0.6768707482993197,0.6768707482993197,0.6768707482993197,0.6768707482993197,0.6768707482993197,0.6768707482993197,0.6768707482993197,0.6768707482993197,0.6768707482993197,0.6768707482993197,0.6768707482993197,0.6768707482993197,0.6768707482993197,0.6768707482993197,0.6768707482993197,0.6768707482993197,0.6768707482993197,0.6768707482993197,0.6768707482993197,0.6768707482993197,0.6768707482993197,0.6768707482993197,0.6768707482993197,0.6768707482993197,0.6768707482993197,0.6768707482993197,0.6768707482993197,0.6768707482993197,0.6768707482993197,0.6768707482993197,0.6768707482993197,0.6768707482993197,0.6768707482993197,0.6768707482993197,0.6768707482993197,0.6768707482993197,0.6768707482993197,0.6768707482993197,0.6768707482993197,0.6768707482993197,0.6768707482993197,0.6768707482993197,0.6768707482993197,0.6768707482993197,0.6768707482993197,0.6768707482993197,0.6768707482993197,0.6768707482993197,0.6768707482993197,0.6768707482993197,0.6768707482993197,0.6768707482993197,0.6768707482993197,0.6768707482993197,0.6768707482993197,0.6768707482993197,0.6768707482993197,0.6768707482993197,0.6768707482993197,0.6768707482993197,0.6768707482993197,0.6768707482993197,0.6768707482993197,0.6768707482993197,0.6768707482993197,0.6768707482993197,0.6768707482993197,0.6768707482993197,0.6768707482993197,0.6768707482993197,0.6768707482993197,0.6768707482993197,0.6768707482993197,0.6768707482993197,0.6768707482993197,0.6768707482993197,0.6768707482993197,0.6768707482993197,0.6768707482993197,0.6768707482993197,0.6768707482993197,0.6768707482993197,0.6768707482993197,0.6768707482993197,0.6768707482993197,0.6768707482993197,0.6768707482993197,0.6768707482993197,0.6768707482993197,0.6768707482993197,0.6768707482993197,0.6768707482993197,0.6768707482993197,0.6768707482993197,0.6768707482993197,0.6768707482993197,0.6768707482993197,0.6768707482993197,0.6768707482993197,0.6768707482993197,0.6768707482993197,0.6768707482993197,0.6768707482993197,0.6768707482993197,0.6768707482993197,0.6768707482993197,0.6768707482993197,0.6768707482993197,0.6768707482993197,0.6768707482993197,0.6768707482993197,0.6768707482993197,0.6768707482993197,0.6768707482993197,0.6768707482993197,0.6768707482993197,0.6768707482993197,0.6768707482993197,0.6768707482993197,0.6768707482993197,0.6768707482993197,0.6768707482993197,0.6768707482993197,0.6768707482993197,0.6768707482993197,0.6768707482993197,0.6768707482993197,0.6768707482993197,0.6768707482993197,0.6768707482993197,0.6768707482993197,0.6768707482993197,0.6768707482993197,0.6768707482993197,0.6768707482993197,0.6768707482993197,0.6768707482993197,0.6768707482993197,0.6768707482993197,0.6768707482993197,0.6768707482993197,0.6768707482993197,0.6768707482993197,0.6768707482993197,0.6768707482993197,0.6768707482993197,0.6768707482993197,0.6768707482993197,0.6768707482993197,0.6768707482993197,0.6768707482993197,0.6768707482993197,0.6768707482993197,0.6768707482993197,0.6768707482993197,0.6768707482993197,0.6768707482993197,0.6768707482993197,0.6768707482993197,0.6768707482993197,0.6768707482993197,0.6768707482993197,0.6768707482993197,0.6768707482993197,0.6768707482993197,0.6768707482993197,0.6768707482993197,0.6768707482993197,0.6768707482993197,0.6768707482993197,0.6768707482993197,0.6768707482993197,0.6768707482993197,0.6768707482993197,0.6768707482993197,0.6768707482993197,0.6768707482993197,0.6768707482993197,0.6768707482993197,0.6768707482993197,0.6768707482993197,0.6768707482993197,0.6768707482993197,0.6768707482993197,0.6768707482993197,0.6768707482993197,0.6768707482993197,0.6768707482993197,0.6768707482993197,0.6768707482993197,0.6768707482993197,0.6768707482993197,0.6768707482993197,0.6768707482993197,0.6768707482993197,0.6768707482993197,0.6768707482993197,0.6768707482993197,0.6768707482993197,0.6768707482993197,0.6768707482993197,0.6768707482993197,0.6768707482993197,0.6768707482993197,0.6768707482993197,0.6768707482993197,0.6768707482993197,0.6768707482993197,0.6768707482993197,0.6768707482993197,0.6768707482993197,0.6768707482993197,0.6768707482993197,0.6768707482993197,0.6768707482993197,0.6768707482993197,0.6768707482993197,0.6768707482993197,0.6768707482993197,0.6768707482993197,0.6768707482993197,0.6768707482993197,0.6768707482993197,0.6768707482993197,0.6768707482993197,0.6768707482993197,0.6768707482993197,0.6768707482993197,0.6768707482993197,0.6768707482993197,0.6768707482993197,0.6768707482993197,0.6768707482993197,0.6768707482993197,0.6768707482993197,0.6768707482993197,0.6768707482993197,0.6768707482993197,0.6768707482993197,0.6768707482993197,0.6768707482993197,0.6768707482993197,0.6768707482993197,0.6768707482993197,0.6768707482993197,0.6768707482993197,0.6768707482993197,0.6768707482993197,0.6768707482993197,0.6768707482993197,0.6768707482993197,0.6768707482993197,0.6768707482993197,0.6768707482993197,0.6768707482993197,0.6768707482993197,0.6768707482993197,0.6768707482993197,0.6768707482993197,0.6768707482993197,0.6768707482993197,0.6768707482993197,0.6768707482993197,0.6768707482993197,0.6768707482993197,0.6768707482993197,0.6768707482993197,0.6768707482993197,0.6768707482993197,0.6768707482993197,0.6768707482993197,0.6768707482993197,0.6768707482993197,0.6768707482993197,0.6768707482993197,0.6768707482993197,0.6768707482993197,0.6768707482993197,0.6768707482993197,0.6768707482993197,0.6768707482993197,0.6768707482993197,0.6768707482993197,0.6768707482993197,0.6768707482993197,0.6768707482993197,0.6768707482993197,0.6768707482993197,0.6768707482993197,0.6768707482993197,0.6768707482993197,0.6768707482993197,0.6768707482993197,0.6768707482993197,0.6768707482993197,0.6768707482993197,0.6768707482993197,0.6768707482993197,0.6768707482993197,0.6768707482993197,0.6768707482993197,0.6768707482993197,0.6768707482993197,0.6768707482993197,0.6768707482993197,0.6768707482993197,0.6768707482993197,0.6768707482993197,0.6768707482993197,0.6768707482993197,0.6768707482993197,0.6768707482993197,0.6768707482993197,0.6768707482993197,0.6768707482993197,0.6768707482993197,0.6768707482993197,0.6768707482993197,0.6768707482993197,0.6768707482993197,0.6768707482993197,0.6768707482993197,0.6768707482993197,0.6768707482993197,0.6768707482993197,0.6768707482993197,0.6768707482993197,0.6768707482993197,0.6768707482993197,0.6768707482993197,0.6768707482993197,0.6768707482993197,0.6768707482993197,0.6768707482993197,0.6768707482993197,0.6768707482993197,0.6768707482993197,0.6768707482993197,0.6768707482993197,0.6768707482993197,0.6768707482993197,0.6768707482993197,0.6768707482993197,0.6768707482993197,0.6768707482993197,0.6768707482993197,0.6768707482993197,0.6768707482993197,0.6768707482993197,0.6768707482993197,0.6768707482993197,0.6768707482993197,0.6768707482993197,0.6768707482993197,0.6768707482993197,0.6768707482993197,0.6768707482993197,0.6768707482993197,0.6768707482993197,0.6768707482993197,0.6768707482993197,0.6768707482993197,0.6768707482993197,0.6768707482993197,0.6768707482993197,0.6768707482993197,0.6768707482993197,0.6768707482993197,0.6768707482993197,0.6768707482993197,0.6768707482993197,0.6768707482993197,0.6768707482993197,0.6768707482993197,0.6768707482993197,0.6768707482993197,0.6768707482993197,0.6768707482993197,0.6768707482993197,0.6768707482993197,0.6768707482993197,0.6768707482993197,0.6768707482993197,0.6768707482993197,0.6768707482993197,0.6768707482993197,0.6768707482993197,0.6768707482993197,0.6768707482993197,0.6768707482993197,0.6768707482993197,0.6768707482993197,0.6768707482993197,0.6768707482993197,0.6768707482993197,0.6768707482993197,0.6768707482993197,0.6768707482993197,0.6768707482993197,0.6768707482993197,0.6768707482993197,0.6768707482993197,0.6768707482993197,0.6768707482993197,0.6768707482993197,0.6768707482993197,0.6768707482993197,0.6768707482993197,0.6768707482993197,0.6768707482993197,0.6768707482993197,0.6768707482993197,0.6768707482993197,0.6768707482993197,0.6768707482993197,0.6768707482993197,0.6768707482993197,0.6768707482993197,0.6768707482993197,0.6768707482993197,0.6768707482993197,0.6768707482993197,0.6768707482993197,0.6768707482993197,0.6768707482993197,0.6768707482993197,0.6768707482993197,0.6768707482993197,0.6768707482993197,0.6768707482993197,0.6768707482993197,0.6768707482993197,0.6768707482993197,0.6768707482993197,0.6768707482993197,0.6768707482993197,0.6768707482993197,0.6768707482993197,0.6768707482993197,0.6768707482993197,0.6768707482993197,0.6768707482993197,0.6768707482993197,0.6768707482993197,0.6768707482993197,0.6768707482993197,0.6768707482993197,0.6768707482993197,0.6768707482993197,0.6768707482993197,0.6768707482993197,0.6768707482993197,0.6768707482993197,0.6768707482993197,0.6768707482993197,0.6768707482993197,0.6768707482993197,0.6768707482993197,0.6768707482993197,0.6768707482993197,0.6768707482993197,0.6768707482993197,0.6768707482993197,0.6768707482993197,0.6768707482993197,0.6768707482993197,0.6768707482993197,0.6768707482993197,0.6768707482993197,0.6768707482993197,0.6768707482993197,0.6768707482993197,0.6768707482993197,0.6768707482993197,0.6768707482993197,0.6768707482993197,0.6768707482993197,0.6768707482993197,0.6768707482993197,0.6768707482993197,0.6768707482993197,0.6768707482993197,0.6768707482993197,0.6768707482993197,0.6768707482993197,0.6768707482993197,0.6768707482993197,0.6768707482993197,0.6768707482993197,0.6768707482993197,0.6768707482993197,0.6768707482993197,0.6768707482993197,0.6768707482993197,0.6768707482993197,0.6768707482993197,0.6768707482993197,0.6768707482993197,0.6768707482993197,0.6768707482993197,0.6768707482993197,0.6768707482993197,0.6768707482993197,0.6768707482993197,0.6768707482993197,0.6768707482993197,0.6768707482993197,0.6768707482993197,0.6768707482993197,0.6768707482993197,0.6768707482993197,0.6768707482993197,0.6768707482993197,0.6768707482993197,0.6768707482993197,0.6768707482993197,0.6768707482993197,0.6768707482993197,0.6768707482993197,0.6768707482993197,0.6768707482993197,0.6768707482993197,0.6768707482993197,0.6768707482993197,0.6768707482993197,0.6768707482993197,0.6768707482993197,0.6768707482993197,0.6768707482993197,0.6768707482993197,0.6768707482993197,0.6768707482993197,0.6768707482993197,0.6768707482993197,0.6768707482993197,0.6768707482993197,0.6768707482993197,0.6768707482993197,0.6768707482993197,0.6768707482993197,0.6768707482993197,0.6768707482993197,0.6768707482993197,0.6768707482993197,0.6768707482993197,0.6768707482993197,0.6768707482993197,0.6768707482993197,0.6768707482993197,0.6768707482993197,0.6768707482993197,0.6768707482993197,0.6768707482993197,0.6768707482993197,0.6768707482993197,0.6768707482993197,0.6768707482993197,0.6768707482993197,0.6768707482993197,0.6768707482993197,0.6768707482993197,0.6768707482993197,0.6768707482993197,0.6768707482993197,0.6768707482993197,0.6768707482993197,0.6768707482993197,0.6768707482993197,0.6768707482993197,0.6768707482993197,0.6768707482993197,0.6768707482993197,0.6768707482993197,0.6768707482993197,0.6768707482993197,0.6768707482993197,0.6768707482993197,0.6768707482993197,0.6768707482993197,0.6768707482993197,0.6768707482993197,0.6768707482993197,0.6768707482993197,0.6768707482993197,0.6768707482993197,0.6768707482993197,0.6768707482993197,0.6768707482993197,0.6768707482993197,0.6768707482993197,0.6768707482993197,0.6768707482993197,0.6768707482993197,0.6768707482993197,0.6768707482993197,0.6768707482993197,0.6768707482993197,0.6768707482993197,0.6768707482993197,0.6768707482993197,0.6768707482993197,0.6768707482993197,0.6768707482993197,0.6768707482993197,0.6768707482993197,0.6768707482993197,0.6768707482993197,0.6768707482993197,0.6768707482993197,0.6768707482993197,0.6768707482993197,0.6768707482993197,0.6768707482993197,0.6768707482993197,0.6768707482993197,0.6768707482993197,0.6768707482993197,0.6768707482993197,0.6768707482993197,0.6768707482993197,0.6768707482993197,0.6768707482993197,0.6768707482993197,0.6768707482993197,0.6768707482993197,0.6768707482993197,0.6768707482993197,0.6768707482993197,0.6768707482993197,0.6768707482993197,0.6768707482993197,0.6768707482993197,0.6768707482993197,0.6768707482993197,0.6768707482993197,0.6768707482993197,0.6768707482993197,0.6768707482993197,0.6768707482993197,0.6768707482993197,0.6768707482993197,0.6768707482993197,0.6768707482993197,0.6768707482993197,0.6768707482993197,0.6768707482993197,0.6768707482993197,0.6768707482993197,0.6768707482993197,0.6768707482993197,0.6768707482993197,0.6768707482993197,0.6768707482993197,0.6768707482993197,0.6768707482993197,0.6768707482993197,0.6768707482993197,0.6768707482993197,0.6768707482993197,0.6768707482993197,0.6768707482993197,0.6768707482993197,0.6768707482993197,0.6768707482993197,0.6768707482993197,0.6768707482993197,0.6768707482993197,0.6768707482993197,0.6768707482993197,0.6768707482993197,0.6768707482993197,0.6768707482993197,0.6768707482993197,0.6768707482993197,0.6768707482993197,0.6768707482993197,0.6768707482993197,0.6768707482993197,0.6768707482993197,0.6768707482993197,0.6768707482993197,0.6768707482993197,0.6768707482993197,0.6768707482993197,0.6768707482993197,0.6768707482993197,0.6768707482993197,0.6768707482993197,0.6768707482993197,0.6768707482993197,0.6768707482993197,0.6768707482993197,0.6768707482993197,0.6768707482993197,0.6768707482993197,0.6768707482993197,0.6768707482993197,0.6768707482993197,0.6768707482993197,0.6768707482993197,0.6768707482993197,0.6768707482993197,0.6768707482993197,0.6768707482993197,0.6768707482993197,0.6768707482993197,0.6768707482993197,0.6768707482993197,0.6768707482993197,0.6768707482993197,0.6768707482993197,0.6768707482993197,0.6768707482993197,0.6768707482993197,0.6768707482993197,0.6768707482993197,0.6768707482993197,0.6768707482993197,0.6768707482993197,0.6768707482993197,0.6768707482993197,0.6768707482993197,0.6768707482993197,0.6768707482993197,0.6768707482993197,0.6768707482993197,0.6768707482993197,0.6768707482993197,0.6768707482993197,0.6768707482993197,0.6768707482993197,0.6768707482993197,0.6768707482993197,0.6768707482993197,0.6768707482993197,0.6768707482993197,0.6768707482993197,0.6768707482993197,0.6768707482993197,0.6768707482993197,0.6768707482993197,0.6768707482993197,0.6768707482993197,0.6768707482993197,0.6768707482993197,0.6768707482993197,0.6768707482993197,0.6768707482993197,0.6768707482993197,0.6768707482993197,0.6768707482993197,0.6768707482993197,0.6768707482993197,0.6768707482993197,0.6768707482993197,0.6768707482993197,0.6768707482993197,0.6768707482993197,0.6768707482993197,0.6768707482993197,0.6768707482993197,0.6768707482993197,0.6768707482993197,0.6768707482993197,0.6768707482993197,0.6768707482993197,0.6768707482993197,0.6768707482993197,0.6768707482993197,0.6768707482993197,0.6768707482993197,0.6768707482993197,0.6768707482993197,0.6768707482993197,0.6768707482993197,0.6768707482993197,0.6768707482993197,0.6768707482993197,0.6768707482993197,0.6768707482993197,0.6768707482993197,0.6768707482993197,0.6768707482993197,0.6768707482993197,0.6768707482993197,0.6768707482993197,0.6768707482993197,0.6768707482993197,0.6768707482993197,0.6768707482993197,0.6768707482993197,0.6768707482993197,0.6768707482993197,0.6768707482993197,0.6768707482993197,0.6768707482993197,0.6768707482993197,0.6768707482993197,0.6768707482993197,0.6768707482993197,0.6768707482993197,0.6768707482993197,0.6768707482993197,0.6768707482993197,0.6768707482993197,0.6768707482993197,0.6768707482993197,0.6768707482993197,0.6768707482993197,0.6768707482993197,0.6768707482993197,0.6768707482993197,0.6768707482993197,0.6768707482993197,0.6768707482993197,0.6768707482993197,0.6768707482993197,0.6768707482993197,0.6768707482993197,0.6768707482993197,0.6768707482993197,0.6768707482993197,0.6768707482993197,0.6768707482993197,0.6768707482993197,0.6768707482993197,0.6768707482993197,0.6768707482993197,0.6768707482993197,0.6768707482993197,0.6768707482993197,0.6768707482993197,0.6768707482993197,0.6768707482993197,0.6768707482993197,0.6768707482993197,0.6768707482993197,0.6768707482993197,0.6768707482993197,0.6768707482993197,0.6768707482993197,0.6768707482993197,0.6768707482993197,0.6768707482993197,0.6768707482993197,0.6768707482993197,0.6768707482993197,0.6768707482993197,0.6768707482993197,0.6768707482993197,0.6768707482993197,0.6768707482993197,0.6768707482993197,0.6768707482993197,0.6768707482993197,0.6768707482993197,0.6768707482993197,0.6768707482993197,0.6768707482993197,0.6768707482993197,0.6768707482993197,0.6768707482993197,0.6768707482993197,0.6768707482993197,0.6768707482993197,0.6768707482993197,0.6768707482993197,0.6768707482993197,0.6768707482993197,0.6768707482993197,0.6768707482993197,0.6768707482993197,0.6768707482993197,0.6768707482993197,0.6768707482993197,0.6768707482993197,0.6768707482993197,0.6768707482993197,0.6768707482993197,0.6768707482993197,0.6768707482993197,0.6768707482993197,0.6768707482993197,0.6768707482993197,0.6768707482993197,0.6768707482993197,0.6768707482993197,0.6768707482993197,0.6768707482993197,0.6768707482993197,0.6768707482993197,0.6768707482993197,0.6768707482993197,0.6768707482993197,0.6768707482993197,0.6768707482993197,0.6768707482993197,0.6768707482993197,0.6768707482993197,0.6768707482993197,0.6768707482993197,0.6768707482993197,0.6768707482993197,0.6768707482993197,0.6768707482993197,0.6768707482993197,0.6768707482993197,0.6768707482993197,0.6768707482993197,0.6768707482993197,0.6768707482993197,0.6768707482993197,0.6768707482993197,0.6768707482993197,0.6768707482993197,0.6768707482993197,0.6768707482993197,0.6768707482993197,0.6768707482993197,0.6768707482993197,0.6768707482993197,0.6768707482993197,0.6768707482993197,0.6768707482993197,0.6768707482993197,0.6768707482993197,0.6768707482993197,0.6768707482993197,0.6768707482993197,0.6768707482993197,0.6768707482993197,0.6768707482993197,0.6768707482993197,0.6768707482993197,0.6768707482993197,0.6768707482993197,0.6768707482993197,0.6768707482993197,0.6768707482993197,0.6768707482993197,0.6768707482993197,0.6768707482993197,0.6768707482993197,0.6768707482993197,0.6768707482993197,0.6768707482993197,0.6768707482993197,0.6768707482993197,0.6768707482993197,0.6768707482993197,0.6768707482993197,0.6768707482993197,0.6768707482993197,0.6768707482993197,0.6768707482993197,0.6768707482993197,0.6768707482993197,0.6768707482993197,0.6768707482993197,0.6768707482993197,0.6768707482993197,0.6768707482993197,0.6768707482993197,0.6768707482993197,0.6768707482993197,0.6768707482993197,0.6768707482993197,0.6768707482993197,0.6768707482993197,0.6768707482993197,0.6768707482993197,0.6768707482993197,0.6768707482993197,0.6768707482993197,0.6768707482993197,0.6768707482993197,0.6768707482993197,0.6768707482993197,0.7006802721088435,0.7108843537414966,0.7517006802721088,0.8197278911564626,0.8537414965986394,0.8843537414965986,0.9013605442176871,0.9013605442176871,0.891156462585034,0.8843537414965986,0.8741496598639455,0.8537414965986394,0.8435374149659864,0.8367346938775511,0.8367346938775511,0.8367346938775511,0.8435374149659864,0.8707482993197279,0.8945578231292517,0.9149659863945578,0.9183673469387755,0.9013605442176871,0.8741496598639455,0.826530612244898,0.826530612244898,0.826530612244898,0.826530612244898,0.826530612244898,0.8231292517006803,0.8231292517006803,0.8163265306122449,0.8095238095238095,0.8061224489795918,0.8061224489795918,0.8061224489795918,0.8061224489795918,0.8061224489795918,0.8061224489795918,0.8061224489795918,0.8163265306122449,0.8333333333333334,0.8571428571428571,0.8775510204081632,0.9047619047619048,0.9217687074829932,0.9251700680272109,0.9319727891156463,0.9387755102040817,0.9421768707482994,0.9523809523809523,0.9659863945578231,0.9829931972789115,0.9931972789115646,0.9931972789115646,1,1,1,1,1,1,1,1,1.0034013605442176,1.0034013605442176,1.0034013605442176,1.0034013605442176,1.0034013605442176,1.0034013605442176,1.0034013605442176,1.0034013605442176,1.0034013605442176,1.0034013605442176,1.0034013605442176,1.0034013605442176,1.0034013605442176,1.0034013605442176,1.0034013605442176,1.0034013605442176,1.0034013605442176,1.0034013605442176,1.0034013605442176,1.0034013605442176,1.0034013605442176,1.0034013605442176,1.0034013605442176,1.0034013605442176,1.0034013605442176,1.0034013605442176,1.0034013605442176,1.0034013605442176,1.0034013605442176,1.0034013605442176,1.0034013605442176,1.0034013605442176,1.0034013605442176,1.0034013605442176,1,0.9863945578231292,0.9591836734693877,0.9149659863945578,0.8469387755102041,0.8129251700680272,0.8095238095238095,0.7448979591836735,0.6530612244897959,0.6326530612244898,0.5850340136054422,0.48299319727891155,0.4217687074829932,0.3469387755102041,0.2789115646258503,0.23469387755102042,0.22448979591836735,0.21768707482993196,0.2108843537414966,0.20408163265306123,0.20408163265306123,0.20408163265306123,0.20408163265306123,0.20408163265306123,0.20408163265306123,0.20408163265306123,0.20408163265306123,0.20408163265306123,0.19387755102040816,0.19047619047619047,0.19047619047619047,0.1870748299319728,0.1870748299319728,0.1870748299319728,0.19047619047619047,0.19387755102040816,0.23129251700680273,0.24489795918367346,0.29591836734693877,0.3197278911564626,0.32653061224489793,0.3333333333333333,0.3333333333333333,0.3333333333333333,0.3401360544217687,0.3435374149659864,0.35714285714285715,0.3877551020408163,0.4489795918367347,0.5,0.5170068027210885,0.5306122448979592,0.5340136054421769,0.5374149659863946,0.5374149659863946,0.5374149659863946,0.5374149659863946,0.5374149659863946,0.5374149659863946,0.5374149659863946,0.5408163265306123,0.54421768707483,0.5476190476190477,0.5476190476190477,0.5476190476190477,0.5510204081632653,0.5510204081632653,0.5510204081632653,0.5510204081632653,0.5510204081632653,0.5510204081632653,0.5510204081632653,0.5510204081632653,0.5510204081632653,0.5510204081632653,0.5510204081632653,0.5510204081632653,0.5510204081632653,0.5510204081632653,0.5510204081632653,0.5510204081632653,0.5510204081632653,0.5510204081632653,0.5510204081632653,0.5476190476190477,0.54421768707483,0.5374149659863946,0.5340136054421769,0.5340136054421769,0.5306122448979592,0.5170068027210885,0.5034013605442177,0.47619047619047616,0.46258503401360546,0.4421768707482993,0.43197278911564624,0.4217687074829932,0.41156462585034015,0.3979591836734694,0.3877551020408163,0.37755102040816324,0.3673469387755102,0.36054421768707484,0.35714285714285715,0.35374149659863946,0.35374149659863946,0.35374149659863946,0.35374149659863946,0.35374149659863946,0.35374149659863946,0.35374149659863946,0.35374149659863946,0.35714285714285715,0.36054421768707484,0.36394557823129253,0.3673469387755102,0.38095238095238093,0.43537414965986393,0.47278911564625853,0.5204081632653061,0.5306122448979592,0.5340136054421769,0.5374149659863946,0.5408163265306123,0.54421768707483,0.54421768707483,0.54421768707483,0.5476190476190477,0.5612244897959183,0.5748299319727891,0.5884353741496599,0.6190476190476191,0.6530612244897959,0.6836734693877551,0.7448979591836735,0.7755102040816326,0.7959183673469388,0.826530612244898,0.8435374149659864,0.8571428571428571,0.8673469387755102,0.8741496598639455,0.8843537414965986,0.8979591836734694,0.9047619047619048,0.9081632653061225,0.9081632653061225,0.9081632653061225,0.9081632653061225,0.9081632653061225,0.9081632653061225,0.9081632653061225,0.9081632653061225,0.9081632653061225,0.9081632653061225,0.9013605442176871,0.8809523809523809,0.8537414965986394,0.8299319727891157,0.8299319727891157,0.7959183673469388,0.7619047619047619,0.7244897959183674,0.6360544217687075,0.5952380952380952,0.5136054421768708,0.4387755102040816,0.3741496598639456,0.3401360544217687,0.32653061224489793,0.3163265306122449,0.3129251700680272,0.30612244897959184,0.29931972789115646,0.29931972789115646,0.2925170068027211,0.2925170068027211,0.2925170068027211,0.2925170068027211,0.2925170068027211,0.2925170068027211,0.2857142857142857,0.272108843537415,0.2585034013605442,0.24149659863945577,0.22789115646258504,0.2108843537414966,0.19387755102040816,0.19047619047619047,0.19047619047619047,0.1870748299319728,0.1836734693877551,0.18027210884353742,0.17687074829931973,0.17687074829931973,0.16666666666666666,0.16326530612244897,0.14965986394557823,0.14965986394557823,0.14965986394557823,0.14625850340136054,0.14625850340136054,0.14625850340136054,0.14625850340136054,0.14625850340136054,0.14625850340136054,0.14625850340136054,0.14625850340136054,0.14625850340136054,0.14625850340136054,0.14625850340136054,0.14625850340136054,0.14625850340136054,0.14625850340136054,0.14625850340136054,0.14625850340136054,0.14625850340136054,0.14625850340136054,0.14285714285714285,0.14285714285714285,0.14285714285714285,0.14285714285714285,0.14285714285714285,0.14285714285714285,0.14285714285714285,0.14285714285714285,0.14285714285714285,0.14285714285714285,0.14285714285714285,0.14285714285714285,0.14285714285714285,0.14285714285714285,0.1360544217687075,0.1360544217687075,0.1326530612244898,0.1326530612244898,0.1326530612244898,0.1326530612244898,0.1360544217687075,0.1360544217687075,0.1360544217687075,0.1360544217687075,0.1360544217687075,0.1360544217687075,0.1360544217687075,0.1360544217687075,0.1360544217687075,0.1360544217687075,0.1360544217687075,0.1360544217687075,0.1360544217687075,0.13945578231292516,0.14965986394557823,0.14965986394557823,0.1564625850340136,0.1564625850340136,0.1564625850340136,0.1564625850340136,0.1564625850340136,0.1564625850340136,0.1564625850340136,0.14285714285714285,0.1292517006802721,0.12244897959183673,0.11904761904761904,0.11904761904761904,0.11904761904761904,0.11904761904761904,0.11904761904761904,0.12244897959183673,0.14965986394557823,0.16666666666666666,0.23469387755102042,0.3401360544217687,0.4557823129251701,0.5238095238095238,0.6054421768707483,0.6394557823129252,0.6564625850340136,0.6598639455782312,0.6632653061224489,0.6666666666666666,0.6700680272108843,0.673469387755102,0.6768707482993197,0.6802721088435374,0.6802721088435374,0.6802721088435374,0.6802721088435374,0.6802721088435374,0.6836734693877551,0.6836734693877551,0.6836734693877551,0.6836734693877551,0.6870748299319728,0.6904761904761905,0.6802721088435374,0.6428571428571429,0.5680272108843537,0.5102040816326531,0.5102040816326531,0.5034013605442177,0.4965986394557823,0.4965986394557823,0.4965986394557823,0.4965986394557823,0.5034013605442177,0.5306122448979592,0.5374149659863946,0.5578231292517006,0.5918367346938775,0.6530612244897959,0.7653061224489796,0.8469387755102041,0.9421768707482994,1.0136054421768708,1.0204081632653061,1.064625850340136,1.0816326530612246,1.0850340136054422,1.08843537414966,1.0918367346938775,1.0952380952380953,1.098639455782313,1.1088435374149659,1.1224489795918366,1.1360544217687074,1.153061224489796,1.163265306122449,1.1700680272108843,1.1700680272108843,1.1700680272108843,1.1700680272108843,1.1700680272108843,1.1700680272108843,1.1700680272108843,1.1700680272108843,1.1700680272108843,1.1700680272108843,1.1700680272108843,1.1598639455782314,1.1496598639455782,1.1462585034013606,1.1462585034013606,1.1428571428571428,1.1428571428571428,1.1428571428571428,1.1428571428571428,1.1428571428571428,1.1428571428571428,1.1428571428571428,1.1428571428571428,1.1428571428571428,1.1428571428571428,1.1428571428571428,1.1428571428571428,1.1428571428571428,1.1428571428571428,1.1428571428571428,1.1428571428571428,1.1428571428571428,1.1428571428571428,1.1428571428571428,1.1428571428571428,1.1428571428571428,1.1428571428571428,1.1428571428571428,1.1428571428571428,1.1428571428571428,1.1428571428571428,1.129251700680272,1.1122448979591837,1.0680272108843538,1.0238095238095237,0.9251700680272109,0.8979591836734694,0.8979591836734694,0.8571428571428571,0.8095238095238095,0.7482993197278912,0.6564625850340136,0.5544217687074829,0.30272108843537415,0.16326530612244897,0.09863945578231292,0.05442176870748299,0,-0.017006802721088437,-0.04421768707482993,-0.06802721088435375,-0.08163265306122448,-0.09523809523809523,-0.09863945578231292,-0.09863945578231292,-0.09863945578231292,-0.10204081632653061,-0.10204081632653061,-0.10204081632653061,-0.10204081632653061,-0.10204081632653061,-0.10204081632653061,-0.10204081632653061,-0.10204081632653061,-0.10204081632653061,-0.10204081632653061,-0.10204081632653061,-0.10204081632653061,-0.10204081632653061,-0.10204081632653061,-0.10204081632653061,-0.10204081632653061,-0.10204081632653061,-0.10204081632653061,-0.10204081632653061,-0.10204081632653061,-0.10204081632653061,-0.10204081632653061,-0.10204081632653061,-0.10204081632653061,-0.10204081632653061,-0.10204081632653061,-0.10204081632653061,-0.10204081632653061,-0.10204081632653061,-0.10204081632653061,-0.10204081632653061,-0.10204081632653061,-0.10204081632653061,-0.10204081632653061,-0.10204081632653061,-0.10204081632653061,-0.10204081632653061,-0.10204081632653061,-0.10204081632653061,-0.10204081632653061,-0.10204081632653061,-0.10204081632653061,-0.10204081632653061,-0.10204081632653061,-0.10204081632653061,-0.10204081632653061,-0.10204081632653061,-0.10204081632653061,-0.10204081632653061,-0.10204081632653061,-0.10204081632653061,-0.10204081632653061,-0.10204081632653061,-0.10204081632653061,-0.10204081632653061,-0.10204081632653061,-0.10204081632653061,-0.08503401360544217,0.027210884353741496,0.09523809523809523,0.1360544217687075,0.23469387755102042,0.336734693877551,0.42857142857142855,0.5680272108843537,0.6666666666666666,0.717687074829932,0.7380952380952381,0.7482993197278912,0.7551020408163265,0.7551020408163265,0.7551020408163265,0.7551020408163265,0.7585034013605442,0.7585034013605442,0.7585034013605442,0.7585034013605442,0.7619047619047619,0.7619047619047619,0.7619047619047619,0.7619047619047619,0.7619047619047619,0.7619047619047619,0.7619047619047619,0.7619047619047619,0.7619047619047619,0.7619047619047619,0.7619047619047619],"y":[-3.4285714285714284,-3.4285714285714284,-3.4285714285714284,-3.4285714285714284,-3.4285714285714284,-3.4285714285714284,-3.4285714285714284,-3.4285714285714284,-3.4285714285714284,-3.4285714285714284,-3.4285714285714284,-3.4285714285714284,-3.4285714285714284,-3.4285714285714284,-3.4285714285714284,-3.4285714285714284,-3.4285714285714284,-3.4285714285714284,-3.4285714285714284,-3.4285714285714284,-3.4285714285714284,-3.4285714285714284,-3.4285714285714284,-3.4285714285714284,0.4142857142857143,0.4238095238095238,0.43333333333333335,0.43333333333333335,0.43333333333333335,0.43333333333333335,0.43333333333333335,0.44285714285714284,0.44285714285714284,0.44285714285714284,0.44285714285714284,0.44285714285714284,0.44285714285714284,0.44285714285714284,0.44285714285714284,0.44285714285714284,0.44285714285714284,0.44285714285714284,0.44285714285714284,0.44285714285714284,0.44285714285714284,0.44285714285714284,0.44285714285714284,0.44285714285714284,0.44285714285714284,0.44285714285714284,0.44285714285714284,0.44285714285714284,0.44285714285714284,0.44285714285714284,0.44285714285714284,0.44285714285714284,0.44285714285714284,0.44285714285714284,0.44285714285714284,0.44285714285714284,0.44285714285714284,0.44285714285714284,0.44285714285714284,0.44285714285714284,0.44285714285714284,0.44285714285714284,0.44285714285714284,0.44285714285714284,0.44285714285714284,0.44285714285714284,0.44285714285714284,0.4523809523809524,0.4714285714285714,0.49047619047619045,0.5,0.5095238095238095,0.5190476190476191,0.5190476190476191,0.5190476190476191,0.5190476190476191,0.5190476190476191,0.5,0.4714285714285714,0.4238095238095238,0.3380952380952381,0.32857142857142857,0.24285714285714285,0.11904761904761904,-0.004761904761904762,-0.14761904761904762,-0.2714285714285714,-0.4238095238095238,-0.46190476190476193,-0.5380952380952381,-0.6523809523809524,-0.861904761904762,-0.9571428571428572,-1.0523809523809524,-1.0904761904761904,-1.1095238095238096,-1.1095238095238096,-1.1095238095238096,-1.1095238095238096,-1.1095238095238096,-1.1095238095238096,-1.1095238095238096,-1.1095238095238096,-1.1095238095238096,-1.1095238095238096,-1.1095238095238096,-1.1095238095238096,-1.1095238095238096,-1.10