[{"success":true,"trial_type":"fullscreen","trial_index":0,"time_elapsed":3105,"internal_node_id":"0.0-0.0","protocol_sum":"","subject_identifier":20,"subject_sum":[74,68,220,21,54,66,4,168,15,232,14,144,57,69,92,193,96,130,129,130,15,226,178,79,30,82,51,173,230,175,29,213],"subject_pair":10,"STUDY_ID":"669a58f4f17d67c0aba4c4d3","PROLIFIC_PID":"5d4c78071b920f00198e8533","SESSION_ID":"669a5c6f777f0ecd9e7b0369","practice_instructions":1,"leaderboard_instructions":0,"bonus":0,"reveal_word":false,"self_rating":"3","confidence":"0"},{"view_history":"[{\"page_index\":0,\"viewing_time\":8420}]","rt":8420.5,"trial_type":"instructions","trial_index":1,"time_elapsed":11527,"internal_node_id":"0.0-1.0","protocol_sum":"","subject_identifier":20,"subject_sum":[74,68,220,21,54,66,4,168,15,232,14,144,57,69,92,193,96,130,129,130,15,226,178,79,30,82,51,173,230,175,29,213],"subject_pair":10,"STUDY_ID":"669a58f4f17d67c0aba4c4d3","PROLIFIC_PID":"5d4c78071b920f00198e8533","SESSION_ID":"669a5c6f777f0ecd9e7b0369","practice_instructions":1,"leaderboard_instructions":0,"bonus":0,"reveal_word":false,"self_rating":"3","confidence":"0"},{"view_history":"[{\"page_index\":0,\"viewing_time\":14369.600000000093}]","rt":14369.899999999907,"trial_type":"instructions","trial_index":2,"time_elapsed":25898,"internal_node_id":"0.0-2.0-0.0","protocol_sum":"","subject_identifier":20,"subject_sum":[74,68,220,21,54,66,4,168,15,232,14,144,57,69,92,193,96,130,129,130,15,226,178,79,30,82,51,173,230,175,29,213],"subject_pair":10,"STUDY_ID":"669a58f4f17d67c0aba4c4d3","PROLIFIC_PID":"5d4c78071b920f00198e8533","SESSION_ID":"669a5c6f777f0ecd9e7b0369","practice_instructions":1,"leaderboard_instructions":0,"bonus":0,"reveal_word":false,"self_rating":"3","confidence":"0"},{"rt":10945.399999999907,"responses":"{\"Q0\":\"... reveal the word with as <b>few letter guesses</b> as possible\"}","question_order":"[0]","trial_type":"survey-multi-choice","trial_index":3,"time_elapsed":36846,"internal_node_id":"0.0-2.0-1.0","protocol_sum":"","subject_identifier":20,"subject_sum":[74,68,220,21,54,66,4,168,15,232,14,144,57,69,92,193,96,130,129,130,15,226,178,79,30,82,51,173,230,175,29,213],"subject_pair":10,"correct":true,"test_part":"multichoice_nonpretend","STUDY_ID":"669a58f4f17d67c0aba4c4d3","PROLIFIC_PID":"5d4c78071b920f00198e8533","SESSION_ID":"669a5c6f777f0ecd9e7b0369","practice_instructions":1,"leaderboard_instructions":0,"bonus":0,"reveal_word":false,"self_rating":"3","confidence":"0"},{"view_history":"[{\"page_index\":0,\"viewing_time\":2227}]","rt":2227.2999999998137,"trial_type":"instructions","trial_index":4,"time_elapsed":39074,"internal_node_id":"0.0-3.0","protocol_sum":"","subject_identifier":20,"subject_sum":[74,68,220,21,54,66,4,168,15,232,14,144,57,69,92,193,96,130,129,130,15,226,178,79,30,82,51,173,230,175,29,213],"subject_pair":10,"STUDY_ID":"669a58f4f17d67c0aba4c4d3","PROLIFIC_PID":"5d4c78071b920f00198e8533","SESSION_ID":"669a5c6f777f0ecd9e7b0369","practice_instructions":1,"leaderboard_instructions":0,"bonus":0,"reveal_word":false,"self_rating":"3","confidence":"0"},{"word":"ZEBRA","click_log":{"letter":["","E","M","D","H","B","Z","R","A"],"t":[0,8523.69999999972,31800.599999999627,33931.39999999991,36372.69999999972,38156.59999999963,40414.19999999972,41997.19999999972,42936.89999999991],"hit":[null,1,0,0,0,1,1,1,1],"asked":["","E","EM","EMD","EMDH","EMDHB","EMDHBZ","EMDHBZR","EMDHBZRA"],"word_state":["_____","_E___","_E___","_E___","_E___","_EB__","ZEB__","ZEBR_","ZEBRA"]},"hover_log":{"letter":["?","?","?","?","?","?","?","?","?","?","?","?","?","?","?","?","?","?","?","?","?","?","?","?","?","?","?","?","?","?","?","?","?","?","?","?","?","?","?","?","?","?","?","?","?","?","?","?","?","?","?","?","?","?","?","?","?","?","?","?","?","?","?","?","?","?","?","?","?","?","?","?","?","?","?","?","?","?","?","?","?","?","?","?","?","?","?","?","?","?","?","?","?","?","?","?","?","?","?","?","?","?","?","?","?","?","?","?","?","?","?","?","?","?","?","?","?","?","?","?","?","?","?","?","?","?","?","?","?","?","?","?","?","?","?","?","?","?","?","?","?","?","?","?","?","?","?","?","?","?","?","?","?","?","?","?","?","?","?","?","?","?","?","?","?","?","?","?","?","?","?","?","?","?","?","?","?","?","?","?","?","?","?","?","?","?","?","?","?","?","?","?","?","?","?","?","?","?","?","?","?","?","?","?","?","?","?","?","?","?","?","?","?","?","?","?","?","?","?","?","?","?","?","?","?","?","?","?","?","?","?","?","?","?","?","?","?","?","?","?","?","?","?","?","?","?","?","?","?","?","?","?","?","?","?","?","?","?","?","?","?","?","?","?","?","?","?","?","?","?","?","?","?","?","?","?","?","?","?","?","?","?","?","?","?","?","?","?","?","?","?","?","?","?","?","?","?","?","?","?","?","?","?","?","?","?","?","?","?","?","?","?","?","?","?","?","?","?","?","?","?","?","?","?","?","?","?","?","?","?","?","?","?","?","?","?","?","?","?","?","?","?","?","?","?","?","?","?","?","?","?","?","?","?","?","?","?","?","?","?","?","?","?","?","?","?","?","?","?","?","?","?","?","?","?","?","?","?","?","?","?","?","?","?","?","?","?","?","?","?","?","?","?","?","?","?","?","?","?","?","?","?","?","?","?","?","?","?","?","?","?","?","?","?","?","?","?","?","?","?","?","?","?","?","?","?","?","?","?","?","?","?","?","?","?","?","?","?","?","?","?","?","?","?","?","?","?","?","?","?","?","?","?","?","?","?","?","?","?","?","?","?","?","?","?","?","?","?","?","?","?","?","?","K","K","?","?","?","?","?","?","?","?","?","?","?","?","?","?","?","?","?","?","E","E","E","E","E","E","E","E","E","E","E","E","E","E","E","E","E","E","E","E","E","E","E","E","E","E","E","E","E","E","E","E","E","E","E","E","E","E","E","E","E","E","E","E","E","E","E","E","E","E","E","E","E","E","E","E","E","E","E","E","E","E","E","E","E","E","E","?","N","W","?","?","?","?","?","?","?","?","?","?","?","?","?","?","?","?","?","?","?","?","?","?","?","?","?","?","?","?","?","?","?","?","?","?","?","?","?","?","?","?","?","?","?","?","?","?","?","?","?","?","?","?","?","?","?","?","?","?","?","?","?","?","?","?","?","?","?","?","?","?","?","?","?","?","?","?","?","?","?","?","?","?","?","?","?","?","?","?","?","?","?","?","?","?","?","?","?","?","?","?","?","?","?","?","?","?","?","?","?","?","?","?","?","?","?","?","?","?","?","?","?","?","?","?","?","?","?","?","?","?","?","?","?","?","?","?","?","?","?","?","?","?","?","?","?","?","?","?","?","?","?","?","?","?","?","?","?","?","?","?","?","?","?","?","?","?","?","?","?","?","?","?","?","?","?","?","?","?","?","?","?","?","?","?","?","?","?","?","?","?","?","?","?","?","?","?","?","?","?","?","?","?","?","?","?","?","?","?","?","?","?","?","?","?","?","?","?","?","?","?","?","?","?","?","?","?","?","?","?","?","?","?","?","?","?","?","?","?","?","?","?","?","?","?","?","?","?","?","?","?","?","?","?","?","?","?","?","?","?","?","?","?","?","?","?","?","?","?","?","?","?","?","?","?","?","?","?","?","?","?","?","?","?","?","?","?","?","?","?","?","?","?","?","?","?","?","?","?","?","?","?","?","?","?","?","?","?","?","?","?","?","?","?","?","?","?","?","?","?","?","?","?","?","?","?","?","?","?","?","?","?","?","?","?","?","?","?","?","?","?","?","?","?","?","?","V","V","V","?","?","?","?","?","?","?","?","?","?","?","?","?","?","?","?","?","?","?","?","?","?","?","?","?","?","?","?","?","?","?","?","?","?","?","?","?","?","?","?","?","?","?","?","?","?","?","?","?","?","?","?","?","?","?","?","?","?","?","?","?","?","?","?","?","?","?","?","?","?","?","?","?","?","?","?","?","?","?","?","?","?","?","?","?","?","?","?","?","?","?","?","?","?","?","?","?","?","?","?","?","?","?","?","?","?","?","?","?","?","?","?","?","?","?","?","?","?","?","?","?","?","?","?","?","?","?","?","?","?","?","?","?","?","?","?","?","?","?","?","?","?","?","?","?","?","?","?","?","?","?","?","?","?","?","?","?","?","?","?","?","?","?","?","?","?","?","?","?","?","?","?","?","?","?","?","?","?","?","?","?","?","?","?","?","?","?","?","?","?","?","?","?","?","?","?","?","?","?","?","?","?","?","?","?","?","?","?","?","?","?","?","?","?","?","?","?","?","?","?","?","?","?","?","?","?","?","?","?","?","?","?","?","?","?","?","?","?","?","?","?","?","?","?","?","?","?","?","?","?","?","?","?","?","?","?","?","?","?","?","?","?","?","?","?","?","?","?","?","?","?","?","?","?","?","?","?","?","?","?","?","?","?","?","?","?","?","?","?","?","?","?","?","?","?","?","?","?","?","?","?","?","?","?","?","?","?","?","?","?","?","?","?","?","?","?","?","?","?","?","?","?","?","?","?","?","?","?","?","?","?","?","?","?","?","?","?","?","?","?","?","?","?","?","?","?","?","?","?","?","?","?","?","?","?","?","?","?","?","?","?","?","?","?","?","?","?","?","?","?","?","?","?","?","?","?","?","?","?","?","?","?","?","?","?","?","?","?","?","?","?","?","?","?","?","?","?","?","?","?","?","?","?","?","?","?","?","?","?","?","?","?","?","?","?","?","?","?","?","?","?","?","?","?","?","?","?","?","?","?","?","?","?","?","?","?","?","?","?","?","?","?","?","?","?","?","?","?","?","?","?","?","?","?","?","?","?","?","?","?","?","?","?","?","?","?","?","?","?","?","?","?","?","?","?","?","?","?","?","?","?","?","?","?","?","?","?","?","?","?","?","?","?","?","?","?","?","?","?","?","?","?","?","?","?","?","?","?","?","?","?","?","?","?","?","?","?","?","?","?","?","?","?","?","?","?","?","?","?","?","?","?","?","?","?","?","?","?","?","?","?","?","?","?","?","?","?","?","?","?","?","?","?","?","?","?","?","?","?","?","?","?","?","?","?","?","?","?","?","?","?","?","?","?","?","?","?","?","?","?","?","?","?","?","?","?","?","?","?","?","?","?","?","?","?","?","?","?","?","?","?","?","?","?","?","?","?","?","?","?","?","?","?","?","?","?","?","?","?","?","?","?","?","?","?","?","?","?","?","?","?","?","?","?","?","?","?","?","?","?","?","?","?","?","?","?","?","?","?","?","?","?","?","?","?","?","?","?","?","?","?","?","?","?","?","?","?","?","?","?","?","?","?","?","?","?","?","?","?","?","?","?","?","?","?","?","?","?","?","?","?","?","?","?","?","?","?","?","?","?","?","?","?","?","?","?","?","?","?","?","?","?","?","?","?","?","?","?","?","?","?","?","?","M","M","M","?","?","?","?","?","?","?","?","?","?","?","?","?","E","E","E","E","?","F","F","F","F","F","F","F","F","F","F","F","F","F","F","F","F","F","F","F","F","F","F","F","F","F","F","F","F","F","F","F","F","F","F","F","F","F","F","F","F","F","F","F","F","F","F","F","F","F","F","F","F","F","F","F","F","F","F","F","F","F","F","F","F","F","F","F","F","F","F","F","F","F","F","F","F","F","F","F","F","F","F","F","F","F","F","F","F","F","F","F","F","F","F","F","F","F","F","F","F","F","F","F","F","F","F","F","?","?","?","?","?","?","?","?","?","?","?","?","?","?","?","?","?","?","?","?","?","?","?","?","?","?","?","?","?","?","?","?","?","?","?","?","?","?","?","?","?","?","?","?","?","?","?","?","?","?","?","?","?","?","?","?","?","?","?","?","?","?","?","?","?","?","?","?","?","?","?","?","?","?","?","?","?","?","?","?","?","?","?","?","?","?","?","?","?","?","?","?","?","?","?","?","?","?","F","F","?","?","?","N","N","N","N","N","N","N","N","N","N","N","N","N","N","N","N","N","N","N","N","N","?","?","?","?","M","M","M","M","M","M","M","M","M","M","M","M","M","M","M","M","M","M","M","M","M","M","M","M","M","M","M","M","M","M","M","M","M","M","M","M","M","M","M","M","M","M","M","M","M","M","M","M","M","M","M","M","M","M","M","M","M","M","M","M","M","M","M","M","M","M","M","M","M","M","M","M","M","M","M","M","M","M","M","M","M","?","?","?","?","?","?","?","?","?","?","?","?","?","?","?","?","?","?","?","?","?","?","C","C","C","C","?","?","?","?","?","?","D","D","D","D","D","D","D","D","D","D","D","D","D","D","D","D","D","D","D","D","D","D","D","D","D","D","D","D","D","D","D","D","D","D","D","D","D","D","D","D","D","D","D","D","D","D","D","D","D","D","D","D","D","D","D","D","D","D","D","D","D","D","D","D","D","D","D","D","D","D","D","D","D","D","D","D","D","D","D","D","D","D","D","D","D","D","D","D","D","D","D","D","D","D","D","D","D","D","D","D","D","D","D","D","D","D","D","D","D","D","D","D","D","D","D","D","D","D","D","D","D","D","D","D","D","D","D","D","E","E","E","F","F","?","G","G","G","?","?","H","H","H","H","H","H","H","H","H","H","H","H","H","H","H","H","H","H","H","H","H","H","H","H","H","H","H","H","H","H","H","H","H","H","H","H","H","H","H","H","H","H","H","H","H","H","H","H","H","H","H","H","H","H","H","H","H","H","H","H","H","H","H","H","H","H","H","H","H","H","H","?","?","E","D","D","C","C","C","C","C","C","C","C","C","C","C","C","C","C","C","C","C","C","C","C","C","C","C","C","C","C","C","C","C","C","?","?","?","B","B","B","B","B","B","B","B","B","B","B","B","B","B","B","B","B","B","B","B","B","B","B","B","B","B","B","B","B","B","B","B","B","B","B","B","B","B","B","B","B","B","B","B","B","B","B","B","B","B","B","B","B","B","B","B","B","B","B","B","B","B","B","B","B","B","B","B","B","B","B","B","B","B","B","B","B","B","B","B","B","B","B","B","B","B","B","B","B","B","B","B","B","B","B","B","B","B","B","B","B","B","B","B","B","B","B","B","B","B","B","B","?","?","L","?","?","?","W","W","W","?","?","?","?","?","?","?","?","?","X","?","Y","Y","?","Z","Z","?","?","?","?","?","?","?","?","?","?","?","Z","Z","Z","Z","Z","Z","Z","Z","Z","Z","Z","Z","Z","Z","Z","Z","Z","Z","Z","Z","Z","Z","Z","Z","Z","Z","Z","Z","Z","Z","Z","Z","Z","Z","Z","Z","Z","Z","Z","Z","Z","Z","Z","Z","Z","Z","?","?","?","?","?","M","?","?","?","L","L","L","L","L","?","M","?","N","?","O","?","P","P","P","P","P","P","P","P","P","?","?","?","?","?","?","?","P","?","Q","Q","Q","Q","?","R","R","R","R","R","R","R","R","R","R","R","R","R","R","R","R","R","R","R","R","R","R","R","R","R","R","R","R","R","Q","?","?","D","B","A","?","?","?","?","?","?","?","?","?","?","?","?","?","?","?","?","?","?","?","?","A","A","A","A","A","A","A","A","A","A","A","A","A","A","A","A","A","A","A","A","A","A","A","A","A","A","A","A","A","A","A","A","A","A","A","A","A","A","A","A","A","A","A","A","A","A","A","A","A","A","A","A","A","A","A","A","A","A","A","A","A","A","A","A","A","A","A","A","A","A","A","A","A","A","A","A","A","A","A","A","A","A","A","A","A","A","A","A","A","A","A","A","A","A","A","A","A","A","A","A","A","A","A","A","A","A","A","A","A","A","A","A","A","A","A","A","A","A","A","A","A","A","A","A","A","A","A","A","A","A","A","A","A","A","A","A","A","A","A","A","A","A"],"t":[24,36,52,68,85,101,118,136,152,169,186,204,219,236,253,270,287,304,320,336,352,369,386,403,419,436,453,470,487,503,520,536,552,570,587,603,619,636,653,670,686,703,720,737,753,769,787,802,819,836,853,870,886,901,920,935,953,970,985,1003,1020,1037,1053,1069,1086,1103,1119,1135,1153,1169,1187,1203,1219,1236,1253,1270,1286,1303,1320,1337,1352,1370,1387,1402,1418,1435,1453,1469,1486,1503,1520,1536,1552,1570,1586,1603,1619,1637,1653,1669,1685,1703,1719,1736,1752,1770,1786,1803,1819,1836,1852,1869,1886,1902,1920,1937,1953,1970,1985,2003,2020,2036,2053,2069,2086,2103,2120,2137,2152,2169,2187,2203,2220,2235,2252,2268,2285,2303,2320,2336,2353,2368,2386,2402,2420,2436,2453,2470,2486,2503,2520,2536,2552,2568,2585,2603,2619,2636,2651,2669,2685,2701,2720,2736,2753,2768,2786,2803,2819,2835,2853,2869,2886,2902,2919,2934,2951,2969,2986,3003,3020,3035,3052,3069,3085,3103,3120,3135,3153,3169,3186,3203,3220,3236,3252,3269,3286,3303,3319,3336,3353,3368,3386,3402,3420,3436,3453,3468,3485,3503,3520,3536,3552,3569,3586,3603,3620,3635,3653,3669,3686,3703,3720,3736,3753,3769,3786,3803,3820,3835,3853,3868,3886,3903,3920,3936,3953,3970,3986,4003,4020,4036,4053,4070,4086,4103,4120,4136,4153,4170,4186,4203,4220,4237,4253,4269,4286,4303,4318,4335,4351,4369,4386,4402,4420,4436,4453,4469,4485,4502,4520,4536,4553,4570,4586,4603,4620,4636,4653,4669,4685,4703,4720,4736,4753,4768,4786,4802,4820,4835,4853,4870,4886,4903,4919,4936,4952,4970,4986,5003,5019,5036,5053,5070,5087,5102,5120,5136,5152,5170,5186,5203,5220,5236,5253,5270,5286,5303,5320,5336,5353,5369,5386,5402,5419,5436,5453,5469,5485,5502,5519,5536,5553,5568,5586,5602,5620,5636,5653,5669,5686,5702,5719,5736,5753,5770,5785,5800,5818,5836,5853,5870,5886,5903,5920,5936,5953,5969,5986,6003,6020,6036,6053,6068,6086,6103,6120,6136,6153,6170,6186,6203,6220,6236,6253,6269,6286,6303,6320,6336,6353,6370,6386,6402,6420,6436,6453,6469,6486,6503,6520,6536,6553,6569,6586,6603,6620,6636,6653,6669,6686,6703,6720,6736,6753,6769,6786,6802,6819,6836,6852,6868,6885,6903,6920,6936,6953,6969,6986,7003,7020,7035,7053,7069,7086,7103,7120,7136,7153,7169,7186,7203,7219,7236,7252,7268,7285,7303,7320,7336,7353,7370,7386,7403,7420,7436,7453,7469,7486,7503,7520,7536,7553,7569,7586,7603,7619,7636,7653,7669,7686,7703,7720,7736,7753,7770,7786,7803,7819,7836,7851,7870,7886,7904,7920,7936,7954,7970,7987,8003,8020,8036,8053,8070,8086,8103,8120,8137,8153,8170,8187,8203,8220,8236,8253,8269,8285,8303,8319,8336,8352,8369,8386,8402,8419,8436,8452,8469,8485,8503,8519,8537,8553,8569,8586,8603,8620,8636,8654,8669,8686,8702,8718,8736,8753,8770,8786,8803,8820,8836,8853,8870,8887,8903,8920,8936,8953,8970,8986,9004,9019,9036,9053,9070,9086,9103,9120,9137,9153,9170,9187,9202,9219,9236,9253,9270,9287,9303,9319,9335,9353,9370,9386,9402,9419,9436,9453,9470,9486,9503,9519,9536,9553,9570,9586,9603,9620,9637,9653,9670,9686,9704,9719,9736,9753,9770,9787,9803,9820,9836,9853,9870,9886,9903,9920,9936,9953,9970,9987,10003,10019,10036,10053,10070,10086,10103,10118,10135,10152,10170,10187,10203,10219,10237,10253,10270,10286,10303,10319,10336,10353,10369,10386,10403,10419,10437,10453,10468,10486,10502,10520,10536,10553,10570,10586,10602,10619,10637,10652,10669,10686,10703,10719,10736,10753,10770,10786,10803,10820,10836,10853,10869,10886,10903,10920,10936,10953,10969,10987,11002,11019,11037,11052,11069,11086,11103,11119,11136,11153,11170,11186,11203,11219,11236,11253,11270,11286,11303,11320,11337,11353,11370,11386,11403,11420,11436,11453,11469,11486,11503,11520,11535,11553,11569,11585,11602,11620,11636,11653,11670,11686,11703,11720,11735,11753,11769,11786,11803,11819,11836,11853,11869,11886,11903,11920,11936,11953,11970,11987,12002,12020,12036,12052,12069,12086,12103,12120,12136,12153,12170,12186,12203,12220,12236,12253,12270,12285,12303,12320,12336,12353,12370,12386,12402,12420,12436,12453,12469,12486,12503,12520,12536,12553,12570,12586,12602,12620,12636,12652,12669,12687,12702,12720,12736,12753,12769,12786,12803,12818,12835,12852,12870,12886,12903,12920,12936,12953,12969,12986,13003,13018,13035,13052,13068,13085,13102,13119,13136,13153,13169,13186,13203,13219,13236,13253,13270,13286,13303,13319,13336,13353,13369,13386,13402,13419,13436,13453,13469,13486,13503,13520,13536,13553,13569,13586,13603,13620,13636,13653,13670,13686,13703,13719,13736,13753,13770,13787,13802,13819,13836,13853,13869,13886,13903,13920,13936,13953,13969,13986,14003,14019,14036,14053,14069,14085,14103,14120,14136,14153,14169,14186,14203,14220,14236,14253,14269,14286,14303,14319,14336,14353,14370,14386,14402,14419,14436,14452,14468,14485,14503,14520,14536,14553,14570,14586,14603,14620,14636,14653,14669,14686,14703,14719,14736,14753,14770,14786,14803,14819,14836,14852,14869,14885,14903,14919,14936,14953,14969,14986,15002,15019,15036,15053,15069,15086,15103,15120,15136,15153,15169,15186,15202,15219,15236,15252,15269,15286,15302,15319,15335,15352,15369,15386,15403,15419,15436,15453,15470,15485,15502,15520,15536,15553,15569,15586,15603,15620,15636,15653,15669,15686,15702,15719,15736,15753,15769,15786,15803,15819,15836,15853,15869,15886,15901,15918,15936,15953,15969,15985,16002,16020,16036,16053,16069,16086,16102,16120,16136,16153,16169,16186,16203,16220,16236,16253,16269,16286,16303,16319,16336,16353,16369,16386,16403,16420,16436,16453,16469,16486,16503,16520,16536,16553,16570,16586,16603,16619,16636,16653,16669,16686,16703,16719,16736,16752,16770,16787,16803,16819,16836,16852,16869,16886,16902,16919,16936,16953,16969,16986,17003,17019,17036,17053,17069,17086,17103,17120,17136,17153,17169,17186,17203,17219,17236,17253,17269,17286,17303,17320,17336,17352,17368,17386,17402,17420,17436,17453,17470,17486,17502,17520,17536,17553,17569,17586,17602,17619,17636,17653,17669,17686,17702,17720,17736,17752,17770,17786,17803,17818,17836,17852,17869,17886,17902,17920,17936,17953,17970,17986,18002,18019,18036,18053,18069,18086,18102,18120,18136,18153,18170,18186,18203,18220,18236,18252,18269,18286,18302,18320,18336,18353,18369,18386,18402,18419,18436,18453,18469,18486,18502,18520,18535,18553,18570,18586,18602,18620,18636,18653,18669,18686,18703,18720,18736,18753,18770,18787,18802,18819,18836,18853,18869,18886,18902,18919,18936,18953,18970,18986,19003,19020,19036,19053,19069,19086,19103,19120,19136,19153,19170,19186,19203,19219,19236,19253,19269,19286,19303,19320,19336,19353,19369,19386,19403,19420,19436,19452,19469,19486,19503,19519,19536,19553,19569,19586,19603,19619,19636,19652,19669,19686,19703,19719,19736,19753,19770,19786,19803,19819,19836,19853,19870,19886,19903,19920,19936,19952,19970,19986,20003,20019,20036,20053,20069,20086,20102,20120,20136,20153,20169,20186,20203,20219,20235,20251,20268,20286,20303,20320,20336,20352,20369,20386,20402,20419,20436,20453,20469,20486,20503,20519,20535,20551,20569,20585,20602,20619,20635,20652,20669,20686,20702,20720,20736,20753,20769,20785,20802,20819,20835,20852,20869,20886,20903,20920,20935,20952,20969,20985,21003,21020,21036,21053,21069,21086,21102,21119,21136,21152,21169,21186,21202,21219,21236,21252,21269,21286,21303,21319,21336,21352,21369,21386,21403,21420,21436,21452,21469,21486,21503,21520,21536,21553,21569,21586,21603,21619,21636,21653,21670,21686,21702,21719,21736,21753,21769,21786,21803,21819,21836,21852,21869,21886,21903,21919,21936,21952,21969,21986,22002,22019,22036,22052,22069,22086,22102,22120,22135,22153,22170,22186,22202,22220,22236,22253,22269,22292,22319,22336,22353,22369,22386,22402,22419,22436,22453,22470,22485,22503,22519,22536,22552,22569,22586,22603,22620,22636,22652,22668,22686,22702,22720,22736,22753,22769,22786,22802,22820,22836,22853,22868,22886,22902,22920,22936,22952,22970,22986,23002,23019,23036,23052,23069,23086,23102,23119,23136,23152,23168,23186,23203,23219,23236,23252,23270,23286,23302,23320,23336,23352,23369,23386,23402,23420,23436,23453,23470,23486,23503,23519,23536,23553,23570,23585,23602,23620,23636,23653,23669,23686,23702,23720,23736,23752,23770,23786,23802,23820,23836,23853,23870,23886,23903,23919,23936,23953,23969,23986,24003,24019,24036,24052,24069,24086,24102,24120,24136,24153,24169,24186,24202,24218,24236,24252,24269,24286,24303,24319,24336,24353,24370,24386,24402,24419,24436,24452,24470,24486,24502,24520,24536,24552,24570,24585,24601,24619,24636,24652,24669,24686,24703,24719,24735,24753,24770,24785,24802,24818,24836,24852,24869,24885,24903,24919,24936,24953,24969,24986,25003,25020,25036,25053,25069,25086,25102,25119,25135,25152,25169,25186,25202,25219,25236,25252,25269,25286,25303,25320,25336,25353,25369,25386,25403,25419,25436,25452,25469,25486,25502,25520,25536,25553,25570,25586,25602,25619,25636,25652,25669,25686,25703,25719,25736,25752,25770,25785,25803,25820,25836,25853,25869,25886,25903,25920,25936,25953,25970,25986,26002,26019,26036,26052,26069,26086,26102,26120,26135,26152,26169,26186,26202,26220,26236,26252,26269,26286,26302,26319,26336,26352,26369,26386,26402,26419,26436,26452,26469,26486,26503,26519,26535,26552,26570,26586,26603,26620,26635,26653,26669,26686,26703,26719,26736,26752,26770,26785,26802,26820,26836,26853,26869,26886,26902,26920,26936,26952,26968,26986,27002,27020,27036,27053,27069,27086,27102,27119,27136,27152,27169,27186,27202,27219,27236,27252,27269,27286,27303,27319,27336,27352,27369,27386,27402,27419,27435,27452,27468,27485,27502,27519,27536,27552,27569,27585,27602,27619,27636,27652,27669,27686,27703,27719,27736,27753,27769,27786,27803,27819,27836,27852,27869,27886,27902,27919,27935,27952,27970,27985,28002,28019,28036,28053,28069,28086,28103,28119,28136,28153,28169,28186,28203,28219,28235,28253,28269,28286,28302,28320,28336,28353,28370,28385,28402,28420,28436,28453,28469,28485,28503,28519,28536,28552,28569,28586,28602,28619,28635,28653,28669,28686,28703,28719,28736,28752,28769,28786,28803,28819,28836,28853,28869,28886,28902,28918,28936,28953,28969,28985,29003,29019,29036,29052,29069,29086,29102,29119,29136,29153,29170,29186,29202,29219,29235,29252,29269,29286,29302,29319,29336,29352,29370,29385,29402,29419,29436,29452,29470,29486,29502,29519,29536,29552,29569,29586,29602,29619,29636,29653,29669,29686,29702,29719,29736,29753,29769,29786,29802,29819,29836,29853,29869,29886,29902,29920,29935,29952,29969,29985,30002,30020,30035,30053,30069,30086,30103,30119,30136,30152,30170,30186,30203,30219,30236,30252,30269,30286,30302,30319,30336,30352,30369,30385,30403,30419,30436,30453,30468,30486,30503,30519,30535,30552,30569,30586,30602,30620,30636,30652,30670,30686,30703,30719,30736,30752,30769,30785,30803,30820,30836,30853,30869,30886,30903,30919,30936,30952,30969,30986,31003,31019,31036,31053,31069,31086,31103,31119,31136,31152,31169,31186,31203,31220,31236,31253,31269,31285,31302,31319,31336,31353,31369,31386,31402,31418,31436,31452,31469,31486,31502,31519,31536,31552,31569,31586,31602,31619,31636,31652,31669,31686,31703,31719,31736,31752,31769,31785,31801,31818,31834,32012,32034,32051,32068,32084,32101,32118,32135,32151,32168,32185,32202,32219,32235,32252,32269,32286,32302,32319,32336,32353,32369,32386,32402,32419,32436,32453,32469,32486,32503,32519,32535,32552,32570,32586,32603,32619,32636,32652,32670,32685,32702,32720,32736,32753,32769,32786,32802,32819,32836,32853,32869,32885,32902,32919,32935,32952,32969,32986,33002,33019,33036,33052,33069,33086,33103,33119,33136,33153,33169,33185,33202,33220,33235,33252,33269,33286,33303,33319,33336,33352,33368,33385,33402,33419,33436,33453,33469,33486,33502,33519,33536,33553,33569,33586,33602,33619,33636,33653,33669,33686,33702,33719,33736,33753,33769,33786,33802,33819,33835,33852,33869,33885,33902,33919,33936,33953,33969,33986,34002,34019,34036,34053,34069,34086,34102,34119,34136,34152,34169,34186,34203,34219,34236,34252,34269,34286,34302,34318,34335,34352,34368,34386,34402,34419,34436,34452,34469,34486,34503,34519,34535,34553,34569,34586,34603,34619,34636,34653,34670,34686,34702,34720,34736,34753,34770,34786,34802,34818,34835,34853,34869,34886,34902,34919,34936,34952,34969,34986,35002,35019,35036,35053,35069,35085,35102,35119,35136,35153,35169,35186,35203,35219,35236,35253,35269,35286,35303,35319,35335,35351,35369,35385,35401,35419,35435,35452,35469,35485,35503,35519,35536,35553,35570,35586,35602,35619,35636,35653,35669,35686,35702,35719,35736,35752,35768,35785,35802,35819,35836,35851,35869,35886,35903,35919,35936,35952,35969,35986,36002,36019,36036,36053,36069,36086,36103,36120,36136,36153,36170,36186,36202,36218,36234,36251,36269,36285,36302,36319,36336,36352,36369,36386,36402,36419,36436,36452,36469,36486,36503,36519,36536,36552,36569,36586,36603,36620,36635,36652,36669,36686,36702,36720,36736,36753,36769,36786,36802,36819,36835,36853,36869,36886,36902,36920,36935,36953,36969,36986,37002,37019,37035,37052,37068,37086,37103,37119,37136,37152,37169,37186,37202,37219,37236,37252,37269,37286,37303,37319,37335,37353,37369,37386,37402,37419,37436,37453,37469,37484,37503,37519,37535,37552,37569,37585,37602,37619,37636,37653,37669,37685,37702,37719,37735,37752,37769,37786,37802,37819,37836,37852,37869,37886,37902,37919,37936,37953,37969,37986,38002,38019,38035,38052,38069,38086,38102,38119,38136,38152,38169,38185,38203,38219,38235,38253,38269,38286,38303,38319,38335,38352,38370,38386,38402,38419,38436,38453,38469,38486,38503,38519,38536,38552,38569,38586,38602,38619,38636,38652,38669,38685,38702,38719,38736,38752,38770,38786,38802,38819,38836,38853,38869,38886,38903,38920,38935,38952,38969,38986,39003,39019,39036,39053,39069,39085,39101,39119,39136,39152,39169,39185,39202,39220,39236,39253,39270,39286,39303,39319,39336,39352,39369,39386,39402,39419,39436,39453,39469,39486,39502,39519,39536,39552,39568,39586,39603,39619,39636,39652,39669,39686,39702,39719,39736,39753,39769,39786,39802,39819,39836,39852,39869,39886,39902,39919,39936,39953,39968,39986,40002,40019,40036,40052,40069,40086,40102,40119,40135,40152,40169,40186,40202,40219,40236,40252,40269,40286,40303,40319,40336,40353,40369,40385,40402,40419,40436,40452,40469,40484,40501,40518,40536,40552,40569,40586,40602,40619,40635,40651,40668,40684,40701,40718,40735,40751,40768,40785,40802,40819,40836,40852,40869,40885,40902,40919,40936,40952,40969,40986,41002,41019,41036,41053,41069,41086,41102,41119,41136,41153,41169,41186,41202,41219,41235,41252,41269,41286,41302,41319,41336,41352,41369,41386,41402,41419,41435,41452,41469,41486,41502,41519,41536,41552,41569,41585,41602,41619,41636,41652,41669,41685,41702,41719,41735,41752,41769,41786,41802,41819,41836,41852,41868,41885,41902,41919,41936,41952,41969,41986,42002,42019,42036,42053,42069,42086,42102,42120,42136,42152,42169,42186,42202,42219,42235,42252,42269,42285,42302,42319,42335,42352,42369,42385,42402,42418,42435,42452,42469,42486,42502,42519,42536,42552,42569,42586,42602,42619,42636,42653,42669,42686,42702,42719,42736,42753,42769,42786,42802,42819,42835,42852,42869,42885,42902,42919,42936,42956,42969,42986,43002,43019,43035,43053,43069,43086,43103,43119,43136,43152,43168,43184,43202,43219,43236,43253,43270,43285,43302,43320,43336,43353,43369,43386,43402,43419,43435,43453,43469,43486,43502,43520,43535,43552,43569,43586,43602,43620,43636,43653,43669,43686,43702,43720,43736,43753,43769,43786,43803,43819,43836,43852,43870,43885,43902,43919,43936,43953,43969,43986,44002,44019,44036,44053,44069,44086,44103,44120,44136,44152,44169,44186,44202,44219,44236,44252,44270,44286,44303,44319,44336,44352,44370,44385,44402,44419,44436,44452,44468,44485,44502,44519,44536,44553,44569,44586,44603,44620,44635,44653,44669,44685,44703,44719,44736,44752,44769,44786,44803,44819,44836,44853,44869,44885,44901,44919,44935,44955],"hit":[null],"x":[-1.9285714285714286,-1.9285714285714286,-1.9285714285714286,-1.9285714285714286,-1.9285714285714286,-1.9285714285714286,-1.9285714285714286,-1.9285714285714286,-1.9285714285714286,-1.9285714285714286,-1.9285714285714286,-1.9285714285714286,-1.9285714285714286,-1.9285714285714286,-1.9285714285714286,-1.9285714285714286,-1.9285714285714286,-1.9285714285714286,-1.9285714285714286,-1.9285714285714286,-1.9285714285714286,-1.9285714285714286,-1.9285714285714286,-1.9285714285714286,-1.9285714285714286,-1.9285714285714286,-1.9285714285714286,-1.9285714285714286,-1.9285714285714286,-1.9285714285714286,-1.9285714285714286,-1.9285714285714286,-1.9285714285714286,-1.9285714285714286,-1.9285714285714286,-1.9285714285714286,-1.9285714285714286,-1.9285714285714286,-1.9285714285714286,-1.9285714285714286,-1.9285714285714286,-1.9285714285714286,-1.9285714285714286,-1.9285714285714286,-1.9285714285714286,-1.9285714285714286,-1.9285714285714286,-1.9285714285714286,-1.9285714285714286,-1.9285714285714286,-1.9285714285714286,-1.9285714285714286,-1.9285714285714286,-1.9285714285714286,-1.9285714285714286,-1.9285714285714286,-1.9285714285714286,-1.9285714285714286,-1.9285714285714286,-1.9285714285714286,-1.9285714285714286,-1.9285714285714286,-1.9285714285714286,-1.9285714285714286,-1.9285714285714286,-1.9285714285714286,-1.9285714285714286,-1.9285714285714286,-1.9285714285714286,-1.9285714285714286,-1.9285714285714286,-1.9285714285714286,-1.9285714285714286,-1.9285714285714286,-1.9285714285714286,-1.9285714285714286,-1.9285714285714286,-1.9285714285714286,-1.9285714285714286,-1.9285714285714286,-1.9285714285714286,-1.9285714285714286,-1.9285714285714286,-1.9285714285714286,-1.9285714285714286,-1.9285714285714286,-1.9285714285714286,-1.9285714285714286,-1.9285714285714286,-1.9285714285714286,-1.9285714285714286,-1.9285714285714286,-1.9285714285714286,-1.9285714285714286,-1.9285714285714286,-1.9285714285714286,-1.9285714285714286,-1.9285714285714286,-1.9285714285714286,-1.9285714285714286,-1.9285714285714286,-1.9285714285714286,-1.9285714285714286,-1.9285714285714286,-1.9285714285714286,-1.9285714285714286,-1.9285714285714286,-1.9285714285714286,-1.9285714285714286,-1.9285714285714286,-1.9285714285714286,-1.9285714285714286,-1.9285714285714286,-1.9285714285714286,-1.9285714285714286,-1.9285714285714286,-1.9285714285714286,-1.9285714285714286,-1.9285714285714286,-1.9285714285714286,-1.9285714285714286,-1.9285714285714286,-1.9285714285714286,-1.9285714285714286,-1.9285714285714286,-1.9285714285714286,-1.9285714285714286,-1.9285714285714286,-1.9285714285714286,-1.9285714285714286,-1.9285714285714286,-1.9285714285714286,-1.9285714285714286,-1.9285714285714286,-1.9285714285714286,-1.9285714285714286,-1.9285714285714286,-1.9285714285714286,-1.9285714285714286,-1.9285714285714286,-1.9285714285714286,-1.9285714285714286,-1.9285714285714286,-1.9285714285714286,-1.9285714285714286,-1.9285714285714286,-1.9285714285714286,-1.9285714285714286,-1.9285714285714286,-1.9285714285714286,-1.9285714285714286,-1.9285714285714286,-1.9285714285714286,-1.9285714285714286,-1.9285714285714286,-1.9285714285714286,-1.9285714285714286,-1.9285714285714286,-1.9285714285714286,-1.9285714285714286,-1.9285714285714286,-1.9285714285714286,-1.9285714285714286,-1.9285714285714286,-1.9285714285714286,-1.9285714285714286,-1.9285714285714286,-1.9285714285714286,-1.9285714285714286,-1.9285714285714286,-1.9285714285714286,-1.9285714285714286,-1.9285714285714286,-1.9285714285714286,-1.9285714285714286,-1.9285714285714286,-1.9285714285714286,-1.9285714285714286,-1.9285714285714286,-1.9285714285714286,-1.9285714285714286,-1.9285714285714286,-1.9285714285714286,-1.9285714285714286,-1.9285714285714286,-1.9285714285714286,-1.9285714285714286,-1.9285714285714286,-1.9285714285714286,-1.9285714285714286,-1.9285714285714286,-1.9285714285714286,-1.9285714285714286,-1.9285714285714286,-1.9285714285714286,-1.9285714285714286,-1.9285714285714286,-1.9285714285714286,-1.9285714285714286,-1.9285714285714286,-1.9285714285714286,-1.9285714285714286,-1.9285714285714286,-1.9285714285714286,-1.9285714285714286,-1.9285714285714286,-1.9285714285714286,-1.9285714285714286,-1.9285714285714286,-1.9285714285714286,-1.9285714285714286,-1.9285714285714286,-1.9285714285714286,-1.9285714285714286,-1.9285714285714286,-1.9285714285714286,-1.9285714285714286,-1.9285714285714286,-1.9285714285714286,-1.9285714285714286,-1.9285714285714286,-1.9285714285714286,-1.9285714285714286,-1.9285714285714286,-1.9285714285714286,-1.9285714285714286,-1.9285714285714286,-1.9285714285714286,-1.9285714285714286,-1.9285714285714286,-1.9285714285714286,-1.9285714285714286,-1.9285714285714286,-1.9285714285714286,-1.9285714285714286,-1.9285714285714286,-1.9285714285714286,-1.9285714285714286,-1.9285714285714286,-1.9285714285714286,-1.9285714285714286,-1.9285714285714286,-1.9285714285714286,-1.9285714285714286,-1.9285714285714286,-1.9285714285714286,-1.9285714285714286,-1.9285714285714286,-1.9285714285714286,-1.9285714285714286,-1.9285714285714286,-1.9285714285714286,-1.9285714285714286,-1.9285714285714286,-1.9285714285714286,-1.9285714285714286,-1.9285714285714286,-1.9285714285714286,-1.9285714285714286,-1.9285714285714286,-1.9285714285714286,-1.9285714285714286,-1.9285714285714286,-1.9285714285714286,-1.9285714285714286,-1.9285714285714286,-1.9285714285714286,-1.9285714285714286,-1.9285714285714286,-1.9285714285714286,-1.9285714285714286,-1.9285714285714286,-1.9285714285714286,-1.9285714285714286,-1.9285714285714286,-1.9285714285714286,-1.9285714285714286,-1.9285714285714286,-1.9285714285714286,-1.9285714285714286,-1.9285714285714286,-1.9285714285714286,-1.9285714285714286,-1.9285714285714286,-1.9285714285714286,-1.9285714285714286,-1.9285714285714286,-1.9285714285714286,-1.9285714285714286,-1.9285714285714286,-1.9285714285714286,-1.9285714285714286,-1.9285714285714286,-1.9285714285714286,-1.9285714285714286,-1.9285714285714286,-1.9285714285714286,-1.9285714285714286,-1.9285714285714286,-1.9285714285714286,-1.9285714285714286,-1.9285714285714286,-1.9285714285714286,-1.9285714285714286,-1.9285714285714286,-1.9285714285714286,-1.9285714285714286,-1.9285714285714286,-1.9285714285714286,-1.9285714285714286,-1.9285714285714286,-1.9285714285714286,-1.9285714285714286,-1.9285714285714286,-1.9285714285714286,-1.9285714285714286,-1.9285714285714286,-1.9285714285714286,-1.9285714285714286,-1.9285714285714286,-1.9285714285714286,-1.9285714285714286,-1.9285714285714286,-1.9285714285714286,-1.9285714285714286,-1.9285714285714286,-1.9285714285714286,-1.9285714285714286,-1.9285714285714286,-1.9285714285714286,-1.9285714285714286,-1.9285714285714286,-1.9285714285714286,-1.9285714285714286,-1.9285714285714286,-1.9285714285714286,-1.9285714285714286,-1.9285714285714286,-1.9285714285714286,-1.9285714285714286,-1.9285714285714286,-1.9285714285714286,-1.9285714285714286,-1.9285714285714286,-1.9285714285714286,-1.9285714285714286,-1.9285714285714286,-1.9285714285714286,-1.9285714285714286,-1.9285714285714286,-1.9285714285714286,-1.9285714285714286,-1.9285714285714286,-1.9285714285714286,-1.9285714285714286,-1.9285714285714286,-1.9285714285714286,-1.9285714285714286,-1.9285714285714286,-1.9285714285714286,-1.9285714285714286,-1.9285714285714286,-1.9285714285714286,-1.9285714285714286,-1.9285714285714286,-1.9285714285714286,-1.9285714285714286,-1.9285714285714286,-1.9285714285714286,-1.9285714285714286,-1.9285714285714286,-1.9285714285714286,-1.9285714285714286,-1.9285714285714286,-1.9285714285714286,-1.9285714285714286,-1.9285714285714286,-1.9285714285714286,-1.9285714285714286,-1.9285714285714286,-1.9285714285714286,-1.9285714285714286,-1.9285714285714286,-1.9285714285714286,-1.9285714285714286,-1.9285714285714286,-1.9285714285714286,-1.9285714285714286,-1.9285714285714286,-1.9285714285714286,-1.9285714285714286,-1.9285714285714286,-1.9285714285714286,-1.9285714285714286,-1.9285714285714286,-1.9285714285714286,-1.9285714285714286,-1.9285714285714286,-1.9285714285714286,-1.9285714285714286,-1.9285714285714286,-1.9285714285714286,-1.9285714285714286,-1.9285714285714286,-1.9285714285714286,-1.9285714285714286,-1.9285714285714286,-1.9285714285714286,-1.9285714285714286,-1.9285714285714286,-1.9285714285714286,-1.9285714285714286,-1.9285714285714286,-1.9285714285714286,-1.9285714285714286,-1.9285714285714286,-1.9285714285714286,-1.9285714285714286,-1.9285714285714286,-1.9285714285714286,-1.9285714285714286,-1.9285714285714286,-1.9285714285714286,-1.9285714285714286,-1.9285714285714286,-1.9285714285714286,-1.9285714285714286,-1.9285714285714286,-1.9285714285714286,-1.9285714285714286,-1.9285714285714286,-1.9285714285714286,-1.9285714285714286,-1.9285714285714286,-1.9285714285714286,-1.9285714285714286,-1.9285714285714286,-1.9285714285714286,-1.9285714285714286,-1.9285714285714286,-1.9285714285714286,-1.9285714285714286,-1.9285714285714286,-1.9285714285714286,-1.9285714285714286,-1.9285714285714286,-1.9285714285714286,-1.9285714285714286,-1.9285714285714286,-1.9285714285714286,-1.9285714285714286,-1.9285714285714286,-1.9285714285714286,-1.9285714285714286,-1.9285714285714286,-1.9285714285714286,-1.9285714285714286,-1.9285714285714286,-1.9285714285714286,-1.9285714285714286,-1.9285714285714286,-1.9285714285714286,-1.9285714285714286,-1.9285714285714286,-1.9285714285714286,-1.9285714285714286,-1.9285714285714286,-1.9285714285714286,-1.9285714285714286,-1.9285714285714286,-1.9285714285714286,0.047619047619047616,0.07482993197278912,0.11904761904761904,0.18027210884353742,0.23129251700680273,0.2891156462585034,0.336734693877551,0.36394557823129253,0.391156462585034,0.42857142857142855,0.445578231292517,0.46598639455782315,0.47619047619047616,0.4931972789115646,0.5,0.5034013605442177,0.5068027210884354,0.5102040816326531,0.5102040816326531,0.5102040816326531,0.5102040816326531,0.5136054421768708,0.5170068027210885,0.5238095238095238,0.5306122448979592,0.5408163265306123,0.5476190476190477,0.5510204081632653,0.5544217687074829,0.5578231292517006,0.5612244897959183,0.564625850340136,0.5680272108843537,0.5680272108843537,0.5680272108843537,0.5680272108843537,0.5680272108843537,0.5680272108843537,0.5680272108843537,0.5680272108843537,0.5680272108843537,0.5680272108843537,0.5680272108843537,0.5680272108843537,0.5680272108843537,0.5680272108843537,0.5680272108843537,0.5680272108843537,0.5680272108843537,0.5680272108843537,0.5680272108843537,0.5680272108843537,0.5680272108843537,0.5680272108843537,0.5680272108843537,0.5680272108843537,0.5680272108843537,0.5680272108843537,0.5680272108843537,0.5680272108843537,0.5680272108843537,0.5680272108843537,0.5680272108843537,0.5680272108843537,0.5680272108843537,0.5680272108843537,0.5680272108843537,0.5680272108843537,0.5680272108843537,0.5680272108843537,0.5680272108843537,0.5680272108843537,0.5680272108843537,0.5680272108843537,0.5680272108843537,0.5680272108843537,0.5680272108843537,0.5680272108843537,0.5680272108843537,0.5680272108843537,0.5680272108843537,0.5680272108843537,0.5680272108843537,0.5680272108843537,0.5680272108843537,0.5680272108843537,0.5680272108843537,0.5680272108843537,0.5680272108843537,0.5680272108843537,0.5680272108843537,0.5680272108843537,0.5748299319727891,0.5918367346938775,0.6054421768707483,0.6190476190476191,0.6224489795918368,0.6258503401360545,0.6258503401360545,0.6258503401360545,0.6258503401360545,0.6258503401360545,0.6224489795918368,0.6224489795918368,0.6224489795918368,0.6224489795918368,0.6224489795918368,0.6224489795918368,0.6224489795918368,0.6224489795918368,0.6224489795918368,0.6224489795918368,0.6224489795918368,0.6224489795918368,0.6224489795918368,0.6224489795918368,0.6224489795918368,0.6224489795918368,0.6224489795918368,0.6224489795918368,0.6224489795918368,0.6224489795918368,0.6224489795918368,0.6224489795918368,0.6224489795918368,0.6224489795918368,0.6224489795918368,0.6224489795918368,0.6224489795918368,0.6224489795918368,0.6224489795918368,0.6224489795918368,0.6224489795918368,0.6224489795918368,0.6224489795918368,0.6224489795918368,0.6224489795918368,0.6224489795918368,0.6224489795918368,0.6224489795918368,0.6224489795918368,0.6224489795918368,0.6224489795918368,0.6224489795918368,0.6224489795918368,0.6224489795918368,0.6224489795918368,0.6224489795918368,0.6224489795918368,0.6224489795918368,0.6224489795918368,0.6224489795918368,0.6224489795918368,0.6224489795918368,0.6224489795918368,0.6224489795918368,0.6224489795918368,0.6224489795918368,0.6224489795918368,0.6224489795918368,0.6224489795918368,0.6224489795918368,0.6224489795918368,0.6224489795918368,0.6224489795918368,0.6224489795918368,0.6224489795918368,0.6224489795918368,0.6224489795918368,0.6224489795918368,0.6224489795918368,0.6224489795918368,0.6224489795918368,0.6224489795918368,0.6224489795918368,0.6224489795918368,0.6224489795918368,0.6224489795918368,0.6224489795918368,0.6224489795918368,0.6224489795918368,0.6224489795918368,0.6224489795918368,0.6224489795918368,0.6224489795918368,0.6224489795918368,0.6224489795918368,0.6224489795918368,0.6224489795918368,0.6224489795918368,0.6224489795918368,0.6224489795918368,0.6224489795918368,0.6224489795918368,0.6224489795918368,0.6224489795918368,0.6224489795918368,0.6224489795918368,0.6224489795918368,0.6224489795918368,0.6224489795918368,0.6224489795918368,0.6224489795918368,0.6224489795918368,0.6224489795918368,0.6224489795918368,0.6224489795918368,0.6224489795918368,0.6224489795918368,0.6224489795918368,0.6224489795918368,0.6224489795918368,0.6224489795918368,0.6224489795918368,0.6224489795918368,0.6224489795918368,0.6224489795918368,0.6224489795918368,0.6224489795918368,0.6224489795918368,0.6224489795918368,0.6224489795918368,0.6224489795918368,0.6224489795918368,0.6224489795918368,0.6224489795918368,0.6224489795918368,0.6224489795918368,0.6224489795918368,0.6224489795918368,0.6224489795918368,0.6224489795918368,0.6224489795918368,0.6224489795918368,0.6224489795918368,0.6224489795918368,0.6224489795918368,0.6224489795918368,0.6224489795918368,0.6224489795918368,0.6224489795918368,0.6224489795918368,0.6224489795918368,0.6224489795918368,0.6224489795918368,0.6224489795918368,0.6224489795918368,0.6224489795918368,0.6224489795918368,0.6224489795918368,0.6224489795918368,0.6224489795918368,0.6224489795918368,0.6224489795918368,0.6224489795918368,0.6224489795918368,0.6224489795918368,0.6224489795918368,0.6224489795918368,0.6224489795918368,0.6224489795918368,0.6224489795918368,0.6224489795918368,0.6224489795918368,0.6224489795918368,0.6224489795918368,0.6224489795918368,0.6224489795918368,0.6224489795918368,0.6224489795918368,0.6224489795918368,0.6224489795918368,0.6224489795918368,0.6224489795918368,0.6224489795918368,0.6224489795918368,0.6224489795918368,0.6224489795918368,0.6224489795918368,0.6224489795918368,0.6224489795918368,0.6224489795918368,0.6224489795918368,0.6224489795918368,0.6224489795918368,0.6224489795918368,0.6224489795918368,0.6224489795918368,0.6224489795918368,0.6224489795918368,0.6224489795918368,0.6224489795918368,0.6224489795918368,0.6224489795918368,0.6224489795918368,0.6224489795918368,0.6224489795918368,0.6224489795918368,0.6224489795918368,0.6224489795918368,0.6224489795918368,0.6224489795918368,0.6224489795918368,0.6224489795918368,0.6224489795918368,0.6224489795918368,0.6224489795918368,0.6224489795918368,0.6224489795918368,0.6224489795918368,0.6224489795918368,0.6224489795918368,0.6224489795918368,0.6224489795918368,0.6224489795918368,0.6224489795918368,0.6224489795918368,0.6224489795918368,0.6224489795918368,0.6224489795918368,0.6224489795918368,0.6224489795918368,0.6224489795918368,0.6224489795918368,0.6224489795918368,0.6224489795918368,0.6224489795918368,0.6224489795918368,0.6224489795918368,0.6224489795918368,0.6224489795918368,0.6224489795918368,0.6224489795918368,0.6224489795918368,0.6224489795918368,0.6224489795918368,0.6224489795918368,0.6224489795918368,0.6224489795918368,0.6224489795918368,0.6224489795918368,0.6224489795918368,0.6224489795918368,0.6224489795918368,0.6224489795918368,0.6224489795918368,0.6224489795918368,0.6224489795918368,0.6224489795918368,0.6224489795918368,0.6224489795918368,0.6224489795918368,0.6224489795918368,0.6224489795918368,0.6224489795918368,0.6224489795918368,0.6224489795918368,0.6224489795918368,0.6224489795918368,0.6224489795918368,0.6224489795918368,0.6224489795918368,0.6224489795918368,0.6224489795918368,0.6224489795918368,0.6224489795918368,0.6224489795918368,0.6224489795918368,0.6224489795918368,0.6224489795918368,0.6224489795918368,0.6224489795918368,0.6224489795918368,0.6224489795918368,0.6224489795918368,0.6224489795918368,0.6224489795918368,0.6224489795918368,0.6224489795918368,0.6224489795918368,0.6224489795918368,0.6224489795918368,0.6224489795918368,0.6224489795918368,0.6224489795918368,0.6224489795918368,0.6224489795918368,0.6224489795918368,0.6224489795918368,0.6224489795918368,0.6224489795918368,0.6224489795918368,0.6224489795918368,0.6224489795918368,0.6224489795918368,0.6224489795918368,0.6224489795918368,0.6224489795918368,0.6224489795918368,0.6224489795918368,0.6224489795918368,0.6224489795918368,0.6224489795918368,0.6224489795918368,0.6224489795918368,0.6224489795918368,0.6224489795918368,0.6224489795918368,0.6224489795918368,0.6224489795918368,0.6224489795918368,0.6224489795918368,0.6224489795918368,0.6224489795918368,0.6224489795918368,0.6224489795918368,0.6224489795918368,0.6224489795918368,0.6224489795918368,0.6224489795918368,0.6224489795918368,0.6224489795918368,0.6224489795918368,0.6224489795918368,0.6224489795918368,0.6224489795918368,0.6224489795918368,0.6224489795918368,0.6224489795918368,0.6224489795918368,0.6224489795918368,0.6224489795918368,0.6190476190476191,0.5884353741496599,0.5408163265306123,0.4897959183673469,0.42517006802721086,0.40476190476190477,0.3877551020408163,0.3741496598639456,0.3673469387755102,0.3673469387755102,0.3673469387755102,0.3673469387755102,0.3673469387755102,0.3673469387755102,0.3673469387755102,0.3673469387755102,0.3673469387755102,0.3673469387755102,0.3673469387755102,0.3673469387755102,0.3673469387755102,0.3673469387755102,0.3673469387755102,0.3673469387755102,0.3673469387755102,0.3673469387755102,0.3673469387755102,0.3673469387755102,0.3673469387755102,0.3673469387755102,0.3673469387755102,0.3673469387755102,0.3673469387755102,0.3673469387755102,0.3673469387755102,0.3673469387755102,0.3673469387755102,0.3673469387755102,0.3673469387755102,0.3673469387755102,0.3673469387755102,0.3673469387755102,0.3673469387755102,0.3673469387755102,0.3673469387755102,0.3673469387755102,0.3673469387755102,0.3673469387755102,0.3673469387755102,0.3673469387755102,0.3673469387755102,0.3673469387755102,0.3673469387755102,0.3673469387755102,0.3673469387755102,0.3673469387755102,0.3673469387755102,0.3673469387755102,0.3673469387755102,0.3673469387755102,0.3673469387755102,0.3673469387755102,0.3673469387755102,0.3673469387755102,0.3673469387755102,0.3673469387755102,0.3673469387755102,0.3673469387755102,0.3673469387755102,0.3673469387755102,0.3673469387755102,0.3673469387755102,0.3673469387755102,0.3673469387755102,0.3673469387755102,0.3673469387755102,0.3673469387755102,0.3673469387755102,0.3673469387755102,0.3673469387755102,0.3673469387755102,0.3673469387755102,0.3673469387755102,0.3673469387755102,0.3673469387755102,0.3673469387755102,0.3673469387755102,0.3673469387755102,0.3673469387755102,0.3673469387755102,0.3673469387755102,0.3673469387755102,0.3673469387755102,0.3673469387755102,0.3673469387755102,0.3673469387755102,0.3673469387755102,0.3673469387755102,0.3673469387755102,0.3673469387755102,0.3673469387755102,0.3673469387755102,0.3673469387755102,0.3673469387755102,0.3673469387755102,0.3673469387755102,0.3673469387755102,0.3673469387755102,0.3673469387755102,0.3673469387755102,0.3673469387755102,0.3673469387755102,0.3673469387755102,0.3673469387755102,0.3673469387755102,0.3673469387755102,0.3673469387755102,0.3673469387755102,0.3673469387755102,0.3673469387755102,0.3673469387755102,0.3673469387755102,0.3673469387755102,0.3673469387755102,0.3673469387755102,0.3673469387755102,0.3673469387755102,0.3673469387755102,0.3673469387755102,0.3673469387755102,0.3673469387755102,0.3673469387755102,0.3673469387755102,0.3673469387755102,0.3673469387755102,0.3673469387755102,0.3673469387755102,0.3673469387755102,0.3673469387755102,0.3673469387755102,0.3673469387755102,0.3673469387755102,0.3673469387755102,0.3673469387755102,0.3673469387755102,0.3673469387755102,0.3673469387755102,0.3673469387755102,0.3673469387755102,0.3673469387755102,0.3673469387755102,0.3673469387755102,0.3673469387755102,0.3673469387755102,0.3673469387755102,0.3673469387755102,0.3673469387755102,0.3673469387755102,0.3673469387755102,0.3673469387755102,0.3673469387755102,0.3673469387755102,0.3673469387755102,0.3673469387755102,0.3673469387755102,0.3673469387755102,0.3673469387755102,0.3673469387755102,0.3673469387755102,0.3673469387755102,0.3673469387755102,0.3673469387755102,0.3673469387755102,0.3673469387755102,0.3673469387755102,0.3673469387755102,0.3673469387755102,0.3673469387755102,0.3673469387755102,0.3673469387755102,0.3673469387755102,0.3673469387755102,0.3673469387755102,0.3673469387755102,0.3673469387755102,0.3673469387755102,0.3673469387755102,0.3673469387755102,0.3673469387755102,0.3673469387755102,0.3673469387755102,0.3673469387755102,0.3673469387755102,0.3673469387755102,0.3673469387755102,0.3673469387755102,0.3673469387755102,0.3673469387755102,0.3673469387755102,0.3673469387755102,0.3673469387755102,0.3673469387755102,0.3673469387755102,0.3673469387755102,0.3673469387755102,0.3673469387755102,0.3673469387755102,0.3673469387755102,0.3673469387755102,0.3673469387755102,0.3673469387755102,0.3673469387755102,0.3673469387755102,0.3673469387755102,0.3673469387755102,0.3673469387755102,0.3673469387755102,0.3673469387755102,0.3673469387755102,0.3673469387755102,0.3673469387755102,0.3673469387755102,0.3673469387755102,0.3673469387755102,0.3673469387755102,0.3673469387755102,0.3673469387755102,0.3673469387755102,0.3673469387755102,0.3673469387755102,0.3673469387755102,0.3673469387755102,0.3673469387755102,0.3673469387755102,0.3673469387755102,0.3673469387755102,0.3673469387755102,0.3673469387755102,0.3673469387755102,0.3673469387755102,0.3673469387755102,0.3673469387755102,0.3673469387755102,0.3673469387755102,0.3673469387755102,0.3673469387755102,0.3673469387755102,0.3673469387755102,0.3673469387755102,0.3673469387755102,0.3673469387755102,0.3673469387755102,0.3673469387755102,0.3673469387755102,0.3673469387755102,0.3673469387755102,0.3673469387755102,0.3673469387755102,0.3673469387755102,0.3673469387755102,0.3673469387755102,0.3673469387755102,0.3673469387755102,0.3673469387755102,0.3673469387755102,0.3673469387755102,0.3673469387755102,0.3673469387755102,0.3673469387755102,0.3673469387755102,0.3673469387755102,0.3673469387755102,0.3673469387755102,0.3673469387755102,0.3673469387755102,0.3673469387755102,0.3673469387755102,0.3673469387755102,0.3673469387755102,0.3673469387755102,0.3673469387755102,0.3673469387755102,0.3673469387755102,0.3673469387755102,0.3673469387755102,0.3673469387755102,0.3673469387755102,0.3673469387755102,0.3673469387755102,0.3673469387755102,0.3673469387755102,0.3673469387755102,0.3673469387755102,0.3673469387755102,0.3673469387755102,0.3673469387755102,0.3673469387755102,0.3673469387755102,0.3673469387755102,0.3673469387755102,0.3673469387755102,0.3673469387755102,0.3673469387755102,0.3673469387755102,0.3673469387755102,0.3673469387755102,0.3673469387755102,0.3673469387755102,0.3673469387755102,0.3673469387755102,0.3673469387755102,0.3673469387755102,0.3673469387755102,0.3673469387755102,0.3673469387755102,0.3673469387755102,0.3673469387755102,0.3673469387755102,0.3673469387755102,0.3673469387755102,0.3673469387755102,0.3673469387755102,0.3673469387755102,0.3673469387755102,0.3673469387755102,0.3673469387755102,0.3673469387755102,0.3673469387755102,0.3673469387755102,0.3673469387755102,0.3673469387755102,0.3673469387755102,0.3673469387755102,0.3673469387755102,0.3673469387755102,0.3673469387755102,0.3673469387755102,0.3673469387755102,0.3673469387755102,0.3673469387755102,0.3673469387755102,0.3673469387755102,0.3673469387755102,0.3673469387755102,0.3673469387755102,0.3673469387755102,0.3673469387755102,0.3673469387755102,0.3673469387755102,0.3673469387755102,0.3673469387755102,0.3673469387755102,0.3673469387755102,0.3673469387755102,0.3673469387755102,0.3673469387755102,0.3673469387755102,0.3673469387755102,0.3673469387755102,0.3673469387755102,0.3673469387755102,0.3673469387755102,0.3673469387755102,0.3673469387755102,0.3673469387755102,0.3673469387755102,0.3673469387755102,0.3673469387755102,0.3673469387755102,0.3673469387755102,0.3673469387755102,0.3673469387755102,0.3673469387755102,0.3673469387755102,0.3673469387755102,0.3673469387755102,0.3673469387755102,0.3673469387755102,0.3673469387755102,0.3673469387755102,0.3673469387755102,0.3673469387755102,0.3673469387755102,0.3673469387755102,0.3673469387755102,0.3673469387755102,0.3673469387755102,0.3673469387755102,0.3673469387755102,0.3673469387755102,0.3673469387755102,0.3673469387755102,0.3673469387755102,0.3673469387755102,0.3673469387755102,0.3673469387755102,0.3673469387755102,0.3673469387755102,0.3673469387755102,0.3673469387755102,0.3673469387755102,0.3673469387755102,0.3673469387755102,0.3673469387755102,0.3673469387755102,0.3673469387755102,0.3673469387755102,0.3673469387755102,0.3673469387755102,0.3673469387755102,0.3673469387755102,0.3673469387755102,0.3673469387755102,0.3673469387755102,0.3673469387755102,0.3673469387755102,0.3673469387755102,0.3673469387755102,0.3673469387755102,0.3673469387755102,0.3673469387755102,0.3673469387755102,0.3673469387755102,0.3673469387755102,0.3673469387755102,0.3673469387755102,0.3673469387755102,0.3673469387755102,0.3673469387755102,0.3673469387755102,0.3673469387755102,0.3673469387755102,0.3673469387755102,0.3673469387755102,0.3673469387755102,0.3673469387755102,0.3673469387755102,0.3673469387755102,0.3673469387755102,0.3673469387755102,0.3673469387755102,0.3673469387755102,0.3673469387755102,0.3673469387755102,0.3673469387755102,0.3673469387755102,0.3673469387755102,0.3673469387755102,0.3673469387755102,0.3673469387755102,0.3673469387755102,0.3673469387755102,0.3673469387755102,0.3673469387755102,0.3673469387755102,0.3673469387755102,0.3673469387755102,0.3673469387755102,0.3673469387755102,0.3673469387755102,0.3673469387755102,0.3673469387755102,0.3673469387755102,0.3673469387755102,0.3673469387755102,0.3673469387755102,0.3673469387755102,0.3673469387755102,0.3673469387755102,0.3673469387755102,0.3673469387755102,0.3673469387755102,0.3673469387755102,0.3673469387755102,0.3673469387755102,0.3673469387755102,0.3673469387755102,0.3673469387755102,0.3673469387755102,0.3673469387755102,0.3673469387755102,0.3673469387755102,0.3673469387755102,0.3673469387755102,0.3673469387755102,0.3673469387755102,0.3673469387755102,0.3673469387755102,0.3673469387755102,0.3673469387755102,0.3673469387755102,0.3673469387755102,0.3673469387755102,0.3673469387755102,0.3673469387755102,0.3673469387755102,0.3673469387755102,0.3673469387755102,0.3673469387755102,0.3673469387755102,0.3673469387755102,0.3673469387755102,0.3673469387755102,0.3673469387755102,0.3673469387755102,0.3673469387755102,0.3673469387755102,0.3673469387755102,0.3673469387755102,0.3673469387755102,0.3673469387755102,0.3673469387755102,0.3673469387755102,0.3673469387755102,0.3673469387755102,0.3673469387755102,0.3673469387755102,0.3673469387755102,0.3673469387755102,0.3673469387755102,0.3673469387755102,0.3673469387755102,0.3673469387755102,0.3673469387755102,0.3673469387755102,0.3673469387755102,0.3673469387755102,0.3673469387755102,0.3673469387755102,0.3673469387755102,0.3673469387755102,0.3673469387755102,0.3673469387755102,0.3673469387755102,0.3673469387755102,0.3673469387755102,0.3673469387755102,0.3673469387755102,0.3673469387755102,0.3673469387755102,0.3673469387755102,0.3673469387755102,0.3673469387755102,0.3673469387755102,0.3673469387755102,0.3673469387755102,0.3673469387755102,0.3673469387755102,0.3673469387755102,0.3673469387755102,0.3673469387755102,0.3673469387755102,0.3673469387755102,0.3673469387755102,0.3673469387755102,0.3673469387755102,0.3673469387755102,0.3673469387755102,0.3673469387755102,0.3673469387755102,0.3673469387755102,0.3673469387755102,0.3673469387755102,0.3673469387755102,0.3673469387755102,0.3673469387755102,0.3673469387755102,0.3673469387755102,0.3673469387755102,0.3673469387755102,0.3673469387755102,0.3673469387755102,0.3673469387755102,0.3673469387755102,0.3673469387755102,0.3673469387755102,0.3673469387755102,0.3673469387755102,0.3673469387755102,0.3673469387755102,0.3673469387755102,0.3673469387755102,0.3673469387755102,0.3673469387755102,0.3673469387755102,0.3673469387755102,0.3673469387755102,0.3673469387755102,0.3673469387755102,0.3673469387755102,0.3673469387755102,0.3673469387755102,0.3673469387755102,0.3673469387755102,0.3673469387755102,0.3673469387755102,0.3673469387755102,0.3673469387755102,0.3673469387755102,0.3673469387755102,0.3673469387755102,0.3673469387755102,0.3673469387755102,0.3673469387755102,0.3673469387755102,0.3673469387755102,0.3673469387755102,0.3673469387755102,0.3673469387755102,0.3673469387755102,0.3673469387755102,0.3673469387755102,0.3673469387755102,0.3673469387755102,0.3673469387755102,0.3673469387755102,0.3673469387755102,0.3673469387755102,0.3673469387755102,0.3673469387755102,0.3673469387755102,0.3673469387755102,0.3673469387755102,0.3673469387755102,0.3673469387755102,0.3673469387755102,0.3673469387755102,0.3673469387755102,0.3673469387755102,0.3673469387755102,0.3673469387755102,0.3673469387755102,0.3673469387755102,0.3673469387755102,0.3673469387755102,0.3673469387755102,0.3673469387755102,0.3673469387755102,0.3673469387755102,0.3673469387755102,0.3673469387755102,0.3673469387755102,0.3673469387755102,0.3673469387755102,0.3673469387755102,0.3673469387755102,0.3673469387755102,0.3673469387755102,0.3673469387755102,0.3673469387755102,0.3673469387755102,0.3673469387755102,0.3673469387755102,0.3673469387755102,0.3673469387755102,0.3673469387755102,0.3673469387755102,0.3673469387755102,0.3673469387755102,0.3673469387755102,0.3673469387755102,0.3673469387755102,0.3673469387755102,0.3673469387755102,0.3673469387755102,0.3673469387755102,0.3673469387755102,0.3673469387755102,0.3673469387755102,0.3673469387755102,0.3673469387755102,0.3673469387755102,0.3673469387755102,0.3673469387755102,0.3673469387755102,0.3673469387755102,0.3673469387755102,0.3673469387755102,0.3673469387755102,0.3673469387755102,0.3673469387755102,0.3673469387755102,0.3673469387755102,0.3673469387755102,0.3673469387755102,0.3673469387755102,0.3673469387755102,0.3673469387755102,0.3673469387755102,0.3673469387755102,0.3673469387755102,0.3673469387755102,0.3673469387755102,0.3673469387755102,0.3673469387755102,0.3673469387755102,0.3673469387755102,0.3673469387755102,0.3673469387755102,0.3673469387755102,0.3673469387755102,0.3673469387755102,0.3673469387755102,0.3673469387755102,0.3673469387755102,0.3673469387755102,0.3673469387755102,0.3673469387755102,0.3673469387755102,0.3673469387755102,0.3673469387755102,0.3673469387755102,0.3673469387755102,0.3673469387755102,0.3673469387755102,0.3673469387755102,0.3673469387755102,0.3673469387755102,0.3673469387755102,0.3673469387755102,0.3673469387755102,0.3673469387755102,0.3673469387755102,0.3673469387755102,0.3673469387755102,0.3673469387755102,0.3673469387755102,0.3673469387755102,0.3741496598639456,0.391156462585034,0.4013605442176871,0.41836734693877553,0.43197278911564624,0.4489795918367347,0.4557823129251701,0.46258503401360546,0.46598639455782315,0.46938775510204084,0.47278911564625853,0.47619047619047616,0.47959183673469385,0.48299319727891155,0.48639455782312924,0.4897959183673469,0.4965986394557823,0.5034013605442177,0.5102040816326531,0.5272108843537415,0.54421768707483,0.5680272108843537,0.608843537414966,0.6428571428571429,0.6768707482993197,0.6972789115646258,0.7244897959183674,0.7380952380952381,0.7517006802721088,0.7585034013605442,0.7619047619047619,0.7619047619047619,0.7653061224489796,0.7653061224489796,0.7653061224489796,0.7653061224489796,0.7653061224489796,0.7653061224489796,0.7653061224489796,0.7653061224489796,0.7653061224489796,0.7653061224489796,0.7653061224489796,0.7653061224489796,0.7653061224489796,0.7653061224489796,0.7653061224489796,0.7653061224489796,0.7653061224489796,0.7653061224489796,0.7653061224489796,0.7653061224489796,0.7653061224489796,0.7653061224489796,0.7653061224489796,0.7653061224489796,0.7653061224489796,0.7653061224489796,0.7653061224489796,0.7653061224489796,0.7653061224489796,0.7653061224489796,0.7653061224489796,0.7653061224489796,0.7653061224489796,0.7653061224489796,0.7653061224489796,0.7653061224489796,0.7653061224489796,0.7653061224489796,0.7653061224489796,0.7653061224489796,0.7653061224489796,0.7653061224489796,0.7653061224489796,0.7653061224489796,0.7653061224489796,0.7653061224489796,0.7653061224489796,0.7653061224489796,0.7653061224489796,0.7653061224489796,0.7653061224489796,0.7653061224489796,0.7653061224489796,0.7653061224489796,0.7653061224489796,0.7653061224489796,0.7653061224489796,0.7653061224489796,0.7653061224489796,0.7653061224489796,0.7653061224489796,0.7653061224489796,0.7653061224489796,0.7653061224489796,0.7653061224489796,0.7653061224489796,0.7653061224489796,0.7653061224489796,0.7653061224489796,0.7653061224489796,0.7653061224489796,0.7653061224489796,0.7653061224489796,0.7653061224489796,0.7653061224489796,0.7653061224489796,0.7653061224489796,0.7653061224489796,0.7653061224489796,0.7653061224489796,0.7653061224489796,0.7653061224489796,0.7653061224489796,0.7653061224489796,0.7653061224489796,0.7653061224489796,0.7653061224489796,0.7653061224489796,0.7653061224489796,0.7653061224489796,0.7653061224489796,0.7653061224489796,0.7653061224489796,0.7653061224489796,0.7653061224489796,0.7653061224489796,0.7653061224489796,0.7653061224489796,0.7721088435374149,0.7789115646258503,0.7789115646258503,0.782312925170068,0.782312925170068,0.782312925170068,0.782312925170068,0.782312925170068,0.782312925170068,0.782312925170068,0.782312925170068,0.782312925170068,0.7857142857142857,0.7857142857142857,0.7857142857142857,0.7857142857142857,0.7857142857142857,0.7857142857142857,0.7857142857142857,0.7857142857142857,0.7857142857142857,0.7857142857142857,0.7857142857142857,0.7857142857142857,0.7857142857142857,0.7857142857142857,0.7857142857142857,0.7857142857142857,0.7857142857142857,0.7857142857142857,0.7857142857142857,0.7857142857142857,0.7857142857142857,0.7857142857142857,0.7857142857142857,0.7857142857142857,0.7857142857142857,0.7857142857142857,0.7857142857142857,0.7857142857142857,0.7857142857142857,0.7857142857142857,0.7857142857142857,0.7857142857142857,0.7857142857142857,0.7857142857142857,0.7857142857142857,0.7857142857142857,0.7857142857142857,0.7857142857142857,0.7857142857142857,0.7857142857142857,0.7857142857142857,0.7857142857142857,0.7857142857142857,0.7857142857142857,0.7857142857142857,0.7857142857142857,0.7857142857142857,0.7857142857142857,0.7857142857142857,0.7857142857142857,0.7857142857142857,0.7857142857142857,0.7857142857142857,0.7857142857142857,0.7857142857142857,0.7857142857142857,0.7857142857142857,0.7857142857142857,0.7857142857142857,0.7857142857142857,0.7857142857142857,0.7857142857142857,0.7857142857142857,0.7857142857142857,0.7857142857142857,0.7857142857142857,0.7857142857142857,0.7857142857142857,0.7857142857142857,0.7857142857142857,0.7857142857142857,0.7857142857142857,0.7857142857142857,0.7857142857142857,0.7857142857142857,0.7857142857142857,0.7857142857142857,0.7857142857142857,0.7857142857142857,0.7857142857142857,0.7857142857142857,0.7857142857142857,0.7857142857142857,0.7857142857142857,0.7857142857142857,0.7857142857142857,0.7755102040816326,0.7448979591836735,0.7074829931972789,0.6530612244897959,0.6054421768707483,0.5816326530612245,0.5612244897959183,0.5510204081632653,0.54421768707483,0.54421768707483,0.54421768707483,0.54421768707483,0.54421768707483,0.54421768707483,0.54421768707483,0.54421768707483,0.54421768707483,0.54421768707483,0.54421768707483,0.54421768707483,0.54421768707483,0.54421768707483,0.54421768707483,0.54421768707483,0.54421768707483,0.54421768707483,0.5374149659863946,0.5272108843537415,0.5102040816326531,0.5,0.4897959183673469,0.47619047619047616,0.46938775510204084,0.46598639455782315,0.46598639455782315,0.46598639455782315,0.46598639455782315,0.46258503401360546,0.46258503401360546,0.46258503401360546,0.46258503401360546,0.46258503401360546,0.46258503401360546,0.46258503401360546,0.46258503401360546,0.46258503401360546,0.46258503401360546,0.46258503401360546,0.46258503401360546,0.46258503401360546,0.46258503401360546,0.46258503401360546,0.46258503401360546,0.46258503401360546,0.46258503401360546,0.46258503401360546,0.46258503401360546,0.46258503401360546,0.46258503401360546,0.46258503401360546,0.46258503401360546,0.46258503401360546,0.46258503401360546,0.46258503401360546,0.46258503401360546,0.46258503401360546,0.46258503401360546,0.46258503401360546,0.46258503401360546,0.46258503401360546,0.46258503401360546,0.46258503401360546,0.46258503401360546,0.46258503401360546,0.46258503401360546,0.46258503401360546,0.46258503401360546,0.46258503401360546,0.46258503401360546,0.46258503401360546,0.46258503401360546,0.46258503401360546,0.46258503401360546,0.46258503401360546,0.46258503401360546,0.46258503401360546,0.46258503401360546,0.46258503401360546,0.46258503401360546,0.46258503401360546,0.46258503401360546,0.46258503401360546,0.46258503401360546,0.46258503401360546,0.46258503401360546,0.46258503401360546,0.46258503401360546,0.46258503401360546,0.46258503401360546,0.46258503401360546,0.46258503401360546,0.46258503401360546,0.46258503401360546,0.46258503401360546,0.46258503401360546,0.46258503401360546,0.46258503401360546,0.46258503401360546,0.46258503401360546,0.46258503401360546,0.4489795918367347,0.41496598639455784,0.37755102040816324,0.3231292517006803,0.2789115646258503,0.25170068027210885,0.23129251700680273,0.22108843537414966,0.21768707482993196,0.21428571428571427,0.21428571428571427,0.21428571428571427,0.21428571428571427,0.21428571428571427,0.21428571428571427,0.21428571428571427,0.21428571428571427,0.21428571428571427,0.21428571428571427,0.21428571428571427,0.21428571428571427,0.21428571428571427,0.21768707482993196,0.23809523809523808,0.2653061224489796,0.2891156462585034,0.3129251700680272,0.3299319727891156,0.3435374149659864,0.35034013605442177,0.35714285714285715,0.36054421768707484,0.36394557823129253,0.3707482993197279,0.37755102040816324,0.3843537414965986,0.391156462585034,0.391156462585034,0.3945578231292517,0.3945578231292517,0.3979591836734694,0.4013605442176871,0.40476190476190477,0.40816326530612246,0.41496598639455784,0.4217687074829932,0.42857142857142855,0.43197278911564624,0.43537414965986393,0.43537414965986393,0.43537414965986393,0.43537414965986393,0.43537414965986393,0.43537414965986393,0.43537414965986393,0.43537414965986393,0.43537414965986393,0.43537414965986393,0.43537414965986393,0.43537414965986393,0.43537414965986393,0.43537414965986393,0.43537414965986393,0.43537414965986393,0.43537414965986393,0.43537414965986393,0.43537414965986393,0.43537414965986393,0.43537414965986393,0.43537414965986393,0.43537414965986393,0.43537414965986393,0.43537414965986393,0.43537414965986393,0.43537414965986393,0.43537414965986393,0.43537414965986393,0.43537414965986393,0.43537414965986393,0.43537414965986393,0.43537414965986393,0.43537414965986393,0.43537414965986393,0.43537414965986393,0.43537414965986393,0.43537414965986393,0.43537414965986393,0.43537414965986393,0.43537414965986393,0.43537414965986393,0.43537414965986393,0.43537414965986393,0.43537414965986393,0.43537414965986393,0.43537414965986393,0.43537414965986393,0.43537414965986393,0.43537414965986393,0.43537414965986393,0.43537414965986393,0.43537414965986393,0.43537414965986393,0.43537414965986393,0.43537414965986393,0.43537414965986393,0.43537414965986393,0.43537414965986393,0.43537414965986393,0.43537414965986393,0.43537414965986393,0.43537414965986393,0.43537414965986393,0.43537414965986393,0.43537414965986393,0.43537414965986393,0.43537414965986393,0.43537414965986393,0.43537414965986393,0.43537414965986393,0.43537414965986393,0.43537414965986393,0.43537414965986393,0.43537414965986393,0.43537414965986393,0.43537414965986393,0.43537414965986393,0.43537414965986393,0.43537414965986393,0.43537414965986393,0.43537414965986393,0.43537414965986393,0.43537414965986393,0.43537414965986393,0.43537414965986393,0.43537414965986393,0.43537414965986393,0.43537414965986393,0.43537414965986393,0.43537414965986393,0.43537414965986393,0.43537414965986393,0.43537414965986393,0.43537414965986393,0.43537414965986393,0.43537414965986393,0.43537414965986393,0.43537414965986393,0.43537414965986393,0.43537414965986393,0.43537414965986393,0.43537414965986393,0.43537414965986393,0.43537414965986393,0.43537414965986393,0.43537414965986393,0.43537414965986393,0.43537414965986393,0.43537414965986393,0.43537414965986393,0.4387755102040816,0.46258503401360546,0.48639455782312924,0.5204081632653061,0.5612244897959183,0.608843537414966,0.6836734693877551,0.7278911564625851,0.782312925170068,0.8367346938775511,0.8775510204081632,0.8979591836734694,0.9285714285714286,0.9387755102040817,0.9523809523809523,0.9591836734693877,0.9625850340136054,0.9693877551020408,0.9693877551020408,0.9727891156462585,0.9727891156462585,0.9727891156462585,0.9727891156462585,0.9727891156462585,0.9727891156462585,0.9761904761904762,0.9761904761904762,0.9761904761904762,0.9761904761904762,0.9761904761904762,0.9761904761904762,0.9761904761904762,0.9761904761904762,0.9761904761904762,0.9761904761904762,0.9761904761904762,0.9761904761904762,0.9761904761904762,0.9761904761904762,0.9761904761904762,0.9761904761904762,0.9761904761904762,0.9761904761904762,0.9761904761904762,0.9761904761904762,0.9761904761904762,0.9761904761904762,0.9761904761904762,0.9761904761904762,0.9761904761904762,0.9761904761904762,0.9761904761904762,0.9761904761904762,0.9761904761904762,0.9761904761904762,0.9761904761904762,0.9761904761904762,0.9761904761904762,0.9761904761904762,0.9761904761904762,0.9761904761904762,0.9761904761904762,0.9761904761904762,0.9761904761904762,0.9761904761904762,0.9761904761904762,0.9761904761904762,0.9761904761904762,0.9761904761904762,0.9761904761904762,0.9761904761904762,0.9761904761904762,0.9761904761904762,0.9761904761904762,0.9761904761904762,0.9761904761904762,0.9761904761904762,0.9761904761904762,0.9761904761904762,0.9761904761904762,0.9761904761904762,0.9761904761904762,0.9761904761904762,0.9761904761904762,0.9761904761904762,0.9251700680272109,0.782312925170068,0.6190476190476191,0.4489795918367347,0.3843537414965986,0.336734693877551,0.29591836734693877,0.2789115646258503,0.2687074829931973,0.2653061224489796,0.2653061224489796,0.2653061224489796,0.2653061224489796,0.2653061224489796,0.2653061224489796,0.2653061224489796,0.2653061224489796,0.2653061224489796,0.2653061224489796,0.2653061224489796,0.2653061224489796,0.2653061224489796,0.2653061224489796,0.2653061224489796,0.2653061224489796,0.2653061224489796,0.2653061224489796,0.2653061224489796,0.2653061224489796,0.2653061224489796,0.2653061224489796,0.2653061224489796,0.2619047619047619,0.24829931972789115,0.23469387755102042,0.21428571428571427,0.20068027210884354,0.19047619047619047,0.17687074829931973,0.16326530612244897,0.15306122448979592,0.14285714285714285,0.1360544217687075,0.1326530612244898,0.1326530612244898,0.1292517006802721,0.1292517006802721,0.1292517006802721,0.1292517006802721,0.1360544217687075,0.14285714285714285,0.14965986394557823,0.15306122448979592,0.1564625850340136,0.1564625850340136,0.1598639455782313,0.1598639455782313,0.1598639455782313,0.1598639455782313,0.1598639455782313,0.1598639455782313,0.1598639455782313,0.1598639455782313,0.1598639455782313,0.1598639455782313,0.1598639455782313,0.1598639455782313,0.1598639455782313,0.1598639455782313,0.1598639455782313,0.1598639455782313,0.1598639455782313,0.1598639455782313,0.1598639455782313,0.1598639455782313,0.1598639455782313,0.1598639455782313,0.1598639455782313,0.1598639455782313,0.1598639455782313,0.1598639455782313,0.1598639455782313,0.1598639455782313,0.1598639455782313,0.1598639455782313,0.1598639455782313,0.1598639455782313,0.1598639455782313,0.1598639455782313,0.1598639455782313,0.1598639455782313,0.1598639455782313,0.1598639455782313,0.1598639455782313,0.1598639455782313,0.1598639455782313,0.1598639455782313,0.1598639455782313,0.1598639455782313,0.1598639455782313,0.1598639455782313,0.1598639455782313,0.1598639455782313,0.1598639455782313,0.1598639455782313,0.1598639455782313,0.1598639455782313,0.1598639455782313,0.1598639455782313,0.1598639455782313,0.1598639455782313,0.1598639455782313,0.1598639455782313,0.1598639455782313,0.1598639455782313,0.1598639455782313,0.1598639455782313,0.1598639455782313,0.1598639455782313,0.1598639455782313,0.1598639455782313,0.1598639455782313,0.1598639455782313,0.1598639455782313,0.1598639455782313,0.1598639455782313,0.1598639455782313,0.1598639455782313,0.1598639455782313,0.1598639455782313,0.1598639455782313,0.1598639455782313,0.1598639455782313,0.1598639455782313,0.1598639455782313,0.1598639455782313,0.1598639455782313,0.1598639455782313,0.1598639455782313,0.1598639455782313,0.1598639455782313,0.1598639455782313,0.1598639455782313,0.1598639455782313,0.1598639455782313,0.1598639455782313,0.1598639455782313,0.1598639455782313,0.1598639455782313,0.17346938775510204,0.19727891156462585,0.24149659863945577,0.29591836734693877,0.3673469387755102,0.46938775510204084,0.5136054421768708,0.5612244897959183,0.5952380952380952,0.6156462585034014,0.6360544217687075,0.6428571428571429,0.6428571428571429,0.6428571428571429,0.6428571428571429,0.6428571428571429,0.6428571428571429,0.6428571428571429,0.6564625850340136,0.7006802721088435,0.7687074829931972,0.8299319727891157,0.8843537414965986,0.9455782312925171,1.010204081632653,1.034013605442177,1.0612244897959184,1.064625850340136,1.0680272108843538,1.0680272108843538,1.0680272108843538,1.064625850340136,1.064625850340136,1.064625850340136,1.0612244897959184,1.0612244897959184,1.054421768707483,1.034013605442177,1.0136054421768708,1,0.9863945578231292,0.9795918367346939,0.9761904761904762,0.9727891156462585,0.9727891156462585,0.9727891156462585,0.9727891156462585,0.9727891156462585,0.9727891156462585,0.9727891156462585,0.9727891156462585,0.9727891156462585,0.9727891156462585,0.9727891156462585,0.9727891156462585,0.9727891156462585,0.9727891156462585,0.9727891156462585,0.9727891156462585,0.9727891156462585,0.9727891156462585,0.9727891156462585,0.9727891156462585,0.9727891156462585,0.9727891156462585,0.9727891156462585,0.9727891156462585,0.9727891156462585,0.9727891156462585,0.9727891156462585,0.9727891156462585,0.9727891156462585,0.9727891156462585,0.9727891156462585,0.9727891156462585,0.9727891156462585,0.9727891156462585,0.9727891156462585,0.9727891156462585,0.9727891156462585,0.9727891156462585,0.9727891156462585,0.9727891156462585,0.9217687074829932,0.7925170068027211,0.6768707482993197,0.5374149659863946,0.46938775510204084,0.40816326530612246,0.38095238095238093,0.35034013605442177,0.3333333333333333,0.3163265306122449,0.30952380952380953,0.30612244897959184,0.30272108843537415,0.30952380952380953,0.35034013605442177,0.41156462585034015,0.48299319727891155,0.5612244897959183,0.6530612244897959,0.6904761904761905,0.7891156462585034,0.8367346938775511,0.8639455782312925,0.8843537414965986,0.8979591836734694,0.9013605442176871,0.9013605442176871,0.9013605442176871,0.9013605442176871,0.9013605442176871,0.9013605442176871,0.9047619047619048,0.9047619047619048,0.9047619047619048,0.9047619047619048,0.9047619047619048,0.9047619047619048,0.9047619047619048,0.9251700680272109,0.9489795918367347,0.9795918367346939,1.0238095238095237,1.054421768707483,1.0714285714285714,1.0918367346938775,1.1054421768707483,1.1122448979591837,1.1156462585034013,1.119047619047619,1.119047619047619,1.1224489795918366,1.1224489795918366,1.1224489795918366,1.1224489795918366,1.1224489795918366,1.1224489795918366,1.1258503401360545,1.1258503401360545,1.1258503401360545,1.1258503401360545,1.1258503401360545,1.1258503401360545,1.1258503401360545,1.1258503401360545,1.1258503401360545,1.1258503401360545,1.1258503401360545,1.1258503401360545,1.1258503401360545,1.1258503401360545,1.1258503401360545,1.1224489795918366,1.0952380952380953,0.9829931972789115,0.8503401360544217,0.6530612244897959,0.3877551020408163,0.14285714285714285,0.003401360544217687,-0.08503401360544217,-0.13945578231292516,-0.1836734693877551,-0.19727891156462585,-0.20408163265306123,-0.20408163265306123,-0.20408163265306123,-0.20408163265306123,-0.20408163265306123,-0.20408163265306123,-0.20408163265306123,-0.20408163265306123,-0.20408163265306123,-0.20408163265306123,-0.1870748299319728,-0.13945578231292516,-0.09863945578231292,-0.06802721088435375,-0.04421768707482993,-0.027210884353741496,-0.02040816326530612,-0.013605442176870748,-0.013605442176870748,-0.01020408163265306,-0.006802721088435374,-0.006802721088435374,-0.006802721088435374,-0.006802721088435374,-0.006802721088435374,-0.003401360544217687,-0.003401360544217687,0,0.003401360544217687,0.003401360544217687,0.003401360544217687,0.003401360544217687,0.003401360544217687,0.003401360544217687,0.003401360544217687,0.003401360544217687,0.003401360544217687,0.003401360544217687,0.003401360544217687,0.003401360544217687,0.003401360544217687,0.003401360544217687,0.003401360544217687,0.003401360544217687,0.003401360544217687,0.003401360544217687,0.003401360544217687,0.003401360544217687,0.003401360544217687,0.003401360544217687,0.003401360544217687,0.003401360544217687,0.003401360544217687,0.003401360544217687,0.003401360544217687,0.003401360544217687,0.003401360544217687,0.003401360544217687,0.003401360544217687,0.003401360544217687,0.003401360544217687,0.003401360544217687,0.003401360544217687,0.003401360544217687,0.003401360544217687,0.003401360544217687,0.003401360544217687,0.003401360544217687,0.003401360544217687,0.003401360544217687,0.003401360544217687,0.003401360544217687,0.003401360544217687,0.003401360544217687,0.003401360544217687,0.003401360544217687,0.003401360544217687,0.003401360544217687,0.003401360544217687,0.003401360544217687,0.003401360544217687,0.003401360544217687,0.003401360544217687,0.003401360544217687,0.003401360544217687,0.003401360544217687,0.003401360544217687,0.003401360544217687,0.003401360544217687,0.003401360544217687,0.003401360544217687,0.003401360544217687,0.003401360544217687,0.003401360544217687,0.003401360544217687,0.003401360544217687,0.003401360544217687,0.003401360544217687,0.003401360544217687,0.003401360544217687,0.003401360544217687,0.003401360544217687,0.003401360544217687,0.003401360544217687,0.003401360544217687,0.003401360544217687,0.003401360544217687,0.003401360544217687,0.003401360544217687,0.003401360544217687,0.003401360544217687,0.003401360544217687,0.003401360544217687,0.003401360544217687,0.003401360544217687,0.003401360544217687,0.003401360544217687,0.003401360544217687,0.003401360544217687,0.003401360544217687,0.003401360544217687,0.003401360544217687,0.003401360544217687,0.003401360544217687,0.003401360544217687,0.003401360544217687,0.003401360544217687,0.003401360544217687,0.003401360544217687,0.003401360544217687,0.003401360544217687,0.003401360544217687,0.003401360544217687,0.003401360544217687,0.003401360544217687,0.003401360544217687,0.003401360544217687,0.003401360544217687,0.003401360544217687,0.003401360544217687,0.003401360544217687,0.003401360544217687,0.003401360544217687,0.003401360544217687,0.003401360544217687,0.003401360544217687,0.003401360544217687,0.003401360544217687,0.003401360544217687,0.003401360544217687,0.003401360544217687,0.003401360544217687,0.003401360544217687,0.003401360544217687,0.003401360544217687,0.003401360544217687,0.003401360544217687,0.003401360544217687],"y":[-3.507936507936508,-3.507936507936508,-3.507936507936508,-3.507936507936508,-3.507936507936508,-3.507936507936508,-3.507936507936508,-3.507936507936508,-3.507936507936508,-3.507936507936508,-3.507936507936508,-3.507936507936508,-3.507936507936508,-3.507936507936508,-3.507936507936508,-3.507936507936508,-3.507936507936508,-3.507936507936508,-3.507936507936508,-3.507936507936508,-3.507936507936508,-3.507936507936508,-3.507936507936508,-3.507936507936508,-3.507936507936508,-3.507936507936508,-3.507936507936508,-3.507936507936508,-3.507936507936508,-3.507936507936508,-3.507936507936508,-3.507936507936508,-3.507936507936508,-3.507936507936508,-3.507936507936508,-3.507936507936508,-3.507936507936508,-3.507936507936508,-3.507936507936508,-3.507936507936508,-3.507936507936508,-3.507936507936508,-3.507936507936508,-3.507936507936508,-3.507936507936508,-3.507936507936508,-3.507936507936508,-3.507936507936508,-3.507936507936508,-3.507936507936508,-3.507936507936508,-3.507936507936508,-3.507936507936508,-3.507936507936508,-3.507936507936508,-3.507936507936508,-3.507936507936508,-3.507936507936508,-3.507936507936508,-3.507936507936508,-3.507936507936508,-3.507936507936508,-3.507936507936508,-3.507936507936508,-3.507936507936508,-3.507936507936508,-3.507936507936508,-3.507936507936508,-3.507936507936508,-3.507936507936508,-3.507936507936508,-3.507936507936508,-3.507936507936508,-3.507936507936508,-3.507936507936508,-3.507936507936508,-3.507936507936508,-3.507936507936508,-3.507936507936508,-3.507936507936508,-3.507936507936508,-3.507936507936508,-3.507936507936508,-3.507936507936508,-3.507936507936508,-3.507936507936508,-3.507936507936508,-3.507936507936508,-3.507936507936508,-3.507936507936508,-3.507936507936508,-3.507936507936508,-3.507936507936508,-3.507936507936508,-3.507936507936508,-3.507936507936508,-3.507936507936508,-3.507936507936508,-3.507936507936508,-3.507936507936508,-3.507936507936508,-3.507936507936508,-3.507936507936508,-3.507936507936508,-3.507936507936508,-3.507936507936508,-3.507936507936508,-3.507936507936508,-3.507936507936508,-3.507936507936508,-3.507936507936508,-3.507936507936508,-3.507936507936508,-3.507936507936508,-3.507936507936508,-3.507936507936508,-3.507936507936508,-3.507936507936508,-3.507936507936508,-3.507936507936508,-3.507936507936508,-3.507936507936508,-3.507936507936508,-3.507936507936508,-3.507936507936508,-3.507936507936508,-3.507936507936508,-3.507936507936508,-3.507936507936508,-3.507936507936508,-3.507936507936508,-3.507936507936508,-3.507936507936508,-3.507936507936508,-3.507936507936508,-3.507936507936508,-3.507936507936508,-3.507936507936508,-3.507936507936508,-3.507936507936508,-3.507936507936508,-3.507936507936508,-3.507936507936508,-3.507936507936508,-3.507936507936508,-3.507936507936508,-3.507936507936508,-3.507936507936508,-3.507936507936508,-3.507936507936508,-3.507936507936508,-3.507936507936508,-3.507936507936508,-3.507936507936508,-3.507936507936508,-3.507936507936508,-3.507936507936508,-3.507936507936508,-3.507936507936508,-3.507936507936508,-3.507936507936508,-3.507936507936508,-3.507936507936508,-3.507936507936508,-3.507936507936508,-3.507936507936508,-3.507936507936508,-3.507936507936508,-3.507936507936508,-3.507936507936508,-3.507936507936508,-3.507936507936508,-3.507936507936508,-3.507936507936508,-3.507936507936508,-3.507936507936508,-3.507936507936508,-3.507936507936508,-3.507936507936508,-3.507936507936508,-3.507936507936508,-3.507936507936508,-3.507936507936508,-3.507936507936508,-3.507936507936508,-3.507936507936508,-3.507936507936508,-3.507936507936508,-3.507936507936508,-3.507936507936508,-3.507936507936508,-3.507936507936508,-3.507936507936508,-3.507936507936508,-3.507936507936508,-3.507936507936508,-3.507936507936508,-3.507936507936508,-3.507936507936508,-3.507936507936508,-3.507936507936508,-3.507936507936508,-3.507936507936508,-3.507936507936508,-3.507936507936508,-3.507936507936508,-3.507936507936508,-3.507936507936508,-3.507936507936508,-3.507936507936508,-3.507936507936508,-3.507936507936508,-3.507936507936508,-3.507936507936508,-3.507936507936508,-3.507936507936508,-3.507936507936508,-3.507936507936508,-3.507936507936508,-3.507936507936508,-3.507936507936508,-3.507936507936508,-3.507936507936508,-3.507936507936508,-3.507936507936508,-3.507936507936508,-3.507936507936508,-3.507936507936508,-3.507936507936508,-3.507936507936508,-3.507936507936508,-3.507936507936508,-3.507936507936508,-3.507936507936508,-3.507936507936508,-3.507936507936508,-3.507936507936508,-3.507936507936508,-3.507936507936508,-3.507936507936508,-3.507936507936508,-3.507936507936508,-3.507936507936508,-3.507936507936508,-3.507936507936508,-3.507936507936508,-3.507936507936508,-3.507936507936508,-3.507936507936508,-3.507936507936508,-3.507936507936508,-3.507936507936508,-3.507936507936508,-3.507936507936508,-3.507936507936508,-3.507936507936508,-3.507936507936508,-3.507936507936508,-3.507936507936508,-3.507936507936508,-3.507936507936508,-3.507936507936508,-3.507936507936508,-3.507936507936508,-3.507936507936508,-3.507936507936508,-3.507936507936508,-3.507936507936508,-3.507936507936508,-3.507936507936508,-3.507936507936508,-3.507936507936508,-3.507936507936508,-3.507936507936508,-3.507936507936508,-3.507936507936508,-3.507936507936508,-3.507936507936508,-3.507936507936508,-3.507936507936508,-3.507936507936508,-3.507936507936508,-3.507936507936508,-3.507936507936508,-3.507936507936508,-3.507936507936508,-3.507936507936508,-3.507936507936508,-3.507936507936508,-3.507936507936508,-3.507936507936508,-3.507936507936508,-3.507936507936508,-3.507936507936508,-3.507936507936508,-3.507936507936508,-3.507936507936508,-3.507936507936508,-3.507936507936508,-3.507936507936508,-3.507936507936508,-3.507936507936508,-3.507936507936508,-3.507936507936508,-3.507936507936508,-3.507936507936508,-3.507936507936508,-3.507936507936508,-3.507936507936508,-3.507936507936508,-3.507936507936508,-3.507936507936508,-3.507936507936508,-3.507936507936508,-3.507936507936508,-3.507936507936508,-3.507936507936508,-3.507936507936508,-3.507936507936508,-3.507936507936508,-3.507936507936508,-3.507936507936508,-3.507936507936508,-3.507936507936508,-3.507936507936508,-3.507936507936508,-3.507936507936508,-3.507936507936508,-3.507936507936508,-3.507936507936508,-3.507936507936508,-3.507936507936508,-3.507936507936508,-3.507936507936508,-3.507936507936508,-3.507936507936508,-3.507936507936508,-3.507936507936508,-3.507936507936508,-3.507936507936508,-3.507936507936508,-3.507936507936508,-3.507936507936508,-3.507936507936508,-3.507936507936508,-3.507936507936508,-3.507936507936508,-3.507936507936508,-3.507936507936508,-3.507936507936508,-3.507936507936508,-3.507936507936508,-3.507936507936508,-3.507936507936508,-3.507936507936508,-3.507936507936508,-3.507936507936508,-3.507936507936508,-3.507936507936508,-3.507936507936508,-3.507936507936508,-3.507936507936508,-3.507936507936508,-3.507936507936508,-3.507936507936508,-3.507936507936508,-3.507936507936508,-3.507936507936508,-3.507936507936508,-3.507936507936508,-3.507936507936508,-3.507936507936508,-3.507936507936508,-3.507936507936508,-3.507936507936508,-3.507936507936508,-3.507936507936508,-3.507936507936508,-3.507936507936508,-3.507936507936508,-3.507936507936508,-3.507936507936508,-3.507936507936508,-3.507936507936508,-3.507936507936508,-3.507936507936508,-3.507936507936508,-3.507936507936508,-3.507936507936508,-3.507936507936508,-3.507936507936508,-3.507936507936508,-3.507936507936508,-3.507936507936508,-3.507936507936508,-3.507936507936508,-3.507936507936508,-3.507936507936508,-3.507936507936508,-3.507936507936508,-3.507936507936508,-3.507936507936508,-3.507936507936508,-3.507936507936508,-3.507936507936508,-3.507936507936508,-3.507936507936508,-3.507936507936508,-3.507936507936508,-3.507936507936508,-3.507936507936508,-3.507936507936508,-3.507936507936508,-3.507936507936508,-3.507936507936508,-3.507936507936508,-3.507936507936508,-3.507936507936508,-3.507936507936508,-3.507936507936508,-3.507936507936508,-3.507936507936508,-3.507936507936508,-3.507936507936508,-3.507936507936508,-3.507936507936508,-3.507936507936508,-3.507936507936508,-3.507936507936508,-3.507936507936508,-3.507936507936508,-3.507936507936508,-3.507936507936508,-3.507936507936508,-3.507936507936508,-3.507936507936508,-3.507936507936508,-3.507936507936508,-3.507936507936508,-3.507936507936508,-3.507936507936508,-3.507936507936508,-3.507936507936508,-3.507936507936508,-3.507936507936508,-3.507936507936508,-3.507936507936508,-3.507936507936508,-3.507936507936508,-3.507936507936508,-3.507936507936508,-3.507936507936508,-3.507936507936508,-3.507936507936508,-3.507936507936508,-3.507936507936508,-3.507936507936508,-3.507936507936508,-3.507936507936508,-3.507936507936508,-3.507936507936508,-3.507936507936508,-3.507936507936508,-3.507936507936508,-3.507936507936508,-3.507936507936508,-3.507936507936508,-3.507936507936508,-3.507936507936508,-3.507936507936508,-3.507936507936508,0.7301587301587303,0.6825396825396827,0.6063492063492065,0.49206349206349226,0.41587301587301606,0.3301587301587303,0.2825396825396827,0.2539682539682542,0.22539682539682557,0.18730158730158747,0.16825396825396843,0.13968253968253985,0.12063492063492082,0.09206349206349225,0.0730158730158732,0.06349206349206367,0.05396825396825415,0.05396825396825415,0.05396825396825415,0.05396825396825415,0.05396825396825415,0.05396825396825415,0.05396825396825415,0.05396825396825415,0.05396825396825415,0.05396825396825415,0.05396825396825415,0.05396825396825415,0.05396825396825415,0.04444444444444463,0.04444444444444463,0.0349206349206351,0.0349206349206351,0.0349206349206351,0.0349206349206351,0.0349206349206351,0.0349206349206351,0.0349206349206351,0.0349206349206351,0.0349206349206351,0.0349206349206351,0.0349206349206351,0.0349206349206351,0.0349206349206351,0.0349206349206351,0.0349206349206351,0.0349206349206351,0.0349206349206351,0.0349206349206351,0.0349206349206351,0.0349206349206351,0.0349206349206351,0.0349206349206351,0.0349206349206351,0.0349206349206351,0.0349206349206351,0.0349206349206351,0.0349206349206351,0.0349206349206351,0.0349206349206351,0.0349206349206351,0.0349206349206351,0.0349206349206351,0.0349206349206351,0.0349206349206351,0.0349206349206351,0.0349206349206351,0.0349206349206351,0.0349206349206351,0.0349206349206351,0.0349206349206351,0.0349206349206351,0.0349206349206351,0.0349206349206351,0.0349206349206351,0.0349206349206351,0.0349206349206351,0.0349206349206351,0.0349206349206351,0.0349206349206351,0.0349206349206351,0.0349206349206351,0.0349206349206351,0.0349206349206351,0.0349206349206351,0.0349206349206351,0.0349206349206351,0.0349206349206351,0.11111111111111129,0.3111111111111113,0.596825396825397,0.9015873015873017,1.3111111111111113,1.634920634920635,1.8444444444444446,2.053968253968254,2.092063492063492,2.1015873015873017,2.1015873015873017,2.1015873015873017,2.092063492063492,2.073015873015873,2.0634920634920637,2.0634920634920637,2.0634920634920637,2.0634920634920637,2.0634920634920637,2.0634920634920637,2.0634920634920637,2.0634920634920637,2.0634920634920637,2.0634920634920637,2.0634920634920637,2.0634920634920637,2.0634920634920637,2.0634920634920637,2.0634920634920637,2.0634920634920637,2.0634920634920637,2.0634920634920637,2.0634920634920637,2.0634920634920637,2.0634920634920637,2.0634920634920637,2.0634920634920637,2.0634920634920637,2.0634920634920637,2.0634920634920637,2.0634920634920637,2.0634920634920637,2.0634920634920637,2.0634920634920637,2.0634920634920637,2.0634920634920637,2.0634920634920637,2.0634920634920637,2.0634920634920637,2.0634920634920637,2.0634920634920637,2.0634920634920637,2.0634920634920637,2.0634920634920637,2.0634920634920637,2.0634920634920637,2.0634920634920637,2.0634920634920637,2.0634920634920637,2.0634920634920637,2.0634920634920637,2.0634920634920637,2.0634920634920637,2.0634920634920637,2.0634920634920637,2.0634920634920637,2.0634920634920637,2.0634920634920637,2.0634920634920637,2.0634920634920637,2.0634920634920637,2.0634920634920637,2.0634920634920637,2.0634920634920637,2.0634920634920637,2.0634920634920637,2.0634920634920637,2.0634920634920637,2.0634920634920637,2.0634920634920637,2.0634920634920637,2.0634920634920637,2.0634920634920637,2.0634920634920637,2.0634920634920637,2.0634920634920637,2.0634920634920637,2.0634920634920637,2.0634920634920637,2.0634920634920637,2.0634920634920637,2.0634920634920637,2.0634920634920637,2.0634920634920637,2.0634920634920637,2.0634920634920637,2.0634920634920637,2.0634920634920637,2.0634920634920637,2.0634920634920637,2.0634920634920637,2.0634920634920637,2.0634920634920637,2.0634920634920637,2.0634920634920637,2.0634920634920637,2.0634920634920637,2.0634920634920637,2.0634920634920637,2.0634920634920637,2.0634920634920637,2.0634920634920637,2.0634920634920637,2.0634920634920637,2.0634920634920637,2.0634920634920637,2.0634920634920637,2.0634920634920637,2.0634920634920637,2.0634920634920637,2.0634920634920637,2.0634920634920637,2.0634920634920637,2.0634920634920637,2.0634920634920637,2.0634920634920637,2.0634920634920637,2.0634920634920637,2.0634920634920637,2.0634920634920637,2.0634920634920637,2.0634920634920637,2.0634920634920637,2.0634920634920637,2.0634920634920637,2.0634920634920637,2.0634920634920637,2.0634920634920637,2.0634920634920637,2.0634920634920637,2.0634920634920637,2.0634920634920637,2.0634920634920637,2.0634920634920637,2.0634920634920637,2.0634920634920637,2.0634920634920637,2.0634920634920637,2.0634920634920637,2.0634920634920637,2.0634920634920637,2.0634920634920637,2.0634920634920637,2.0634920634920637,2.0634920634920637,2.0634920634920637,2.0634920634920637,2.0634920634920637,2.0634920634920637,2.0634920634920637,2.0634920634920637,2.0634920634920637,2.0634920634920637,2.0634920634920637,2.0634920634920637,2.0634920634920637,2.0634920634920637,2.0634920634920637,2.0634920634920637,2.0634920634920637,2.0634920634920637,2.0634920634920637,2.0634920634920637,2.0634920634920637,2.0634920634920637,2.0634920634920637,2.0634920634920637,2.0634920634920637,2.0634920634920637,2.0634920634920637,2.0634920634920637,2.0634920634920637,2.0634920634920637,2.0634920634920637,2.0634920634920637,2.0634920634920637,2.0634920634920637,2.0634920634920637,2.0634920634920637,2.0634920634920637,2.0634920634920637,2.0634920634920637,2.0634920634920637,2.0634920634920637,2.0634920634920637,2.0634920634920637,2.0634920634920637,2.0634920634920637,2.0634920634920637,2.0634920634920637,2.0634920634920637,2.0634920634920637,2.0634920634920637,2.0634920634920637,2.0634920634920637,2.0634920634920637,2.0634920634920637,2.0634920634920637,2.0634920634920637,2.0634920634920637,2.0634920634920637,2.0634920634920637,2.0634920634920637,2.0634920634920637,2.0634920634920637,2.0634920634920637,2.0634920634920637,2.0634920634920637,2.0634920634920637,2.0634920634920637,2.0634920634920637,2.0634920634920637,2.0634920634920637,2.0634920634920637,2.0634920634920637,2.0634920634920637,2.0634920634920637,2.0634920634920637,2.0634920634920637,2.0634920634920637,2.0634920634920637,2.0634920634920637,2.0634920634920637,2.0634920634920637,2.0634920634920637,2.0634920634920637,2.0634920634920637,2.0634920634920637,2.0634920634920637,2.0634920634920637,2.0634920634920637,2.0634920634920637,2.0634920634920637,2.0634920634920637,2.0634920634920637,2.0634920634920637,2.0634920634920637,2.0634920634920637,2.0634920634920637,2.0634920634920637,2.0634920634920637,2.0634920634920637,2.0634920634920637,2.0634920634920637,2.0634920634920637,2.0634920634920637,2.0634920634920637,2.0634920634920637,2.0634920634920637,2.0634920634920637,2.0634920634920637,2.0634920634920637,2.0634920634920637,2.0634920634920637,2.0634920634920637,2.0634920634920637,2.0634920634920637,2.0634920634920637,2.0634920634920637,2.0634920634920637,2.0634920634920637,2.0634920634920637,2.0634920634920637,2.0634920634920637,2.0634920634920637,2.0634920634920637,2.0634920634920637,2.0634920634920637,2.0634920634920637,2.0634920634920637,2.0634920634920637,2.0634920634920637,2.0634920634920637,2.0634920634920637,2.0634920634920637,2.0634920634920637,2.0634920634920637,2.0634920634920637,2.0634920634920637,2.0634920634920637,2.0634920634920637,2.0634920634920637,2.0634920634920637,2.0634920634920637,2.0634920634920637,2.0634920634920637,2.0634920634920637,2.0634920634920637,2.0634920634920637,2.0634920634920637,2.0634920634920637,2.0634920634920637,2.0634920634920637,2.0634920634920637,2.0634920634920637,2.0634920634920637,2.0634920634920637,2.0634920634920637,2.0634920634920637,2.0634920634920637,2.0634920634920637,2.0634920634920637,2.0634920634920637,2.0634920634920637,2.0634920634920637,2.0634920634920637,2.0634920634920637,2.0634920634920637,2.0634920634920637,2.0634920634920637,2.0634920634920637,2.0634920634920637,2.0634920634920637,2.0634920634920637,2.0634920634920637,2.0634920634920637,2.0634920634920637,2.0634920634920637,2.0634920634920637,2.0634920634920637,2.0634920634920637,2.0634920634920637,2.0634920634920637,2.0634920634920637,2.0634920634920637,2.0634920634920637,2.0634920634920637,2.0634920634920637,2.0634920634920637,2.0634920634920637,2.0634920634920637,2.0634920634920637,2.0634920634920637,2.0634920634920637,2.0444444444444447,1.920634920634921,1.73968253968254,1.5492063492063495,1.2634920634920637,1.1492063492063493,1.0634920634920637,0.977777777777778,0.9301587301587303,0.9301587301587303,0.9301587301587303,0.9301587301587303,0.9301587301587303,0.9301587301587303,0.9301587301587303,0.9301587301587303,0.9301587301587303,0.9301587301587303,0.9301587301587303,0.9301587301587303,0.9301587301587303,0.9301587301587303,0.9301587301587303,0.9301587301587303,0.9301587301587303,0.9301587301587303,0.9301587301587303,0.9301587301587303,0.9301587301587303,0.9301587301587303,0.9301587301587303,0.9301587301587303,0.9301587301587303,0.9301587301587303,0.9301587301587303,0.9301587301587303,0.9301587301587303,0.9301587301587303,0.9301587301587303,0.9301587301587303,0.9301587301587303,0.9301587301587303,0.9301587301587303,0.9301587301587303,0.9301587301587303,0.9301587301587303,0.9301587301587303,0.9301587301587303,0.9301587301587303,0.9301587301587303,0.9301587301587303,0.9301587301587303,0.9301587301587303,0.9301587301587303,0.9301587301587303,0.9301587301587303,0.9301587301587303,0.9301587301587303,0