[{"success":true,"trial_type":"fullscreen","trial_index":0,"time_elapsed":4922,"internal_node_id":"0.0-0.0","protocol_sum":"","subject_identifier":537,"subject_sum":[139,73,107,249,107,188,201,229,172,17,192,104,182,207,176,12,50,249,209,99,187,138,61,90,241,7,33,116,153,222,153,122],"subject_pair":268,"STUDY_ID":"66a3ed3c5d10d0e7d8a6b9da","PROLIFIC_PID":"65c25e3de8b230c294f2b32c","SESSION_ID":"66a481b48ed57e03666f7409","practice_instructions":1,"leaderboard_instructions":0,"bonus":0,"reveal_word":true,"self_rating":"2","confidence":"99"},{"view_history":"[{\"page_index\":0,\"viewing_time\":6961.699999988079}]","rt":6962,"trial_type":"instructions","trial_index":1,"time_elapsed":11885,"internal_node_id":"0.0-1.0","protocol_sum":"","subject_identifier":537,"subject_sum":[139,73,107,249,107,188,201,229,172,17,192,104,182,207,176,12,50,249,209,99,187,138,61,90,241,7,33,116,153,222,153,122],"subject_pair":268,"STUDY_ID":"66a3ed3c5d10d0e7d8a6b9da","PROLIFIC_PID":"65c25e3de8b230c294f2b32c","SESSION_ID":"66a481b48ed57e03666f7409","practice_instructions":1,"leaderboard_instructions":0,"bonus":0,"reveal_word":true,"self_rating":"2","confidence":"99"},{"view_history":"[{\"page_index\":0,\"viewing_time\":43245.60000002384}]","rt":43245.90000003576,"trial_type":"instructions","trial_index":2,"time_elapsed":55136,"internal_node_id":"0.0-2.0-0.0","protocol_sum":"","subject_identifier":537,"subject_sum":[139,73,107,249,107,188,201,229,172,17,192,104,182,207,176,12,50,249,209,99,187,138,61,90,241,7,33,116,153,222,153,122],"subject_pair":268,"STUDY_ID":"66a3ed3c5d10d0e7d8a6b9da","PROLIFIC_PID":"65c25e3de8b230c294f2b32c","SESSION_ID":"66a481b48ed57e03666f7409","practice_instructions":1,"leaderboard_instructions":0,"bonus":0,"reveal_word":true,"self_rating":"2","confidence":"99"},{"rt":8066.5,"responses":"{\"Q0\":\"... reveal the word with as <b>few letter guesses</b> as possible\"}","question_order":"[0]","trial_type":"survey-multi-choice","trial_index":3,"time_elapsed":63204,"internal_node_id":"0.0-2.0-1.0","protocol_sum":"","subject_identifier":537,"subject_sum":[139,73,107,249,107,188,201,229,172,17,192,104,182,207,176,12,50,249,209,99,187,138,61,90,241,7,33,116,153,222,153,122],"subject_pair":268,"correct":true,"test_part":"multichoice_nonpretend","STUDY_ID":"66a3ed3c5d10d0e7d8a6b9da","PROLIFIC_PID":"65c25e3de8b230c294f2b32c","SESSION_ID":"66a481b48ed57e03666f7409","practice_instructions":1,"leaderboard_instructions":0,"bonus":0,"reveal_word":true,"self_rating":"2","confidence":"99"},{"view_history":"[{\"page_index\":0,\"viewing_time\":2191.199999988079}]","rt":2191.600000023842,"trial_type":"instructions","trial_index":4,"time_elapsed":65396,"internal_node_id":"0.0-3.0","protocol_sum":"","subject_identifier":537,"subject_sum":[139,73,107,249,107,188,201,229,172,17,192,104,182,207,176,12,50,249,209,99,187,138,61,90,241,7,33,116,153,222,153,122],"subject_pair":268,"STUDY_ID":"66a3ed3c5d10d0e7d8a6b9da","PROLIFIC_PID":"65c25e3de8b230c294f2b32c","SESSION_ID":"66a481b48ed57e03666f7409","practice_instructions":1,"leaderboard_instructions":0,"bonus":0,"reveal_word":true,"self_rating":"2","confidence":"99"},{"word":"ZEBRA","click_log":{"letter":["","J","E","R","Z","B","A"],"t":[0,846.5,9653.700000047684,71608.10000002384,80299.90000003576,82131.90000003576,83467.20000004768],"hit":[null,0,1,1,1,1,1],"asked":["","J","JE","JER","JERZ","JERZB","JERZBA"],"word_state":["_____","_____","_E___","_E_R_","ZE_R_","ZEBR_","ZEBRA"]},"hover_log":{"letter":["?","?","?","?","?","?","?","?","?","?","?","?","?","?","?","?","?","?","?","?","?","?","?","?","?","?","?","?","?","?","?","?","?","?","?","?","?","?","?","?","?","?","?","?","?","?","?","?","?","J","J","J","J","J","J","J","J","J","J","J","J","J","J","J","J","J","J","J","J","J","J","J","J","J","J","J","J","J","J","J","J","J","J","J","J","J","J","J","J","J","J","J","J","J","J","J","J","J","J","J","J","J","J","J","J","J","J","J","J","J","J","J","J","J","J","J","J","J","J","J","J","J","J","J","J","J","J","J","J","J","J","J","J","J","J","J","J","J","J","J","J","J","J","J","J","J","J","J","J","J","J","J","J","J","J","J","J","J","J","J","J","J","J","J","J","J","J","J","J","J","J","J","J","J","J","J","J","J","J","J","J","J","J","J","J","J","J","J","J","J","J","J","J","J","J","J","J","J","J","J","J","J","J","J","J","J","J","J","J","J","J","J","J","J","J","J","J","J","J","J","J","J","J","J","J","J","J","J","J","J","J","J","J","J","J","J","J","J","J","J","J","J","J","J","J","J","J","J","J","J","J","J","J","J","J","J","J","J","J","J","J","J","J","J","J","J","J","J","J","J","J","J","J","J","J","J","J","J","J","J","J","J","J","J","J","J","J","J","J","J","J","J","J","J","J","J","J","J","J","J","J","J","J","J","J","J","J","J","J","J","J","J","J","J","J","J","J","J","J","J","J","J","J","J","J","J","J","J","J","J","J","J","J","J","J","J","J","J","J","J","J","J","J","J","J","J","J","J","J","J","J","J","J","J","?","B","?","?","?","?","?","?","?","?","?","?","?","?","?","?","?","?","?","?","?","?","?","?","?","?","?","?","?","?","?","?","?","?","?","?","?","?","?","?","?","?","?","?","?","?","?","?","?","?","?","?","?","?","?","?","?","?","?","?","?","?","?","?","?","?","?","?","?","?","?","?","?","?","?","?","?","?","?","?","?","?","?","?","?","?","?","?","?","?","?","?","?","?","?","?","?","?","?","?","?","?","?","?","?","?","?","?","?","?","?","?","?","?","?","?","?","?","?","?","?","?","?","?","?","?","?","?","?","?","?","?","?","?","?","?","?","?","?","?","?","?","?","?","?","?","?","?","?","?","?","?","?","?","?","?","?","?","?","?","?","?","?","?","?","?","?","?","?","?","?","?","?","?","?","?","?","?","?","?","?","?","?","?","?","?","?","?","?","?","?","?","?","?","?","?","?","?","?","?","?","?","?","?","?","?","?","?","?","?","?","?","?","?","?","?","?","?","?","?","?","?","?","?","E","E","E","E","E","E","E","E","E","E","E","E","E","E","E","E","E","E","E","E","E","E","E","E","E","E","E","E","E","E","E","E","E","E","E","E","E","E","E","E","E","E","E","E","E","E","E","E","E","E","E","E","E","E","E","E","E","E","E","E","E","E","E","E","E","E","E","E","E","E","E","E","E","E","E","E","E","E","E","E","E","E","E","E","E","E","E","E","E","E","E","E","E","E","E","E","E","E","E","E","E","E","E","E","E","E","E","E","E","E","E","E","E","E","E","E","E","E","E","E","E","E","E","E","E","E","E","E","E","E","E","E","E","E","E","E","E","E","E","E","E","E","E","E","E","E","E","E","E","E","E","E","E","E","E","E","E","E","E","E","E","E","E","E","E","E","E","E","E","E","E","E","E","E","E","E","E","E","E","E","E","E","E","E","E","E","E","E","E","E","E","E","E","E","E","E","E","E","E","E","E","E","E","E","E","E","E","E","E","E","E","E","E","E","E","E","E","E","E","E","E","E","E","E","E","E","E","E","E","E","E","E","E","E","E","E","E","E","E","E","E","E","E","E","E","E","E","E","E","E","E","E","E","E","E","E","E","E","E","E","E","E","E","E","E","E","E","E","E","E","E","E","E","E","E","E","E","E","E","E","E","E","E","E","E","E","E","E","E","E","E","E","E","E","E","E","E","E","E","E","E","E","E","E","E","E","E","E","E","E","E","E","E","E","E","E","E","E","E","E","E","E","E","E","E","E","E","E","E","E","E","E","E","E","E","E","E","E","E","E","E","E","E","E","E","E","E","E","E","E","E","E","E","E","E","E","E","E","E","E","E","E","E","E","E","E","E","E","E","E","E","E","E","E","E","E","E","E","E","E","E","E","E","E","?","?","?","?","?","?","?","?","?","?","?","?","?","?","?","?","?","?","?","?","?","?","?","?","?","?","?","?","?","?","?","?","?","?","?","?","?","?","?","?","?","?","?","?","?","?","?","?","?","?","?","?","?","?","?","?","?","?","?","?","?","?","?","?","?","?","?","?","?","?","?","?","?","?","?","?","?","?","?","?","?","?","?","?","?","?","?","?","?","?","?","?","?","?","?","?","?","?","?","?","?","?","?","?","?","?","?","?","?","?","?","?","?","?","?","?","?","?","?","?","?","?","?","?","?","?","?","?","?","?","?","?","?","?","?","?","?","?","?","?","?","?","?","?","?","?","?","?","?","?","?","?","?","?","?","?","?","?","?","?","?","?","?","?","?","?","?","?","?","?","?","?","?","?","?","?","?","?","?","?","?","?","?","?","?","?","?","?","?","?","?","?","?","?","?","?","?","?","?","?","?","?","?","?","?","?","?","?","?","?","?","?","?","?","?","?","?","?","?","?","?","?","?","?","?","?","?","?","?","?","?","?","?","?","?","?","?","?","?","?","?","?","?","?","?","?","?","?","?","?","?","?","?","?","?","?","?","?","?","?","?","?","?","?","?","?","?","?","?","?","?","?","?","?","?","?","?","?","?","?","?","?","?","?","?","?","?","?","?","?","?","?","?","?","?","?","?","?","?","?","?","?","?","?","?","?","?","?","?","?","?","?","?","?","?","?","?","?","?","?","?","?","?","?","?","?","?","?","?","?","?","?","?","?","?","?","?","?","?","?","?","?","?","?","?","?","?","?","?","?","?","?","?","?","?","?","?","?","?","?","?","?","?","?","?","?","?","?","?","?","?","?","?","?","?","?","?","?","?","?","?","?","?","?","?","?","?","?","?","?","?","?","?","?","?","?","?","?","?","?","?","?","?","?","?","?","?","?","?","?","?","?","?","?","?","?","?","?","?","?","?","?","?","?","?","?","?","?","?","?","?","?","?","?","?","?","?","?","?","?","?","?","?","?","?","?","?","?","?","?","?","?","?","?","?","?","?","?","?","?","?","?","?","?","?","?","?","?","?","?","?","?","?","?","?","?","?","?","?","?","?","?","?","?","?","?","?","?","?","?","?","?","?","?","?","?","?","?","?","?","?","?","?","?","?","?","?","?","?","?","?","?","?","?","?","?","?","?","?","?","?","?","?","?","?","?","?","?","?","?","?","?","?","?","?","?","?","?","?","?","?","?","?","?","?","?","?","?","?","?","?","?","?","?","?","?","?","?","?","?","?","?","?","?","?","?","?","?","?","?","?","?","?","?","?","?","?","?","?","?","?","?","?","?","?","?","?","?","?","?","?","?","?","?","?","?","?","?","?","?","?","?","?","?","?","?","?","?","?","?","?","?","?","?","?","?","?","?","?","?","?","?","?","?","?","?","?","?","?","?","?","?","?","?","?","?","?","?","?","?","?","?","?","?","?","?","?","?","?","?","?","?","?","?","?","?","?","?","?","?","?","?","?","?","?","?","?","?","?","?","?","?","?","?","?","?","?","?","?","?","?","?","?","?","?","?","?","?","?","?","?","?","?","?","?","?","?","?","?","?","?","?","?","?","?","?","?","?","?","?","?","?","?","?","?","?","?","?","?","?","?","?","?","?","?","?","?","?","?","?","?","?","?","?","?","?","?","?","?","?","?","?","?","?","?","?","?","?","?","?","?","?","?","?","?","?","?","?","?","?","?","?","?","?","?","?","?","?","?","?","?","?","?","?","?","?","?","?","?","?","?","?","?","?","?","?","?","?","?","?","?","?","?","?","?","?","?","?","?","?","?","?","?","?","?","?","?","?","?","?","?","?","?","?","?","?","?","?","?","?","?","?","?","?","?","?","?","?","?","?","?","?","?","?","?","?","?","?","?","?","?","?","?","?","?","?","?","?","?","?","?","?","?","?","?","?","?","?","?","?","?","?","?","?","?","?","?","?","?","?","?","?","?","?","?","?","?","?","?","?","?","?","?","?","?","?","?","?","?","?","?","?","?","?","?","?","?","?","?","?","?","?","?","?","?","?","?","?","?","?","?","?","?","?","?","?","?","?","?","?","?","?","?","?","?","?","?","?","?","?","?","?","?","?","?","?","?","?","?","?","?","?","?","?","?","?","?","?","?","?","?","?","?","?","?","?","?","?","?","?","?","?","?","?","?","?","?","?","?","?","?","?","?","?","?","?","?","?","?","?","?","?","?","?","?","?","?","?","?","?","?","?","?","?","?","?","?","?","?","?","?","?","?","?","?","?","?","?","?","?","?","?","?","?","?","?","?","?","?","?","?","?","?","?","?","?","?","?","?","?","?","?","?","?","?","?","?","?","?","?","?","?","?","?","?","?","?","?","?","?","?","?","?","?","?","?","?","?","?","?","?","?","?","?","?","?","?","?","?","?","?","?","?","?","?","?","?","?","?","?","?","?","?","?","?","?","?","?","?","?","?","?","?","?","?","?","?","?","?","?","?","?","?","?","?","?","?","?","?","?","?","?","?","?","?","?","?","?","?","?","?","?","?","?","?","?","?","?","?","?","?","?","?","?","?","?","?","?","?","?","?","?","?","?","?","?","?","?","?","?","?","?","?","?","?","?","?","?","?","?","?","?","?","?","?","?","?","?","?","?","?","?","?","?","?","?","?","?","?","?","?","?","?","?","?","?","?","?","?","?","?","?","?","?","?","?","?","?","?","?","?","?","?","?","?","?","?","?","?","?","?","?","?","?","?","?","?","?","?","?","?","?","?","?","?","?","?","?","?","?","?","?","?","?","?","?","?","?","?","?","?","?","?","?","?","?","?","?","?","?","?","?","?","?","?","?","?","?","?","?","?","?","?","?","?","?","?","?","?","?","?","?","?","?","?","?","?","?","?","?","?","?","?","?","?","?","?","?","?","?","?","?","?","?","?","?","?","?","?","?","?","?","?","?","?","?","?","?","?","?","?","?","?","?","?","?","?","?","?","?","?","?","?","?","?","?","?","?","?","?","?","?","?","?","?","?","?","?","?","?","?","?","?","?","?","?","?","?","?","?","?","?","?","?","?","?","?","?","?","?","?","?","?","?","?","?","?","?","?","?","?","?","?","?","?","?","?","?","?","?","?","?","?","?","?","?","?","?","?","?","?","?","?","?","?","?","?","?","?","?","?","?","?","?","?","?","?","?","?","?","?","?","?","?","?","?","?","?","?","?","?","?","?","?","?","?","?","?","?","?","?","?","?","?","?","?","?","?","?","?","?","?","?","?","?","?","?","?","?","?","?","?","?","?","?","?","?","?","?","?","?","?","?","?","?","?","?","?","?","?","?","?","?","?","?","?","?","?","?","?","?","?","?","?","?","?","?","?","?","?","?","?","?","?","?","?","?","?","?","?","?","?","?","?","?","?","?","?","?","?","?","?","?","?","?","?","?","?","?","?","?","?","?","?","?","?","?","?","?","?","?","?","?","?","?","?","?","?","?","?","?","?","?","?","?","?","?","?","?","?","?","?","?","?","?","?","?","?","?","?","?","?","?","?","?","?","?","?","?","?","?","?","?","?","?","?","?","?","?","?","?","?","?","?","?","?","?","?","?","?","?","?","?","?","?","?","?","?","?","?","?","?","?","?","?","?","?","?","?","?","?","?","?","?","?","?","?","?","?","?","?","?","?","?","?","?","?","?","?","?","?","?","?","?","?","?","?","?","?","?","?","?","?","?","?","?","?","?","?","?","?","?","?","?","?","?","?","?","?","?","?","?","?","?","?","?","?","?","?","?","?","?","?","?","?","?","?","?","?","?","?","?","?","?","?","?","?","?","?","?","?","?","?","?","?","?","?","?","?","?","?","?","?","?","?","?","?","?","?","?","?","?","?","?","?","?","?","?","?","?","?","?","?","?","?","?","?","?","?","?","?","?","?","?","?","?","?","?","?","?","?","?","?","?","?","?","?","?","?","?","?","?","?","?","?","?","?","?","?","?","?","?","?","?","?","?","?","?","?","?","?","?","?","?","?","?","?","?","?","?","?","?","?","?","?","?","?","?","?","?","?","?","?","?","?","?","?","?","?","?","?","?","?","?","?","?","?","?","?","?","?","?","?","?","?","?","?","?","?","?","?","?","?","?","?","?","?","?","?","?","?","?","?","?","?","?","?","?","?","?","?","?","?","?","?","?","?","?","?","?","?","?","?","?","?","?","?","?","?","?","?","?","?","?","?","?","?","?","?","?","?","?","?","?","?","?","?","?","?","?","?","?","?","?","?","?","?","?","?","?","?","?","?","?","?","?","?","?","?","?","?","?","?","?","?","?","?","?","?","?","?","?","?","?","?","?","?","?","?","?","?","?","?","?","?","?","?","?","?","?","?","?","?","?","?","?","?","?","?","?","?","?","?","?","?","?","?","?","?","?","?","?","?","?","?","?","?","?","?","?","?","?","?","?","?","?","?","?","?","?","?","?","?","?","?","?","?","?","?","?","?","?","?","?","?","?","?","?","?","?","?","?","?","?","?","?","?","?","?","?","?","?","?","?","?","?","?","?","?","?","?","?","?","?","?","?","?","?","?","?","?","?","?","?","?","?","?","?","?","?","?","?","?","?","?","?","?","?","?","?","?","?","?","?","?","?","?","?","?","?","?","?","?","?","?","?","?","?","?","?","?","?","?","?","?","?","?","?","?","?","?","?","?","?","?","?","?","?","?","?","?","?","?","?","?","?","?","?","?","?","?","?","?","?","?","?","?","?","?","?","?","?","?","?","?","?","?","?","?","?","?","?","?","?","?","?","?","?","?","?","?","?","?","?","?","?","?","?","?","?","?","?","?","?","?","?","?","?","?","?","?","?","?","?","?","?","?","?","?","?","?","?","?","?","?","?","?","?","?","?","?","?","?","?","?","?","?","?","?","?","?","?","?","?","?","?","?","?","?","?","?","?","?","?","?","?","?","?","?","?","?","?","?","?","?","?","?","?","?","?","?","?","?","?","?","?","?","?","?","?","?","?","?","?","?","?","?","?","?","?","?","?","?","?","?","?","?","?","?","?","?","?","?","?","?","?","?","?","?","?","?","?","?","?","?","?","?","?","?","?","?","?","?","?","?","?","?","?","?","?","?","?","?","?","?","?","?","?","?","?","?","?","?","?","?","?","?","?","?","?","?","?","?","?","?","?","?","?","?","?","?","?","?","?","?","?","?","?","?","?","?","?","?","?","?","?","?","?","?","?","?","?","?","?","?","?","?","?","?","?","?","?","?","?","?","?","?","?","?","?","?","?","?","?","?","?","?","?","?","?","?","?","?","?","?","?","?","?","?","?","?","?","?","?","?","?","?","?","?","?","?","?","?","?","?","?","?","?","?","?","?","?","?","?","?","?","?","?","?","?","?","?","?","?","?","?","?","?","?","?","?","?","?","?","?","?","?","?","?","?","?","?","?","?","?","?","?","?","?","?","?","?","?","?","?","?","?","?","?","?","?","?","?","?","?","?","?","?","?","?","?","?","?","?","?","?","?","?","?","?","?","?","?","?","?","?","?","?","?","?","?","?","?","?","?","?","?","?","?","?","?","?","?","?","?","?","?","?","?","?","?","?","?","?","?","?","?","?","?","?","?","?","?","?","?","?","?","?","?","?","?","?","?","?","?","?","?","?","?","?","?","?","?","?","?","?","?","?","?","?","?","?","?","?","?","?","?","?","?","?","?","?","?","?","?","?","?","?","?","?","?","?","?","?","?","?","?","?","?","?","?","?","?","?","?","?","?","?","?","?","?","?","?","?","?","?","?","?","?","?","?","?","?","?","?","?","?","?","?","?","?","?","?","?","?","?","?","?","?","?","?","?","?","?","?","?","?","?","?","?","?","?","?","?","?","?","?","?","?","?","?","?","?","?","?","?","?","?","?","?","?","?","?","?","?","?","?","?","?","?","?","?","?","?","?","?","?","?","?","?","?","?","?","?","?","?","?","?","?","?","?","?","?","?","?","?","?","?","?","?","?","?","?","?","?","?","?","?","?","?","?","?","?","?","?","?","?","?","?","?","?","?","?","?","?","?","?","?","?","?","?","?","?","?","?","?","?","?","?","?","?","?","?","?","?","?","?","?","?","?","?","?","?","?","?","?","?","?","?","?","?","?","?","?","?","?","?","?","?","?","?","?","?","?","?","?","?","?","?","?","?","?","?","?","?","?","?","?","?","?","?","?","?","?","?","?","?","?","?","?","?","?","?","?","?","?","?","?","?","?","?","?","?","?","?","?","?","?","?","?","?","?","?","?","?","?","?","?","?","?","?","?","?","?","?","?","?","?","?","?","?","?","?","?","?","?","?","?","?","?","?","?","?","?","?","?","?","?","?","?","?","?","?","?","?","?","?","?","?","?","?","?","?","?","?","?","?","?","?","?","?","?","?","?","?","?","?","?","?","?","?","?","?","?","?","?","?","?","?","?","?","?","?","?","?","?","?","?","?","?","?","?","?","?","?","?","?","?","?","?","?","?","?","?","?","?","?","?","?","?","?","?","?","?","?","?","?","?","?","?","?","?","?","?","?","?","?","?","?","?","?","?","?","?","?","?","?","?","?","?","?","?","?","?","?","?","?","?","?","?","?","?","?","?","?","?","?","?","?","?","?","?","?","?","?","?","?","?","?","?","?","?","?","?","?","?","?","?","?","?","?","?","?","?","?","?","?","?","?","?","?","?","?","?","?","?","?","?","?","?","?","?","?","?","?","?","?","?","?","?","?","?","?","?","?","?","?","?","?","?","?","?","?","?","?","?","?","?","?","?","?","?","?","?","?","?","?","?","?","?","?","?","?","?","?","?","?","?","?","?","?","?","?","?","?","?","?","?","?","?","?","?","?","?","?","?","?","?","?","?","?","?","?","?","?","?","?","?","?","?","?","?","?","?","?","?","?","?","?","?","?","?","?","?","?","?","?","?","?","?","?","?","?","?","?","?","?","?","?","?","?","?","?","?","?","?","?","?","?","?","?","?","?","?","?","?","?","?","?","?","?","?","?","?","?","?","?","?","?","?","?","?","?","?","?","?","?","?","?","?","?","?","?","?","?","?","?","?","?","?","?","?","?","?","?","?","?","?","?","?","?","?","?","?","?","?","?","?","?","?","?","?","?","?","?","?","?","?","?","?","?","?","?","?","?","?","?","?","?","?","?","?","?","?","?","?","?","?","?","?","?","?","?","?","?","?","?","?","?","?","?","?","?","?","?","?","?","?","?","?","?","?","?","?","?","?","?","?","?","?","?","?","?","?","?","?","?","?","?","?","?","?","?","?","?","?","?","?","?","?","?","?","?","?","?","?","?","?","?","?","?","?","?","?","?","?","?","?","?","?","?","?","?","?","?","?","?","?","?","?","?","?","?","?","?","?","?","?","?","?","?","?","?","?","?","?","?","?","?","?","?","?","?","?","?","?","?","?","?","?","?","?","?","?","?","?","?","?","?","?","?","?","?","?","?","?","?","?","?","?","?","?","?","?","?","?","?","?","?","?","?","?","?","?","?","?","?","?","?","?","?","?","?","R","R","R","R","R","R","R","R","R","R","R","R","R","R","R","R","R","R","R","R","R","R","R","R","R","R","R","R","R","R","R","R","R","R","R","R","R","R","R","R","R","R","R","R","R","R","R","R","R","R","R","R","R","R","R","R","R","R","R","R","R","R","R","R","R","R","R","R","R","R","R","R","R","R","R","R","R","R","R","R","R","R","R","R","R","R","R","R","R","R","R","R","R","R","R","R","R","R","R","R","R","R","R","R","R","R","R","R","R","R","R","R","R","R","R","R","R","R","R","R","R","R","R","R","R","R","R","R","R","R","R","R","R","R","R","R","R","R","R","R","R","R","R","R","R","R","R","R","R","R","R","R","R","R","R","R","R","R","R","R","R","R","R","R","R","R","R","R","R","R","R","R","R","R","R","R","R","R","R","R","R","R","R","R","?","?","?","?","?","?","?","?","?","?","?","?","?","?","?","?","?","?","?","?","?","?","?","?","?","?","?","?","?","?","?","?","?","?","?","?","?","?","?","?","?","?","?","?","?","?","?","?","?","?","?","?","?","?","?","?","?","?","?","?","?","?","?","?","?","?","?","?","?","?","?","?","?","?","?","?","?","?","?","?","?","?","?","?","?","?","?","?","?","?","?","?","?","?","?","?","?","?","?","?","?","?","?","?","?","?","?","?","?","?","?","?","?","?","?","?","?","?","?","?","?","?","?","?","?","?","?","?","?","?","?","?","?","?","?","?","?","?","?","?","?","?","?","?","?","?","?","?","?","?","?","?","?","?","?","?","?","?","?","?","?","?","?","?","?","?","?","?","?","?","?","?","?","?","?","?","?","?","?","?","?","?","?","?","?","?","?","?","?","?","?","?","?","?","?","?","?","?","?","?","?","?","?","?","?","?","?","?","?","?","?","?","?","?","?","?","?","?","?","?","?","?","?","?","?","?","?","?","?","?","?","?","?","?","?","?","?","?","?","?","?","?","?","?","?","?","?","?","?","?","?","?","?","?","?","?","?","?","?","?","?","?","?","?","?","?","?","?","?","?","?","?","?","?","?","H","H","H","H","?","?","?","?","Q","Q","Q","?","?","?","?","?","?","?","?","?","?","?","?","?","?","Z","Z","Z","Z","Z","Z","Z","Z","Z","Z","Z","Z","Z","Z","Z","Z","Z","Z","Z","Z","Z","Z","Z","Z","Z","Z","Z","Z","Z","Z","Z","Z","Z","Z","Z","Z","Z","Z","Z","Z","Z","Z","Z","Z","Z","Z","Z","Z","Z","Z","Z","Z","Z","Z","Z","Z","Z","Z","Z","Z","Z","Z","Z","Z","Z","Z","Z","Z","?","Y","X","?","?","?","?","M","M","M","?","L","L","L","L","?","?","?","?","?","?","?","?","?","?","C","C","C","C","?","?","?","?","?","?","?","?","?","?","?","C","C","C","?","?","?","?","?","B","B","B","B","B","B","B","B","B","B","B","B","B","B","B","B","B","B","B","B","B","B","B","B","B","B","B","B","B","B","B","B","B","B","B","B","B","B","B","B","B","B","B","B","B","B","B","B","B","B","B","B","B","B","B","B","B","B","B","B","B","B","B","B","B","B","B","B","B","B","B","B","B","?","?","?","A","A","A","A","A","A","A","A","A","A","A","A","A","A","A","A","A","A","A","A","A","A","A","A","A","A","A","A","A","A","A","A","A","A","A","A","A","A","A","A","A","A","A","A","A","A","A","A","A","A","A","A","A","A","A","A","A","A","A","A","A","A","A","A","A","A","A","A","A","A","A","A","A","A","A","B","?","N","?","?","?","Y","Y","?","?","?","?","?","?","?","?","?","?","?","?","?","?","?","?","?","?","?","?","?","?","?","?","?","?","?","?","?","?","?","?","?","?","?","?","?","?","?","?","?","?","?","?","?","?","?","?","?","?","?","?","?","?","?","?","?","?","?","?","?","?","?","?","?","?","?","?","?","?","?","?","?","?"],"t":[33,45,61,78,94,112,129,145,162,179,194,212,228,245,262,279,295,312,328,345,361,378,395,411,429,445,462,478,495,511,529,545,562,579,595,612,629,645,662,678,695,712,727,744,762,779,794,811,828,845,862,877,894,912,928,945,962,978,995,1011,1028,1044,1062,1078,1095,1111,1128,1145,1161,1179,1195,1212,1229,1245,1262,1279,1295,1311,1328,1345,1362,1378,1395,1412,1428,1444,1461,1478,1495,1512,1529,1544,1562,1578,1595,1611,1627,1645,1661,1678,1694,1710,1728,1745,1762,1779,1796,1812,1828,1845,1862,1878,1895,1911,1928,1945,1962,1978,1995,2012,2028,2045,2061,2078,2095,2111,2128,2144,2162,2178,2195,2212,2228,2244,2261,2278,2295,2312,2327,2345,2361,2378,2395,2412,2428,2445,2462,2478,2495,2512,2528,2545,2562,2578,2594,2612,2628,2644,2660,2677,2694,2710,2727,2744,2760,2777,2794,2810,2827,2844,2861,2877,2894,2910,2927,2944,2961,2977,2994,3011,3027,3044,3061,3077,3094,3111,3128,3144,3161,3178,3194,3211,3227,3244,3261,3277,3294,3311,3327,3344,3361,3377,3394,3411,3427,3444,3461,3477,3494,3510,3527,3544,3561,3578,3594,3611,3627,3644,3661,3678,3694,3711,3727,3744,3761,3777,3794,3811,3827,3844,3860,3877,3893,3911,3927,3944,3960,3977,3993,4010,4027,4044,4060,4077,4093,4110,4127,4144,4160,4177,4194,4210,4227,4244,4260,4277,4294,4310,4327,4344,4361,4377,4394,4411,4428,4445,4461,4478,4495,4512,4529,4545,4562,4579,4595,4611,4628,4644,4661,4679,4696,4712,4728,4745,4761,4778,4795,4812,4828,4845,4862,4878,4894,4912,4928,4945,4961,4978,4996,5011,5028,5045,5062,5079,5096,5111,5129,5144,5161,5178,5195,5212,5229,5245,5262,5278,5295,5312,5328,5345,5361,5378,5395,5412,5428,5444,5460,5477,5494,5511,5528,5545,5562,5578,5595,5612,5629,5645,5661,5679,5695,5711,5728,5744,5761,5776,5794,5810,5827,5844,5861,5878,5894,5911,5928,5945,5960,5978,5994,6011,6028,6045,6061,6078,6095,6111,6127,6145,6161,6177,6194,6211,6228,6245,6262,6278,6295,6312,6327,6345,6361,6378,6395,6412,6428,6445,6462,6478,6494,6512,6529,6545,6562,6578,6595,6612,6628,6645,6662,6678,6695,6711,6728,6745,6762,6778,6795,6812,6829,6845,6861,6878,6894,6911,6928,6944,6961,6977,6994,7011,7028,7044,7061,7077,7094,7110,7127,7144,7160,7177,7193,7210,7227,7245,7261,7278,7294,7310,7327,7344,7361,7377,7393,7410,7426,7444,7460,7477,7494,7510,7527,7544,7561,7577,7594,7611,7627,7645,7661,7677,7694,7711,7728,7745,7761,7778,7795,7812,7828,7845,7862,7879,7894,7911,7928,7945,7961,7978,7995,8011,8028,8045,8062,8078,8094,8112,8128,8145,8161,8178,8195,8212,8228,8245,8261,8278,8296,8312,8328,8345,8362,8378,8395,8412,8428,8445,8462,8478,8495,8512,8529,8545,8562,8578,8595,8612,8627,8645,8662,8678,8695,8712,8728,8745,8761,8777,8794,8812,8829,8845,8862,8877,8895,8912,8928,8945,8962,8978,8995,9012,9028,9045,9062,9078,9094,9112,9128,9145,9161,9178,9195,9212,9228,9244,9262,9278,9295,9312,9328,9344,9361,9378,9395,9412,9428,9445,9462,9478,9495,9512,9528,9544,9561,9578,9594,9612,9628,9644,9661,9677,9695,9712,9728,9745,9762,9779,9795,9811,9829,9845,9862,9880,9895,9912,9928,9945,9961,9978,9995,10011,10027,10044,10061,10078,10095,10112,10128,10145,10162,10178,10194,10212,10229,10245,10262,10279,10295,10312,10329,10344,10361,10378,10394,10411,10428,10444,10461,10478,10494,10511,10528,10544,10561,10577,10594,10611,10627,10644,10661,10678,10694,10710,10728,10744,10761,10778,10794,10812,10828,10845,10862,10878,10894,10911,10927,10945,10961,10978,10995,11012,11028,11045,11062,11078,11094,11111,11127,11144,11160,11177,11193,11210,11227,11243,11260,11277,11294,11310,11327,11344,11360,11377,11394,11410,11427,11444,11461,11477,11494,11511,11527,11545,11561,11578,11594,11611,11628,11644,11661,11677,11694,11711,11727,11744,11761,11777,11794,11811,11827,11844,11861,11877,11894,11911,11928,11944,11961,11977,11995,12011,12027,12044,12061,12077,12095,12111,12128,12144,12161,12177,12194,12211,12227,12244,12261,12278,12294,12311,12327,12344,12361,12377,12395,12411,12428,12445,12461,12478,12494,12511,12527,12544,12561,12577,12594,12611,12628,12644,12661,12678,12694,12711,12727,12744,12761,12777,12794,12811,12827,12844,12861,12877,12894,12911,12928,12944,12961,12977,12994,13011,13028,13044,13061,13078,13094,13111,13127,13144,13161,13177,13194,13211,13227,13244,13260,13277,13294,13311,13328,13344,13361,13378,13394,13411,13427,13444,13461,13477,13494,13511,13528,13544,13561,13578,13594,13611,13627,13644,13660,13678,13694,13711,13728,13744,13761,13777,13794,13811,13827,13844,13861,13877,13894,13911,13928,13944,13961,13977,13994,14011,14027,14044,14061,14077,14095,14111,14127,14144,14160,14177,14194,14211,14228,14245,14261,14277,14294,14311,14328,14344,14361,14378,14394,14411,14428,14444,14461,14478,14494,14511,14528,14544,14561,14577,14594,14611,14627,14644,14661,14677,14694,14711,14727,14744,14761,14777,14794,14811,14827,14844,14861,14878,14894,14911,14927,14944,14961,14978,14994,15011,15027,15044,15061,15078,15094,15111,15128,15144,15161,15177,15194,15211,15227,15244,15261,15277,15294,15311,15327,15345,15361,15378,15394,15411,15427,15444,15461,15478,15494,15511,15527,15544,15561,15577,15594,15611,15628,15644,15661,15677,15694,15711,15728,15744,15761,15777,15794,15811,15828,15844,15861,15878,15894,15911,15927,15945,15962,15978,15995,16012,16028,16045,16061,16077,16095,16112,16128,16145,16161,16179,16195,16211,16229,16245,16262,16278,16295,16312,16328,16345,16362,16378,16395,16411,16428,16445,16462,16479,16495,16512,16529,16545,16562,16578,16595,16612,16628,16645,16662,16679,16694,16711,16728,16745,16761,16778,16794,16810,16828,16845,16862,16878,16895,16911,16928,16945,16962,16978,16995,17012,17028,17045,17062,17079,17095,17111,17128,17144,17161,17178,17194,17211,17228,17245,17261,17278,17295,17311,17329,17345,17361,17378,17395,17412,17429,17445,17462,17478,17495,17512,17528,17545,17562,17578,17595,17611,17628,17645,17662,17678,17695,17713,17729,17745,17761,17777,17795,17812,17829,17845,17862,17879,17895,17912,17928,17945,17962,17979,17995,18012,18028,18045,18062,18078,18095,18112,18129,18145,18162,18178,18195,18212,18228,18245,18262,18279,18295,18312,18329,18345,18361,18378,18395,18412,18428,18445,18462,18478,18494,18510,18527,18544,18561,18577,18594,18611,18628,18645,18662,18679,18695,18712,18728,18745,18763,18778,18796,18811,18828,18845,18862,18877,18894,18911,18928,18944,18962,18979,18995,19012,19028,19045,19061,19079,19095,19112,19128,19145,19162,19178,19196,19212,19228,19245,19261,19278,19294,19312,19328,19345,19361,19378,19395,19412,19429,19445,19462,19478,19495,19512,19529,19545,19561,19578,19595,19612,19628,19645,19662,19678,19695,19712,19728,19745,19762,19778,19795,19812,19829,19846,19861,19878,19894,19911,19929,19945,19962,19977,19994,20011,20028,20045,20062,20078,20095,20111,20129,20145,20162,20179,20194,20211,20228,20245,20262,20278,20295,20311,20328,20345,20361,20378,20395,20412,20428,20445,20462,20478,20495,20512,20528,20545,20562,20578,20595,20612,20628,20645,20661,20678,20695,20712,20728,20746,20762,20778,20795,20811,20828,20845,20862,20879,20895,20912,20928,20945,20962,20978,20995,21012,21029,21045,21062,21079,21095,21112,21128,21145,21162,21178,21195,21212,21228,21245,21262,21278,21294,21312,21328,21345,21361,21378,21394,21411,21427,21444,21462,21479,21495,21512,21528,21545,21561,21579,21595,21611,21629,21645,21662,21678,21696,21710,21727,21744,21762,21778,21795,21812,21828,21845,21861,21878,21895,21911,21929,21945,21962,21978,21995,22012,22028,22045,22062,22078,22095,22112,22128,22146,22162,22178,22195,22212,22228,22245,22262,22278,22295,22312,22329,22345,22362,22378,22395,22411,22428,22445,22462,22478,22495,22512,22529,22545,22562,22578,22595,22613,22628,22644,22661,22678,22695,22712,22728,22746,22761,22779,22795,22810,22828,22844,22861,22878,22896,22912,22928,22945,22962,22978,22995,23012,23028,23045,23062,23079,23095,23112,23128,23145,23162,23178,23195,23211,23229,23245,23262,23279,23295,23312,23329,23345,23361,23378,23395,23412,23429,23445,23461,23478,23495,23512,23528,23545,23562,23579,23594,23610,23627,23644,23661,23678,23696,23712,23728,23745,23762,23779,23795,23812,23829,23845,23862,23878,23895,23912,23928,23945,23962,23978,23995,24012,24028,24045,24062,24079,24095,24111,24128,24145,24162,24178,24195,24212,24228,24244,24261,24278,24294,24312,24329,24345,24361,24378,24395,24412,24428,24445,24462,24478,24495,24512,24528,24545,24562,24578,24595,24612,24628,24645,24662,24679,24695,24712,24728,24745,24761,24779,24795,24812,24828,24844,24861,24878,24894,24912,24929,24945,24961,24978,24995,25012,25028,25045,25062,25079,25094,25112,25128,25145,25161,25177,25195,25212,25228,25245,25262,25278,25295,25311,25328,25345,25362,25378,25394,25412,25428,25445,25462,25478,25495,25512,25528,25545,25561,25579,25595,25612,25628,25644,25661,25678,25694,25712,25728,25745,25761,25778,25795,25811,25828,25845,25862,25878,25895,25912,25928,25945,25962,25978,25995,26011,26028,26045,26061,26078,26094,26111,26128,26145,26162,26179,26195,26212,26228,26245,26262,26278,26295,26312,26329,26345,26361,26378,26395,26412,26429,26446,26462,26478,26495,26512,26528,26545,26562,26579,26595,26611,26628,26645,26662,26679,26695,26711,26728,26744,26762,26779,26795,26812,26828,26845,26862,26878,26895,26912,26928,26945,26961,26978,26995,27012,27028,27045,27063,27077,27094,27111,27128,27146,27162,27178,27195,27211,27229,27245,27262,27279,27295,27312,27328,27345,27361,27378,27395,27411,27428,27445,27462,27478,27495,27512,27528,27545,27562,27578,27595,27612,27628,27644,27661,27677,27694,27710,27727,27744,27761,27777,27794,27811,27828,27845,27862,27879,27895,27912,27928,27945,27962,27978,27995,28012,28028,28045,28062,28078,28095,28112,28128,28145,28161,28178,28195,28212,28228,28245,28262,28279,28295,28312,28329,28345,28361,28378,28396,28412,28429,28445,28462,28478,28494,28511,28528,28545,28562,28579,28595,28612,28629,28645,28662,28679,28695,28711,28729,28745,28762,28779,28795,28812,28829,28845,28861,28877,28894,28912,28929,28945,28962,28978,28995,29012,29029,29045,29062,29078,29095,29112,29128,29145,29162,29178,29195,29212,29228,29245,29262,29278,29295,29311,29328,29345,29361,29378,29395,29412,29428,29445,29462,29478,29495,29512,29529,29545,29562,29578,29595,29612,29629,29645,29662,29678,29695,29712,29729,29746,29762,29779,29795,29811,29828,29845,29861,29878,29895,29910,29927,29944,29962,29978,29995,30012,30028,30045,30062,30079,30094,30111,30128,30145,30161,30178,30195,30212,30228,30245,30262,30278,30296,30312,30329,30345,30362,30378,30396,30412,30429,30445,30462,30478,30495,30512,30529,30545,30561,30579,30595,30612,30628,30646,30662,30678,30695,30712,30728,30745,30762,30779,30795,30812,30828,30845,30862,30878,30894,30911,30927,30944,30962,30978,30995,31012,31029,31045,31062,31079,31095,31111,31128,31145,31162,31178,31195,31212,31227,31244,31261,31277,31295,31311,31327,31343,31361,31378,31396,31412,31428,31445,31462,31478,31496,31512,31528,31545,31562,31579,31595,31612,31628,31645,31662,31678,31695,31711,31728,31745,31762,31778,31795,31812,31828,31845,31862,31878,31895,31912,31929,31945,31962,31979,31995,32012,32029,32045,32062,32078,32095,32112,32128,32145,32162,32179,32195,32211,32229,32245,32262,32279,32296,32311,32328,32344,32362,32378,32395,32412,32429,32445,32462,32478,32495,32512,32529,32545,32562,32578,32595,32612,32628,32645,32662,32678,32695,32712,32728,32745,32762,32777,32794,32811,32828,32845,32862,32878,32894,32911,32929,32946,32962,32978,32995,33012,33029,33046,33062,33079,33095,33112,33128,33144,33161,33178,33195,33212,33229,33245,33262,33278,33295,33312,33328,33345,33361,33378,33396,33412,33428,33445,33462,33478,33494,33511,33528,33545,33562,33578,33596,33612,33628,33645,33662,33678,33695,33712,33728,33745,33762,33779,33795,33812,33828,33844,33862,33879,33894,33911,33928,33945,33962,33978,33995,34012,34029,34045,34062,34079,34095,34112,34128,34145,34162,34178,34194,34211,34227,34245,34262,34278,34295,34312,34328,34345,34362,34378,34396,34412,34429,34445,34462,34478,34495,34512,34528,34545,34562,34578,34595,34612,34629,34646,34662,34679,34695,34711,34728,34745,34762,34778,34796,34812,34828,34846,34862,34879,34894,34912,34929,34945,34962,34979,34995,35012,35029,35045,35062,35078,35096,35112,35128,35145,35162,35178,35195,35212,35229,35245,35262,35279,35295,35312,35328,35345,35362,35378,35395,35412,35429,35445,35462,35478,35495,35512,35529,35545,35562,35578,35595,35612,35627,35645,35661,35678,35695,35712,35729,35746,35762,35779,35795,35812,35828,35845,35862,35878,35895,35912,35928,35945,35961,35978,35995,36012,36028,36046,36062,36079,36095,36112,36129,36146,36162,36178,36195,36212,36229,36246,36262,36278,36295,36312,36328,36345,36362,36378,36395,36412,36428,36445,36462,36479,36495,36512,36529,36545,36562,36578,36595,36612,36628,36645,36662,36679,36695,36711,36728,36745,36762,36779,36795,36812,36828,36845,36862,36879,36895,36911,36927,36945,36962,36979,36995,37012,37029,37045,37062,37079,37094,37111,37128,37145,37161,37179,37195,37212,37228,37245,37262,37278,37295,37312,37329,37345,37362,37379,37395,37412,37429,37445,37462,37479,37495,37512,37528,37545,37562,37578,37595,37612,37629,37645,37662,37678,37695,37712,37728,37745,37762,37779,37795,37812,37828,37845,37862,37878,37895,37912,37929,37946,37962,37978,37996,38012,38029,38045,38062,38079,38095,38112,38128,38145,38161,38178,38195,38212,38228,38245,38262,38278,38296,38312,38329,38345,38362,38379,38395,38412,38428,38445,38462,38479,38495,38510,38527,38545,38562,38578,38595,38611,38628,38645,38662,38678,38696,38712,38728,38746,38762,38779,38795,38812,38829,38845,38862,38878,38895,38912,38928,38945,38962,38979,38995,39012,39029,39045,39061,39079,39095,39112,39128,39145,39162,39178,39196,39212,39229,39246,39262,39279,39295,39312,39327,39344,39362,39378,39395,39411,39428,39445,39462,39479,39495,39512,39528,39545,39562,39579,39595,39611,39627,39645,39662,39678,39695,39712,39728,39745,39762,39778,39795,39812,39829,39845,39862,39878,39895,39912,39928,39944,39961,39978,39995,40012,40028,40045,40062,40078,40096,40115,40128,40145,40162,40178,40195,40212,40229,40246,40262,40278,40294,40312,40328,40345,40362,40379,40395,40411,40429,40445,40462,40479,40495,40512,40528,40545,40562,40579,40595,40612,40629,40645,40662,40679,40696,40712,40728,40745,40762,40778,40795,40812,40828,40845,40862,40879,40895,40912,40928,40945,40962,40978,40995,41012,41028,41045,41062,41079,41095,41112,41128,41145,41162,41178,41196,41212,41228,41245,41262,41278,41296,41312,41328,41344,41362,41377,41394,41411,41427,41445,41462,41478,41495,41512,41529,41545,41562,41578,41595,41612,41629,41645,41662,41679,41695,41711,41728,41745,41762,41779,41795,41812,41829,41845,41862,41878,41895,41912,41929,41946,41962,41978,41994,42010,42028,42044,42060,42078,42095,42112,42128,42145,42162,42179,42195,42212,42228,42245,42262,42279,42295,42312,42329,42345,42361,42378,42395,42412,42429,42445,42461,42478,42496,42512,42528,42546,42562,42579,42595,42612,42629,42646,42662,42678,42695,42712,42728,42745,42762,42779,42795,42811,42827,42844,42861,42878,42895,42912,42929,42946,42962,42978,42995,43012,43029,43045,43062,43079,43095,43112,43129,43145,43162,43178,43195,43212,43228,43245,43262,43279,43296,43312,43328,43345,43361,43377,43394,43411,43427,43445,43461,43477,43494,43511,43528,43545,43561,43578,43594,43611,43627,43645,43661,43678,43695,43711,43728,43745,43761,43777,43795,43811,43827,43845,43861,43878,43895,43911,43927,43945,43961,43977,43995,44011,44027,44045,44061,44077,44095,44111,44127,44145,44161,44177,44195,44211,44228,44244,44261,44277,44294,44311,44327,44343,44361,44377,44394,44411,44428,44445,44462,44478,44495,44512,44529,44546,44562,44578,44595,44612,44629,44645,44662,44678,44696,44712,44728,44745,44762,44778,44794,44812,44828,44845,44862,44878,44894,44912,44929,44945,44961,44978,44995,45012,45028,45045,45062,45078,45095,45112,45129,45146,45162,45179,45195,45212,45229,45246,45262,45278,45296,45312,45328,45345,45362,45378,45395,45412,45428,45445,45462,45479,45496,45512,45528,45545,45562,45579,45595,45612,45629,45645,45661,45678,45694,45712,45728,45745,45762,45778,45795,45812,45829,45845,45862,45878,45894,45912,45929,45945,45962,45978,45995,46012,46028,46046,46062,46079,46096,46111,46128,46145,46162,46179,46196,46212,46228,46245,46262,46278,46295,46312,46328,46345,46361,46378,46395,46411,46429,46445,46462,46478,46496,46512,46529,46546,46562,46579,46595,46612,46629,46646,46662,46678,46695,46711,46728,46745,46762,46779,46796,46812,46829,46845,46861,46878,46895,46912,46928,46945,46962,46978,46996,47012,47028,47045,47062,47077,47094,47111,47128,47145,47162,47178,47195,47212,47228,47245,47262,47278,47295,47312,47328,47345,47362,47378,47395,47412,47428,47446,47462,47479,47495,47512,47528,47545,47562,47579,47596,47612,47629,47645,47663,47679,47696,47712,47729,47745,47762,47778,47795,47812,47829,47846,47862,47879,47895,47912,47928,47945,47962,47978,47995,48012,48028,48045,48062,48078,48096,48112,48129,48146,48163,48179,48195,48213,48228,48245,48262,48279,48295,48312,48329,48345,48362,48379,48395,48412,48429,48446,48462,48480,48495,48513,48528,48545,48562,48579,48595,48612,48629,48646,48662,48679,48695,48712,48729,48746,48762,48778,48794,48812,48828,48845,48862,48878,48895,48912,48928,48945,48962,48977,48995,49011,49028,49045,49062,49079,49095,49112,49128,49145,49162,49178,49196,49212,49229,49246,49262,49279,49295,49312,49329,49345,49361,49378,49395,49412,49429,49446,49462,49478,49495,49512,49529,49545,49562,49578,49595,49612,49629,49645,49662,49679,49696,49712,49729,49746,49762,49779,49796,49813,49828,49845,49862,49878,49895,49912,49927,49944,49961,49978,49995,50013,50029,50046,50063,50078,50096,50112,50129,50146,50162,50179,50196,50212,50228,50245,50262,50278,50295,50312,50329,50345,50362,50378,50396,50412,50429,50445,50461,50479,50496,50512,50529,50546,50562,50579,50595,50612,50628,50646,50662,50679,50696,50712,50728,50745,50762,50778,50795,50812,50828,50845,50862,50878,50895,50912,50929,50945,50962,50978,50995,51012,51029,51046,51062,51079,51095,51112,51129,51145,51162,51179,51195,51212,51229,51246,51262,51279,51296,51312,51329,51345,51361,51378,51395,51412,51429,51445,51462,51478,51495,51512,51528,51546,51562,51578,51595,51612,51629,51646,51662,51678,51695,51711,51728,51745,51762,51779,51796,51812,51829,51845,51862,51878,51895,51912,51929,51945,51962,51979,51995,52012,52028,52046,52062,52078,52095,52112,52129,52146,52162,52179,52195,52212,52228,52245,52262,52279,52295,52312,52329,52345,52362,52378,52396,52412,52429,52446,52462,52479,52495,52512,52528,52545,52562,52579,52596,52612,52629,52645,52662,52678,52696,52712,52729,52745,52762,52779,52794,52811,52828,52844,52863,52878,52896,52912,52929,52946,52962,52979,52994,53011,53028,53045,53061,53078,53095,53112,53129,53146,53162,53178,53196,53212,53228,53245,53262,53279,53295,53312,53328,53345,53361,53378,53395,53412,53429,53446,53462,53478,53495,53511,53528,53546,53563,53578,53596,53612,53628,53645,53662,53679,53696,53712,53728,53746,53762,53779,53796,53812,53828,53845,53862,53878,53894,53912,53928,53945,53963,53978,53996,54012,54029,54045,54061,54079,54096,54112,54129,54145,54162,54179,54196,54212,54229,54245,54261,54278,54295,54312,54329,54346,54362,54378,54395,54412,54429,54445,54462,54478,54495,54512,54529,54546,54562,54579,54596,54612,54629,54646,54662,54678,54695,54712,54729,54746,54762,54778,54796,54812,54829,54845,54862,54878,54895,54913,54929,54946,54962,54978,54995,55012,55029,55046,55062,55078,55096,55112,55129,55146,55162,55179,55195,55212,55229,55245,55262,55279,55296,55311,55328,55345,55361,55378,55394,55412,55428,55445,55461,55478,55495,55512,55529,55546,55562,55579,55595,55612,55629,55646,55662,55678,55695,55711,55728,55745,55763,55778,55795,55811,55828,55845,55862,55878,55895,55912,55928,55945,55962,55978,55995,56012,56029,56046,56062,56078,56095,56112,56129,56146,56162,56178,56195,56212,56228,56245,56262,56279,56296,56312,56328,56345,56361,56378,56394,56411,56428,56445,56462,56479,56496,56512,56529,56545,56562,56578,56595,56612,56629,56646,56662,56679,56695,56711,56728,56746,56762,56779,56795,56812,56829,56846,56862,56879,56895,56912,56929,56946,56962,56979,56996,57011,57028,57045,57062,57078,57095,57111,57127,57145,57162,57178,57195,57212,57229,57245,57262,57279,57296,57312,57329,57345,57361,57378,57395,57412,57429,57445,57462,57479,57496,57512,57528,57545,57562,57579,57595,57612,57628,57645,57662,57679,57696,57712,57729,57745,57762,57778,57796,57812,57829,57846,57862,57879,57894,57911,57928,57946,57962,57978,57995,58012,58029,58046,58062,58078,58095,58112,58129,58146,58162,58179,58196,58212,58228,58246,58262,58279,58296,58312,58329,58345,58362,58378,58396,58412,58429,58445,58462,58479,58496,58512,58528,58544,58561,58578,58595,58612,58629,58645,58662,58679,58695,58711,58729,58746,58762,58779,58796,58812,58829,58845,58862,58878,58895,58912,58929,58945,58962,58978,58995,59012,59028,59045,59062,59079,59096,59112,59128,59145,59162,59179,59196,59212,59229,59246,59262,59278,59296,59313,59329,59345,59362,59378,59394,59412,59428,59446,59462,59479,59495,59512,59529,59546,59563,59579,59595,59612,59628,59646,59662,59678,59695,59712,59729,59746,59762,59778,59796,59812,59829,59845,59862,59878,59895,59911,59929,59945,59962,59978,59994,60011,60027,60046,60062,60080,60094,60112,60128,60145,60162,60179,60195,60212,60228,60246,60262,60278,60295,60312,60329,60345,60363,60378,60395,60411,60428,60446,60462,60478,60496,60512,60528,60545,60562,60579,60596,60613,60629,60646,60662,60679,60696,60712,60728,60746,60762,60778,60796,60812,60827,60845,60862,60878,60896,60912,60928,60946,60962,60978,60996,61012,61029,61045,61062,61078,61095,61112,61128,61145,61161,61179,61195,61213,61228,61246,61262,61279,61296,61312,61329,61345,61362,61378,61395,61412,61427,61444,61461,61478,61495,61512,61527,61544,61560,61578,61595,61612,61628,61645,61662,61679,61695,61711,61728,61745,61762,61779,61796,61812,61828,61845,61862,61878,61896,61912,61929,61946,61962,61978,61996,62012,62028,62046,62062,62078,62095,62112,62128,62145,62162,62179,62195,62212,62228,62245,62262,62279,62295,62312,62329,62345,62362,62378,62395,62412,62429,62445,62462,62478,62496,62512,62528,62546,62562,62579,62596,62612,62628,62645,62662,62678,62695,62712,62729,62746,62762,62779,62796,62813,62829,62845,62862,62878,62895,62912,62929,62946,62962,62979,62996,63012,63029,63046,63062,63079,63096,63112,63129,63146,63162,63179,63195,63211,63228,63245,63262,63278,63295,63312,63329,63345,63362,63378,63396,63412,63428,63445,63462,63478,63495,63513,63528,63545,63562,63578,63595,63613,63629,63645,63662,63679,63695,63712,63729,63746,63762,63779,63796,63812,63829,63846,63863,63878,63895,63912,63928,63945,63962,63979,63996,64012,64029,64046,64063,64079,64096,64112,64129,64146,64162,64179,64196,64212,64228,64246,64262,64278,64296,64311,64328,64346,64362,64379,64396,64412,64428,64445,64462,64479,64496,64512,64529,64545,64562,64578,64595,64612,64629,64646,64663,64679,64695,64712,64729,64746,64762,64778,64795,64813,64829,64845,64862,64878,64896,64912,64929,64946,64962,64979,64995,65012,65028,65046,65060,65078,65095,65112,65129,65146,65162,65178,65196,65212,65228,65245,65262,65278,65295,65311,65328,65344,65362,65378,65395,65412,65429,65446,65462,65479,65496,65512,65529,65546,65563,65579,65596,65612,65629,65646,65662,65678,65695,65712,65729,65744,65761,65778,65795,65812,65829,65846,65862,65880,65896,65912,65929,65946,65962,65979,65995,66012,66029,66045,66063,66079,66096,66112,66129,66146,66162,66179,66196,66211,66229,66246,66262,66278,66295,66312,66328,66345,66362,66379,66396,66412,66429,66446,66462,66478,66496,66512,66529,66546,66562,66578,66596,66613,66628,66646,66662,66679,66696,66711,66728,66745,66763,66779,66795,66812,66829,66846,66862,66878,66895,66912,66929,66945,66962,66979,66996,67012,67028,67045,67062,67078,67095,67112,67128,67145,67161,67178,67195,67212,67228,67246,67262,67279,67295,67312,67329,67345,67362,67378,67396,67412,67428,67445,67462,67479,67496,67513,67529,67546,67562,67578,67596,67612,67629,67646,67663,67678,67695,67712,67729,67746,67762,67779,67796,67812,67828,67845,67862,67879,67895,67912,67928,67945,67963,67978,67996,68012,68028,68046,68062,68078,68095,68112,68128,68146,68162,68178,68195,68212,68229,68246,68262,68279,68296,68312,68329,68345,68362,68378,68396,68412,68429,68445,68462,68478,68496,68512,68529,68546,68562,68579,68595,68611,68628,68645,68662,68679,68695,68713,68729,68746,68762,68779,68796,68812,68829,68845,68862,68879,68896,68912,68929,68946,68962,68978,68995,69012,69029,69046,69062,69078,69095,69112,69128,69146,69163,69179,69196,69212,69229,69246,69262,69279,69295,69312,69329,69345,69362,69378,69395,69412,69428,69445,69462,69478,69495,69512,69529,69546,69562,69579,69595,69613,69629,69645,69662,69679,69696,69712,69729,69746,69762,69779,69796,69812,69828,69845,69862,69878,69895,69912,69928,69945,69962,69978,69995,70012,70028,70045,70061,70077,70096,70112,70128,70146,70161,70177,70195,70212,70228,70245,70262,70279,70295,70312,70328,70345,70362,70378,70395,70412,70428,70445,70462,70479,70496,70512,70529,70546,70562,70579,70595,70612,70628,70645,70662,70678,70696,70711,70728,70745,70762,70778,70795,70812,70828,70845,70862,70878,70894,70912,70928,70945,70962,70979,70996,71013,71029,71046,71062,71079,71095,71112,71128,71145,71162,71178,71196,71212,71229,71245,71262,71279,71295,71312,71329,71345,71361,71378,71395,71412,71429,71446,71462,71479,71496,71511,71528,71545,71562,71579,71595,71612,71628,71645,71662,71679,71696,71714,71728,71745,71762,71779,71795,71812,71829,71846,71862,71879,71894,71911,71927,71944,71961,71978,71995,72011,72028,72045,72063,72079,72096,72112,72128,72145,72161,72178,72195,72212,72229,72246,72262,72279,72296,72313,72328,72345,72361,72378,72395,72411,72428,72445,72462,72479,72496,72513,72529,72546,72563,72579,72596,72612,72628,72646,72662,72679,72695,72712,72729,72746,72762,72779,72795,72812,72829,72845,72863,72878,72894,72912,72928,72946,72962,72978,72996,73012,73029,73046,73062,73079,73096,73112,73128,73145,73162,73178,73196,73213,73229,73246,73262,73279,73295,73312,73329,73345,73362,73379,73396,73412,73429,73446,73462,73478,73496,73512,73529,73546,73562,73579,73595,73612,73628,73646,73662,73678,73695,73712,73729,73746,73763,73779,73796,73812,73828,73846,73863,73878,73895,73912,73928,73945,73962,73979,73996,74012,74028,74046,74063,74079,74095,74113,74129,74146,74162,74179,74196,74212,74229,74245,74262,74278,74294,74311,74328,74345,74362,74379,74396,74412,74428,74445,74462,74479,74496,74512,74529,74546,74563,74579,74595,74612,74629,74645,74662,74679,74695,74712,74729,74745,74762,74778,74796,74811,74828,74846,74862,74878,74896,74912,74927,74945,74961,74979,74995,75012,75029,75045,75063,75080,75096,75113,75129,75145,75162,75179,75195,75212,75228,75245,75262,75279,75296,75313,75329,75345,75363,75379,75396,75412,75429,75445,75463,75478,75496,75512,75528,75545,75562,75579,75595,75612,75627,75645,75662,75677,75695,75712,75729,75746,75763,75779,75796,75812,75829,75846,75862,75879,75895,75912,75929,75945,75962,75979,75996,76012,76029,76045,76062,76078,76094,76112,76128,76146,76163,76179,76195,76213,76228,76245,76262,76279,76296,76312,76328,76345,76362,76379,76396,76412,76429,76446,76462,76479,76495,76513,76529,76546,76562,76579,76595,76613,76629,76645,76662,76677,76695,76712,76728,76745,76762,76779,76796,76812,76829,76846,76862,76878,76896,76912,76929,76946,76962,76979,76995,77012,77029,77046,77061,77078,77095,77112,77128,77145,77162,77179,77195,77212,77228,77246,77262,77279,77295,77312,77329,77345,77362,77378,77395,77412,77428,77445,77462,77478,77496,77512,77529,77546,77563,77578,77596,77613,77629,77646,77662,77679,77695,77713,77729,77746,77762,77779,77796,77812,77829,77846,77862,77879,77895,77913,77928,77945,77962,77978,77995,78012,78030,78047,78061,78077,78094,78111,78128,78145,78162,78179,78195,78212,78229,78246,78263,78279,78296,78312,78329,78346,78362,78379,78395,78412,78428,78445,78461,78478,78494,78511,78528,78545,78562,78579,78595,78612,78629,78646,78662,78679,78695,78712,78729,78745,78763,78779,78796,78812,78829,78846,78862,78878,78895,78912,78929,78946,78961,78979,78995,79013,79029,79045,79062,79078,79095,79112,79128,79145,79161,79179,79195,79213,79228,79246,79263,79278,79295,79312,79328,79345,79362,79378,79395,79412,79428,79445,79462,79478,79496,79513,79530,79546,79563,79578,79597,79611,79628,79645,79662,79678,79695,79712,79728,79745,79762,79779,79796,79813,79828,79846,79861,79878,79895,79912,79928,79944,79962,79978,79994,80012,80028,80045,80061,80077,80095,80112,80129,80145,80162,80179,80196,80212,80228,80246,80262,80279,80296,80312,80328,80345,80363,80378,80395,80412,80428,80445,80462,80479,80496,80512,80529,80546,80563,80579,80595,80612,80629,80646,80663,80679,80695,80712,80728,80745,80761,80779,80795,80812,80829,80846,80862,80878,80896,80912,80929,80945,80963,80979,80995,81012,81028,81045,81062,81079,81095,81112,81128,81145,81162,81178,81195,81212,81228,81246,81262,81280,81296,81312,81328,81345,81360,81378,81396,81411,81429,81445,81462,81479,81496,81512,81529,81546,81563,81578,81596,81612,81629,81646,81662,81679,81696,81711,81728,81745,81762,81779,81796,81813,81828,81846,81862,81878,81894,81912,81928,81944,81962,81978,81995,82012,82029,82046,82062,82079,82096,82113,82130,82145,82162,82178,82195,82212,82229,82246,82263,82279,82296,82313,82329,82346,82363,82378,82395,82412,82429,82445,82462,82479,82495,82512,82528,82545,82562,82578,82595,82612,82628,82647,82661,82679,82695,82713,82729,82746,82763,82779,82795,82813,82829,82845,82863,82881,82895,82912,82929,82947,82963,82978,82996,83012,83029,83045,83061,83079,83095,83112,83130,83145,83162,83179,83195,83212,83228,83245,83261,83278,83295,83312,83328,83346,83362,83378,83395,83411,83428,83444,83462,83480,83496,83512,83529,83546,83562,83578,83595,83612,83628,83645,83663,83679,83695,83712,83728,83745,83762,83778,83795,83813,83830,83845,83862,83879,83895,83912,83928,83946,83962,83979,83995,84013,84029,84046,84062,84079,84095,84113,84129,84145,84163,84179,84196,84212,84229,84246,84262,84278,84295,84312,84329,84345,84364,84379,84396,84413,84429,84445,84463,84479,84497,84513,84529,84547,84563,84580,84597,84613,84629,84646,84663,84679,84696,84712,84728,84745,84763,84779,84795,84812,84829,84845,84862,84879,84896,84913,84929,84945,84962,84978,84995,85012,85029,85046,85062,85079,85095,85112,85129,85145,85162,85178,85194,85212,85229,85245,85263,85279,85295,85312,85329,85345,85362,85379,85396,85413,85428,85446,85463,85488],"hit":[null],"x":[-1.6054421768707483,-1.6054421768707483,-1.6054421768707483,-1.6054421768707483,-1.6054421768707483,-1.6054421768707483,-1.6054421768707483,-1.6054421768707483,-1.6054421768707483,-1.6054421768707483,-1.6054421768707483,-1.6054421768707483,-1.6054421768707483,-1.6054421768707483,-1.6054421768707483,-1.6054421768707483,-1.6054421768707483,-1.6054421768707483,-1.6054421768707483,-1.6054421768707483,-1.6054421768707483,-1.6054421768707483,-1.6054421768707483,-1.6054421768707483,-1.6054421768707483,-1.6054421768707483,-1.6054421768707483,-1.6054421768707483,-1.6054421768707483,-1.6054421768707483,-1.6054421768707483,-1.6054421768707483,-1.6054421768707483,-1.6054421768707483,-1.6054421768707483,-1.6054421768707483,-1.6054421768707483,-1.6054421768707483,-1.6054421768707483,-1.6054421768707483,-1.6054421768707483,-1.6054421768707483,-1.6054421768707483,-1.6054421768707483,-1.6054421768707483,-1.6054421768707483,-1.6054421768707483,-1.6054421768707483,-1.6054421768707483,0.003401360544217687,0.003401360544217687,0.003401360544217687,0.003401360544217687,0.003401360544217687,0.003401360544217687,0.003401360544217687,0.003401360544217687,0.003401360544217687,0.003401360544217687,0.003401360544217687,0.003401360544217687,0.003401360544217687,0.003401360544217687,0.003401360544217687,0.003401360544217687,0.003401360544217687,0.003401360544217687,0.003401360544217687,0.003401360544217687,0.003401360544217687,0.003401360544217687,0.003401360544217687,0.003401360544217687,0.003401360544217687,0.003401360544217687,0.003401360544217687,0.003401360544217687,0.003401360544217687,0.003401360544217687,0.003401360544217687,0.003401360544217687,0.003401360544217687,0.003401360544217687,0.003401360544217687,0.003401360544217687,0.003401360544217687,0.003401360544217687,0.003401360544217687,0.003401360544217687,0.003401360544217687,0.003401360544217687,0.003401360544217687,0.003401360544217687,0.003401360544217687,0.003401360544217687,0.003401360544217687,0.003401360544217687,0.003401360544217687,0.003401360544217687,0.003401360544217687,0.003401360544217687,0.003401360544217687,0.003401360544217687,0.003401360544217687,0.003401360544217687,0.003401360544217687,0.003401360544217687,0.003401360544217687,0.003401360544217687,0.003401360544217687,0.003401360544217687,0.003401360544217687,0.003401360544217687,0.003401360544217687,0.003401360544217687,0.003401360544217687,0.003401360544217687,0.003401360544217687,0.003401360544217687,0.003401360544217687,0.003401360544217687,0.003401360544217687,0.003401360544217687,0.003401360544217687,0.003401360544217687,0.003401360544217687,0.003401360544217687,0.003401360544217687,0.003401360544217687,0.003401360544217687,0.003401360544217687,0.003401360544217687,0.003401360544217687,0.003401360544217687,0.003401360544217687,0.003401360544217687,0.003401360544217687,0.003401360544217687,0.003401360544217687,0.003401360544217687,0.003401360544217687,0.003401360544217687,0.003401360544217687,0.003401360544217687,0.003401360544217687,0.003401360544217687,0.003401360544217687,0.003401360544217687,0.003401360544217687,0.003401360544217687,0.003401360544217687,0.003401360544217687,0.003401360544217687,0.003401360544217687,0.003401360544217687,0.003401360544217687,0.003401360544217687,0.003401360544217687,0.003401360544217687,0.003401360544217687,0.003401360544217687,0.003401360544217687,0.003401360544217687,0.003401360544217687,0.003401360544217687,0.003401360544217687,0.003401360544217687,0.003401360544217687,0.003401360544217687,0.003401360544217687,0.003401360544217687,0.003401360544217687,0.003401360544217687,0.003401360544217687,0.003401360544217687,0.003401360544217687,0.003401360544217687,0.003401360544217687,0.003401360544217687,0.003401360544217687,0.003401360544217687,0.003401360544217687,0.003401360544217687,0.003401360544217687,0.003401360544217687,0.003401360544217687,0.003401360544217687,0.003401360544217687,0.003401360544217687,0.003401360544217687,0.003401360544217687,0.003401360544217687,0.003401360544217687,0.003401360544217687,0.003401360544217687,0.003401360544217687,0.003401360544217687,0.003401360544217687,0.003401360544217687,0.003401360544217687,0.003401360544217687,0.003401360544217687,0.003401360544217687,0.003401360544217687,0.003401360544217687,0.003401360544217687,0.003401360544217687,0.003401360544217687,0.003401360544217687,0.003401360544217687,0.003401360544217687,0.003401360544217687,0.003401360544217687,0.003401360544217687,0.003401360544217687,0.003401360544217687,0.003401360544217687,0.003401360544217687,0.003401360544217687,0.003401360544217687,0.003401360544217687,0.003401360544217687,0.003401360544217687,0.003401360544217687,0.003401360544217687,0.003401360544217687,0.003401360544217687,0.003401360544217687,0.003401360544217687,0.003401360544217687,0.003401360544217687,0.003401360544217687,0.003401360544217687,0.003401360544217687,0.003401360544217687,0.003401360544217687,0.003401360544217687,0.003401360544217687,0.003401360544217687,0.003401360544217687,0.003401360544217687,0.003401360544217687,0.003401360544217687,0.003401360544217687,0.003401360544217687,0.003401360544217687,0.003401360544217687,0.003401360544217687,0.003401360544217687,0.003401360544217687,0.003401360544217687,0.003401360544217687,0.003401360544217687,0.003401360544217687,0.003401360544217687,0.003401360544217687,0.003401360544217687,0.003401360544217687,0.003401360544217687,0.003401360544217687,0.003401360544217687,0.003401360544217687,0.003401360544217687,0.003401360544217687,0.003401360544217687,0.003401360544217687,0.003401360544217687,0.003401360544217687,0.003401360544217687,0.003401360544217687,0.003401360544217687,0.003401360544217687,0.003401360544217687,0.003401360544217687,0.003401360544217687,0.003401360544217687,0.003401360544217687,0.003401360544217687,0.003401360544217687,0.003401360544217687,0.003401360544217687,0.003401360544217687,0.003401360544217687,0.003401360544217687,0.003401360544217687,0.003401360544217687,0.003401360544217687,0.003401360544217687,0.003401360544217687,0.003401360544217687,0.003401360544217687,0.003401360544217687,0.003401360544217687,0.003401360544217687,0.003401360544217687,0.003401360544217687,0.003401360544217687,0.003401360544217687,0.003401360544217687,0.003401360544217687,0.003401360544217687,0.003401360544217687,0.003401360544217687,0.003401360544217687,0.003401360544217687,0.003401360544217687,0.003401360544217687,0.003401360544217687,0.003401360544217687,0.003401360544217687,0.003401360544217687,0.003401360544217687,0.003401360544217687,0.003401360544217687,0.003401360544217687,0.003401360544217687,0.003401360544217687,0.003401360544217687,0.003401360544217687,0.003401360544217687,0.003401360544217687,0.003401360544217687,0.003401360544217687,0.003401360544217687,0.003401360544217687,0.003401360544217687,0.003401360544217687,0.003401360544217687,0.003401360544217687,0.003401360544217687,0.003401360544217687,0.003401360544217687,0.003401360544217687,0.003401360544217687,0.003401360544217687,0.003401360544217687,0.003401360544217687,0.003401360544217687,0.003401360544217687,0.003401360544217687,0.003401360544217687,0.003401360544217687,0.003401360544217687,0.003401360544217687,0.003401360544217687,0.003401360544217687,0.003401360544217687,0.003401360544217687,0.003401360544217687,0.003401360544217687,0.003401360544217687,0.003401360544217687,0.003401360544217687,0.003401360544217687,0.08163265306122448,0.17006802721088435,0.35034013605442177,0.46938775510204084,0.6156462585034014,0.7074829931972789,0.782312925170068,0.8843537414965986,0.9387755102040817,1.0136054421768708,1.0476190476190477,1.0850340136054422,1.098639455782313,1.1088435374149659,1.1156462585034013,1.1156462585034013,1.1156462585034013,1.1156462585034013,1.1156462585034013,1.1156462585034013,1.1156462585034013,1.1156462585034013,1.1156462585034013,1.1156462585034013,1.1156462585034013,1.1156462585034013,1.1156462585034013,1.1156462585034013,1.1156462585034013,1.1156462585034013,1.1156462585034013,1.1156462585034013,1.1156462585034013,1.1156462585034013,1.1156462585034013,1.1156462585034013,1.1156462585034013,1.1156462585034013,1.1156462585034013,1.1156462585034013,1.1156462585034013,1.1156462585034013,1.1156462585034013,1.1156462585034013,1.1156462585034013,1.1156462585034013,1.1156462585034013,1.1156462585034013,1.1156462585034013,1.1156462585034013,1.1156462585034013,1.1156462585034013,1.1156462585034013,1.1156462585034013,1.1156462585034013,1.1156462585034013,1.1156462585034013,1.1156462585034013,1.1156462585034013,1.1156462585034013,1.1156462585034013,1.1156462585034013,1.1156462585034013,1.1156462585034013,1.1156462585034013,1.1156462585034013,1.1156462585034013,1.1156462585034013,1.1156462585034013,1.1156462585034013,1.1156462585034013,1.1156462585034013,1.1156462585034013,1.1156462585034013,1.1156462585034013,1.1156462585034013,1.1156462585034013,1.1156462585034013,1.1156462585034013,1.1156462585034013,1.1156462585034013,1.1156462585034013,1.1156462585034013,1.1156462585034013,1.1156462585034013,1.1156462585034013,1.1156462585034013,1.1156462585034013,1.1156462585034013,1.1156462585034013,1.1156462585034013,1.1156462585034013,1.1156462585034013,1.1156462585034013,1.1156462585034013,1.1156462585034013,1.1156462585034013,1.1156462585034013,1.1156462585034013,1.1156462585034013,1.1156462585034013,1.1156462585034013,1.1156462585034013,1.1156462585034013,1.1156462585034013,1.1156462585034013,1.1156462585034013,1.1156462585034013,1.1156462585034013,1.1156462585034013,1.1156462585034013,1.1156462585034013,1.1156462585034013,1.1156462585034013,1.1156462585034013,1.1156462585034013,1.1156462585034013,1.1156462585034013,1.1156462585034013,1.1156462585034013,1.1156462585034013,1.1156462585034013,1.1156462585034013,1.1156462585034013,1.1156462585034013,1.1156462585034013,1.1156462585034013,1.1156462585034013,1.1156462585034013,1.1156462585034013,1.1156462585034013,1.1156462585034013,1.1156462585034013,1.1156462585034013,1.1156462585034013,1.1156462585034013,1.1156462585034013,1.1156462585034013,1.1156462585034013,1.1156462585034013,1.1156462585034013,1.1156462585034013,1.1156462585034013,1.1156462585034013,1.1156462585034013,1.1156462585034013,1.1156462585034013,1.1156462585034013,1.1156462585034013,1.1156462585034013,1.1156462585034013,1.1156462585034013,1.1156462585034013,1.1156462585034013,1.1156462585034013,1.1156462585034013,1.1156462585034013,1.1156462585034013,1.1156462585034013,1.1156462585034013,1.1156462585034013,1.1156462585034013,1.1156462585034013,1.1156462585034013,1.1156462585034013,1.1156462585034013,1.1156462585034013,1.1156462585034013,1.1156462585034013,1.1156462585034013,1.1156462585034013,1.1156462585034013,1.1156462585034013,1.1156462585034013,1.1156462585034013,1.1156462585034013,1.1156462585034013,1.1156462585034013,1.1156462585034013,1.1156462585034013,1.1156462585034013,1.1156462585034013,1.1156462585034013,1.1156462585034013,1.1156462585034013,1.1156462585034013,1.1156462585034013,1.1156462585034013,1.1156462585034013,1.1156462585034013,1.1156462585034013,1.1156462585034013,1.1156462585034013,1.1156462585034013,1.1156462585034013,1.1156462585034013,1.1156462585034013,1.1156462585034013,1.1156462585034013,1.1156462585034013,1.1156462585034013,1.1156462585034013,1.1156462585034013,1.1156462585034013,1.1156462585034013,1.1156462585034013,1.1156462585034013,1.1156462585034013,1.1156462585034013,1.1156462585034013,1.1156462585034013,1.1156462585034013,1.1156462585034013,1.1156462585034013,1.1156462585034013,1.1156462585034013,1.1156462585034013,1.1156462585034013,1.1156462585034013,1.1156462585034013,1.1156462585034013,1.1156462585034013,1.1156462585034013,1.1156462585034013,0.5918367346938775,0.5918367346938775,0.5918367346938775,0.5918367346938775,0.5918367346938775,0.5918367346938775,0.5918367346938775,0.5918367346938775,0.5918367346938775,0.5918367346938775,0.5918367346938775,0.5918367346938775,0.5918367346938775,0.5918367346938775,0.5918367346938775,0.5918367346938775,0.5918367346938775,0.5918367346938775,0.5918367346938775,0.5918367346938775,0.5918367346938775,0.5918367346938775,0.5918367346938775,0.5918367346938775,0.5918367346938775,0.5918367346938775,0.5918367346938775,0.5918367346938775,0.5918367346938775,0.5918367346938775,0.5918367346938775,0.5918367346938775,0.5918367346938775,0.5918367346938775,0.5918367346938775,0.5918367346938775,0.5918367346938775,0.5918367346938775,0.5918367346938775,0.5918367346938775,0.5918367346938775,0.5918367346938775,0.5918367346938775,0.5918367346938775,0.5918367346938775,0.5918367346938775,0.5918367346938775,0.5918367346938775,0.5918367346938775,0.5918367346938775,0.5918367346938775,0.5918367346938775,0.5918367346938775,0.5918367346938775,0.5918367346938775,0.5918367346938775,0.5918367346938775,0.5918367346938775,0.5918367346938775,0.5918367346938775,0.5918367346938775,0.5918367346938775,0.5918367346938775,0.5918367346938775,0.5918367346938775,0.5918367346938775,0.5918367346938775,0.5918367346938775,0.5918367346938775,0.5918367346938775,0.5918367346938775,0.5918367346938775,0.5918367346938775,0.5918367346938775,0.5918367346938775,0.5918367346938775,0.5918367346938775,0.5918367346938775,0.5918367346938775,0.5918367346938775,0.5918367346938775,0.5918367346938775,0.5918367346938775,0.5918367346938775,0.5918367346938775,0.5918367346938775,0.5918367346938775,0.5918367346938775,0.5918367346938775,0.5918367346938775,0.5918367346938775,0.5918367346938775,0.5918367346938775,0.5918367346938775,0.5918367346938775,0.5918367346938775,0.5918367346938775,0.5918367346938775,0.5918367346938775,0.5918367346938775,0.5918367346938775,0.5918367346938775,0.5918367346938775,0.5918367346938775,0.5918367346938775,0.5918367346938775,0.5918367346938775,0.5918367346938775,0.5918367346938775,0.5918367346938775,0.5918367346938775,0.5918367346938775,0.5918367346938775,0.5918367346938775,0.5918367346938775,0.5918367346938775,0.5918367346938775,0.5918367346938775,0.5918367346938775,0.5918367346938775,0.5918367346938775,0.5918367346938775,0.5918367346938775,0.5918367346938775,0.5918367346938775,0.5918367346938775,0.5918367346938775,0.5918367346938775,0.5918367346938775,0.5918367346938775,0.5918367346938775,0.5918367346938775,0.5918367346938775,0.5918367346938775,0.5918367346938775,0.5918367346938775,0.5918367346938775,0.5918367346938775,0.5918367346938775,0.5918367346938775,0.5918367346938775,0.5918367346938775,0.5918367346938775,0.5918367346938775,0.5918367346938775,0.5918367346938775,0.5918367346938775,0.5918367346938775,0.5918367346938775,0.5918367346938775,0.5918367346938775,0.5918367346938775,0.5918367346938775,0.5918367346938775,0.5918367346938775,0.5918367346938775,0.5918367346938775,0.5918367346938775,0.5918367346938775,0.5918367346938775,0.5918367346938775,0.5918367346938775,0.5918367346938775,0.5918367346938775,0.5918367346938775,0.5918367346938775,0.5918367346938775,0.5918367346938775,0.5918367346938775,0.5918367346938775,0.5918367346938775,0.5918367346938775,0.5918367346938775,0.5918367346938775,0.5918367346938775,0.5918367346938775,0.5918367346938775,0.5918367346938775,0.5918367346938775,0.5918367346938775,0.5918367346938775,0.5918367346938775,0.5918367346938775,0.5918367346938775,0.5918367346938775,0.5918367346938775,0.5918367346938775,0.5918367346938775,0.5918367346938775,0.5918367346938775,0.5918367346938775,0.5918367346938775,0.5918367346938775,0.5918367346938775,0.5918367346938775,0.5918367346938775,0.5918367346938775,0.5918367346938775,0.5918367346938775,0.5918367346938775,0.5918367346938775,0.5918367346938775,0.5918367346938775,0.5918367346938775,0.5918367346938775,0.5918367346938775,0.5918367346938775,0.5918367346938775,0.5918367346938775,0.5918367346938775,0.5918367346938775,0.5918367346938775,0.5918367346938775,0.5918367346938775,0.5918367346938775,0.5918367346938775,0.5918367346938775,0.5918367346938775,0.5918367346938775,0.5918367346938775,0.5918367346938775,0.5918367346938775,0.5918367346938775,0.5918367346938775,0.5918367346938775,0.5918367346938775,0.5918367346938775,0.5918367346938775,0.5918367346938775,0.5918367346938775,0.5918367346938775,0.5918367346938775,0.5918367346938775,0.5918367346938775,0.5918367346938775,0.5918367346938775,0.5918367346938775,0.5918367346938775,0.5918367346938775,0.5918367346938775,0.5918367346938775,0.5918367346938775,0.5918367346938775,0.5918367346938775,0.5918367346938775,0.5918367346938775,0.5918367346938775,0.5918367346938775,0.5918367346938775,0.5918367346938775,0.5918367346938775,0.5918367346938775,0.5918367346938775,0.5918367346938775,0.5918367346938775,0.5918367346938775,0.5918367346938775,0.5918367346938775,0.5918367346938775,0.5918367346938775,0.5918367346938775,0.5918367346938775,0.5918367346938775,0.5918367346938775,0.5918367346938775,0.5918367346938775,0.5918367346938775,0.5918367346938775,0.5918367346938775,0.5918367346938775,0.5918367346938775,0.5918367346938775,0.5918367346938775,0.5918367346938775,0.5918367346938775,0.5918367346938775,0.5918367346938775,0.5918367346938775,0.5918367346938775,0.5918367346938775,0.5918367346938775,0.5918367346938775,0.5918367346938775,0.5918367346938775,0.5918367346938775,0.5918367346938775,0.5918367346938775,0.5918367346938775,0.5918367346938775,0.5918367346938775,0.5918367346938775,0.5918367346938775,0.5918367346938775,0.5918367346938775,0.5918367346938775,0.5918367346938775,0.5918367346938775,0.5918367346938775,0.5918367346938775,0.5918367346938775,0.5918367346938775,0.5918367346938775,0.5918367346938775,0.5918367346938775,0.5918367346938775,0.5918367346938775,0.5918367346938775,0.5918367346938775,0.5918367346938775,0.5918367346938775,0.5918367346938775,0.5918367346938775,0.5918367346938775,0.5918367346938775,0.5918367346938775,0.5918367346938775,0.5918367346938775,0.5918367346938775,0.5918367346938775,0.5918367346938775,0.5918367346938775,0.5918367346938775,0.5918367346938775,0.5918367346938775,0.5918367346938775,0.5918367346938775,0.5918367346938775,0.5918367346938775,0.5918367346938775,0.5918367346938775,0.5918367346938775,0.5918367346938775,0.5918367346938775,0.5918367346938775,0.5918367346938775,0.5918367346938775,0.5918367346938775,0.5918367346938775,0.5918367346938775,0.5918367346938775,0.5918367346938775,0.5918367346938775,0.5918367346938775,0.5918367346938775,0.5918367346938775,0.5918367346938775,0.5918367346938775,0.5918367346938775,0.5918367346938775,0.5918367346938775,0.5918367346938775,0.5918367346938775,0.5918367346938775,0.5918367346938775,0.5918367346938775,0.5918367346938775,0.5918367346938775,0.5918367346938775,0.5918367346938775,0.5918367346938775,0.5918367346938775,0.5918367346938775,0.5918367346938775,0.5918367346938775,0.5918367346938775,0.5918367346938775,0.5918367346938775,0.5918367346938775,0.5918367346938775,0.5918367346938775,0.5918367346938775,0.5918367346938775,0.5918367346938775,0.5918367346938775,0.5918367346938775,0.5918367346938775,0.5918367346938775,0.5918367346938775,0.5918367346938775,0.5918367346938775,0.5918367346938775,0.5918367346938775,0.5918367346938775,0.5918367346938775,1.1156462585034013,1.1156462585034013,1.1156462585034013,1.1156462585034013,1.1156462585034013,1.1156462585034013,1.1156462585034013,1.1156462585034013,1.1156462585034013,1.1156462585034013,1.1156462585034013,1.1156462585034013,1.1156462585034013,1.1156462585034013,1.1156462585034013,1.1156462585034013,1.1156462585034013,1.1156462585034013,1.1156462585034013,1.1156462585034013,1.1156462585034013,1.1156462585034013,1.1156462585034013,1.1156462585034013,1.1156462585034013,1.1156462585034013,1.1156462585034013,1.1156462585034013,1.1156462585034013,1.1156462585034013,1.1156462585034013,1.1156462585034013,1.1156462585034013,1.1156462585034013,1.1156462585034013,1.1156462585034013,1.1156462585034013,1.1156462585034013,1.1156462585034013,1.1156462585034013,1.1156462585034013,1.1156462585034013,1.1156462585034013,1.1156462585034013,1.1156462585034013,1.1156462585034013,1.1156462585034013,1.1156462585034013,1.1156462585034013,1.1156462585034013,1.1156462585034013,1.1156462585034013,1.1156462585034013,1.1156462585034013,1.1156462585034013,1.1156462585034013,1.1156462585034013,1.1156462585034013,1.1156462585034013,1.1156462585034013,1.1156462585034013,1.1156462585034013,1.1156462585034013,1.1156462585034013,1.1156462585034013,1.1156462585034013,1.1156462585034013,1.1156462585034013,1.1156462585034013,1.1156462585034013,1.1156462585034013,1.1156462585034013,1.1156462585034013,1.1156462585034013,1.1156462585034013,1.1156462585034013,1.1156462585034013,1.1156462585034013,1.1156462585034013,1.1156462585034013,1.1156462585034013,1.1156462585034013,1.1156462585034013,1.1156462585034013,1.1156462585034013,1.1156462585034013,1.1156462585034013,1.1156462585034013,1.1156462585034013,1.1156462585034013,1.1156462585034013,1.1156462585034013,1.1156462585034013,1.1156462585034013,1.1156462585034013,1.1156462585034013,1.1156462585034013,1.1156462585034013,1.1156462585034013,1.1156462585034013,1.1156462585034013,1.1156462585034013,1.1156462585034013,1.1156462585034013,1.1156462585034013,1.1156462585034013,1.1156462585034013,1.1156462585034013,1.1156462585034013,1.1156462585034013,1.1156462585034013,1.1156462585034013,1.1156462585034013,1.1156462585034013,1.1156462585034013,1.1156462585034013,1.1156462585034013,1.1156462585034013,1.1156462585034013,1.1156462585034013,1.1156462585034013,1.1156462585034013,1.1156462585034013,1.1156462585034013,1.1156462585034013,1.1156462585034013,1.1156462585034013,1.1156462585034013,1.1156462585034013,1.1156462585034013,1.1156462585034013,1.1156462585034013,1.1156462585034013,1.1156462585034013,1.1156462585034013,1.1156462585034013,1.1156462585034013,1.1156462585034013,1.1156462585034013,1.1156462585034013,1.1156462585034013,1.1156462585034013,1.1156462585034013,1.1156462585034013,1.1156462585034013,1.1156462585034013,1.1156462585034013,1.1156462585034013,1.1156462585034013,1.1156462585034013,1.1156462585034013,1.1156462585034013,1.1156462585034013,1.1156462585034013,1.1156462585034013,1.1156462585034013,1.1156462585034013,1.1156462585034013,1.1156462585034013,1.1156462585034013,1.1156462585034013,1.1156462585034013,1.1156462585034013,1.1156462585034013,1.1156462585034013,1.1156462585034013,1.1156462585034013,1.1156462585034013,1.1156462585034013,1.1156462585034013,1.1156462585034013,1.1156462585034013,1.1156462585034013,1.1156462585034013,1.1156462585034013,1.1156462585034013,1.1156462585034013,1.1156462585034013,1.1156462585034013,1.1156462585034013,1.1156462585034013,1.1156462585034013,1.1156462585034013,1.1156462585034013,1.1156462585034013,1.1156462585034013,1.1156462585034013,1.1156462585034013,1.1156462585034013,1.1156462585034013,1.1156462585034013,1.1156462585034013,1.1156462585034013,1.1156462585034013,1.1156462585034013,1.1156462585034013,1.1156462585034013,1.1156462585034013,1.1156462585034013,1.1156462585034013,1.1156462585034013,1.1156462585034013,1.1156462585034013,1.1156462585034013,1.1156462585034013,1.1156462585034013,1.1156462585034013,1.1156462585034013,1.1156462585034013,1.1156462585034013,1.1156462585034013,1.1156462585034013,1.1156462585034013,1.1156462585034013,1.1156462585034013,1.1156462585034013,1.1156462585034013,1.1156462585034013,1.1156462585034013,1.1156462585034013,1.1156462585034013,1.1156462585034013,1.1156462585034013,1.1156462585034013,1.1156462585034013,1.1156462585034013,1.1156462585034013,1.1156462585034013,1.1156462585034013,1.1156462585034013,1.1156462585034013,1.1156462585034013,1.1156462585034013,1.1156462585034013,1.1156462585034013,1.1156462585034013,1.1156462585034013,1.1156462585034013,1.1156462585034013,1.1156462585034013,1.1156462585034013,1.1156462585034013,1.1156462585034013,1.1156462585034013,1.1156462585034013,1.1156462585034013,1.1156462585034013,1.1156462585034013,1.1156462585034013,1.1156462585034013,1.1156462585034013,1.1156462585034013,1.1156462585034013,1.1156462585034013,1.1156462585034013,1.1156462585034013,1.1156462585034013,1.1156462585034013,1.1156462585034013,1.1156462585034013,1.1156462585034013,1.1156462585034013,1.1156462585034013,1.1156462585034013,1.1156462585034013,1.1156462585034013,1.1156462585034013,1.1156462585034013,1.1156462585034013,1.1156462585034013,1.1156462585034013,1.1156462585034013,1.1156462585034013,1.1156462585034013,1.1156462585034013,1.1156462585034013,1.1156462585034013,1.1156462585034013,1.1156462585034013,1.1156462585034013,1.1156462585034013,1.1156462585034013,1.1156462585034013,1.1156462585034013,1.1156462585034013,1.1156462585034013,1.1156462585034013,1.1156462585034013,1.1156462585034013,1.1156462585034013,1.1156462585034013,1.1156462585034013,1.1156462585034013,1.1156462585034013,1.1156462585034013,1.1156462585034013,1.1156462585034013,1.1156462585034013,1.1156462585034013,1.1156462585034013,1.1156462585034013,1.1156462585034013,1.1156462585034013,1.1156462585034013,1.1156462585034013,1.1156462585034013,1.1156462585034013,1.1156462585034013,1.1156462585034013,1.1156462585034013,1.1156462585034013,1.1156462585034013,1.1156462585034013,1.1156462585034013,1.1156462585034013,1.1156462585034013,1.1156462585034013,1.1156462585034013,1.1156462585034013,1.1156462585034013,1.1156462585034013,1.1156462585034013,1.1156462585034013,1.1156462585034013,1.1156462585034013,1.1156462585034013,1.1156462585034013,1.1156462585034013,1.1156462585034013,1.1156462585034013,1.1156462585034013,1.1156462585034013,1.1156462585034013,1.1156462585034013,1.1156462585034013,1.1156462585034013,1.1156462585034013,1.1156462585034013,1.1156462585034013,1.1156462585034013,1.1156462585034013,1.1156462585034013,1.1156462585034013,1.1156462585034013,1.1156462585034013,1.1156462585034013,1.1156462585034013,1.1156462585034013,1.1156462585034013,1.1156462585034013,1.1156462585034013,1.1156462585034013,1.1156462585034013,1.1156462585034013,1.1156462585034013,1.1156462585034013,1.1156462585034013,1.1156462585034013,1.1156462585034013,1.1156462585034013,1.1156462585034013,1.1156462585034013,1.1156462585034013,1.1156462585034013,1.1156462585034013,1.1156462585034013,1.1156462585034013,1.1156462585034013,1.1156462585034013,1.1156462585034013,1.1156462585034013,1.1156462585034013,1.1156462585034013,1.1156462585034013,1.1156462585034013,1.1156462585034013,1.1156462585034013,1.1156462585034013,1.1156462585034013,1.1156462585034013,1.1156462585034013,1.1156462585034013,1.1156462585034013,1.1156462585034013,1.1156462585034013,1.1156462585034013,1.1156462585034013,1.1156462585034013,1.1156462585034013,1.1156462585034013,1.1156462585034013,1.1156462585034013,1.1156462585034013,1.1156462585034013,1.1156462585034013,1.1156462585034013,1.1156462585034013,1.1156462585034013,1.1156462585034013,1.1156462585034013,1.1156462585034013,1.1156462585034013,1.1156462585034013,1.1156462585034013,1.1156462585034013,1.1156462585034013,1.1156462585034013,1.1156462585034013,1.1156462585034013,1.1156462585034013,1.1156462585034013,1.1156462585034013,1.1156462585034013,1.1156462585034013,1.1156462585034013,1.1156462585034013,1.1156462585034013,1.1156462585034013,1.1156462585034013,1.1156462585034013,1.1156462585034013,1.1156462585034013,1.1156462585034013,1.1156462585034013,1.1156462585034013,1.1156462585034013,1.1156462585034013,1.1156462585034013,1.1156462585034013,1.1156462585034013,1.1156462585034013,1.1156462585034013,1.1156462585034013,1.1156462585034013,1.1156462585034013,1.1156462585034013,1.1156462585034013,1.1156462585034013,1.1156462585034013,1.1156462585034013,1.1156462585034013,1.1156462585034013,1.1156462585034013,1.1156462585034013,1.1156462585034013,1.1156462585034013,1.1156462585034013,1.1156462585034013,1.1156462585034013,1.1156462585034013,1.1156462585034013,1.1156462585034013,1.1156462585034013,1.1156462585034013,1.1156462585034013,1.1156462585034013,1.1156462585034013,1.1156462585034013,1.1156462585034013,1.1156462585034013,1.1156462585034013,1.1156462585034013,1.1156462585034013,1.1156462585034013,1.1156462585034013,1.1156462585034013,1.1156462585034013,1.1156462585034013,1.1156462585034013,1.1156462585034013,1.1156462585034013,1.1156462585034013,1.1156462585034013,1.1156462585034013,1.1156462585034013,1.1156462585034013,1.1156462585034013,1.1156462585034013,1.1156462585034013,1.1156462585034013,1.1156462585034013,1.1156462585034013,1.1156462585034013,1.1156462585034013,1.1156462585034013,1.1156462585034013,1.1156462585034013,1.1156462585034013,1.1156462585034013,1.1156462585034013,1.1156462585034013,1.1156462585034013,1.1156462585034013,1.1156462585034013,1.1156462585034013,1.1156462585034013,1.1156462585034013,1.1156462585034013,1.1156462585034013,1.1156462585034013,1.1156462585034013,1.1156462585034013,1.1156462585034013,1.1156462585034013,1.1156462585034013,1.1156462585034013,1.1156462585034013,1.1156462585034013,1.1156462585034013,1.1156462585034013,1.1156462585034013,1.1156462585034013,1.1156462585034013,1.1156462585034013,1.1156462585034013,1.1156462585034013,1.1156462585034013,1.1156462585034013,1.1156462585034013,1.1156462585034013,1.1156462585034013,1.1156462585034013,1.1156462585034013,1.1156462585034013,1.1156462585034013,1.1156462585034013,1.1156462585034013,1.1156462585034013,1.1156462585034013,1.1156462585034013,1.1156462585034013,1.1156462585034013,1.1156462585034013,1.1156462585034013,1.1156462585034013,1.1156462585034013,1.1156462585034013,1.1156462585034013,1.1156462585034013,1.1156462585034013,1.1156462585034013,1.1156462585034013,1.1156462585034013,1.1156462585034013,1.1156462585034013,1.1156462585034013,1.1156462585034013,1.1156462585034013,1.1156462585034013,1.1156462585034013,1.1156462585034013,1.1156462585034013,1.1156462585034013,1.1156462585034013,1.1156462585034013,1.1156462585034013,1.1156462585034013,1.1156462585034013,1.1156462585034013,1.1156462585034013,1.1156462585034013,1.1156462585034013,1.1156462585034013,1.1156462585034013,1.1156462585034013,1.1156462585034013,1.1156462585034013,1.1156462585034013,1.1156462585034013,1.1156462585034013,1.1156462585034013,1.1156462585034013,1.1156462585034013,1.1156462585034013,1.1156462585034013,1.1156462585034013,1.1156462585034013,1.1156462585034013,1.1156462585034013,1.1156462585034013,1.1156462585034013,1.1156462585034013,1.1156462585034013,1.1156462585034013,1.1156462585034013,1.1156462585034013,1.1156462585034013,1.1156462585034013,1.1156462585034013,1.1156462585034013,1.1156462585034013,1.1156462585034013,1.1156462585034013,1.1156462585034013,1.1156462585034013,1.1156462585034013,1.1156462585034013,1.1156462585034013,1.1156462585034013,1.1156462585034013,1.1156462585034013,1.1156462585034013,1.1156462585034013,1.1156462585034013,1.1156462585034013,1.1156462585034013,1.1156462585034013,1.1156462585034013,1.1156462585034013,1.1156462585034013,1.1156462585034013,1.1156462585034013,1.1156462585034013,1.1156462585034013,1.1156462585034013,1.1156462585034013,1.1156462585034013,1.1156462585034013,1.1156462585034013,1.1156462585034013,1.1156462585034013,1.1156462585034013,1.1156462585034013,1.1156462585034013,1.1156462585034013,1.1156462585034013,1.1156462585034013,1.1156462585034013,1.1156462585034013,1.1156462585034013,1.1156462585034013,1.1156462585034013,1.1156462585034013,1.1156462585034013,1.1156462585034013,1.1156462585034013,1.1156462585034013,1.1156462585034013,1.1156462585034013,1.1156462585034013,1.1156462585034013,1.1156462585034013,1.1156462585034013,1.1156462585034013,1.1156462585034013,1.1156462585034013,1.1156462585034013,1.1156462585034013,1.1156462585034013,1.1156462585034013,1.1156462585034013,1.1156462585034013,1.1156462585034013,1.1156462585034013,1.1156462585034013,1.1156462585034013,1.1156462585034013,1.1156462585034013,1.1156462585034013,1.1156462585034013,1.1156462585034013,1.1156462585034013,1.1156462585034013,1.1156462585034013,1.1156462585034013,1.1156462585034013,1.1156462585034013,1.1156462585034013,1.1156462585034013,1.1156462585034013,1.1156462585034013,1.1156462585034013,1.1156462585034013,1.1156462585034013,1.1156462585034013,1.1156462585034013,1.1156462585034013,1.1156462585034013,1.1156462585034013,1.1156462585034013,1.1156462585034013,1.1156462585034013,1.1156462585034013,1.1156462585034013,1.1156462585034013,1.1156462585034013,1.1156462585034013,1.1156462585034013,1.1156462585034013,1.1156462585034013,1.1156462585034013,1.1156462585034013,1.1156462585034013,1.1156462585034013,1.1156462585034013,1.1156462585034013,1.1156462585034013,1.1156462585034013,1.1156462585034013,1.1156462585034013,1.1156462585034013,1.1156462585034013,1.1156462585034013,1.1156462585034013,1.1156462585034013,1.1156462585034013,1.1156462585034013,1.1156462585034013,1.1156462585034013,1.1156462585034013,1.1156462585034013,1.1156462585034013,1.1156462585034013,1.1156462585034013,1.1156462585034013,1.1156462585034013,1.1156462585034013,1.1156462585034013,1.1156462585034013,1.1156462585034013,1.1156462585034013,1.1156462585034013,1.1156462585034013,1.1156462585034013,1.1156462585034013,1.1156462585034013,1.1156462585034013,1.1156462585034013,1.1156462585034013,1.1156462585034013,1.1156462585034013,1.1156462585034013,1.1156462585034013,1.1156462585034013,1.1156462585034013,1.1156462585034013,1.1156462585034013,1.1156462585034013,1.1156462585034013,1.1156462585034013,1.1156462585034013,1.1156462585034013,1.1156462585034013,1.1156462585034013,1.1156462585034013,1.1156462585034013,1.1156462585034013,1.1156462585034013,1.1156462585034013,1.1156462585034013,1.1156462585034013,1.1156462585034013,1.1156462585034013,1.1156462585034013,1.1156462585034013,1.1156462585034013,1.1156462585034013,1.1156462585034013,1.1156462585034013,1.1156462585034013,1.1156462585034013,1.1156462585034013,1.1156462585034013,1.1156462585034013,1.1156462585034013,1.1156462585034013,1.1156462585034013,1.1156462585034013,1.1156462585034013,1.1156462585034013,1.1156462585034013,1.1156462585034013,1.1156462585034013,1.1156462585034013,1.1156462585034013,1.1156462585034013,1.1156462585034013,1.1156462585034013,1.1156462585034013,1.1156462585034013,1.1156462585034013,1.1156462585034013,1.1156462585034013,1.1156462585034013,1.1156462585034013,1.1156462585034013,1.1156462585034013,1.1156462585034013,1.1156462585034013,1.1156462585034013,1.1156462585034013,1.1156462585034013,1.1156462585034013,1.1156462585034013,1.1156462585034013,1.1156462585034013,1.1156462585034013,1.1156462585034013,1.1156462585034013,1.1156462585034013,1.1156462585034013,1.1156462585034013,1.1156462585034013,1.1156462585034013,1.1156462585034013,1.1156462585034013,1.1156462585034013,1.1156462585034013,1.1156462585034013,1.1156462585034013,1.1156462585034013,1.1156462585034013,1.1156462585034013,1.1156462585034013,1.1156462585034013,1.1156462585034013,1.1156462585034013,1.1156462585034013,1.1156462585034013,1.1156462585034013,1.1156462585034013,1.1156462585034013,1.1156462585034013,1.1156462585034013,1.1156462585034013,1.1156462585034013,1.1156462585034013,1.1156462585034013,1.1156462585034013,1.1156462585034013,1.1156462585034013,1.1156462585034013,1.1156462585034013,1.1156462585034013,1.1156462585034013,1.1156462585034013,1.1156462585034013,1.1156462585034013,1.1156462585034013,1.1156462585034013,1.1156462585034013,1.1156462585034013,1.1156462585034013,1.1156462585034013,1.1156462585034013,1.1156462585034013,1.1156462585034013,1.1156462585034013,1.1156462585034013,1.1156462585034013,1.1156462585034013,1.1156462585034013,1.1156462585034013,1.1156462585034013,1.1156462585034013,1.1156462585034013,1.1156462585034013,1.1156462585034013,1.1156462585034013,1.1156462585034013,1.1156462585034013,1.1156462585034013,1.1156462585034013,1.1156462585034013,1.1156462585034013,1.1156462585034013,1.1156462585034013,1.1156462585034013,1.1156462585034013,1.1156462585034013,1.1156462585034013,1.1156462585034013,1.1156462585034013,1.1156462585034013,1.1156462585034013,1.1156462585034013,1.1156462585034013,1.1156462585034013,1.1156462585034013,1.1156462585034013,1.1156462585034013,1.1156462585034013,1.1156462585034013,1.1156462585034013,1.1156462585034013,1.1156462585034013,1.1156462585034013,1.1156462585034013,1.1156462585034013,1.1156462585034013,1.1156462585034013,1.1156462585034013,1.1156462585034013,1.1156462585034013,1.1156462585034013,1.1156462585034013,1.1156462585034013,1.1156462585034013,1.1156462585034013,1.1156462585034013,1.1156462585034013,1.1156462585034013,1.1156462585034013,1.1156462585034013,1.1156462585034013,1.1156462585034013,1.1156462585034013,1.1156462585034013,1.1156462585034013,1.1156462585034013,1.1156462585034013,1.1156462585034013,1.1156462585034013,1.1156462585034013,1.1156462585034013,1.1156462585034013,1.1156462585034013,1.1156462585034013,1.1156462585034013,1.1156462585034013,1.1156462585034013,1.1156462585034013,1.1156462585034013,1.1156462585034013,1.1156462585034013,1.1156462585034013,1.1156462585034013,1.1156462585034013,1.1156462585034013,1.1156462585034013,1.1156462585034013,1.1156462585034013,1.1156462585034013,1.1156462585034013,1.1156462585034013,1.1156462585034013,1.1156462585034013,1.1156462585034013,1.1156462585034013,1.1156462585034013,1.1156462585034013,1.1156462585034013,1.1156462585034013,1.1156462585034013,1.1156462585034013,1.1156462585034013,1.1156462585034013,1.1156462585034013,1.1156462585034013,1.1156462585034013,1.1156462585034013,1.1156462585034013,1.1156462585034013,1.1156462585034013,1.1156462585034013,1.1156462585034013,1.1156462585034013,1.1156462585034013,1.1156462585034013,1.1156462585034013,1.1156462585034013,1.1156462585034013,1.1156462585034013,1.1156462585034013,1.1156462585034013,1.1156462585034013,1.1156462585034013,1.1156462585034013,1.1156462585034013,1.1156462585034013,1.1156462585034013,1.1156462585034013,1.1156462585034013,1.1156462585034013,1.1156462585034013,1.1156462585034013,1.1156462585034013,1.1156462585034013,1.1156462585034013,1.1156462585034013,1.1156462585034013,1.1156462585034013,1.1156462585034013,1.1156462585034013,1.1156462585034013,1.1156462585034013,1.1156462585034013,1.1156462585034013,1.1156462585034013,1.1156462585034013,1.1156462585034013,1.1156462585034013,1.1156462585034013,1.1156462585034013,1.1156462585034013,1.1156462585034013,1.1156462585034013,1.1156462585034013,1.1156462585034013,1.1156462585034013,1.1156462585034013,1.1156462585034013,1.1156462585034013,1.1156462585034013,1.1156462585034013,1.1156462585034013,1.1156462585034013,1.1156462585034013,1.1156462585034013,1.1156462585034013,1.1156462585034013,1.1156462585034013,1.1156462585034013,1.1156462585034013,1.1156462585034013,1.1156462585034013,1.1156462585034013,1.1156462585034013,1.1156462585034013,1.1156462585034013,1.1156462585034013,1.1156462585034013,1.1156462585034013,1.1156462585034013,1.1156462585034013,1.1156462585034013,1.1156462585034013,1.1156462585034013,1.1156462585034013,1.1156462585034013,1.1156462585034013,1.1156462585034013,1.1156462585034013,1.1156462585034013,1.1156462585034013,1.1156462585034013,1.1156462585034013,1.1156462585034013,1.1156462585034013,1.1156462585034013,1.1156462585034013,1.1156462585034013,1.1156462585034013,1.1156462585034013,1.1156462585034013,1.1156462585034013,1.1156462585034013,1.1156462585034013,1.1156462585034013,1.1156462585034013,1.1156462585034013,1.1156462585034013,1.1156462585034013,1.1156462585034013,1.1156462585034013,1.1156462585034013,1.1156462585034013,1.1156462585034013,1.1156462585034013,1.1156462585034013,1.1156462585034013,1.1156462585034013,1.1156462585034013,1.1156462585034013,1.1156462585034013,1.1156462585034013,1.1156462585034013,1.1156462585034013,1.1156462585034013,1.1156462585034013,1.1156462585034013,1.1156462585034013,1.1156462585034013,1.1156462585034013,1.1156462585034013,1.1156462585034013,1.1156462585034013,1.1156462585034013,1.1156462585034013,1.1156462585034013,1.1156462585034013,1.1156462585034013,1.1156462585034013,1.1156462585034013,1.1156462585034013,1.1156462585034013,1.1156462585034013,1.1156462585034013,1.1156462585034013,1.1156462585034013,1.1156462585034013,1.1156462585034013,1.1156462585034013,1.1156462585034013,1.1156462585034013,1.1156462585034013,1.1156462585034013,1.1156462585034013,1.1156462585034013,1.1156462585034013,1.1156462585034013,1.1156462585034013,1.1156462585034013,1.1156462585034013,1.1156462585034013,1.1156462585034013,1.1156462585034013,1.1156462585034013,1.1156462585034013,1.1156462585034013,1.1156462585034013,1.1156462585034013,1.1156462585034013,1.1156462585034013,1.1156462585034013,1.1156462585034013,1.1156462585034013,1.1156462585034013,1.1156462585034013,1.1156462585034013,1.1156462585034013,1.1156462585034013,1.1156462585034013,1.1156462585034013,1.1156462585034013,1.1156462585034013,1.1156462585034013,1.1156462585034013,1.1156462585034013,1.1156462585034013,1.1156462585034013,1.1156462585034013,1.1156462585034013,1.1156462585034013,1.1156462585034013,1.1156462585034013,1.1156462585034013,1.1156462585034013,1.1156462585034013,1.1156462585034013,1.1156462585034013,1.1156462585034013,1.1156462585034013,1.1156462585034013,1.1156462585034013,1.1156462585034013,1.1156462585034013,1.1156462585034013,1.1156462585034013,1.1156462585034013,1.1156462585034013,1.1156462585034013,1.1156462585034013,1.1156462585034013,1.1156462585034013,1.1156462585034013,1.1156462585034013,1.1156462585034013,1.1156462585034013,1.1156462585034013,1.1156462585034013,1.1156462585034013,1.1156462585034013,1.1156462585034013,1.1156462585034013,1.1156462585034013,1.1156462585034013,1.1156462585034013,1.1156462585034013,1.1156462585034013,1.1156462585034013,1.1156462585034013,1.1156462585034013,1.1156462585034013,1.1156462585034013,1.1156462585034013,1.1156462585034013,1.1156462585034013,1.1156462585034013,1.1156462585034013,1.1156462585034013,1.1156462585034013,1.1156462585034013,1.1156462585034013,1.1156462585034013,1.1156462585034013,1.1156462585034013,1.1156462585034013,1.1156462585034013,1.1156462585034013,1.1156462585034013,1.1156462585034013,1.1156462585034013,1.1156462585034013,1.1156462585034013,1.1156462585034013,1.1156462585034013,1.1156462585034013,1.1156462585034013,1.1156462585034013,1.1156462585034013,1.1156462585034013,1.1156462585034013,1.1156462585034013,1.1156462585034013,1.1156462585034013,1.1156462585034013,1.1156462585034013,1.1156462585034013,1.1156462585034013,1.1156462585034013,1.1156462585034013,1.1156462585034013,1.1156462585034013,1.1156462585034013,1.1156462585034013,1.1156462585034013,1.1156462585034013,1.1156462585034013,1.1156462585034013,1.1156462585034013,1.1156462585034013,1.1156462585034013,1.1156462585034013,1.1156462585034013,1.1156462585034013,1.1156462585034013,1.1156462585034013,1.1156462585034013,1.1156462585034013,1.1156462585034013,1.1156462585034013,1.1156462585034013,1.1156462585034013,1.1156462585034013,1.1156462585034013,1.1156462585034013,1.1156462585034013,1.1156462585034013,1.1156462585034013,1.1156462585034013,1.1156462585034013,1.1156462585034013,1.1156462585034013,1.1156462585034013,1.1156462585034013,1.1156462585034013,1.1156462585034013,1.1156462585034013,1.1156462585034013,1.1156462585034013,1.1156462585034013,1.1156462585034013,1.1156462585034013,1.1156462585034013,1.1156462585034013,1.1156462585034013,1.1156462585034013,1.1156462585034013,1.1156462585034013,1.1156462585034013,1.1156462585034013,1.1156462585034013,1.1156462585034013,1.1156462585034013,1.1156462585034013,1.1156462585034013,1.1156462585034013,1.1156462585034013,1.1156462585034013,1.1156462585034013,1.1156462585034013,1.1156462585034013,1.1156462585034013,1.1156462585034013,1.1156462585034013,1.1156462585034013,1.1156462585034013,1.1156462585034013,1.1156462585034013,1.1156462585034013,1.1156462585034013,1.1156462585034013,1.1156462585034013,1.1156462585034013,1.1156462585034013,1.1156462585034013,1.1156462585034013,1.1156462585034013,1.1156462585034013,1.1156462585034013,1.1156462585034013,1.1156462585034013,1.1156462585034013,1.1156462585034013,1.1156462585034013,1.1156462585034013,1.1156462585034013,1.1156462585034013,1.1156462585034013,1.1156462585034013,1.1156462585034013,1.1156462585034013,1.1156462585034013,1.1156462585034013,1.1156462585034013,1.1156462585034013,1.1156462585034013,1.1156462585034013,1.1156462585034013,1.1156462585034013,1.1156462585034013,1.1156462585034013,1.1156462585034013,1.1156462585034013,1.1156462585034013,1.1156462585034013,1.1156462585034013,1.1156462585034013,1.1156462585034013,1.1156462585034013,1.1156462585034013,1.1156462585034013,1.1156462585034013,1.1156462585034013,1.1156462585034013,1.1156462585034013,1.1156462585034013,1.1156462585034013,1.1156462585034013,1.1156462585034013,1.1156462585034013,1.1156462585034013,1.1156462585034013,1.1156462585034013,1.1156462585034013,1.1156462585034013,1.1156462585034013,1.1156462585034013,1.1156462585034013,1.1156462585034013,1.1156462585034013,1.1156462585034013,1.1156462585034013,1.1156462585034013,1.1156462585034013,1.1156462585034013,1.1156462585034013,1.1156462585034013,1.1156462585034013,1.1156462585034013,1.1156462585034013,1.1156462585034013,1.1156462585034013,1.1156462585034013,1.1156462585034013,1.1156462585034013,1.1156462585034013,1.1156462585034013,1.1156462585034013,1.1156462585034013,1.1156462585034013,1.1156462585034013,1.1156462585034013,1.1156462585034013,1.1156462585034013,1.1156462585034013,1.1156462585034013,1.1156462585034013,1.1156462585034013,1.1156462585034013,1.1156462585034013,1.1156462585034013,1.1156462585034013,1.1156462585034013,1.1156462585034013,1.1156462585034013,1.1156462585034013,1.1156462585034013,1.1156462585034013,1.1156462585034013,1.1156462585034013,1.1156462585034013,1.1156462585034013,1.1156462585034013,1.1156462585034013,1.1156462585034013,1.1156462585034013,1.1156462585034013,1.1156462585034013,1.1156462585034013,1.1156462585034013,1.1156462585034013,1.1156462585034013,1.1156462585034013,1.1156462585034013,1.1156462585034013,1.1156462585034013,1.1156462585034013,1.1156462585034013,1.1156462585034013,1.1156462585034013,1.1156462585034013,1.1156462585034013,1.1156462585034013,1.1156462585034013,1.1156462585034013,1.1156462585034013,1.1156462585034013,1.1156462585034013,1.1156462585034013,1.1156462585034013,1.1156462585034013,1.1156462585034013,1.1156462585034013,1.1156462585034013,1.1156462585034013,1.11564625