[{"success":true,"trial_type":"fullscreen","trial_index":0,"time_elapsed":2717,"internal_node_id":"0.0-0.0","protocol_sum":"","subject_identifier":513,"subject_sum":[81,232,234,40,11,68,225,105,52,212,214,17,144,31,61,58,252,65,120,152,64,172,223,248,25,66,194,246,80,9,205,82],"subject_pair":256,"STUDY_ID":"66a3ed3c5d10d0e7d8a6b9da","PROLIFIC_PID":"6107c50be2e5dbf6274d4657","SESSION_ID":"66a428be9b745ceb11a531a8","practice_instructions":1,"leaderboard_instructions":0,"bonus":1,"reveal_word":true,"self_rating":"4","confidence":"63"},{"view_history":"[{\"page_index\":0,\"viewing_time\":7317}]","rt":7317,"trial_type":"instructions","trial_index":1,"time_elapsed":10034,"internal_node_id":"0.0-1.0","protocol_sum":"","subject_identifier":513,"subject_sum":[81,232,234,40,11,68,225,105,52,212,214,17,144,31,61,58,252,65,120,152,64,172,223,248,25,66,194,246,80,9,205,82],"subject_pair":256,"STUDY_ID":"66a3ed3c5d10d0e7d8a6b9da","PROLIFIC_PID":"6107c50be2e5dbf6274d4657","SESSION_ID":"66a428be9b745ceb11a531a8","practice_instructions":1,"leaderboard_instructions":0,"bonus":1,"reveal_word":true,"self_rating":"4","confidence":"63"},{"view_history":"[{\"page_index\":0,\"viewing_time\":22147}]","rt":22147,"trial_type":"instructions","trial_index":2,"time_elapsed":32182,"internal_node_id":"0.0-2.0-0.0","protocol_sum":"","subject_identifier":513,"subject_sum":[81,232,234,40,11,68,225,105,52,212,214,17,144,31,61,58,252,65,120,152,64,172,223,248,25,66,194,246,80,9,205,82],"subject_pair":256,"STUDY_ID":"66a3ed3c5d10d0e7d8a6b9da","PROLIFIC_PID":"6107c50be2e5dbf6274d4657","SESSION_ID":"66a428be9b745ceb11a531a8","practice_instructions":1,"leaderboard_instructions":0,"bonus":1,"reveal_word":true,"self_rating":"4","confidence":"63"},{"rt":8444,"responses":"{\"Q0\":\"... reveal the word with as <b>few letter guesses</b> as possible\"}","question_order":"[0]","trial_type":"survey-multi-choice","trial_index":3,"time_elapsed":40630,"internal_node_id":"0.0-2.0-1.0","protocol_sum":"","subject_identifier":513,"subject_sum":[81,232,234,40,11,68,225,105,52,212,214,17,144,31,61,58,252,65,120,152,64,172,223,248,25,66,194,246,80,9,205,82],"subject_pair":256,"correct":true,"test_part":"multichoice_nonpretend","STUDY_ID":"66a3ed3c5d10d0e7d8a6b9da","PROLIFIC_PID":"6107c50be2e5dbf6274d4657","SESSION_ID":"66a428be9b745ceb11a531a8","practice_instructions":1,"leaderboard_instructions":0,"bonus":1,"reveal_word":true,"self_rating":"4","confidence":"63"},{"view_history":"[{\"page_index\":0,\"viewing_time\":1782}]","rt":1783,"trial_type":"instructions","trial_index":4,"time_elapsed":42416,"internal_node_id":"0.0-3.0","protocol_sum":"","subject_identifier":513,"subject_sum":[81,232,234,40,11,68,225,105,52,212,214,17,144,31,61,58,252,65,120,152,64,172,223,248,25,66,194,246,80,9,205,82],"subject_pair":256,"STUDY_ID":"66a3ed3c5d10d0e7d8a6b9da","PROLIFIC_PID":"6107c50be2e5dbf6274d4657","SESSION_ID":"66a428be9b745ceb11a531a8","practice_instructions":1,"leaderboard_instructions":0,"bonus":1,"reveal_word":true,"self_rating":"4","confidence":"63"},{"word":"ZEBRA","click_log":{"letter":["","B","P","O","S","C","D","H","R","A","M","K","E","Z"],"t":[0,2923,6791,8326,11966,14658,15821,17137,18392,25771,35676,37939,40771,42803],"hit":[null,1,0,0,0,0,0,0,1,1,0,0,1,1],"asked":["","B","BP","BPO","BPOS","BPOSC","BPOSCD","BPOSCDH","BPOSCDHR","BPOSCDHRA","BPOSCDHRAM","BPOSCDHRAMK","BPOSCDHRAMKE","BPOSCDHRAMKEZ"],"word_state":["_____","__B__","__B__","__B__","__B__","__B__","__B__","__B__","__BR_","__BRA","__BRA","__BRA","_EBRA","ZEBRA"]},"hover_log":{"letter":["J","J","J","J","J","J","J","J","J","J","J","J","J","J","J","J","J","J","J","J","J","J","J","J","J","J","J","J","J","J","J","J","J","J","J","J","J","J","J","J","J","J","J","J","J","J","J","J","J","J","J","J","J","J","J","J","J","J","J","J","J","J","J","J","J","J","J","J","J","J","J","J","J","J","J","J","J","J","J","J","J","J","J","J","J","J","J","J","J","J","J","J","J","J","J","J","J","J","J","J","J","J","J","J","J","J","J","J","J","J","J","J","J","J","J","J","J","?","?","?","?","?","?","A","A","A","A","?","?","?","?","?","?","?","?","?","?","?","?","?","?","?","?","B","B","B","B","B","B","B","B","B","B","B","B","B","B","B","B","B","B","B","B","B","B","B","B","B","B","B","B","B","B","B","B","B","B","B","B","B","B","B","B","B","B","B","B","B","B","B","B","B","B","B","B","B","B","B","B","B","B","C","C","?","?","?","?","?","?","M","N","?","?","Q","?","?","?","?","?","?","?","?","?","?","?","?","?","?","?","?","?","?","?","?","?","?","?","?","?","?","?","?","?","?","?","?","?","?","?","?","?","?","?","?","?","?","?","?","?","?","?","?","?","?","?","?","?","?","?","?","?","?","?","?","?","?","?","?","?","?","?","?","?","?","?","?","?","?","?","?","?","?","?","?","?","?","?","?","?","?","?","?","?","?","?","?","?","?","?","?","?","?","?","?","?","?","?","?","?","?","?","?","?","?","?","?","?","?","?","?","?","?","?","?","?","?","?","?","?","?","Y","P","P","P","?","?","?","?","?","?","?","?","?","?","?","?","?","?","?","?","?","?","?","?","?","?","?","?","?","?","?","?","?","?","?","?","?","P","P","P","P","P","P","P","P","P","P","P","P","P","P","P","P","P","P","P","P","P","P","P","P","P","P","P","P","P","P","P","P","P","P","P","P","P","P","P","P","P","P","P","P","P","P","P","P","P","P","P","P","P","P","P","P","P","P","P","P","P","P","P","P","P","P","P","P","?","?","?","O","O","O","O","O","O","O","O","O","O","O","O","O","O","O","O","O","O","O","O","O","O","O","O","O","O","O","O","O","O","O","O","O","O","O","O","O","O","O","O","O","O","O","O","O","O","O","O","O","O","O","O","O","O","O","O","O","O","O","O","O","O","O","O","O","O","O","O","O","O","O","O","O","O","O","O","O","O","O","O","O","O","O","?","?","?","?","?","?","?","?","?","?","?","?","?","?","?","?","?","?","?","V","V","V","V","V","?","?","?","?","?","?","?","?","?","?","?","?","?","?","?","?","?","?","?","?","?","?","?","U","U","U","U","U","U","U","U","U","U","U","U","U","U","U","U","U","?","?","?","?","?","?","?","?","?","?","?","?","?","?","?","?","?","?","?","?","?","?","?","?","?","?","?","?","?","?","?","?","?","?","?","?","?","?","?","?","?","?","?","?","?","?","?","?","?","?","?","?","?","?","?","?","?","?","?","?","?","?","?","?","?","?","?","?","?","?","?","?","?","?","?","?","?","?","?","T","T","T","T","T","T","T","T","T","T","T","T","T","?","?","?","?","?","?","?","?","?","?","?","?","?","?","?","?","S","S","S","S","S","S","S","S","S","S","S","S","S","S","S","S","S","S","S","S","S","S","S","S","S","S","S","S","S","S","S","S","S","S","S","S","S","S","S","S","S","S","S","S","S","S","S","S","S","S","S","S","?","?","?","?","J","J","J","J","J","J","J","J","J","J","J","J","?","?","?","?","?","?","?","?","?","?","?","?","?","?","?","?","?","?","?","?","?","?","?","?","?","?","?","?","?","?","?","?","?","?","?","?","?","?","?","?","?","?","?","?","?","?","?","?","?","?","?","?","?","?","?","?","?","?","?","?","?","?","?","?","?","?","?","?","B","B","B","B","B","B","?","?","?","C","C","C","C","C","C","C","C","C","C","C","C","C","C","C","C","C","C","C","C","C","C","C","C","C","C","C","C","C","C","C","C","C","C","C","C","C","C","C","C","C","C","C","C","C","C","C","C","C","C","C","C","C","C","C","C","C","C","C","C","D","D","D","D","D","D","D","D","D","D","D","D","D","D","D","D","D","D","D","D","D","D","D","D","D","D","D","D","D","D","D","D","D","D","D","D","D","D","D","D","D","D","D","D","D","D","D","D","D","D","D","D","D","D","D","?","E","E","E","E","E","F","F","F","F","F","F","F","?","?","G","G","G","?","?","?","?","?","?","?","?","?","?","?","?","?","?","H","H","H","H","H","H","H","H","H","H","H","H","H","H","H","H","H","H","H","H","H","H","H","H","H","H","H","H","H","H","H","H","H","H","H","H","H","H","H","H","H","H","H","H","H","H","H","H","H","H","H","H","H","H","H","?","?","?","?","?","?","?","?","?","?","?","?","H","H","H","H","H","?","?","?","?","?","?","?","?","?","?","R","R","R","R","R","R","R","R","R","R","R","R","R","R","R","R","R","R","R","R","R","R","R","R","R","R","R","R","R","R","R","R","R","R","R","R","R","R","R","R","R","R","R","R","R","R","R","R","R","R","R","R","R","R","R","R","R","R","R","R","?","?","?","?","?","?","?","?","?","?","?","Q","Q","Q","Q","Q","Q","Q","Q","Q","Q","Q","Q","Q","Q","Q","Q","Q","Q","Q","Q","Q","Q","Q","Q","Q","Q","Q","Q","Q","Q","Q","Q","Q","Q","Q","Q","Q","Q","Q","Q","Q","Q","Q","Q","Q","Q","?","?","?","?","?","?","?","?","?","?","?","?","?","?","?","?","?","?","?","?","Y","Y","Y","Y","Y","Y","Y","Y","Y","Y","Y","Y","Y","Y","Y","Y","Y","Y","Y","Y","Y","Y","Y","Y","Y","Y","Y","Y","Y","Y","Y","Y","Y","Y","Y","Y","Y","Y","Y","Y","Y","Y","?","?","?","?","?","?","?","?","?","?","?","?","?","?","?","?","?","?","?","?","?","?","?","?","?","?","?","?","?","?","?","?","?","?","?","?","?","?","?","?","?","?","?","?","?","?","?","?","?","?","?","?","?","?","?","?","?","?","?","?","?","?","?","?","?","?","?","?","?","?","?","?","?","?","?","?","?","?","?","?","?","?","?","?","?","?","?","?","?","?","?","?","?","?","?","?","?","?","?","?","?","?","?","?","?","?","?","?","?","?","?","?","?","?","?","?","?","?","?","?","?","?","?","?","?","?","?","?","?","?","?","?","?","?","?","?","?","?","?","?","?","?","?","?","?","?","?","?","?","?","?","?","?","?","?","?","?","?","?","?","?","?","?","?","?","?","?","?","?","?","?","?","?","?","?","?","?","?","?","?","?","?","?","?","?","?","?","?","?","?","?","?","?","?","?","?","?","?","?","?","?","?","?","?","?","?","?","?","?","?","?","?","?","?","?","?","?","?","?","?","?","?","?","?","?","?","?","?","?","?","?","?","?","M","M","?","L","L","L","L","L","L","L","L","?","?","?","?","?","?","B","B","B","B","B","B","B","?","?","?","?","?","A","A","A","A","A","A","A","A","A","A","A","A","A","A","A","A","A","A","A","A","A","A","A","A","A","A","A","A","A","A","A","A","A","A","A","A","A","A","A","A","A","A","A","A","A","A","A","A","A","A","?","B","B","B","?","?","?","?","?","?","L","L","L","L","?","?","?","?","?","?","?","?","?","?","?","?","?","?","?","?","?","?","?","?","?","?","?","?","?","?","?","?","?","?","?","?","?","?","?","?","?","?","?","?","?","?","?","?","?","?","?","?","?","?","?","?","?","?","?","?","?","?","?","?","?","?","?","?","?","?","?","?","?","?","?","?","?","?","?","?","?","?","?","?","?","?","?","?","?","?","?","?","?","?","?","?","?","?","?","?","?","?","?","?","?","?","?","?","?","?","?","?","?","?","?","?","?","?","?","?","?","?","?","?","?","?","?","?","?","?","?","?","?","?","?","?","?","?","?","?","?","?","?","?","?","?","?","?","?","?","?","?","?","?","?","?","?","?","?","?","?","?","?","?","?","?","?","?","?","?","?","?","?","?","?","?","?","?","?","?","?","?","?","?","?","?","?","?","?","?","?","?","?","?","?","?","?","?","?","?","?","?","?","?","?","?","?","?","?","?","?","?","?","?","?","?","?","?","?","?","?","?","?","?","?","?","?","?","?","?","?","?","?","?","?","?","?","?","?","?","?","?","?","?","?","?","?","?","?","?","?","?","?","?","?","?","?","?","?","?","?","?","?","?","?","?","?","?","?","?","?","?","?","?","?","?","?","?","?","?","?","?","?","?","?","?","?","?","?","?","?","?","?","?","?","?","?","?","?","?","?","?","?","?","?","?","?","?","?","?","?","?","?","?","?","?","?","?","?","?","?","?","D","D","D","D","D","D","D","D","D","D","D","D","D","D","D","D","D","D","D","D","D","D","D","D","D","D","D","D","D","D","D","D","D","D","D","D","D","D","D","D","D","D","D","D","D","D","D","D","D","D","D","D","D","D","D","D","D","D","D","D","D","D","D","D","D","D","D","D","D","D","D","D","D","D","D","D","D","D","D","D","D","D","D","D","D","D","D","D","D","D","D","D","D","D","D","D","D","D","D","D","D","D","D","D","D","D","D","D","D","D","D","D","D","D","D","D","D","D","D","D","D","D","D","D","D","D","D","D","D","D","D","D","D","D","D","D","D","D","D","D","D","D","D","D","D","D","D","D","D","D","D","D","D","D","D","D","D","D","D","D","D","D","D","D","D","D","D","D","D","D","D","D","D","D","D","D","D","D","D","D","D","D","D","?","D","?","?","?","?","?","?","M","M","M","M","M","M","M","M","M","M","M","M","M","M","M","M","M","M","M","M","M","M","M","M","M","M","M","M","M","M","M","M","M","M","M","M","M","M","M","M","M","M","M","M","M","M","M","M","M","M","M","M","M","M","M","M","M","M","M","M","M","M","M","M","M","M","M","M","M","M","M","M","M","M","M","M","M","M","M","M","M","M","M","M","M","M","M","M","M","M","M","M","?","?","?","L","L","L","L","L","L","L","L","L","L","L","L","L","L","L","L","L","L","L","L","L","L","L","L","L","L","L","L","L","L","L","L","L","L","L","L","L","L","L","L","L","L","L","L","L","L","L","L","L","L","L","L","L","L","L","L","L","L","L","?","K","K","K","K","K","K","K","K","K","K","K","K","K","K","K","K","K","K","K","K","K","K","K","K","K","K","K","K","K","K","K","K","K","K","K","K","K","K","K","K","K","K","K","K","K","K","K","K","K","K","K","K","K","K","K","K","K","K","K","K","K","K","K","K","K","K","K","K","K","K","K","K","K","K","K","K","K","K","K","K","K","K","K","K","K","K","K","K","K","K","K","K","K","K","K","?","?","?","?","L","L","L","L","?","?","?","?","?","?","?","?","?","?","?","?","?","?","?","?","?","?","?","?","?","?","?","?","?","?","?","?","?","?","?","?","?","?","?","?","?","E","E","E","E","E","E","E","E","E","E","E","E","E","E","E","E","E","E","E","E","E","E","E","E","E","E","E","E","E","E","E","E","E","E","E","E","E","E","E","E","E","E","E","E","E","E","E","E","E","E","E","E","E","E","E","E","E","E","E","E","E","E","E","E","E","E","E","E","E","E","E","E","E","E","E","E","E","E","E","E","E","E","E","E","E","E","E","E","E","E","E","E","E","E","E","E","E","E","E","E","E","E","E","?","?","?","?","?","M","M","M","M","M","M","M","M","M","?","?","?","?","?","?","?","?","?","?","?","V","V","W","?","?","?","?","?","?","?","?","?","?","?","?","?","Z","Z","Z","Z","Z","Z","Z","Z","Z","Z","Z","Z","Z","Z","Z","Z","Z","Z","Z","Z","Z","Z","Z","Z","Z","Z","Z","Z","Z","Z","Z","Z","Z","Z","Z","Z","Z","Z","Z","Z","Z","Z","Z","Z","Z","Z","Z","Z","Z","Z","Z","Z","Z","Z","Z","Z","Z","Z","Z","Z","Z","Z","Z","Z","Z","Z","Z","Z","Z","Z","Z","Z","Z","Z","Z","Z","Z","Z","Z","Z","Z","Z","Z","Z","Z","Z","Z","Z","Z","Z","Z","Z","Z","Z","Z","Z","Z","Z","Z","Z","Z","Z","Z","Z","Z","Z","Z","Z","Z","Z","Z","Z","Z","Z","Z","Z","Z","Z","Z","Z","Z","Z","Z","Z","Z","Z","Z","Z","Z","Z","Z","Z","Z","Z","Z","Z","Z","Z","Z","Z","Z"],"t":[47,74,88,103,120,136,153,169,187,203,219,236,254,270,286,303,319,336,353,370,387,404,420,437,454,470,488,504,521,538,554,571,588,604,621,638,654,671,688,704,721,738,754,771,788,804,820,838,854,871,888,903,919,936,952,970,987,1003,1020,1037,1053,1070,1087,1103,1120,1138,1153,1170,1188,1203,1220,1237,1253,1270,1287,1303,1320,1337,1353,1370,1387,1403,1421,1437,1452,1470,1486,1505,1521,1536,1552,1570,1586,1603,1620,1637,1653,1670,1687,1703,1719,1737,1753,1769,1786,1803,1821,1837,1853,1871,1888,1904,1921,1937,1953,1971,1988,2004,2021,2038,2054,2071,2088,2104,2120,2137,2153,2170,2187,2204,2221,2237,2253,2270,2287,2303,2320,2337,2353,2370,2387,2403,2420,2438,2454,2470,2487,2504,2520,2537,2553,2570,2587,2603,2620,2637,2653,2670,2687,2703,2720,2737,2753,2770,2787,2803,2820,2837,2853,2872,2889,2904,2921,2939,2954,2977,3003,3020,3037,3053,3070,3087,3103,3120,3137,3153,3170,3188,3203,3220,3237,3253,3270,3287,3303,3320,3337,3353,3370,3389,3405,3422,3438,3455,3472,3488,3503,3520,3537,3554,3571,3587,3603,3620,3637,3653,3670,3687,3703,3722,3738,3754,3770,3787,3803,3819,3837,3853,3870,3887,3903,3920,3937,3953,3971,3987,4002,4019,4036,4052,4069,4087,4103,4119,4137,4154,4170,4186,4203,4219,4237,4252,4269,4287,4303,4320,4337,4353,4371,4388,4404,4421,4437,4454,4473,4494,4519,4536,4553,4570,4587,4603,4620,4637,4654,4671,4687,4703,4721,4738,4753,4770,4787,4803,4820,4837,4853,4870,4887,4903,4920,4937,4953,4970,4987,5003,5021,5038,5054,5071,5088,5104,5120,5138,5154,5171,5188,5203,5221,5238,5253,5270,5287,5304,5320,5336,5352,5370,5387,5403,5420,5437,5453,5471,5488,5503,5520,5537,5554,5570,5587,5603,5620,5638,5654,5671,5688,5703,5720,5738,5754,5771,5788,5804,5820,5838,5853,5870,5887,5903,5921,5941,5969,5986,6002,6019,6037,6053,6069,6086,6101,6118,6135,6152,6169,6185,6201,6218,6236,6252,6269,6286,6302,6319,6336,6352,6369,6386,6402,6419,6436,6452,6470,6486,6502,6519,6536,6552,6569,6586,6602,6619,6636,6652,6669,6686,6703,6719,6736,6752,6769,6786,6809,6819,6836,6852,6868,6886,6901,6918,6936,6952,6969,6986,7002,7019,7036,7052,7069,7086,7102,7118,7136,7152,7169,7186,7202,7219,7236,7252,7269,7287,7302,7319,7336,7352,7369,7386,7403,7420,7438,7457,7469,7486,7502,7518,7535,7551,7570,7586,7601,7618,7636,7652,7668,7685,7701,7718,7736,7752,7769,7786,7801,7818,7835,7851,7869,7886,7902,7919,7936,7952,7969,7986,8002,8018,8036,8052,8069,8086,8102,8119,8136,8152,8168,8186,8202,8219,8236,8251,8268,8285,8301,8318,8336,8352,8369,8386,8401,8418,8435,8451,8469,8486,8502,8519,8536,8551,8568,8585,8601,8618,8636,8652,8669,8686,8702,8719,8736,8752,8768,8786,8802,8819,8835,8852,8869,8885,8902,8923,8951,8969,8985,9003,9019,9035,9052,9069,9085,9102,9118,9134,9152,9169,9184,9201,9219,9234,9252,9269,9285,9302,9318,9334,9351,9369,9385,9402,9419,9435,9452,9469,9486,9502,9519,9535,9552,9570,9586,9601,9618,9635,9651,9668,9684,9701,9718,9734,9752,9768,9785,9802,9818,9834,9852,9869,9885,9901,9918,9935,9952,9969,9984,10001,10018,10034,10052,10068,10084,10101,10119,10135,10152,10169,10185,10202,10219,10235,10252,10269,10285,10302,10318,10334,10351,10368,10385,10404,10421,10434,10451,10468,10484,10501,10518,10535,10552,10568,10585,10602,10618,10634,10652,10669,10685,10702,10719,10735,10752,10769,10785,10802,10819,10835,10852,10868,10885,10902,10919,10935,10952,10969,10985,11002,11019,11035,11052,11069,11085,11102,11119,11135,11152,11169,11185,11202,11219,11235,11252,11269,11285,11303,11320,11336,11353,11369,11385,11402,11419,11436,11452,11469,11485,11502,11519,11535,11552,11570,11585,11603,11619,11635,11652,11670,11685,11702,11719,11735,11752,11769,11785,11802,11819,11836,11852,11869,11885,11902,11919,11935,11954,11970,11984,12001,12018,12034,12051,12068,12085,12102,12119,12135,12152,12169,12185,12202,12219,12235,12252,12270,12286,12302,12319,12335,12352,12369,12385,12402,12419,12435,12452,12469,12485,12502,12519,12536,12552,12569,12586,12603,12619,12635,12653,12670,12686,12703,12720,12736,12752,12770,12785,12803,12819,12836,12853,12869,12886,12903,12920,12935,12952,12970,12985,13002,13020,13035,13052,13070,13085,13102,13120,13135,13152,13169,13185,13202,13219,13235,13252,13269,13285,13302,13319,13335,13352,13369,13385,13402,13421,13442,13468,13484,13501,13518,13535,13552,13568,13584,13601,13618,13634,13652,13669,13685,13702,13718,13735,13752,13769,13785,13802,13819,13835,13852,13869,13885,13902,13919,13935,13952,13969,13985,14002,14018,14035,14052,14069,14085,14102,14119,14134,14151,14169,14185,14202,14218,14235,14251,14269,14285,14302,14318,14335,14352,14369,14385,14402,14419,14434,14451,14469,14485,14502,14519,14535,14552,14569,14585,14602,14619,14636,14652,14669,14685,14702,14719,14735,14752,14769,14786,14802,14820,14835,14852,14869,14885,14902,14919,14935,14955,14973,15001,15018,15035,15052,15068,15085,15102,15119,15135,15152,15169,15184,15201,15218,15234,15251,15269,15285,15301,15318,15334,15351,15368,15384,15401,15419,15435,15452,15469,15485,15502,15519,15535,15552,15569,15585,15601,15618,15635,15652,15668,15685,15702,15719,15736,15752,15769,15785,15802,15819,15835,15852,15869,15885,15902,15919,15935,15952,15969,15985,16002,16019,16035,16052,16069,16085,16102,16119,16135,16152,16169,16186,16202,16220,16236,16253,16269,16286,16303,16319,16335,16353,16369,16385,16403,16421,16436,16452,16469,16485,16501,16518,16534,16551,16568,16585,16603,16619,16635,16652,16669,16685,16702,16720,16735,16752,16769,16785,16802,16819,16835,16852,16869,16884,16902,16919,16935,16952,16969,16985,17002,17019,17035,17052,17069,17085,17102,17119,17135,17153,17168,17185,17202,17218,17235,17252,17268,17285,17302,17318,17335,17352,17368,17385,17402,17418,17435,17452,17468,17485,17502,17518,17535,17553,17569,17586,17602,17618,17635,17652,17668,17685,17702,17718,17735,17752,17768,17785,17802,17819,17835,17854,17871,17885,17901,17917,17934,17951,17968,17986,18003,18019,18035,18053,18068,18086,18104,18118,18135,18152,18168,18185,18202,18218,18236,18253,18269,18286,18303,18319,18336,18353,18369,18386,18403,18419,18436,18453,18469,18486,18503,18519,18536,18553,18569,18586,18603,18620,18636,18653,18669,18686,18703,18719,18736,18753,18769,18786,18804,18819,18836,18853,18869,18886,18903,18919,18936,18953,18970,18987,19003,19019,19036,19053,19069,19086,19103,19119,19136,19153,19169,19186,19204,19219,19238,19261,19285,19303,19319,19336,19353,19368,19386,19402,19419,19436,19452,19469,19485,19503,19519,19536,19553,19569,19586,19603,19618,19635,19652,19668,19685,19702,19719,19736,19753,19769,19786,19803,19819,19836,19853,19869,19886,19903,19919,19936,19954,19970,19986,20003,20019,20037,20053,20070,20087,20103,20119,20136,20153,20169,20186,20203,20219,20236,20253,20269,20286,20303,20320,20337,20354,20370,20386,20403,20420,20437,20454,20469,20486,20503,20519,20536,20553,20569,20586,20603,20619,20636,20653,20671,20693,20718,20735,20752,20769,20786,20803,20819,20836,20853,20869,20886,20903,20919,20936,20953,20969,20986,21003,21019,21036,21054,21069,21086,21103,21119,21136,21153,21169,21186,21203,21220,21236,21253,21269,21286,21303,21319,21336,21353,21369,21386,21403,21419,21437,21453,21469,21486,21503,21520,21536,21553,21569,21586,21603,21619,21636,21653,21669,21686,21703,21719,21736,21753,21769,21786,21803,21819,21836,21853,21869,21886,21903,21919,21936,21953,21969,21987,22003,22018,22035,22053,22069,22085,22102,22118,22136,22154,22173,22185,22202,22218,22235,22252,22269,22286,22303,22319,22336,22353,22369,22386,22403,22419,22436,22453,22469,22486,22503,22519,22536,22553,22569,22586,22603,22619,22636,22653,22669,22686,22703,22719,22736,22753,22769,22786,22803,22819,22836,22853,22869,22886,22903,22919,22936,22953,22969,22986,23003,23019,23036,23053,23069,23086,23103,23119,23136,23153,23169,23186,23203,23219,23236,23253,23269,23286,23303,23319,23336,23353,23369,23386,23403,23419,23436,23453,23469,23486,23503,23519,23536,23553,23568,23585,23602,23618,23635,23652,23670,23689,23702,23717,23734,23751,23767,23784,23801,23817,23834,23851,23867,23885,23902,23917,23935,23952,23967,23984,24001,24017,24035,24052,24068,24085,24102,24118,24135,24152,24168,24185,24202,24218,24235,24252,24268,24285,24302,24318,24335,24352,24368,24385,24402,24418,24435,24452,24468,24485,24502,24518,24535,24552,24568,24585,24602,24618,24635,24652,24668,24685,24702,24718,24735,24752,24768,24786,24802,24818,24835,24852,24869,24885,24902,24918,24936,24952,24969,24986,25003,25019,25039,25052,25068,25085,25102,25118,25135,25153,25168,25185,25202,25218,25235,25253,25269,25285,25302,25318,25335,25351,25368,25384,25402,25417,25435,25452,25468,25485,25502,25518,25534,25551,25568,25584,25600,25617,25634,25650,25667,25684,25700,25717,25735,25751,25768,25785,25801,25818,25835,25851,25875,25901,25918,25935,25951,25968,25985,26001,26018,26035,26051,26068,26085,26101,26118,26135,26151,26168,26185,26201,26218,26236,26251,26269,26286,26302,26319,26336,26352,26369,26386,26404,26423,26435,26451,26468,26485,26500,26518,26535,26551,26568,26585,26601,26618,26635,26651,26669,26686,26702,26718,26736,26752,26768,26785,26801,26818,26835,26850,26867,26884,26901,26918,26937,26951,26969,26985,27002,27018,27035,27051,27068,27085,27101,27118,27135,27152,27168,27185,27202,27218,27235,27251,27268,27284,27300,27317,27335,27351,27368,27385,27401,27418,27435,27451,27468,27484,27500,27517,27535,27551,27567,27584,27600,27617,27634,27650,27668,27685,27701,27718,27735,27751,27769,27784,27800,27817,27835,27851,27868,27885,27901,27918,27934,27950,27967,27984,28000,28017,28034,28050,28067,28084,28100,28117,28135,28151,28168,28185,28201,28218,28235,28251,28267,28285,28301,28318,28335,28351,28368,28385,28401,28418,28435,28451,28468,28486,28501,28519,28536,28551,28567,28584,28600,28617,28634,28650,28667,28685,28700,28717,28735,28751,28768,28785,28801,28818,28835,28851,28867,28885,28901,28918,28935,28951,28968,28985,29001,29017,29035,29051,29069,29085,29101,29118,29135,29151,29168,29188,29209,29234,29251,29268,29285,29301,29318,29335,29351,29368,29385,29401,29418,29435,29451,29468,29485,29501,29518,29535,29551,29569,29585,29601,29618,29635,29651,29668,29685,29701,29718,29735,29751,29768,29785,29801,29818,29835,29852,29868,29885,29901,29918,29935,29951,29968,29985,30000,30018,30034,30050,30067,30085,30101,30118,30135,30151,30168,30185,30201,30218,30235,30251,30268,30285,30301,30318,30335,30351,30368,30385,30401,30418,30435,30451,30468,30485,30501,30518,30535,30551,30570,30592,30617,30634,30650,30668,30685,30701,30718,30735,30751,30768,30785,30801,30818,30835,30851,30868,30885,30901,30918,30935,30951,30969,30985,31001,31018,31035,31051,31068,31085,31101,31118,31135,31151,31168,31185,31201,31218,31235,31251,31268,31285,31301,31318,31335,31351,31368,31385,31401,31418,31435,31451,31468,31485,31501,31518,31535,31551,31568,31585,31601,31618,31635,31651,31668,31685,31701,31718,31735,31751,31768,31785,31801,31818,31835,31851,31868,31885,31901,31918,31935,31951,31968,31985,32001,32017,32035,32051,32068,32088,32106,32134,32150,32168,32185,32201,32218,32235,32251,32268,32285,32301,32318,32335,32351,32368,32385,32401,32418,32435,32451,32467,32485,32501,32518,32535,32551,32568,32585,32601,32618,32635,32651,32668,32685,32701,32718,32735,32751,32768,32784,32800,32818,32835,32851,32868,32884,32900,32917,32935,32951,32967,32984,33000,33017,33035,33051,33067,33084,33100,33118,33135,33151,33168,33184,33200,33218,33235,33251,33268,33285,33301,33318,33334,33350,33368,33385,33402,33418,33435,33451,33470,33489,33517,33535,33551,33568,33584,33600,33617,33634,33650,33667,33685,33701,33718,33735,33751,33768,33785,33801,33818,33834,33851,33868,33884,33901,33918,33934,33951,33968,33984,34001,34018,34034,34051,34068,34084,34101,34118,34134,34151,34168,34184,34201,34218,34234,34251,34268,34284,34301,34318,34334,34351,34368,34384,34401,34418,34434,34451,34468,34484,34501,34518,34534,34551,34568,34584,34601,34618,34634,34651,34668,34684,34701,34718,34734,34751,34768,34784,34801,34818,34834,34851,34868,34884,34901,34918,34934,34954,34974,35000,35018,35033,35050,35068,35083,35101,35117,35134,35151,35167,35184,35201,35218,35234,35251,35268,35284,35301,35318,35335,35352,35369,35384,35401,35418,35434,35452,35469,35485,35502,35519,35535,35552,35569,35585,35602,35619,35635,35652,35669,35686,35702,35719,35735,35752,35769,35785,35802,35819,35835,35852,35869,35885,35902,35919,35935,35952,35969,35985,36001,36018,36034,36051,36069,36085,36102,36119,36135,36152,36169,36185,36202,36219,36235,36252,36269,36285,36302,36319,36335,36354,36372,36384,36401,36419,36436,36452,36469,36486,36502,36519,36536,36552,36570,36585,36603,36620,36635,36653,36670,36686,36702,36720,36735,36753,36769,36785,36802,36819,36835,36852,36869,36885,36902,36919,36935,36952,36969,36985,37002,37019,37035,37052,37069,37085,37102,37119,37135,37152,37169,37185,37202,37219,37235,37252,37269,37285,37302,37319,37335,37352,37369,37385,37402,37419,37435,37452,37469,37485,37502,37519,37535,37552,37569,37585,37602,37620,37636,37653,37670,37687,37703,37720,37736,37753,37769,37785,37806,37825,37851,37868,37885,37902,37919,37935,37952,37969,37985,38002,38019,38035,38052,38069,38085,38102,38119,38135,38152,38169,38185,38202,38219,38235,38252,38269,38285,38302,38319,38335,38352,38369,38385,38402,38419,38435,38452,38469,38485,38502,38519,38535,38552,38570,38586,38602,38619,38636,38652,38669,38685,38703,38719,38736,38753,38769,38785,38803,38820,38835,38852,38869,38885,38902,38919,38935,38952,38970,38985,39002,39019,39035,39052,39069,39085,39102,39119,39135,39152,39169,39185,39202,39219,39235,39253,39270,39286,39305,39322,39336,39351,39369,39385,39402,39418,39434,39451,39469,39485,39502,39519,39535,39552,39569,39584,39601,39619,39635,39651,39669,39685,39702,39719,39735,39751,39769,39785,39803,39819,39835,39852,39869,39886,39902,39919,39934,39951,39970,39985,40002,40018,40034,40051,40068,40084,40102,40119,40135,40151,40169,40184,40202,40218,40234,40251,40269,40286,40302,40319,40335,40352,40369,40385,40402,40419,40435,40452,40469,40485,40502,40519,40535,40552,40569,40585,40602,40620,40635,40652,40669,40685,40703,40723,40751,40769,40785,40802,40819,40835,40852,40869,40885,40902,40919,40935,40952,40969,40985,41002,41019,41035,41051,41068,41084,41101,41118,41134,41151,41168,41184,41201,41218,41234,41251,41268,41284,41301,41318,41334,41351,41368,41384,41401,41418,41434,41451,41468,41484,41501,41518,41534,41551,41569,41584,41601,41618,41634,41651,41668,41684,41701,41718,41734,41752,41768,41784,41802,41818,41834,41852,41869,41885,41901,41918,41935,41952,41969,41985,42001,42018,42034,42051,42069,42085,42102,42118,42136,42151,42167,42184,42200,42217,42234,42251,42267,42284,42301,42316,42334,42350,42366,42384,42402,42417,42434,42451,42467,42485,42502,42518,42534,42551,42567,42585,42601,42617,42634,42652,42667,42684,42701,42717,42734,42751,42767,42784,42801,42825,42835,42852,42868,42885,42902,42918,42935,42952,42968,42985,43002,43018,43035,43052,43068,43085,43101,43118,43135,43152,43168,43185,43202,43218,43235,43252,43268,43285,43302,43318,43335,43352,43368,43384,43401,43416,43433,43452,43469,43484,43500,43516,43534,43550,43567,43583,43600,43617,43634,43651,43668,43684,43701,43716,43734,43751,43767,43783,43801,43816,43834,43851,43866,43884,43901,43917,43935,43951,43967,43985,44001,44018,44034,44052,44068,44085,44101,44117,44134,44152,44167,44184,44202,44217,44235,44252,44268,44284,44301,44317,44334,44352,44367,44384,44401,44418,44434,44451,44467,44485,44501,44518,44534,44552,44568,44584,44602,44617,44634,44651,44667,44685,44701,44718,44734,44751,44767,44784,44802,44820],"hit":[null],"x":[-0.013605442176870748,-0.013605442176870748,-0.013605442176870748,-0.013605442176870748,-0.013605442176870748,-0.013605442176870748,-0.013605442176870748,-0.013605442176870748,-0.013605442176870748,-0.013605442176870748,-0.013605442176870748,-0.013605442176870748,-0.013605442176870748,-0.013605442176870748,-0.013605442176870748,-0.013605442176870748,-0.013605442176870748,-0.013605442176870748,-0.013605442176870748,-0.013605442176870748,-0.013605442176870748,-0.013605442176870748,-0.013605442176870748,-0.013605442176870748,-0.013605442176870748,-0.013605442176870748,-0.013605442176870748,-0.013605442176870748,-0.013605442176870748,-0.013605442176870748,-0.013605442176870748,-0.013605442176870748,-0.013605442176870748,-0.013605442176870748,-0.013605442176870748,-0.013605442176870748,-0.013605442176870748,-0.013605442176870748,-0.013605442176870748,-0.013605442176870748,-0.013605442176870748,-0.013605442176870748,-0.013605442176870748,-0.013605442176870748,-0.017006802721088437,-0.017006802721088437,-0.017006802721088437,-0.017006802721088437,-0.017006802721088437,-0.017006802721088437,-0.017006802721088437,-0.017006802721088437,-0.017006802721088437,-0.017006802721088437,-0.017006802721088437,-0.017006802721088437,-0.017006802721088437,-0.017006802721088437,-0.017006802721088437,-0.017006802721088437,-0.017006802721088437,-0.017006802721088437,-0.017006802721088437,-0.017006802721088437,-0.017006802721088437,-0.017006802721088437,-0.017006802721088437,-0.017006802721088437,-0.017006802721088437,-0.017006802721088437,-0.017006802721088437,-0.017006802721088437,-0.017006802721088437,-0.017006802721088437,-0.017006802721088437,-0.017006802721088437,-0.017006802721088437,-0.017006802721088437,-0.017006802721088437,-0.017006802721088437,-0.017006802721088437,-0.017006802721088437,-0.017006802721088437,-0.017006802721088437,-0.017006802721088437,-0.013605442176870748,-0.013605442176870748,-0.013605442176870748,-0.013605442176870748,-0.013605442176870748,-0.013605442176870748,-0.013605442176870748,-0.013605442176870748,-0.013605442176870748,-0.013605442176870748,-0.013605442176870748,-0.013605442176870748,-0.013605442176870748,-0.013605442176870748,-0.013605442176870748,-0.013605442176870748,-0.013605442176870748,-0.013605442176870748,-0.013605442176870748,-0.013605442176870748,-0.013605442176870748,-0.017006802721088437,-0.017006802721088437,-0.017006802721088437,-0.013605442176870748,-0.01020408163265306,-0.006802721088435374,-0.006802721088435374,-0.003401360544217687,-0.003401360544217687,-0.003401360544217687,0,0,0.01020408163265306,0.017006802721088437,0.034013605442176874,0.04081632653061224,0.04421768707482993,0.04421768707482993,0.047619047619047616,0.05442176870748299,0.05782312925170068,0.05782312925170068,0.05782312925170068,0.06802721088435375,0.0782312925170068,0.08843537414965986,0.08843537414965986,0.08843537414965986,0.08843537414965986,0.08843537414965986,0.08843537414965986,0.08843537414965986,0.08843537414965986,0.08843537414965986,0.09183673469387756,0.09523809523809523,0.10204081632653061,0.10884353741496598,0.11564625850340136,0.11904761904761904,0.12244897959183673,0.12585034013605442,0.12585034013605442,0.12585034013605442,0.12585034013605442,0.12585034013605442,0.1292517006802721,0.1292517006802721,0.1292517006802721,0.1292517006802721,0.1292517006802721,0.1292517006802721,0.1292517006802721,0.1292517006802721,0.1292517006802721,0.1292517006802721,0.1292517006802721,0.1292517006802721,0.1292517006802721,0.1292517006802721,0.1292517006802721,0.1292517006802721,0.1292517006802721,0.12585034013605442,0.12244897959183673,0.12244897959183673,0.12244897959183673,0.12244897959183673,0.12244897959183673,0.12244897959183673,0.12244897959183673,0.12244897959183673,0.12244897959183673,0.12585034013605442,0.1292517006802721,0.1292517006802721,0.1292517006802721,0.1292517006802721,0.1292517006802721,0.1292517006802721,0.1292517006802721,0.1292517006802721,0.1292517006802721,0.1292517006802721,0.1292517006802721,0.1292517006802721,0.12585034013605442,0.12244897959183673,0.12244897959183673,0.12244897959183673,0.12244897959183673,0.12244897959183673,0.12244897959183673,0.1360544217687075,0.17346938775510204,0.23129251700680273,0.2653061224489796,0.2789115646258503,0.2925170068027211,0.30272108843537415,0.3163265306122449,0.3435374149659864,0.3741496598639456,0.4217687074829932,0.5238095238095238,0.6360544217687075,0.7755102040816326,0.9625850340136054,1.1088435374149659,1.316326530612245,1.4489795918367347,1.4489795918367347,1.4489795918367347,1.6122448979591837,1.6394557823129252,1.6394557823129252,1.6394557823129252,1.6394557823129252,1.6394557823129252,1.6394557823129252,1.6394557823129252,1.6394557823129252,1.6394557823129252,1.6394557823129252,1.6394557823129252,1.6394557823129252,1.6394557823129252,1.6394557823129252,1.6394557823129252,1.6394557823129252,1.6394557823129252,1.6394557823129252,1.6394557823129252,1.6394557823129252,1.6394557823129252,1.6394557823129252,1.6394557823129252,1.6394557823129252,1.6394557823129252,1.6394557823129252,1.6394557823129252,1.6394557823129252,1.6394557823129252,1.6394557823129252,1.6394557823129252,1.6394557823129252,1.6394557823129252,1.6394557823129252,1.6394557823129252,1.6394557823129252,1.6394557823129252,1.6394557823129252,1.6394557823129252,1.6462585034013606,1.619047619047619,1.6122448979591837,1.6122448979591837,1.6122448979591837,1.6122448979591837,1.6258503401360545,1.6326530612244898,1.6258503401360545,1.6224489795918366,1.6224489795918366,1.6224489795918366,1.6224489795918366,1.6224489795918366,1.6224489795918366,1.619047619047619,1.5680272108843538,1.4251700680272108,1.2619047619047619,1.0374149659863945,0.8027210884353742,0.5136054421768708,0.5136054421768708,0.5136054421768708,0.5136054421768708,0.5136054421768708,0.5136054421768708,0.5136054421768708,0.5136054421768708,0.5136054421768708,0.5136054421768708,0.5136054421768708,0.5068027210884354,0.5068027210884354,0.5068027210884354,0.5068027210884354,0.5068027210884354,0.5068027210884354,0.5170068027210885,0.5306122448979592,0.54421768707483,0.5544217687074829,0.564625850340136,0.5714285714285714,0.5850340136054422,0.5986394557823129,0.6224489795918368,0.6632653061224489,0.7108843537414966,0.7687074829931972,0.7687074829931972,0.7687074829931972,0.7687074829931972,0.7687074829931972,0.7687074829931972,0.7687074829931972,0.7687074829931972,0.7687074829931972,0.7687074829931972,0.7687074829931972,0.7687074829931972,0.7755102040816326,0.7653061224489796,0.7551020408163265,0.7482993197278912,0.7482993197278912,0.7482993197278912,0.7482993197278912,0.7482993197278912,0.7414965986394558,0.7414965986394558,0.7414965986394558,0.7414965986394558,0.7414965986394558,0.7414965986394558,0.7414965986394558,0.7448979591836735,0.7482993197278912,0.7551020408163265,0.7653061224489796,0.7857142857142857,0.8163265306122449,0.8435374149659864,0.8537414965986394,0.8537414965986394,0.8537414965986394,0.8571428571428571,0.8571428571428571,0.8571428571428571,0.8571428571428571,0.8571428571428571,0.8571428571428571,0.8571428571428571,0.8571428571428571,0.8571428571428571,0.8571428571428571,0.8571428571428571,0.8571428571428571,0.8571428571428571,0.8537414965986394,0.8503401360544217,0.8503401360544217,0.8469387755102041,0.8469387755102041,0.8469387755102041,0.8469387755102041,0.8469387755102041,0.8469387755102041,0.8469387755102041,0.8469387755102041,0.8469387755102041,0.8469387755102041,0.8469387755102041,0.8469387755102041,0.8469387755102041,0.8469387755102041,0.8469387755102041,0.8469387755102041,0.8469387755102041,0.8503401360544217,0.8503401360544217,0.8503401360544217,0.8503401360544217,0.8503401360544217,0.8571428571428571,0.8571428571428571,0.8571428571428571,0.8605442176870748,0.8605442176870748,0.8605442176870748,0.8605442176870748,0.8605442176870748,0.8605442176870748,0.8605442176870748,0.8605442176870748,0.8605442176870748,0.8605442176870748,0.8605442176870748,0.8605442176870748,0.8605442176870748,0.8605442176870748,0.8605442176870748,0.8605442176870748,0.8605442176870748,0.8605442176870748,0.8605442176870748,0.8605442176870748,0.8605442176870748,0.8605442176870748,0.8605442176870748,0.8605442176870748,0.8605442176870748,0.8605442176870748,0.8605442176870748,0.8605442176870748,0.8605442176870748,0.8605442176870748,0.8605442176870748,0.8605442176870748,0.8605442176870748,0.8605442176870748,0.8605442176870748,0.8605442176870748,0.8605442176870748,0.8605442176870748,0.8605442176870748,0.8605442176870748,0.8605442176870748,0.8605442176870748,0.8605442176870748,0.8605442176870748,0.8605442176870748,0.8571428571428571,0.8571428571428571,0.8571428571428571,0.8537414965986394,0.8537414965986394,0.8503401360544217,0.8503401360544217,0.8469387755102041,0.8435374149659864,0.8367346938775511,0.8299319727891157,0.8231292517006803,0.8163265306122449,0.8095238095238095,0.7959183673469388,0.782312925170068,0.7721088435374149,0.7551020408163265,0.7414965986394558,0.7278911564625851,0.7142857142857143,0.7074829931972789,0.7006802721088435,0.6938775510204082,0.6904761904761905,0.6870748299319728,0.6836734693877551,0.6802721088435374,0.6802721088435374,0.6768707482993197,0.6768707482993197,0.6768707482993197,0.6768707482993197,0.6768707482993197,0.6768707482993197,0.6768707482993197,0.6768707482993197,0.6768707482993197,0.6768707482993197,0.6768707482993197,0.6768707482993197,0.6768707482993197,0.6768707482993197,0.6802721088435374,0.6802721088435374,0.6802721088435374,0.6802721088435374,0.6802721088435374,0.6802721088435374,0.6802721088435374,0.6836734693877551,0.6836734693877551,0.6836734693877551,0.6836734693877551,0.6836734693877551,0.6836734693877551,0.6836734693877551,0.6836734693877551,0.6836734693877551,0.6836734693877551,0.6836734693877551,0.6836734693877551,0.6836734693877551,0.6836734693877551,0.6836734693877551,0.6836734693877551,0.6836734693877551,0.6836734693877551,0.6836734693877551,0.6836734693877551,0.6836734693877551,0.6836734693877551,0.6836734693877551,0.6836734693877551,0.6836734693877551,0.6836734693877551,0.6836734693877551,0.6836734693877551,0.6836734693877551,0.6836734693877551,0.6836734693877551,0.6836734693877551,0.6836734693877551,0.6836734693877551,0.6836734693877551,0.6836734693877551,0.6836734693877551,0.6836734693877551,0.6836734693877551,0.6836734693877551,0.6836734693877551,0.6836734693877551,0.6836734693877551,0.6836734693877551,0.6836734693877551,0.6836734693877551,0.6802721088435374,0.6802721088435374,0.6768707482993197,0.6700680272108843,0.6666666666666666,0.6598639455782312,0.6530612244897959,0.6462585034013606,0.6360544217687075,0.6258503401360545,0.6190476190476191,0.6122448979591837,0.6020408163265306,0.5918367346938775,0.5782312925170068,0.564625850340136,0.5544217687074829,0.54421768707483,0.5306122448979592,0.5170068027210885,0.5034013605442177,0.4897959183673469,0.47278911564625853,0.45918367346938777,0.4387755102040816,0.41836734693877553,0.3979591836734694,0.37755102040816324,0.3673469387755102,0.36054421768707484,0.35374149659863946,0.35034013605442177,0.3469387755102041,0.3469387755102041,0.3469387755102041,0.3469387755102041,0.3469387755102041,0.3469387755102041,0.3469387755102041,0.3469387755102041,0.3469387755102041,0.3469387755102041,0.3469387755102041,0.3469387755102041,0.3469387755102041,0.3469387755102041,0.3469387755102041,0.3469387755102041,0.3469387755102041,0.3469387755102041,0.3469387755102041,0.3435374149659864,0.3401360544217687,0.3401360544217687,0.3333333333333333,0.3299319727891156,0.3197278911564626,0.30612244897959184,0.29931972789115646,0.2925170068027211,0.2857142857142857,0.2789115646258503,0.272108843537415,0.2619047619047619,0.25170068027210885,0.24489795918367346,0.24149659863945577,0.23809523809523808,0.23129251700680273,0.23129251700680273,0.22789115646258504,0.22789115646258504,0.22789115646258504,0.22789115646258504,0.22789115646258504,0.22789115646258504,0.22789115646258504,0.22789115646258504,0.22789115646258504,0.22789115646258504,0.22789115646258504,0.22789115646258504,0.22789115646258504,0.22789115646258504,0.22789115646258504,0.22789115646258504,0.22789115646258504,0.22789115646258504,0.22789115646258504,0.22789115646258504,0.22789115646258504,0.22789115646258504,0.22789115646258504,0.22789115646258504,0.22789115646258504,0.22789115646258504,0.22789115646258504,0.22789115646258504,0.22789115646258504,0.22789115646258504,0.22789115646258504,0.22789115646258504,0.22789115646258504,0.22789115646258504,0.22789115646258504,0.22789115646258504,0.22789115646258504,0.22789115646258504,0.22789115646258504,0.22789115646258504,0.22789115646258504,0.22789115646258504,0.22789115646258504,0.22789115646258504,0.22789115646258504,0.22789115646258504,0.22789115646258504,0.22789115646258504,0.22789115646258504,0.22789115646258504,0.22789115646258504,0.22789115646258504,0.22789115646258504,0.22789115646258504,0.22789115646258504,0.22789115646258504,0.23129251700680273,0.23129251700680273,0.23129251700680273,0.23129251700680273,0.23129251700680273,0.23129251700680273,0.23129251700680273,0.23129251700680273,0.23129251700680273,0.23129251700680273,0.23129251700680273,0.23129251700680273,0.23129251700680273,0.23129251700680273,0.23129251700680273,0.22448979591836735,0.22448979591836735,0.21768707482993196,0.2108843537414966,0.20408163265306123,0.19727891156462585,0.1836734693877551,0.17346938775510204,0.16326530612244897,0.14965986394557823,0.14285714285714285,0.1360544217687075,0.12585034013605442,0.12244897959183673,0.11904761904761904,0.11564625850340136,0.11224489795918367,0.10884353741496598,0.10204081632653061,0.09523809523809523,0.09523809523809523,0.09183673469387756,0.08843537414965986,0.08843537414965986,0.08163265306122448,0.08163265306122448,0.0782312925170068,0.07482993197278912,0.07142857142857142,0.06802721088435375,0.06462585034013606,0.061224489795918366,0.061224489795918366,0.05442176870748299,0.05442176870748299,0.05102040816326531,0.05102040816326531,0.05102040816326531,0.05102040816326531,0.05102040816326531,0.05102040816326531,0.05102040816326531,0.05102040816326531,0.05102040816326531,0.05102040816326531,0.05102040816326531,0.05102040816326531,0.05102040816326531,0.05102040816326531,0.05102040816326531,0.05102040816326531,0.05102040816326531,0.05102040816326531,0.05102040816326531,0.05102040816326531,0.05102040816326531,0.05102040816326531,0.05102040816326531,0.047619047619047616,0.047619047619047616,0.04421768707482993,0.04081632653061224,0.04081632653061224,0.034013605442176874,0.030612244897959183,0.027210884353741496,0.023809523809523808,0.023809523809523808,0.023809523809523808,0.023809523809523808,0.023809523809523808,0.023809523809523808,0.023809523809523808,0.023809523809523808,0.023809523809523808,0.023809523809523808,0.023809523809523808,0.027210884353741496,0.027210884353741496,0.027210884353741496,0.030612244897959183,0.034013605442176874,0.03741496598639456,0.04081632653061224,0.04421768707482993,0.047619047619047616,0.047619047619047616,0.047619047619047616,0.047619047619047616,0.047619047619047616,0.047619047619047616,0.04421768707482993,0.04421768707482993,0.04421768707482993,0.04081632653061224,0.04081632653061224,0.03741496598639456,0.03741496598639456,0.03741496598639456,0.03741496598639456,0.03741496598639456,0.04081632653061224,0.04081632653061224,0.04081632653061224,0.04081632653061224,0.04081632653061224,0.04081632653061224,0.04081632653061224,0.04081632653061224,0.04081632653061224,0.04081632653061224,0.04081632653061224,0.04081632653061224,0.04081632653061224,0.04081632653061224,0.04081632653061224,0.04081632653061224,0.04081632653061224,0.04081632653061224,0.04081632653061224,0.04081632653061224,0.04081632653061224,0.04081632653061224,0.04081632653061224,0.04081632653061224,0.04081632653061224,0.04081632653061224,0.04081632653061224,0.04081632653061224,0.04081632653061224,0.04081632653061224,0.04081632653061224,0.04081632653061224,0.04081632653061224,0.04081632653061224,0.04081632653061224,0.04081632653061224,0.04081632653061224,0.04081632653061224,0.04081632653061224,0.04081632653061224,0.04081632653061224,0.04081632653061224,0.04081632653061224,0.04081632653061224,0.04081632653061224,0.04081632653061224,0.04081632653061224,0.04081632653061224,0.04081632653061224,0.04081632653061224,0.04081632653061224,0.04081632653061224,0.04081632653061224,0.04081632653061224,0.03741496598639456,0.03741496598639456,0.03741496598639456,0.03741496598639456,0.03741496598639456,0.03741496598639456,0.03741496598639456,0.03741496598639456,0.03741496598639456,0.03741496598639456,0.03741496598639456,0.03741496598639456,0.04081632653061224,0.047619047619047616,0.05442176870748299,0.06802721088435375,0.08843537414965986,0.1054421768707483,0.1360544217687075,0.1598639455782313,0.1836734693877551,0.19727891156462585,0.20748299319727892,0.21768707482993196,0.22448979591836735,0.23129251700680273,0.24149659863945577,0.24829931972789115,0.25170068027210885,0.25170068027210885,0.25510204081632654,0.25510204081632654,0.2585034013605442,0.2653061224489796,0.2687074829931973,0.2687074829931973,0.2687074829931973,0.2687074829931973,0.2687074829931973,0.2687074829931973,0.2687074829931973,0.272108843537415,0.272108843537415,0.272108843537415,0.272108843537415,0.272108843537415,0.272108843537415,0.272108843537415,0.272108843537415,0.272108843537415,0.272108843537415,0.272108843537415,0.272108843537415,0.272108843537415,0.272108843537415,0.272108843537415,0.272108843537415,0.272108843537415,0.272108843537415,0.272108843537415,0.272108843537415,0.272108843537415,0.272108843537415,0.272108843537415,0.272108843537415,0.272108843537415,0.272108843537415,0.272108843537415,0.272108843537415,0.272108843537415,0.272108843537415,0.272108843537415,0.272108843537415,0.272108843537415,0.272108843537415,0.272108843537415,0.272108843537415,0.272108843537415,0.272108843537415,0.272108843537415,0.272108843537415,0.2755102040816326,0.282312925170068,0.30612244897959184,0.3401360544217687,0.3741496598639456,0.40816326530612246,0.43197278911564624,0.4387755102040816,0.4387755102040816,0.4387755102040816,0.4387755102040816,0.4387755102040816,0.4387755102040816,0.4387755102040816,0.4387755102040816,0.4387755102040816,0.4387755102040816,0.4387755102040816,0.4387755102040816,0.4387755102040816,0.4387755102040816,0.4387755102040816,0.4387755102040816,0.4387755102040816,0.4387755102040816,0.4387755102040816,0.4387755102040816,0.4387755102040816,0.4387755102040816,0.4387755102040816,0.4387755102040816,0.4387755102040816,0.4387755102040816,0.43537414965986393,0.43537414965986393,0.43537414965986393,0.43537414965986393,0.43537414965986393,0.43537414965986393,0.43537414965986393,0.43537414965986393,0.43537414965986393,0.43537414965986393,0.43537414965986393,0.43537414965986393,0.43537414965986393,0.43537414965986393,0.43537414965986393,0.43537414965986393,0.43537414965986393,0.43537414965986393,0.43537414965986393,0.43537414965986393,0.43537414965986393,0.43537414965986393,0.43537414965986393,0.43537414965986393,0.4489795918367347,0.47619047619047616,0.5,0.5204081632653061,0.5374149659863946,0.5544217687074829,0.5918367346938775,0.6292517006802721,0.6700680272108843,0.7142857142857143,0.7312925170068028,0.7482993197278912,0.7619047619047619,0.7653061224489796,0.7721088435374149,0.782312925170068,0.7925170068027211,0.8163265306122449,0.8503401360544217,0.8877551020408163,0.9183673469387755,0.9251700680272109,0.9251700680272109,0.9251700680272109,0.9251700680272109,0.9285714285714286,0.9319727891156463,0.9319727891156463,0.9319727891156463,0.9319727891156463,0.9319727891156463,0.935374149659864,0.9387755102040817,0.9455782312925171,0.9489795918367347,0.9523809523809523,0.9523809523809523,0.9523809523809523,0.9591836734693877,0.9693877551020408,0.9795918367346939,0.9863945578231292,0.9863945578231292,0.9863945578231292,0.9863945578231292,0.9863945578231292,0.9863945578231292,0.9863945578231292,0.9863945578231292,0.9863945578231292,0.9863945578231292,0.9863945578231292,0.9863945578231292,0.9863945578231292,0.9863945578231292,0.9863945578231292,0.9863945578231292,0.9863945578231292,0.9863945578231292,0.9863945578231292,0.9863945578231292,0.9863945578231292,0.9863945578231292,0.9863945578231292,0.9863945578231292,0.9863945578231292,0.9863945578231292,0.9863945578231292,0.9863945578231292,0.9863945578231292,0.9829931972789115,0.9829931972789115,0.9829931972789115,0.9829931972789115,0.9829931972789115,0.9829931972789115,0.9829931972789115,0.9829931972789115,0.9829931972789115,0.9829931972789115,0.9829931972789115,0.9829931972789115,0.9829931972789115,0.9863945578231292,0.9965986394557823,1.010204081632653,1.0272108843537415,1.034013605442177,1.0408163265306123,1.0476190476190477,1.054421768707483,1.054421768707483,1.054421768707483,1.0578231292517006,1.0578231292517006,1.0578231292517006,1.0578231292517006,1.0578231292517006,1.0612244897959184,1.0612244897959184,1.0578231292517006,1.054421768707483,1.054421768707483,1.0476190476190477,1.0442176870748299,1.0408163265306123,1.0374149659863945,1.0374149659863945,1.0374149659863945,1.0408163265306123,1.0510204081632653,1.0578231292517006,1.0680272108843538,1.0782312925170068,1.08843537414966,1.0952380952380953,1.1020408163265305,1.1020408163265305,1.1054421768707483,1.1088435374149659,1.1088435374149659,1.1122448979591837,1.1156462585034013,1.1156462585034013,1.1156462585034013,1.1156462585034013,1.1156462585034013,1.1156462585034013,1.1156462585034013,1.1156462585034013,1.1156462585034013,1.1156462585034013,1.1156462585034013,1.1156462585034013,1.1156462585034013,1.1156462585034013,1.1156462585034013,1.1156462585034013,1.1156462585034013,1.1156462585034013,1.1156462585034013,1.1156462585034013,1.1156462585034013,1.1156462585034013,1.1156462585034013,1.1156462585034013,1.1156462585034013,1.1122448979591837,1.1122448979591837,1.1088435374149659,1.1088435374149659,1.1088435374149659,1.1088435374149659,1.1088435374149659,1.1088435374149659,1.1088435374149659,1.1088435374149659,1.1088435374149659,1.1054421768707483,1.1054421768707483,1.1054421768707483,1.1054421768707483,1.1054421768707483,1.1054421768707483,1.1054421768707483,1.1020408163265305,1.1020408163265305,1.1020408163265305,1.098639455782313,1.0952380952380953,1.0952380952380953,1.0918367346938775,1.0918367346938775,1.08843537414966,1.08843537414966,1.08843537414966,1.0850340136054422,1.0850340136054422,1.0816326530612246,1.0816326530612246,1.0782312925170068,1.0748299319727892,1.0714285714285714,1.0714285714285714,1.0680272108843538,1.0680272108843538,1.0612244897959184,1.0578231292517006,1.054421768707483,1.0510204081632653,1.0476190476190477,1.0408163265306123,1.0374149659863945,1.034013605442177,1.030612244897959,1.0238095238095237,1.0170068027210883,1.010204081632653,1.010204081632653,1.0068027210884354,1.0068027210884354,1.0034013605442176,1,0.9931972789115646,0.9931972789115646,0.9897959183673469,0.9897959183673469,0.9863945578231292,0.9863945578231292,0.9863945578231292,0.9863945578231292,0.9863945578231292,0.9863945578231292,0.9863945578231292,0.9863945578231292,0.9863945578231292,0.9863945578231292,0.9863945578231292,0.9863945578231292,0.9863945578231292,0.9863945578231292,0.9863945578231292,0.9863945578231292,0.9829931972789115,0.9795918367346939,0.9761904761904762,0.9727891156462585,0.9659863945578231,0.9659863945578231,0.9659863945578231,0.9659863945578231,0.9591836734693877,0.9489795918367347,0.9387755102040817,0.9319727891156463,0.9251700680272109,0.9183673469387755,0.9183673469387755,0.9149659863945578,0.9149659863945578,0.9115646258503401,0.9115646258503401,0.9115646258503401,0.9115646258503401,0.9115646258503401,0.9115646258503401,0.9115646258503401,0.9115646258503401,0.9047619047619048,0.8979591836734694,0.891156462585034,0.8809523809523809,0.8707482993197279,0.8571428571428571,0.8469387755102041,0.8367346938775511,0.8299319727891157,0.8299319727891157,0.8299319727891157,0.8299319727891157,0.8299319727891157,0.8231292517006803,0.8197278911564626,0.8163265306122449,0.8163265306122449,0.8163265306122449,0.8163265306122449,0.8163265306122449,0.8163265306122449,0.8163265306122449,0.8163265306122449,0.8163265306122449,0.8163265306122449,0.8163265306122449,0.8163265306122449,0.8163265306122449,0.8163265306122449,0.8163265306122449,0.8163265306122449,0.8163265306122449,0.8163265306122449,0.8163265306122449,0.8163265306122449,0.8163265306122449,0.8163265306122449,0.8163265306122449,0.8163265306122449,0.8163265306122449,0.8163265306122449,0.8163265306122449,0.8163265306122449,0.8163265306122449,0.8163265306122449,0.8163265306122449,0.8163265306122449,0.8163265306122449,0.8129251700680272,0.8129251700680272,0.8095238095238095,0.8095238095238095,0.8095238095238095,0.8095238095238095,0.8095238095238095,0.8095238095238095,0.8095238095238095,0.8095238095238095,0.8095238095238095,0.8095238095238095,0.8095238095238095,0.8095238095238095,0.8095238095238095,0.8095238095238095,0.8095238095238095,0.8095238095238095,0.8095238095238095,0.8095238095238095,0.8095238095238095,0.8095238095238095,0.8095238095238095,0.8095238095238095,0.8095238095238095,0.8095238095238095,0.8095238095238095,0.8095238095238095,0.8095238095238095,0.8095238095238095,0.8095238095238095,0.8095238095238095,0.8095238095238095,0.8095238095238095,0.8095238095238095,0.8095238095238095,0.8095238095238095,0.8095238095238095,0.8095238095238095,0.8095238095238095,0.8095238095238095,0.8095238095238095,0.8095238095238095,0.8095238095238095,0.8095238095238095,0.8095238095238095,0.8095238095238095,0.8095238095238095,0.8095238095238095,0.8095238095238095,0.8095238095238095,0.8095238095238095,0.8095238095238095,0.8095238095238095,0.8095238095238095,0.8095238095238095,0.8095238095238095,0.8095238095238095,0.8095238095238095,0.8095238095238095,0.8095238095238095,0.8095238095238095,0.8095238095238095,0.8095238095238095,0.8095238095238095,0.8095238095238095,0.8095238095238095,0.8095238095238095,0.8095238095238095,0.8095238095238095,0.8095238095238095,0.8095238095238095,0.8095238095238095,0.8095238095238095,0.8095238095238095,0.8095238095238095,0.8095238095238095,0.8095238095238095,0.8095238095238095,0.8095238095238095,0.8095238095238095,0.8095238095238095,0.8095238095238095,0.8095238095238095,0.8095238095238095,0.8095238095238095,0.8095238095238095,0.8095238095238095,0.8095238095238095,0.8095238095238095,0.8095238095238095,0.8095238095238095,0.8095238095238095,0.8095238095238095,0.8095238095238095,0.8095238095238095,0.8095238095238095,0.8095238095238095,0.8095238095238095,0.8095238095238095,0.8095238095238095,0.8095238095238095,0.8095238095238095,0.8095238095238095,0.8095238095238095,0.8095238095238095,0.8095238095238095,0.8095238095238095,0.8095238095238095,0.8095238095238095,0.8095238095238095,0.8095238095238095,0.8095238095238095,0.8095238095238095,0.8095238095238095,0.8095238095238095,0.8095238095238095,0.8095238095238095,0.8095238095238095,0.8095238095238095,0.8095238095238095,0.8095238095238095,0.8095238095238095,0.8095238095238095,0.8095238095238095,0.8095238095238095,0.8095238095238095,0.8095238095238095,0.8095238095238095,0.8095238095238095,0.8095238095238095,0.8095238095238095,0.8095238095238095,0.8095238095238095,0.8095238095238095,0.8095238095238095,0.8095238095238095,0.8095238095238095,0.8095238095238095,0.8095238095238095,0.8095238095238095,0.8095238095238095,0.8095238095238095,0.8095238095238095,0.8095238095238095,0.8095238095238095,0.8095238095238095,0.8095238095238095,0.8095238095238095,0.8095238095238095,0.8095238095238095,0.8095238095238095,0.7959183673469388,0.7755102040816326,0.7687074829931972,0.7687074829931972,0.7687074829931972,0.7619047619047619,0.7448979591836735,0.7142857142857143,0.6938775510204082,0.6870748299319728,0.6836734693877551,0.6802721088435374,0.6802721088435374,0.673469387755102,0.6666666666666666,0.6666666666666666,0.6666666666666666,0.6666666666666666,0.6666666666666666,0.6666666666666666,0.6666666666666666,0.6666666666666666,0.6666666666666666,0.6666666666666666,0.6666666666666666,0.6666666666666666,0.6666666666666666,0.6666666666666666,0.6666666666666666,0.6666666666666666,0.6666666666666666,0.6666666666666666,0.6666666666666666,0.6666666666666666,0.6666666666666666,0.6666666666666666,0.6666666666666666,0.6666666666666666,0.6666666666666666,0.6666666666666666,0.6666666666666666,0.6666666666666666,0.6666666666666666,0.6666666666666666,0.6666666666666666,0.6666666666666666,0.6666666666666666,0.6666666666666666,0.6666666666666666,0.6666666666666666,0.6666666666666666,0.6666666666666666,0.6666666666666666,0.6598639455782312,0.6496598639455783,0.6496598639455783,0.6496598639455783,0.6496598639455783,0.6496598639455783,0.6496598639455783,0.6496598639455783,0.6496598639455783,0.6496598639455783,0.6496598639455783,0.6496598639455783,0.6496598639455783,0.6496598639455783,0.6428571428571429,0.6394557823129252,0.6394557823129252,0.6360544217687075,0.6326530612244898,0.6326530612244898,0.6224489795918368,0.6122448979591837,0.5986394557823129,0.5748299319727891,0.5510204081632653,0.5204081632653061,0.48299319727891155,0.43197278911564624,0.3945578231292517,0.35034013605442177,0.336734693877551,0.3163265306122449,0.30272108843537415,0.2925170068027211,0.2891156462585034,0.2789115646258503,0.2653061224489796,0.25170068027210885,0.23809523809523808,0.23129251700680273,0.22448979591836735,0.22448979591836735,0.2108843537414966,0.1870748299319728,0.1598639455782313,0.13945578231292516,0.12244897959183673,0.10884353741496598,0.09523809523809523,0.09183673469387756,0.08503401360544217,0.0782312925170068,0.07482993197278912,0.06802721088435375,0.061224489795918366,0.061224489795918366,0.05442176870748299,0.04421768707482993,0.030612244897959183,0.02040816326530612,0.013605442176870748,0.006802721088435374,0.003401360544217687,0,-0.003401360544217687,-0.006802721088435374,-0.006802721088435374,-0.006802721088435374,-0.006802721088435374,-0.006802721088435374,-0.006802721088435374,-0.006802721088435374,-0.006802721088435374,-0.006802721088435374,-0.006802721088435374,-0.006802721088435374,-0.006802721088435374,-0.006802721088435374,-0.006802721088435374,-0.006802721088435374,-0.006802721088435374,-0.006802721088435374,-0.006802721088435374,-0.006802721088435374,-0.006802721088435374,-0.006802721088435374,-0.006802721088435374,-0.006802721088435374,-0.006802721088435374,-0.006802721088435374,-0.006802721088435374,-0.006802721088435374,-0.006802721088435374,-0.006802721088435374,-0.006802721088435374,-0.006802721088435374,-0.006802721088435374,-0.006802721088435374,-0.006802721088435374,-0.006802721088435374,-0.003401360544217687,0.003401360544217687,0.006802721088435374,0.02040816326530612,0.034013605442176874,0.05782312925170068,0.08163265306122448,0.10204081632653061,0.1292517006802721,0.14965986394557823,0.17346938775510204,0.20748299319727892,0.22789115646258504,0.24489795918367346,0.2585034013605442,0.2755102040816326,0.2891156462585034,0.29591836734693877,0.29931972789115646,0.30612244897959184,0.3129251700680272,0.3197278911564626,0.3401360544217687,0.36054421768707484,0.3945578231292517,0.41496598639455784,0.42857142857142855,0.4421768707482993,0.4557823129251701,0.46258503401360546,0.47619047619047616,0.48299319727891155,0.48639455782312924,0.48639455782312924,0.48639455782312924,0.48639455782312924,0.48639455782312924,0.48639455782312924,0.48639455782312924,0.48639455782312924,0.48639455782312924,0.48299319727891155,0.47619047619047616,0.46938775510204084,0.46258503401360546,0.4523809523809524,0.4421768707482993,0.43197278911564624,0.43197278911564624,0.43197278911564624,0.43197278911564624,0.43197278911564624,0.43197278911564624,0.43197278911564624,0.42857142857142855,0.4217687074829932,0.41496598639455784,0.41156462585034015,0.40816326530612246,0.40816326530612246,0.40816326530612246,0.40816326530612246,0.40476190476190477,0.4013605442176871,0.4013605442176871,0.4013605442176871,0.4013605442176871,0.4013605442176871,0.4013605442176871,0.4013605442176871,0.4013605442176871,0.4013605442176871,0.4013605442176871,0.4013605442176871,0.4013605442176871,0.4013605442176871,0.4013605442176871,0.4013605442176871,0.4013605442176871,0.4013605442176871,0.4013605442176871,0.4013605442176871,0.4013605442176871,0.4013605442176871,0.4013605442176871,0.4013605442176871,0.4013605442176871,0.4013605442176871,0.4013605442176871,0.4013605442176871,0.4013605442176871,0.4013605442176871,0.4013605442176871,0.4013605442176871,0.4013605442176871,0.4013605442176871,0.4013605442176871,0.4013605442176871,0.4013605442176871,0.4013605442176871,0.4013605442176871,0.4013605442176871,0.4013605442176871,0.4013605442176871,0.4013605442176871,0.4013605442176871,0.4013605442176871,0.4013605442176871,0.4013605442176871,0.4013605442176871,0.4013605442176871,0.4013605442176871,0.4013605442176871,0.4013605442176871,0.4013605442176871,0.4013605442176871,0.4013605442176871,0.4013605442176871,0.4013605442176871,0.4013605442176871,0.4013605442176871,0.4013605442176871,0.4013605442176871,0.4013605442176871,0.4013605442176871,0.4013605442176871,0.4013605442176871,0.4013605442176871,0.4013605442176871,0.4013605442176871,0.4013605442176871,0.4013605442176871,0.4013605442176871,0.4013605442176871,0.4013605442176871,0.4013605442176871,0.3979591836734694,0.3945578231292517,0.3945578231292517,0.3945578231292517,0.3945578231292517,0.3945578231292517,0.3945578231292517,0.3945578231292517,0.3945578231292517,0.3945578231292517,0.3945578231292517,0.3945578231292517,0.3945578231292517,0.3945578231292517,0.391156462585034,0.391156462585034,0.391156462585034,0.391156462585034,0.391156462585034,0.391156462585034,0.391156462585034,0.391156462585034,0.391156462585034,0.391156462585034,0.391156462585034,0.391156462585034,0.391156462585034,0.391156462585034,0.391156462585034,0.3877551020408163,0.3877551020408163,0.3877551020408163,0.3877551020408163,0.3877551020408163,0.3877551020408163,0.3877551020408163,0.3877551020408163,0.3877551020408163,0.3843537414965986,0.3843537414965986,0.3843537414965986,0.3843537414965986,0.3843537414965986,0.3843537414965986,0.3843537414965986,0.3843537414965986,0.3843537414965986,0.3843537414965986,0.3843537414965986,0.3843537414965986,0.3843537414965986,0.3843537414965986,0.3843537414965986,0.3843537414965986,0.3843537414965986,0.3843537414965986,0.3843537414965986,0.3843537414965986,0.3843537414965986,0.3843537414965986,0.3843537414965986,0.3843537414965986,0.3843537414965986,0.3843537414965986,0.3843537414965986,0.3843537414965986,0.3843537414965986,0.3843537414965986,0.3843537414965986,0.3843537414965986,0.3843537414965986,0.3843537414965986,0.3843537414965986,0.3843537414965986,0.3843537414965986,0.3843537414965986,0.3843537414965986,0.3843537414965986,0.3843537414965986,0.3843537414965986,0.3843537414965986,0.3843537414965986,0.3843537414965986,0.3843537414965986,0.3843537414965986,0.3843537414965986,0.3843537414965986,0.3843537414965986,0.3843537414965986,0.3843537414965986,0.3843537414965986,0.3843537414965986,0.3843537414965986,0.3843537414965986,0.3843537414965986,0.3843537414965986,0.3843537414965986,0.3843537414965986,0.3843537414965986,0.3843537414965986,0.3843537414965986,0.3843537414965986,0.3843537414965986,0.3843537414965986,0.3843537414965986,0.3843537414965986,0.3843537414965986,0.3843537414965986,0.3843537414965986,0.3843537414965986,0.3843537414965986,0.3843537414965986,0.3843537414965986,0.3843537414965986,0.3843537414965986,0.3843537414965986,0.3843537414965986,0.3843537414965986,0.3843537414965986,0.3843537414965986,0.3843537414965986,0.3843537414965986,0.3843537414965986,0.3843537414965986,0.3843537414965986,0.3843537414965986,0.3843537414965986,0.3843537414965986,0.3843537414965986,0.3843537414965986,0.3843537414965986,0.3843537414965986,0.3843537414965986,0.3843537414965986,0.3843537414965986,0.3843537414965986,0.3843537414965986,0.3843537414965986,0.3843537414965986,0.3843537414965986,0.3843537414965986,0.3843537414965986,0.3843537414965986,0.3843537414965986,0.3843537414965986,0.3843537414965986,0.3843537414965986,0.3843537414965986,0.3843537414965986,0.3843537414965986,0.3843537414965986,0.3843537414965986,0.3843537414965986,0.3843537414965986,0.3843537414965986,0.3843537414965986,0.3843537414965986,0.3843537414965986,0.3843537414965986,0.3843537414965986,0.3843537414965986,0.3843537414965986,0.3843537414965986,0.3843537414965986,0.3843537414965986,0.3843537414965986,0.3843537414965986,0.3843537414965986,0.3843537414965986,0.3843537414965986,0.3843537414965986,0.3843537414965986,0.3843537414965986,0.3843537414965986,0.3843537414965986,0.3843537414965986,0.3843537414965986,0.3843537414965986,0.3843537414965986,0.3843537414965986,0.3843537414965986,0.3843537414965986,0.3843537414965986,0.3843537414965986,0.3843537414965986,0.3843537414965986,0.3843537414965986,0.3843537414965986,0.3843537414965986,0.3843537414965986,0.3843537414965986,0.3843537414965986,0.3843537414965986,0.3843537414965986,0.3843537414965986,0.3843537414965986,0.3843537414965986,0.3843537414965986,0.3843537414965986,0.3843537414965986,0.3843537414965986,0.3843537414965986,0.3843537414965986,0.3843537414965986,0.3843537414965986,0.3843537414965986,0.3843537414965986,0.3843537414965986,0.3843537414965986,0.3843537414965986,0.3843537414965986,0.3843537414965986,0.3843537414965986,0.3843537414965986,0.3843537414965986,0.3843537414965986,0.3843537414965986,0.3843537414965986,0.3843537414965986,0.3843537414965986,0.3843537414965986,0.3843537414965986,0.3843537414965986,0.3843537414965986,0.3843537414965986,0.3843537414965986,0.3843537414965986,0.3843537414965986,0.3843537414965986,0.3843537414965986,0.3843537414965986,0.3843537414965986,0.3843537414965986,0.3843537414965986,0.3843537414965986,0.3843537414965986,0.3843537414965986,0.3843537414965986,0.3843537414965986,0.3843537414965986,0.3843537414965986,0.3843537414965986,0.3843537414965986,0.3843537414965986,0.3843537414965986,0.3843537414965986,0.3843537414965986,0.3843537414965986,0.3843537414965986,0.3843537414965986,0.3843537414965986,0.3843537414965986,0.3843537414965986,0.3843537414965986,0.3843537414965986,0.3843537414965986,0.3843537414965986,0.3843537414965986,0.3843537414965986,0.3843537414965986,0.3843537414965986,0.3843537414965986,0.3843537414965986,0.3843537414965986,0.3843537414965986,0.3843537414965986,0.3843537414965986,0.3843537414965986,0.3843537414965986,0.3843537414965986,0.3843537414965986,0.3843537414965986,0.3843537414965986,0.3843537414965986,0.3843537414965986,0.3843537414965986,0.3843537414965986,0.3843537414965986,0.3843537414965986,0.3843537414965986,0.3843537414965986,0.3843537414965986,0.3843537414965986,0.3843537414965986,0.3843537414965986,0.3843537414965986,0.3843537414965986,0.3843537414965986,0.3843537414965986,0.3843537414965986,0.3843537414965986,0.3843537414965986,0.3843537414965986,0.3843537414965986,0.3843537414965986,0.3843537414965986,0.3843537414965986,0.3843537414965986,0.3843537414965986,0.3843537414965986,0.3843537414965986,0.3843537414965986,0.3843537414965986,0.3843537414965986,0.3843537414965986,0.3843537414965986,0.3843537414965986,0.3843537414965986,0.3843537414965986,0.3843537414965986,0.3843537414965986,0.3843537414965986,0.3843537414965986,0.3843537414965986,0.3843537414965986,0.3843537414965986,0.3843537414965986,0.3843537414965986,0.3843537414965986,0.3843537414965986,0.3843537414965986,0.3843537414965986,0.3843537414965986,0.3843537414965986,0.3843537414965986,0.3843537414965986,0.3843537414965986,0.3843537414965986,0.3843537414965986,0.3843537414965986,0.3843537414965986,0.3843537414965986,0.3843537414965986,0.3843537414965986,0.3843537414965986,0.3843537414965986,0.3843537414965986,0.3843537414965986,0.3843537414965986,0.3843537414965986,0.3843537414965986,0.3843537414965986,0.3843537414965986,0.3843537414965986,0.3843537414965986,0.3843537414965986,0.3843537414965986,0.3843537414965986,0.3843537414965986,0.3843537414965986,0.3843537414965986,0.3843537414965986,0.3843537414965986,0.3843537414965986,0.3843537414965986,0.3843537414965986,0.3843537414965986,0.3843537414965986,0.3843537414965986,0.3843537414965986,0.3843537414965986,0.3843537414965986,0.3843537414965986,0.3843537414965986,0.3843537414965986,0.3843537414965986,0.3843537414965986,0.3843537414965986,0.3843537414965986,0.3843537414965986,0.3843537414965986,0.38095238095238093,0.38095238095238093,0.38095238095238093,0.38095238095238093,0.38095238095238093,0.38095238095238093,0.38095238095238093,0.38095238095238093,0.38095238095238093,0.38095238095238093,0.38095238095238093,0.38095238095238093,0.38095238095238093,0.38095238095238093,0.38095238095238093,0.3843537414965986,0.391156462585034,0.3945578231292517,0.4013605442176871,0.40476190476190477,0.40816326530612246,0.41496598639455784,0.41496598639455784,0.41496598639455784,0.41496598639455784,0.41496598639455784,0.41496598639455784,0.41496598639455784,0.41496598639455784,0.41496598639455784,0.41496598639455784,0.41496598639455784,0.41496598639455784,0.41496598639455784,0.4217687074829932,0.4217687074829932,0.4217687074829932,0.4217687074829932,0.4217687074829932,0.4217687074829932,0.4217687074829932,0.4217687074829932,0.4217687074829932,0.4217687074829932,0.4217687074829932,0.4217687074829932,0.4217687074829932,0.4217687074829932,0.4217687074829932,0.4217687074829932,0.4217687074829932,0.4217687074829932,0.4217687074829932,0.4217687074829932,0.4217687074829932,0.4217687074829932,0.4217687074829932,0.4217687074829932,0.4217687074829932,0.4217687074829932,0.4217687074829932,0.4217687074829932,0.4217687074829932,0.4217687074829932,0.4217687074829932,0.4217687074829932,0.4217687074829932,0.4217687074829932,0.4217687074829932,0.4217687074829932,0.4217687074829932,0.4217687074829932,0.4217687074829932,0.4217687074829932,0.4217687074829932,0.4217687074829932,0.4217687074829932,0.4217687074829932,0.4217687074829932,0.4217687074829932,0.4217687074829932,0.4217687074829932,0.4217687074829932,0.4217687074829932,0.4217687074829932,0.4217687074829932,0.4217687074829932,0.4217687074829932,0.4217687074829932,0.4217687074829932,0.4217687074829932,0.4217687074829932,0.4217687074829932,0.4217687074829932,0.4217687074829932,0.4217687074829932,0.4217687074829932,0.4217687074829932,0.4217687074829932,0.4217687074829932,0.4217687074829932,0.41836734693877553,0.41836734693877553,0.41496598639455784,0.41496598639455784,0.41156462585034015,0.40816326530612246,0.40476190476190477,0.4013605442176871,0.4013605442176871,0.4013605442176871,0.3945578231292517,0.3877551020408163,0.37755102040816324,0.3673469387755102,0.36054421768707484,0.35034013605442177,0.3435374149659864,0.3401360544217687,0.3401360544217687,0.3401360544217687,0.3401360544217687,0.336734693877551,0.336734693877551,0.336734693877551,0.336734693877551,0.3333333333333333,0.3333333333333333,0.3333333333333333,0.3333333333333333,0.3333333333333333,0.3333333333333333,0.3333333333333333,0.3333333333333333,0.3333333333333333,0.3333333333333333,0.3333333333333333,0.3333333333333333,0.3333333333333333,0.3333333333333333,0.3333333333333333,0.3333333333333333,0.3333333333333333,0.3333333333333333,0.3333333333333333,0.3333333333333333,0.3333333333333333,0.3333333333333333,0.3333333333333333,0.3333333333333333,0.3333333333333333,0.3333333333333333,0.3333333333333333,0.3333333333333333,0.3333333333333333,0.3333333333333333,0.3333333333333333,0.3333333333333333,0.3333333333333333,0.3333333333333333,0.3333333333333333,0.3333333333333333,0.3333333333333333,0.3333333333333333,0.3333333333333333,0.3333333333333333,0.3333333333333333,0.3333333333333333,0.3333333333333333,0.3299319727891156,0.32653061224489793,0.3163265306122449,0.30612244897959184,0.2925170068027211,0.272108843537415,0.24149659863945577,0.2108843537414966,0.19047619047619047,0.1836734693877551,0.17346938775510204,0.17006802721088435,0.16666666666666666,0.16666666666666666,0.16666666666666666,0.16666666666666666,0.16666666666666666,0.16666666666666666,0.16666666666666666,0.16666666666666666,0.16666666666666666,0.16666666666666666,0.16666666666666666,0.16666666666666666,0.16666666666666666,0.16666666666666666,0.16666666666666666,0.16666666666666666,0.16666666666666666,0.16666666666666666,0.16666666666666666,0.16666666666666666,0.16666666666666666,0.17006802721088435,0.17006802721088435,0.17006802721088435,0.17006802721088435,0.17006802721088435,0.17006802721088435,0.17006802721088435,0.17006802721088435,0.17006802721088435,0.17006802721088435,0.17006802721088435,0.17006802721088435,0.17006802721088435,0.17006802721088435,0.17006802721088435,0.17006802721088435,0.17006802721088435,0.17006802721088435,0.17006802721088435,0.17006802721088435,0.17006802721088435,0.17006802721088435,0.17006802721088435,0.17006802721088435,0.17006802721088435,0.17006802721088435,0.17006802721088435,0.17006802721088435,0.17006802721088435,0.17006802721088435,0.17006802721088435,0.17006802721088435,0.17006802721088435,0.17006802721088435,0.17006802721088435,0.17006802721088435,0.17006802721088435,0.17006802721088435,0.17006802721088435,0.17346938775510204,0.17687074829931973,0.17687074829931973,0.17687074829931973,0.17687074829931973,0.17687074829931973,0.17687074829931973,0.17687074829931973,0.17687074829931973,0.17687074829931973,0.17687074829931973,0.17687074829931973,0.17687074829931973,0.17687074829931973,0.17687074829931973,0.17687074829931973,0.17687074829931973,0.17687074829931973,0.17687074829931973,0.17687074829931973,0.17687074829931973,0.17687074829931973,0.17687074829931973,0.17687074829931973,0.17687074829931973,0.1836734693877551,0.1836734693877551,0.1870748299319728,0.19047619047619047,0.19387755102040816,0.19727891156462585,0.20408163265306123,0.2108843537414966,0.21768707482993196,0.22448979591836735,0.23469387755102042,0.24489795918367346,0.2687074829931973,0.29931972789115646,0.3299319727891156,0.35714285714285715,0.38095238095238093,0.40816326530612246,0.445578231292517,0.46938775510204084,0.4897959183673469,0.5,0.5102040816326531,0.5238095238095238,0.5374149659863946,0.5510204081632653,0.5578231292517006,0.564625850340136,0.564625850340136,0.5714285714285714,0.5748299319727891,0.5816326530612245,0.5850340136054422,0.5918367346938775,0.5918367346938775,0.5986394557823129,0.5986394557823129,0.5986394557823129,0.5986394557823129,0.5986394557823129,0.5986394557823129,0.5986394557823129,0.5986394557823129,0.5986394557823129,0.5986394557823129,0.5986394557823129,0.5986394557823129,0.5986394557823129,0.5986394557823129,0.5986394557823129,0.5952380952380952,0.5952380952380952,0.5918367346938775,0.5918367346938775,0.5884353741496599,0.5850340136054422,0.5816326530612245,0.5782312925170068,0.5782312925170068,0.5782312925170068,0.5714285714285714,0.5714285714285714,0.5714285714285714,0.5714285714285714,0.5714285714285714,0.5714285714285714,0.5714285714285714,0.5714285714285714,0.5714285714285714,0.5680272108843537,0.5680272108843537,0.5680272108843537,0.5680272108843537,0.5680272108843537,0.5680272108843537,0.5680272108843537,0.5680272108843537,0.5680272108843537,0.5680272108843537,0.5680272108843537,0.5680272108843537,0.5680272108843537,0.5680272108843537,0.5680272108843537,0.5680272108843537,0.5680272108843537,0.5680272108843537,0.5680272108843537,0.5680272108843537,0.5680272108843537,0.564625850340136,0.564625850340136,0.564625850340136,0.564625850340136,0.564625850340136,0.564625850340136,0.564625850340136,0.564625850340136,0.564625850340136,0.564625850340136,0.564625850340136,0.564625850340136,0.564625850340136,0.564625850340136,0.564625850340136,0.564625850340136,0.564625850340136,0.564625850340136,0.564625850340136,0.564625850340136,0.564625850340136,0.564625850340136,0.564625850340136,0.564625850340136,0.564625850340136,0.564625850340136,0.564625850340136,0.564625850340136,0.564625850340136,0.564625850340136,0.564625850340136,0.564625850340136,0.564625850340136,0.564625850340136,0.564625850340136,0.564625850340136,0.564625850340136,0.564625850340136,0.564625850340136,0.564625850340136,0.564625850340136,0.564625850340136,0.564625850340136,0.564625850340136,0.564625850340136,0.564625850340136,0.564625850340136,0.564625850340136,0.564625850340136,0.564625850340136,0.564625850340136,0.564625850340136,0.564625850340136,0.564625850340136,0.564625850340136,0.564625850340136,0.564625850340136,0.564625850340136,0.564625850340136,0.5578231292517006,0.5544217687074829,0.5476190476190477,0.54421768707483,0.5306122448979592,0.5238095238095238,0.5102040816326531,0.4897959183673469,0.46938775510204084,0.4489795918367347,0.43537414965986393,0.4217687074829932,0.41156462585034015,0.40476190476190477,0.4013605442176871,0.3979591836734694,0.3945578231292517,0.391156462585034,0.3877551020408163,0.3843537414965986,0.38095238095238093,0.3741496598639456,0.3673469387755102,0.35714285714285715,0.35034013605442177,0.3435374149659864,0.3401360544217687,0.3401360544217687,0.3469387755102041,0.3673469387755102,0.40816326530612246,0.46258503401360546,0.5476190476190477,0.6462585034013606,0.7551020408163265,0.8571428571428571,0.8979591836734694,0.8979591836734694,0.9047619047619048,0.9047619047619048,0.9115646258503401,0.9319727891156463,0.95578231292517,0.9761904761904762,0.9897959183673469,0.9965986394557823,1.0034013605442176,1.010204081632653,1.0204081632653061,1.0238095238095237,1.0272108843537415,1.030612244897959,1.030612244897959,1.030612244897959,1.030612244897959,1.0272108843537415,1.0272108843537415,1.0238095238095237,1.0204081632653061,1.0170068027210883,1.0136054421768708,1.0136054421768708,1.0136054421768708,1.0136054421768708,1.0136054421768708,1.0136054421768708,1.0136054421768708,1.0136054421768708,1.0136054421768708,1.0136054421768708,1.0136054421768708,1.0136054421768708,1.0136054421768708,1.0136054421768708,1.0136054421768708,1.0136054421768708,1.0136054421768708,1.0136054421768708,1.0136054421768708,1.0136054421768708,1.0136054421768708,1.0136054421768708,1.0136054421768708,1.0136054421768708,1.0136054421768708,1.0136054421768708,1.0136054421768708,1.0136054421768708,1.0136054421768708,1.0136054421768708,1.0136054421768708,1.0136054421768708,1.0136054421768708,1.0136054421768708,1.0136054421768708,1.0136054421768708,1.0136054421768708,1.0136054421768708,1.0136054421768708,1.0136054421768708,1.0136054421768708,1.0136054421768708,1.0136054421768708,1.0136054421768708,1.0136054421768708,1.0136054421768708,1.0136054421768708,1.0136054421768708,1.0136054421768708,1.0136054421768708,1.0136054421768708,1.0136054421768708,1.0136054421768708,1.0136054421768708,1.0136054421768708,1.0136054421768708,1.0136054421768708,1.0136054421768708,1.0136054421768708,1.0136054421768708,1.0136054421768708,1.0136054421768708,1.0136054421768708,1.0136054421768708,1.0136054421768708,1.010204081632653,1.0068027210884354,1.0068027210884354,1.0068027210884354,1.0068027210884354,1.0068027210884354,1.0068027210884354,1.0068027210884354,1.0068027210884354,1.0068027210884354,1.0068027210884354,1.0068027210884354,1.0068027210884354,1.0068027210884354,1.0068027210884354,1.0068027210884354,1.0068027210884354,1.0068027210884354,1.0068027210884354,1.0068027210884354,1.0068027210884354,1.0068027210884354,1.0068027210884354,1.0068027210884354,1.0068027210884354,1.0068027210884354,1.0068027210884354,1.0068027210884354,1.0068027210884354,1.0068027210884354,1.0068027210884354,1.0068027210884354,1.0068027210884354,1.0068027210884354,1.0068027210884354,1.0068027210884354,1.0068027210884354,1.0068027210884354,1.0068027210884354,1.0068027210884354,1.0068027210884354,1.0068027210884354,1.0068027210884354,1.0068027210884354,1.0068027210884354,1.0068027210884354,1.0068027210884354,1.0068027210884354,1.0068027210884354,1.0068027210884354,1.0068027210884354,1.0068027210884354,1.0068027210884354,1.0068027210884354,1.0068027210884354,1.0068027210884354,1.0068027210884354,1.0068027210884354,1.0068027210884354,1.0068027210884354,1.0068027210884354,1.0068027210884354],"y":[0.5952380952380952,0.6047619047619047,0.6047619047619047,0.6047619047619047,0.6047619047619047,0.6047619047619047,0.6047619047619047,0.6047619047619047,0.6047619047619047,0.6047619047619047,0.6047619047619047,0.6047619047619047,0.6142857142857143,0.6142857142857143,0.6142857142857143,0.6142857142857143,0.6142857142857143,0.6142857142857143,0.6142857142857143,0.6142857142857143,0.6142857142857143,0.6142857142857143,0.6142857142857143,0.6142857142857143,0.6142857142857143,0.6142857142857143,0.6142857142857143,0.6142857142857143,0.6142857142857143,0.6142857142857143,0.6142857142857143,0.6142857142857143,0.6142857142857143,0.6142857142857143,0.6142857142857143,0.6142857142857143,0.6142857142857143,0.6142857142857143,0.6142857142857143,0.6047619047619047,0.6047619047619047,0.6047619047619047,0.6047619047619047,0.6047619047619047,0.6047619047619047,0.6047619047619047,0.6047619047619047,0.6047619047619047,0.6047619047619047,0.6047619047619047,0.6047619047619047,0.6047619047619047,0.6047619047619047,0.6047619047619047,0.6047619047619047,0.6047619047619047,0.6047619047619047,0.6047619047619047,0.6047619047619047,0.6047619047619047,0.6047619047619047,0.6047619047619047,0.6047619047619047,0.6047619047619047,0.6047619047619047,0.6047619047619047,0.6047619047619047,0.6047619047619047,0.6047619047619047,0.6047619047619047,0.6047619047619047,0.6047619047619047,0.6047619047619047,0.6047619047619047,0.6047619047619047,0.6047619047619047,0.6047619047619047,0.6047619047619047,0.6047619047619047,0.6047619047619047,0.6047619047619047,0.6047619047619047,0.6047619047619047,0.6047619047619047,0.6047619047619047,0.6047619047619047,0.6047619047619047,0.6047619047619047,0.6047619047619047,0.6047619047619047,0.6047619047619047,0.6047619047619047,0.6047619047619047,0.6047619047619047,0.6047619047619047,0.6047619047619047,0.6047619047619047,0.6047619047619047,0.6047619047619047,0.6047619047619047,0.6047619047619047,0.6047619047619047,0.6047619047619047,0.6047619047619047,0.6047619047619047,0.6047619047619047,0.5952380952380952,0.5952380952380952,0.5952380952380952,0.5857142857142857,0.5761904761904761,0.5761904761904761,0.5571428571428572,0.5285714285714286,0.48095238095238096,0.4238095238095238,0.38571428571428573,0.32857142857142857,0.3,0.2523809523809524,0.22380952380952382,0.1761904761904762,0.11904761904761904,0.06190476190476191,0.023809523809523808,0.004761904761904762,-0.014285714285714285,-0.04285714285714286,-0.07142857142857142,-0.12857142857142856,-0.14761904761904762,-0.15714285714285714,-0.16666666666666666,-0.16666666666666666,-0.16666666666666666,-0.16666666666666666,-0.16666666666666666,-0.16666666666666666,-0.16666666666666666,-0.16666666666666666,-0.14761904761904762,-0.14761904761904762,-0.12857142857142856,-0.12857142857142856,-0.11904761904761904,-0.10952380952380952,-0.10952380952380952,-0.10952380952380952,-0.10952380952380952,-0.10952380952380952,-0.10952380952380952,-0.10952380952380952,-0.10952380952380952,-0.10952380952380952,-0.10952380952380952,-0.10952380952380952,-0.10952380952380952,-0.10952380952380952,-0.10952380952380952,-0.10952380952380952,-0.10952380952380952,-0.10952380952380952,-0.10952380952380952,-0.10952380952380952,-0.10952380952380952,-0.10952380952380952,-0.10952380952380952,-0.10952380952380952,-0.10952380952380952,-0.10952380952380952,-0.10952380952380952,-0.10952380952380952,-0.10952380952380952,-0.10952380952380952,-0.10952380952380952,-0.10952380952380952,-0.10952380952380952,-0.10952380952380952,-0.10952380952380952,-0.10952380952380952,-0.10952380952380952,-0.10952380952380952,-0.10952380952380952,-0.10952380952380952,-0.10952380952380952,-0.10952380952380952,-0.10952380952380952,-0.10952380952380952,-0.10952380952380952,-0.10952380952380952,-0.10952380952380952,-0.10952380952380952,-0.10952380952380952,-0.10952380952380952,-0.10952380952380952,-0.10952380952380952,-0.10952380952380952,-0.10952380952380952,-0.1,-0.09047619047619047,-0.05238095238095238,0.06190476190476191,0.12857142857142856,0.1761904761904762,0.23333333333333334,0.2904761904761905,0.32857142857142857,0.35714285714285715,0.3952380952380952,0.44285714285714284,0.49047619047619045,0.5476190476190477,0.5666666666666667,0.5952380952380952,0.7095238095238096,0.861904761904762,0.9380952380952381,0.9380952380952381,0.9380952380952381,0.919047619047619,0.9095238095238095,0.9095238095238095,0.9095238095238095,0.9095238095238095,0.9095238095238095,0.9095238095238095,0.9095238095238095,0.9095238095238095,0.9095238095238095,0.9095238095238095,0.9095238095238095,0.9095238095238095,0.9095238095238095,0.9095238095238095,0.9095238095238095,0.9095238095238095,0.9095238095238095,0.9095238095238095,0.9095238095238095,0.9095238095238095,0.9095238095238095,0.9095238095238095,0.9095238095238095,0.9095238095238095,0.9095238095238095,0.9095238095238095,0.9095238095238095,0.9095238095238095,0.9095238095238095,0.9095238095238095,0.9095238095238095,0.9095238095238095,0.9095238095238095,0.9095238095238095,0.9095238095238095,0.9095238095238095,0.9095238095238095,0.9095238095238095,0.9095238095238095,0.9476190476190476,1.0047619047619047,1.0142857142857142,1.0142857142857142,1.0238095238095237,1.0238095238095237,1.0238095238095237,1.0142857142857142,1.0142857142857142,1.0142857142857142,1.0142857142857142,1.0142857142857142,1.0142857142857142,1.0142857142857142,1.0142857142857142,1.0142857142857142,1.061904761904762,1.2428571428571429,1.5952380952380953,2.1857142857142855,2.7666666666666666,2.8714285714285714,2.8714285714285714,2.8714285714285714,2.8714285714285714,2.8714285714285714,2.8714285714285714,2.8714285714285714,2.8714285714285714,2.8714285714285714,2.8714285714285714,2.8714285714285714,2.861904761904762,2.861904761904762,2.861904761904762,2.861904761904762,2.861904761904762,2.861904761904762,2.823809523809524,2.776190476190476,2.7476190476190476,2.719047619047619,2.7,2.6904761904761907,2.6714285714285713,2.6333333333333333,2.5952380952380953,2.538095238095238,2.4714285714285715,2.4047619047619047,2.4047619047619047,2.4047619047619047,2.4047619047619047,2.4047619047619047,2.4047619047619047,2.4047619047619047,2.4047619047619047,2.4047619047619047,2.4047619047619047,2.4047619047619047,2.4047619047619047,2.3857142857142857,2.223809523809524,2.1,2.0428571428571427,1.9952380952380953,1.9666666666666666,1.9476190476190476,1.9,1.8714285714285714,1.8428571428571427,1.8333333333333333,1.8333333333333333,1.8047619047619048,1.7571428571428571,1.7095238095238094,1.6523809523809523,1.5952380952380953,1.5380952380952382,1.4428571428571428,1.2619047619047619,0.9666666666666667,0.6333333333333333,0.44285714285714284,0.3476190476190476,0.319047619047619,0.2714285714285714,0.24285714285714285,0.23333333333333334,0.23333333333333334,0.23333333333333334,0.23333333333333334,0.23333333333333334,0.23333333333333334,0.23333333333333334,0.23333333333333334,0.23333333333333334,0.23333333333333334,0.24285714285714285,0.2619047619047619,0.28095238095238095,0.30952380952380953,0.32857142857142857,0.32857142857142857,0.32857142857142857,0.32857142857142857,0.32857142857142857,0.32857142857142857,0.32857142857142857,0.32857142857142857,0.32857142857142857,0.32857142857142857,0.32857142857142857,0.32857142857142857,0.32857142857142857,0.32857142857142857,0.32857142857142857,0.32857142857142857,0.3380952380952381,0.3380952380952381,0.3476190476190476,0.3476190476190476,0.35714285714285715,0.38571428571428573,0.4142857142857143,0.4238095238095238,0.4238095238095238,0.4238095238095238,0.4238095238095238,0.4238095238095238,0.4238095238095238,0.4238095238095238,0.4238095238095238,0.4238095238095238,0.4238095238095238,0.4238095238095238,0.4238095238095238,0.4238095238095238,0.4238095238095238,0.4238095238095238,0.4238095238095238,0.4238095238095238,0.4238095238095238,0.4238095238095238,0.4238095238095238,0.4238095238095238,0.4238095238095238,0.4238095238095238,0.4238095238095238,0.4238095238095238,0.4238095238095238,0.4238095238095238,0.4238095238095238,0.4238095238095238,0.4238095238095238,0.4238095238095238,0.4238095238095238,0.4238095238095238,0.4238095238095238,0.4238095238095238,0.4238095238095238,0.4238095238095238,0.4238095238095238,0.4238095238095238,0.4238095238095238,0.4238095238095238,0.4238095238095238,0.4238095238095238,0.4238095238095238,0.4238095238095238,0.4238095238095238,0.44285714285714284,0.44285714285714284,0.46190476190476193,0.4714285714285714,0.48095238095238096,0.48095238095238096,0.48095238095238096,0.49047619047619045,0.5,0.5095238095238095,0.5190476190476191,0.5285714285714286,0.5380952380952381,0.5380952380952381,0.5476190476190477,0.5571428571428572,0.5761904761904761,0.5761904761904761,0.5952380952380952,0.6047619047619047,0.6142857142857143,0.6142857142857143,0.6142857142857143,0.6142857142857143,0.6142857142857143,0.6142857142857143,0.6142857142857143,0.6142857142857143,0.6142857142857143,0.6142857142857143,0.6047619047619047,0.6047619047619047,0.5952380952380952,0.5952380952380952,0.5952380952380952,0.5952380952380952,0.5952380952380952,0.5952380952380952,0.5952380952380952,0.5952380952380952,0.5952380952380952,0.5952380952380952,0.5952380952380952,0.5952380952380952,0.5952380952380952,0.5952380952380952,0.5952380952380952,0.5952380952380952,0.5952380952380952,0.5952380952380952,0.5952380952380952,0.5952380952380952,0.5952380952380952,0.5952380952380952,0.5952380952380952,0.5952380952380952,0.5952380952380952,0.5952380952380952,0.5952380952380952,0.5952380952380952,0.5952380952380952,0.5952380952380952,0.5952380952380952,0.5952380952380952,0.5952380952380952,0.5952380952380952,0.5952380952380952,0.5952380952380952,0.5952380952380952,0.5952380952380952,0.5952380952380952,0.5952380952380952,0.5952380952380952,0.5952380952380952,0.5952380952380952,0.5952380952380952,0.5952380952380952,0.5952380952380952,0.5952380952380952,0.5952380952380952,0.5952380952380952,0.5952380952380952,0.5952380952380952,0.5952380952380952,0.5952380952380952,0.5952380952380952,0.5952380952380952,0.5952380952380952,0.5952380952380952,0.5952380952380952,0.5952380952380952,0.5952380952380952,0.5952380952380952,0.5952380952380952,0.5952380952380952,0.5952380952380952,0.5952380952380952,0.5952380952380952,0.5952380952380952,0.5952380952380952,0.6047619047619047,0.6142857142857143,0.6142857142857143,0.6333333333333333,0.6333333333333333,0.6523809523809524,0.6619047619047619,0.6714285714285714,0.680952380952381,0.6904761904761905,0.7095238095238096,0.7285714285714285,0.7380952380952381,0.7571428571428571,0.7666666666666667,0.7857142857142857,0.7952380952380952,0.8142857142857143,0.8333333333333334,0.8523809523809524,0.861904761904762,0.8904761904761904,0.9095238095238095,0.9380952380952381,0.9571428571428572,0.9666666666666667,0.9761904761904762,0.9857142857142858,0.9952380952380953,0.9952380952380953,1.0047619047619047,1.0047619047619047,1.0047619047619047,1.0047619047619047,1.0047619047619047,1.0047619047619047,1.0047619047619047,1.0047619047619047,1.0047619047619047,1.0047619047619047,1.0047619047619047,1.0047619047619047,1.0047619047619047,1.0047619047619047,1.0047619047619047,1.0047619047619047,1.0047619047619047,1.0047619047619047,1.0047619047619047,1.0047619047619047,1.0142857142857142,1.0142857142857142,1.0142857142857142,1.0238095238095237,1.0333333333333334,1.0333333333333334,1.042857142857143,1.0523809523809524,1.0523809523809524,1.0523809523809524,1.061904761904762,1.0714285714285714,1.0714285714285714,1.0809523809523809,1.0904761904761904,1.0904761904761904,1.0904761904761904,1.0904761904761904,1.0904761904761904,1.0904761904761904,1.0904761904761904,1.0904761904761904,1.0904761904761904,1.0904761904761904,1.0904761904761904,1.0904761904761904,1.0904761904761904,1.0904761904761904,1.0904761904761904,1.0904761904761904,1.0904761904761904,1.0904761904761904,1.0904761904761904,1.0904761904761904,1.0904761904761904,1.0904761904761904,1.0904761904761904,1.0904761904761904,1.0904761904761904,1.0904761904761904,1.0904761904761904,1.0904761904761904,1.0904761904761904,1.0904761904761904,1.0904761904761904,1.0904761904761904,1.0904761904761904,1.0904761904761904,1.0904761904761904,1.0904761904761904,1.0904761904761904,1.0904761904761904,1.0904761904761904,1.0904761904761904,1.0904761904761904,1.0904761904761904,1.0904761904761904,1.0904761904761904,1.0904761904761904,1.0904761904761904,1.0904761904761904,1.0904761904761904,1.0904761904761904,1.0904761904761904,1.0904761904761904,1.0904761904761904,1.0904761904761904,1.0904761904761904,1.0904761904761904,1.0904761904761904,1.0904761904761904,1.0904761904761904,1.0904761904761904,1.0904761904761904,1.0904761904761904,1.0904761904761904,1.0904761904761904,1.0904761904761904,1.0904761904761904,1.0904761904761904,1.0904761904761904,1.0904761904761904,1.0904761904761904,1.0904761904761904,1.0904761904761904,1.0904761904761904,1.0904761904761904,1.0904761904761904,1.1,1.1,1.1,1.1095238095238096,1.1095238095238096,1.1095238095238096,1.119047619047619,1.119047619047619,1.119047619047619,1.119047619047619,1.119047619047619,1.119047619047619,1.119047619047619,1.119047619047619,1.119047619047619,1.119047619047619,1.119047619047619,1.1095238095238096,1.1095238095238096,1.1095238095238096,1.1095238095238096,1.1,1.1,1.1,1.1,1.0904761904761904,1.0904761904761904,1.0809523809523809,1.0809523809523809,1.0809523809523809,1.0809523809523809,1.0809523809523809,1.0714285714285714,1.0714285714285714,1.0714285714285714,1.061904761904762,1.061904761904762,1.061904761904762,1.061904761904762,1.061904761904762,1.061904761904762,1.061904761904762,1.061904761904762,1.061904761904762,1.061904761904762,1.061904761904762,1.061904761904762,1.061904761904762,1.061904761904762,1.061904761904762,1.061904761904762,1.061904761904762,1.061904761904762,1.061904761904762,1.061904761904762,1.061904761904762,1.061904761904762,1.061904761904762,1.061904761904762,1.061904761904762,1.061904761904762,1.061904761904762,1.0714285714285714,1.0714285714285714,1.0714285714285714,1.0714285714285714,1.0714285714285714,1.0714285714285714,1.0714285714285714,1.0714285714285714,1.0714285714285714,1.0714285714285714,1.0714285714285714,1.0714285714285714,1.0714285714285714,1.0714285714285714,1.0714285714285714,1.061904761904762,1.061904761904762,1.061904761904762,1.061904761904762,1.0523809523809524,1.042857142857143,1.0333333333333334,0.9952380952380953,0.9571428571428572,0.919047619047619,0.861904761904762,0.7857142857142857,0.680952380952381,0.6142857142857143,0.5666666666666667,0.5380952380952381,0.5190476190476191,0.48095238095238096,0.46190476190476193,0.4523809523809524,0.4523809523809524,0.44285714285714284,0.4238095238095238,0.40476190476190477,0.38571428571428573,0.38571428571428573,0.3761904761904762,0.36666666666666664,0.36666666666666664,0.3380952380952381,0.30952380952380953,0.28095238095238095,0.2523809523809524,0.23333333333333334,0.21428571428571427,0.19523809523809524,0.16666666666666666,0.15714285714285714,0.15714285714285714,0.15714285714285714,0.15714285714285714,0.15714285714285714,0.14761904761904762,0.14761904761904762,0.14761904761904762,0.14761904761904762,0.14761904761904762,0.14761904761904762,0.14761904761904762,0.14761904761904762,0.14761904761904762,0.14761904761904762,0.14761904761904762,0.14761904761904762,0.14761904761904762,0.14761904761904762,0.14761904761904762,0.14761904761904762,0.14761904761904762,0.14761904761904762,0.14761904761904762,0.14761904761904762,0.14761904761904762,0.14761904761904762,0.14761904761904762,0.14761904761904762,0.14761904761904762,0.14761904761904762,0.14761904761904762,0.14761904761904762,0.14761904761904762,0.14761904761904762,0.14761904761904762,0.14761904761904762,0.14761904761904762,0.14761904761904762,0.14761904761904762,0.14761904761904762,0.14761904761904762,0.14761904761904762,0.14761904761904762,0.14761904761904762,0.14761904761904762,0.14761904761904762,0.14761904761904762,0.14761904761904762,0.1380952380952381,0.1380952380952381,0.1380952380952381,0.1380952380952381,0.12857142857142856,0.11904761904761904,0.1,0.07142857142857142,0.04285714285714286,0.03333333333333333,0.004761904761904762,-0.004761904761904762,-0.004761904761904762,-0.004761904761904762,-0.004761904761904762,-0.004761904761904762,-0.004761904761904762,-0.014285714285714285,-0.014285714285714285,-0.014285714285714285,-0.014285714285714285,-0.014285714285714285,-0.014285714285714285,-0.014285714285714285,-0.014285714285714285,-0.014285714285714285,-0.014285714285714285,-0.014285714285714285,-0.014285714285714285,-0.014285714285714285,-0.014285714285714285,-0.014285714285714285,-0.014285714285714285,-0.014285714285714285,-0.014285714285714285,-0.014285714285714285,-0.014285714285714285,-0.014285714285714285,-0.014285714285714285,-0.014285714285714285,-0.014285714285714285,-0.014285714285714285,-0.014285714285714285,-0.014285714285714285,-0.014285714285714285,-0.014285714285714285,-0.014285714285714285,-0.014285714285714285,-0.014285714285714285,-0.014285714285714285,-0.014285714285714285,-0.014285714285714285,-0.014285714285714285,-0.014285714285714285,-0.014285714285714285,-0.014285714285714285,-0.014285714285714285,-0.014285714285714285,-0.014285714285714285,-0.014285714285714285,-0.014285714285714285,-0.014285714285714285,-0.014285714285714285,-0.014285714285714285,-0.014285714285714285,-0.014285714285714285,-0.014285714285714285,-0.014285714285714285,-0.014285714285714285,-0.014285714285714285,-0.014285714285714285,-0.014285714285714285,-0.014285714285714285,-0.014285714285714285,-0.014285714285714285,-0.014285714285714285,-0.014285714285714285,-0.014285714285714285,-0.014285714285714285,-0.014285714285714285,-0.014285714285714285,-0.014285714285714285,-0.014285714285714285,-0.014285714285714285,-0.014285714285714285,-0.014285714285714285,-0.014285714285714285,-0.014285714285714285,-0.014285714285714285,-0.014285714285714285,-0.014285714285714285,-0.014285714285714285,-0.014285714285714285,-0.014285714285714285,-0.014285714285714285,-0.014285714285714285,-0.014285714285714285,-0.014285714285714285,-0.014285714285714285,-0.014285714285714285,-0.014285714285714285,-0.014285714285714285,-0.014285714285714285,-0.014285714285714285,-0.014285714285714285,-0.014285714285714285,-0.004761904761904762,-0.004761904761904762,-0.004761904761904762,-0.004761904761904762,-0.004761904761904762,-0.004761904761904762,-0.004761904761904762,-0.004761904761904762,-0.004761904761904762,-0.004761904761904762,-0.004761904761904762,-0.004761904761904762,-0.004761904761904762,-0.004761904761904762,-0.004761904761904762,-0.004761904761904762,-0.004761904761904762,-0.004761904761904762,-0.004761904761904762,-0.004761904761904762,-0.004761904761904762,-0.004761904761904762,-0.004761904761904762,-0.004761904761904762,-0.004761904761904762,-0.004761904761904762,-0.004761904761904762,-0.004761904761904762,-0.004761904761904762,-0.004761904761904762,-0.004761904761904762,-0.004761904761904762,-0.0047619