[{"success":true,"trial_type":"fullscreen","trial_index":0,"time_elapsed":3327,"internal_node_id":"0.0-0.0","protocol_sum":"","subject_identifier":202,"subject_sum":[22,220,54,138,137,180,40,178,72,84,132,49,59,166,122,57,18,202,3,242,178,180,36,41,23,74,79,139,61,200,78,68],"subject_pair":101,"STUDY_ID":"669eec2e4270c76bc184a38e","PROLIFIC_PID":"63e5517cd738b83025348a43","SESSION_ID":"669ef30d9b40860d04e2f0a9","practice_instructions":1,"leaderboard_instructions":0,"bonus":0,"reveal_word":false,"self_rating":"2","confidence":"78"},{"view_history":"[{\"page_index\":0,\"viewing_time\":2071.899999856949}]","rt":2072.2000000476837,"trial_type":"instructions","trial_index":1,"time_elapsed":5401,"internal_node_id":"0.0-1.0","protocol_sum":"","subject_identifier":202,"subject_sum":[22,220,54,138,137,180,40,178,72,84,132,49,59,166,122,57,18,202,3,242,178,180,36,41,23,74,79,139,61,200,78,68],"subject_pair":101,"STUDY_ID":"669eec2e4270c76bc184a38e","PROLIFIC_PID":"63e5517cd738b83025348a43","SESSION_ID":"669ef30d9b40860d04e2f0a9","practice_instructions":1,"leaderboard_instructions":0,"bonus":0,"reveal_word":false,"self_rating":"2","confidence":"78"},{"view_history":"[{\"page_index\":0,\"viewing_time\":18930.099999904633}]","rt":18930.39999985695,"trial_type":"instructions","trial_index":2,"time_elapsed":24332,"internal_node_id":"0.0-2.0-0.0","protocol_sum":"","subject_identifier":202,"subject_sum":[22,220,54,138,137,180,40,178,72,84,132,49,59,166,122,57,18,202,3,242,178,180,36,41,23,74,79,139,61,200,78,68],"subject_pair":101,"STUDY_ID":"669eec2e4270c76bc184a38e","PROLIFIC_PID":"63e5517cd738b83025348a43","SESSION_ID":"669ef30d9b40860d04e2f0a9","practice_instructions":1,"leaderboard_instructions":0,"bonus":0,"reveal_word":false,"self_rating":"2","confidence":"78"},{"rt":6794,"responses":"{\"Q0\":\"... reveal the word with as <b>few letter guesses</b> as possible\"}","question_order":"[0]","trial_type":"survey-multi-choice","trial_index":3,"time_elapsed":31128,"internal_node_id":"0.0-2.0-1.0","protocol_sum":"","subject_identifier":202,"subject_sum":[22,220,54,138,137,180,40,178,72,84,132,49,59,166,122,57,18,202,3,242,178,180,36,41,23,74,79,139,61,200,78,68],"subject_pair":101,"correct":true,"test_part":"multichoice_nonpretend","STUDY_ID":"669eec2e4270c76bc184a38e","PROLIFIC_PID":"63e5517cd738b83025348a43","SESSION_ID":"669ef30d9b40860d04e2f0a9","practice_instructions":1,"leaderboard_instructions":0,"bonus":0,"reveal_word":false,"self_rating":"2","confidence":"78"},{"view_history":"[{\"page_index\":0,\"viewing_time\":1689.8999998569489}]","rt":1690.1999998092651,"trial_type":"instructions","trial_index":4,"time_elapsed":32820,"internal_node_id":"0.0-3.0","protocol_sum":"","subject_identifier":202,"subject_sum":[22,220,54,138,137,180,40,178,72,84,132,49,59,166,122,57,18,202,3,242,178,180,36,41,23,74,79,139,61,200,78,68],"subject_pair":101,"STUDY_ID":"669eec2e4270c76bc184a38e","PROLIFIC_PID":"63e5517cd738b83025348a43","SESSION_ID":"669ef30d9b40860d04e2f0a9","practice_instructions":1,"leaderboard_instructions":0,"bonus":0,"reveal_word":false,"self_rating":"2","confidence":"78"},{"word":"ZEBRA","click_log":{"letter":["","C","A","N","L","M","P","R","Z","E","B"],"t":[0,4015.7000000476837,7919.799999952316,10731,13571.599999904633,14959.400000095367,17007.599999904633,18592.799999952316,21786.400000095367,22736.200000047684,23714.099999904633],"hit":[null,0,1,0,0,0,0,1,1,1,1],"asked":["","C","CA","CAN","CANL","CANLM","CANLMP","CANLMPR","CANLMPRZ","CANLMPRZE","CANLMPRZEB"],"word_state":["_____","_____","____A","____A","____A","____A","____A","___RA","Z__RA","ZE_RA","ZEBRA"]},"hover_log":{"letter":["?","?","?","?","?","?","?","?","?","?","?","?","?","?","?","?","?","?","?","?","?","?","?","?","?","?","?","?","?","?","?","?","?","?","?","?","?","?","?","?","?","?","?","?","?","?","?","?","?","?","?","?","?","?","?","?","?","?","?","?","?","?","?","?","?","?","?","?","?","?","?","?","?","?","?","?","?","?","?","?","?","?","?","?","?","?","?","?","?","?","?","?","?","?","?","?","?","?","?","?","?","?","?","?","?","?","?","?","?","?","?","?","?","?","?","?","?","?","?","?","?","?","?","?","?","?","?","?","?","?","?","?","?","?","?","?","?","?","?","?","?","?","?","?","?","?","?","?","?","?","?","?","?","?","?","?","?","?","?","?","?","?","?","?","?","?","?","?","?","?","?","?","?","?","?","?","?","J","J","?","?","K","K","K","K","?","D","D","?","?","?","?","?","?","?","?","?","?","?","?","?","?","D","D","D","D","D","D","?","?","C","C","C","C","C","C","C","C","C","C","C","C","C","C","C","C","C","C","C","C","C","C","C","C","C","C","C","C","C","C","C","C","C","C","C","C","C","C","C","C","C","C","C","C","C","C","C","C","C","C","C","C","C","C","C","C","C","C","C","C","C","C","C","C","C","C","C","C","C","C","C","C","C","C","C","C","C","C","C","C","C","C","C","C","C","C","C","C","C","C","C","C","C","C","C","C","C","C","C","C","C","C","C","C","?","B","B","B","B","B","B","B","B","B","B","B","B","B","B","B","B","B","B","B","B","?","?","?","?","?","?","?","A","A","A","A","A","A","A","A","A","A","A","A","A","A","A","A","A","A","A","A","A","A","A","A","A","A","A","A","A","A","A","A","A","A","A","A","A","A","A","A","A","A","A","A","A","A","A","A","A","A","A","A","A","A","A","A","A","A","A","A","A","A","A","A","A","A","A","A","A","A","A","A","A","A","A","A","A","A","A","A","A","A","A","A","A","A","A","A","A","A","A","A","A","A","A","A","A","A","A","A","A","A","A","A","A","A","A","A","A","A","A","A","A","A","A","A","A","A","A","A","A","A","A","A","A","A","A","A","A","A","A","A","A","A","A","A","A","A","A","A","A","A","A","A","A","A","A","A","A","A","A","A","A","A","A","A","A","A","A","A","A","A","A","A","A","A","A","A","A","A","A","A","A","A","A","A","A","A","A","A","A","A","A","A","A","A","A","A","A","A","A","A","A","A","A","A","A","A","A","A","A","A","A","A","A","A","A","A","A","A","A","A","A","A","A","?","?","?","?","?","?","?","?","?","?","?","?","?","?","?","?","?","?","?","?","?","?","?","?","?","?","?","?","?","?","?","?","?","?","?","L","?","M","M","M","M","M","M","?","?","?","?","?","?","?","?","?","?","N","N","N","N","N","N","N","N","N","N","N","N","N","N","N","N","N","N","N","N","N","N","N","N","N","N","N","N","N","N","N","N","N","N","N","N","N","N","N","N","N","N","N","N","N","N","N","N","N","N","N","N","N","N","N","N","N","N","N","N","N","N","N","N","N","N","N","N","N","N","N","N","N","N","N","N","N","N","N","N","N","N","N","N","N","N","N","N","N","N","N","N","N","N","N","N","N","N","N","N","N","N","N","N","N","N","N","N","N","N","N","N","N","N","N","N","N","N","N","N","N","N","N","N","O","?","P","P","?","Q","Q","Q","Q","Q","Q","Q","Q","Q","Q","Q","Q","Q","Q","Q","Q","Q","Q","Q","Q","?","P","P","?","?","?","?","M","M","?","L","L","L","L","L","L","?","?","?","?","?","?","?","?","?","?","?","?","L","L","L","L","L","L","L","L","L","L","L","L","L","L","L","L","L","L","L","L","L","L","L","L","L","L","L","L","L","L","L","L","L","L","L","L","L","L","L","L","L","L","L","L","L","L","L","L","L","L","L","L","L","L","L","L","L","L","L","L","L","L","L","L","L","L","L","L","L","L","L","L","L","L","L","L","L","L","L","L","L","?","M","M","M","M","M","M","M","M","M","M","M","M","M","M","M","M","M","M","M","M","M","M","M","M","M","M","M","M","M","M","M","M","M","M","M","M","M","M","M","M","M","M","M","M","M","M","M","M","M","M","M","M","M","M","M","M","M","M","M","M","M","M","M","M","M","M","M","M","M","M","M","M","M","M","M","M","M","M","M","M","M","M","M","M","M","M","M","M","M","M","M","M","M","M","M","M","M","M","M","M","M","M","M","M","M","N","N","O","O","O","O","O","O","O","O","?","?","?","P","P","P","P","P","P","P","P","P","P","P","P","P","P","P","P","P","P","P","P","P","P","P","P","P","P","P","P","P","P","P","P","P","P","P","P","P","P","P","P","P","P","P","P","P","P","P","P","P","P","P","P","P","P","P","P","P","P","P","P","P","P","P","P","P","P","P","P","P","P","P","P","P","P","P","P","P","P","P","P","P","P","P","P","P","P","P","P","P","P","P","P","P","P","Q","Q","Q","?","R","R","R","R","R","R","R","R","R","R","R","R","R","R","R","R","R","R","R","R","R","R","R","R","R","R","R","R","R","R","R","R","R","R","R","R","R","R","R","R","R","R","R","R","R","R","R","R","R","R","R","R","R","R","R","R","R","R","R","R","R","R","R","R","R","R","R","R","R","R","R","R","R","R","R","R","R","R","R","R","R","R","R","R","R","R","R","R","R","R","R","R","R","R","R","R","R","R","R","R","R","R","R","R","R","R","R","R","R","R","R","R","R","R","R","R","R","R","R","R","R","R","R","R","R","R","R","R","R","R","R","R","R","R","R","R","R","R","R","R","R","R","R","R","R","R","Q","?","?","?","?","W","V","V","?","?","?","?","?","?","?","U","U","U","U","U","U","U","U","U","U","U","U","U","?","V","?","W","W","X","X","X","Y","Y","Y","Y","Y","Y","Y","Y","Y","Y","Y","Y","?","Z","Z","Z","Z","Z","Z","Z","Z","Z","Z","Z","Z","Z","Z","Z","Z","Z","Z","Z","Z","Z","Z","Z","Z","Z","Z","Z","Z","Z","Z","Z","Z","Z","Z","Z","Z","Z","Z","?","?","P","?","?","?","E","E","E","E","E","E","?","?","?","?","?","?","?","?","?","?","?","?","?","?","?","E","E","E","E","E","E","E","E","E","E","E","E","E","E","E","E","E","E","E","E","E","E","E","E","E","E","E","E","D","?","C","C","?","?","?","?","?","?","?","?","?","?","?","?","?","?","?","?","?","B","B","B","B","B","B","B","B","B","B","B","B","B","B","B","B","B","B","B","B","B","B","B","B","B","B","B","B","B","B","B","B","B","B","B","B","B","B","B","B","B","B","B","B","B","B","B","B","B","B","B","B","B","B","B","B","B","B","B","B","B","B","B","B","B","B","B","B","B","B","B","B","B","B","B","B","B","B","B","B","B","B","B","B","B","B","B","B","B","B","B","B","B","B","B","B","B","B","B","B","B","B","B","B","B","B","B","B","B","B","B","B","B","B","B","B","B","B","B","B","B","B","B","B","B","B","B","B","B","B","B","B","B","B","B","B","B","B","B","B","B","B","B","B","B","B","B","B","B","B"],"t":[24,31,48,64,80,97,114,131,149,166,181,198,215,231,247,265,282,299,315,332,347,365,381,399,415,432,448,465,483,498,515,531,547,564,581,598,615,632,648,665,682,697,713,730,747,764,781,797,813,829,847,864,880,896,913,929,946,963,979,996,1013,1029,1046,1063,1080,1097,1113,1131,1147,1164,1182,1198,1215,1232,1248,1265,1281,1296,1314,1331,1348,1364,1382,1398,1413,1430,1447,1464,1481,1498,1515,1531,1547,1564,1581,1598,1614,1632,1647,1664,1681,1698,1713,1730,1747,1764,1781,1798,1814,1830,1848,1864,1881,1897,1914,1931,1947,1964,1981,1997,2014,2031,2048,2064,2082,2098,2115,2132,2147,2164,2182,2197,2215,2232,2249,2265,2281,2298,2315,2332,2348,2365,2380,2397,2414,2432,2448,2465,2481,2498,2514,2531,2548,2565,2581,2598,2615,2629,2646,2663,2681,2698,2713,2729,2746,2763,2780,2797,2814,2830,2846,2863,2879,2896,2913,2930,2946,2966,2980,2997,3015,3032,3047,3064,3080,3096,3114,3130,3147,3163,3181,3197,3214,3230,3247,3263,3281,3298,3314,3331,3348,3364,3382,3397,3414,3431,3446,3463,3480,3497,3514,3531,3548,3564,3581,3597,3614,3631,3648,3664,3681,3698,3717,3730,3746,3764,3780,3797,3814,3830,3847,3864,3880,3897,3914,3930,3948,3963,3981,3997,4014,4031,4047,4064,4080,4097,4115,4131,4148,4166,4181,4198,4215,4231,4248,4263,4281,4297,4315,4331,4348,4366,4380,4397,4414,4431,4448,4465,4481,4498,4515,4531,4549,4565,4582,4598,4616,4632,4648,4666,4682,4698,4717,4730,4747,4763,4781,4797,4815,4831,4847,4865,4881,4897,4916,4932,4948,4964,4981,4998,5014,5032,5045,5063,5081,5097,5115,5130,5147,5163,5180,5197,5213,5229,5247,5264,5280,5297,5314,5330,5347,5363,5380,5397,5414,5430,5447,5464,5481,5497,5514,5530,5546,5563,5580,5596,5613,5632,5648,5665,5680,5697,5715,5731,5747,5764,5781,5797,5814,5830,5847,5864,5880,5897,5914,5930,5946,5963,5981,5997,6015,6031,6046,6063,6080,6097,6114,6130,6149,6164,6182,6197,6214,6230,6246,6263,6280,6297,6315,6330,6348,6364,6380,6396,6414,6431,6447,6464,6481,6497,6514,6532,6548,6564,6581,6597,6614,6631,6648,6665,6681,6697,6713,6730,6746,6764,6781,6797,6814,6830,6847,6864,6881,6897,6914,6931,6947,6964,6982,6996,7014,7030,7048,7064,7080,7097,7114,7131,7147,7164,7181,7197,7214,7230,7247,7263,7280,7297,7314,7331,7346,7365,7381,7397,7414,7430,7447,7464,7481,7497,7513,7531,7548,7565,7581,7596,7614,7631,7646,7665,7681,7698,7715,7729,7746,7764,7780,7797,7814,7830,7847,7864,7881,7896,7912,7932,7947,7964,7981,7996,8014,8029,8046,8064,8080,8096,8112,8129,8146,8163,8181,8197,8213,8231,8247,8264,8280,8297,8314,8330,8347,8364,8381,8397,8414,8430,8445,8463,8481,8497,8514,8530,8547,8564,8581,8598,8614,8630,8646,8663,8680,8697,8713,8730,8746,8764,8780,8796,8814,8831,8847,8864,8880,8897,8913,8931,8946,8963,8981,8996,9014,9031,9046,9064,9080,9097,9115,9129,9147,9163,9180,9197,9213,9231,9246,9263,9281,9296,9314,9331,9345,9364,9379,9396,9413,9429,9446,9463,9479,9497,9514,9530,9547,9563,9579,9596,9613,9630,9646,9663,9681,9696,9713,9729,9746,9763,9780,9797,9814,9831,9847,9864,9882,9896,9914,9930,9947,9964,9980,9997,10014,10030,10046,10063,10080,10096,10113,10130,10147,10165,10181,10196,10213,10230,10246,10262,10280,10296,10314,10330,10347,10364,10380,10397,10414,10430,10447,10463,10481,10497,10514,10530,10546,10563,10580,10597,10614,10629,10646,10662,10679,10696,10713,10729,10747,10763,10780,10797,10814,10831,10847,10863,10881,10897,10914,10931,10947,10964,10980,10997,11014,11031,11047,11065,11082,11098,11115,11131,11147,11164,11182,11198,11215,11231,11247,11263,11281,11297,11315,11331,11347,11365,11381,11397,11414,11431,11447,11464,11482,11496,11513,11530,11546,11564,11581,11597,11614,11631,11646,11666,11681,11697,11714,11729,11746,11763,11781,11797,11814,11831,11847,11864,11881,11897,11915,11930,11947,11965,11981,11997,12014,12031,12047,12065,12081,12097,12114,12131,12148,12163,12180,12197,12214,12229,12246,12263,12281,12296,12314,12330,12346,12363,12380,12396,12413,12430,12446,12465,12480,12497,12513,12530,12546,12564,12579,12595,12612,12631,12646,12663,12680,12696,12713,12729,12746,12762,12780,12796,12814,12830,12846,12863,12880,12897,12915,12929,12946,12963,12980,12996,13014,13030,13047,13064,13080,13097,13114,13130,13145,13164,13180,13198,13214,13230,13246,13263,13280,13296,13314,13331,13345,13363,13380,13397,13414,13429,13447,13463,13480,13495,13513,13530,13546,13563,13580,13596,13613,13630,13646,13663,13681,13696,13715,13729,13746,13763,13781,13796,13814,13830,13846,13864,13880,13897,13914,13931,13946,13963,13980,13997,14014,14031,14048,14064,14081,14097,14115,14131,14147,14164,14181,14197,14215,14231,14248,14264,14280,14297,14313,14331,14347,14362,14379,14396,14413,14430,14447,14463,14479,14496,14512,14530,14546,14564,14581,14597,14613,14630,14647,14664,14679,14697,14713,14729,14746,14764,14780,14797,14814,14829,14846,14863,14881,14896,14912,14929,14946,14964,14979,14996,15013,15030,15046,15063,15080,15096,15114,15131,15146,15164,15181,15196,15214,15231,15246,15263,15280,15296,15315,15331,15347,15363,15380,15397,15414,15430,15447,15464,15480,15497,15514,15531,15547,15564,15580,15597,15614,15630,15647,15664,15681,15697,15712,15729,15746,15764,15781,15796,15815,15830,15846,15863,15880,15896,15914,15930,15946,15964,15980,15996,16015,16031,16046,16064,16080,16096,16113,16131,16147,16163,16180,16196,16213,16230,16246,16263,16281,16296,16315,16329,16346,16362,16379,16396,16414,16431,16447,16464,16480,16495,16514,16530,16546,16563,16580,16598,16613,16631,16647,16664,16679,16696,16712,16729,16745,16762,16780,16796,16813,16831,16847,16863,16880,16896,16913,16930,16946,16963,16980,16996,17013,17029,17046,17063,17080,17096,17113,17130,17147,17164,17181,17196,17214,17230,17249,17262,17279,17296,17313,17330,17347,17363,17379,17397,17413,17430,17446,17463,17480,17496,17514,17530,17546,17564,17581,17597,17614,17631,17646,17663,17680,17697,17714,17729,17745,17763,17780,17796,17814,17830,17847,17864,17880,17896,17914,17931,17947,17964,17981,17997,18013,18029,18047,18062,18079,18097,18114,18130,18147,18163,18180,18196,18213,18229,18246,18264,18280,18296,18314,18330,18347,18363,18380,18396,18413,18430,18447,18463,18480,18496,18512,18529,18546,18562,18580,18596,18613,18629,18646,18664,18681,18696,18712,18729,18746,18763,18780,18797,18813,18830,18846,18864,18880,18896,18914,18930,18946,18963,18981,18996,19014,19030,19047,19064,19080,19097,19114,19131,19147,19164,19180,19196,19214,19230,19246,19264,19280,19296,19314,19331,19347,19365,19380,19396,19413,19431,19446,19465,19480,19497,19514,19530,19546,19564,19580,19597,19614,19630,19647,19664,19680,19697,19712,19730,19746,19763,19780,19797,19813,19830,19846,19863,19879,19896,19913,19930,19947,19964,19978,19995,20012,20028,20045,20062,20080,20096,20113,20130,20147,20163,20180,20196,20214,20231,20246,20263,20280,20297,20314,20330,20346,20364,20380,20396,20413,20430,20446,20464,20480,20498,20514,20531,20546,20562,20578,20595,20612,20630,20646,20663,20680,20696,20713,20729,20745,20762,20779,20795,20813,20830,20846,20863,20879,20896,20912,20929,20945,20962,20979,20996,21014,21031,21047,21063,21080,21096,21112,21129,21145,21164,21178,21196,21213,21230,21246,21264,21279,21295,21312,21330,21346,21362,21378,21396,21412,21429,21445,21463,21480,21496,21514,21530,21547,21562,21579,21595,21613,21629,21647,21663,21680,21695,21712,21729,21745,21763,21779,21795,21813,21829,21846,21864,21880,21898,21913,21929,21946,21964,21981,21996,22013,22030,22045,22062,22081,22095,22112,22130,22146,22163,22181,22196,22213,22228,22247,22264,22280,22298,22313,22329,22346,22364,22381,22397,22413,22428,22446,22462,22480,22496,22514,22530,22546,22562,22579,22596,22613,22630,22647,22663,22679,22696,22714,22729,22746,22763,22779,22796,22812,22829,22845,22862,22880,22896,22912,22929,22945,22963,22979,22996,23013,23029,23046,23062,23080,23097,23112,23130,23146,23163,23181,23195,23214,23230,23245,23263,23279,23296,23312,23329,23346,23363,23380,23396,23413,23430,23447,23462,23480,23496,23513,23529,23546,23563,23580,23595,23613,23629,23646,23662,23680,23695,23713,23731,23746,23763,23779,23796,23814,23830,23847,23864,23881,23897,23913,23929,23947,23964,23980,23997,24014,24030,24047,24064,24080,24095,24111,24129,24145,24162,24178,24195,24212,24229,24245,24262,24279,24296,24313,24330,24346,24364,24380,24396,24413,24430,24447,24463,24480,24496,24513,24530,24546,24564,24580,24596,24615,24631,24648,24663,24680,24697,24715,24730,24746,24764,24781,24796,24812,24830,24846,24863,24880,24896,24913,24930,24946,24963,24980,24996,25013,25031,25046,25064,25079,25096,25113,25129,25147,25164,25180,25196,25213,25229,25246,25263,25280,25296,25313,25330,25347,25364,25380,25395,25412,25429,25446,25463,25481,25496,25512,25529,25546,25563,25580,25596,25612,25629,25646,25663,25680,25696,25714,25730],"hit":[null],"x":[-2.1496598639455784,-2.1496598639455784,-2.1496598639455784,-2.1496598639455784,-2.1496598639455784,-2.1496598639455784,-2.1496598639455784,-2.1496598639455784,-2.1496598639455784,-2.1496598639455784,-2.1496598639455784,-2.1496598639455784,-2.1496598639455784,-2.1496598639455784,-2.1496598639455784,-2.1496598639455784,-2.1496598639455784,-2.1496598639455784,-2.1496598639455784,-2.1496598639455784,-2.1496598639455784,-2.1496598639455784,-2.1496598639455784,-2.1496598639455784,-2.1496598639455784,-2.1496598639455784,-2.1496598639455784,-2.1496598639455784,-2.1496598639455784,-2.1496598639455784,-2.1496598639455784,-2.1496598639455784,-2.1496598639455784,-2.1496598639455784,-2.1496598639455784,-2.1496598639455784,-2.1496598639455784,-2.1496598639455784,-2.1496598639455784,-2.1496598639455784,-2.1496598639455784,-2.1496598639455784,-2.1496598639455784,-2.1496598639455784,-2.1496598639455784,-2.1496598639455784,-2.1496598639455784,-2.1496598639455784,-2.1496598639455784,-2.1496598639455784,-2.1496598639455784,-2.1496598639455784,-2.1496598639455784,-2.1496598639455784,-2.1496598639455784,-2.1496598639455784,-2.1496598639455784,-2.1496598639455784,-2.1496598639455784,-2.1496598639455784,-2.1496598639455784,-2.1496598639455784,-2.1496598639455784,-2.1496598639455784,-2.1496598639455784,-2.1496598639455784,-2.1496598639455784,-2.1496598639455784,-2.1496598639455784,-2.1496598639455784,-2.1496598639455784,-2.1496598639455784,-2.1496598639455784,-2.1496598639455784,-2.1496598639455784,-2.1496598639455784,-2.1496598639455784,-2.1496598639455784,-2.1496598639455784,-2.1496598639455784,-2.1496598639455784,-2.1496598639455784,-2.1496598639455784,-2.1496598639455784,-2.1496598639455784,-2.1496598639455784,-2.1496598639455784,-2.1496598639455784,-2.1496598639455784,-2.1496598639455784,-2.1496598639455784,-2.1496598639455784,-2.1496598639455784,-2.1496598639455784,-2.1496598639455784,-2.1496598639455784,-2.1496598639455784,-2.1496598639455784,-2.1496598639455784,-2.1496598639455784,-2.1496598639455784,-2.1496598639455784,-2.1496598639455784,-2.1496598639455784,-2.1496598639455784,-2.1496598639455784,-2.1496598639455784,-2.1496598639455784,-2.1496598639455784,-2.1496598639455784,-2.1496598639455784,-2.1496598639455784,-2.1496598639455784,-2.1496598639455784,-2.1496598639455784,-2.1496598639455784,-2.1496598639455784,-2.1496598639455784,-2.1496598639455784,-2.1496598639455784,-2.1496598639455784,-2.1496598639455784,-2.1496598639455784,-2.1496598639455784,-2.1496598639455784,-2.1496598639455784,-2.1496598639455784,-2.1496598639455784,-2.1496598639455784,-2.1496598639455784,-2.1496598639455784,-2.1496598639455784,-2.1496598639455784,-2.1496598639455784,-2.1496598639455784,-2.1496598639455784,-2.1496598639455784,-2.1496598639455784,-2.1496598639455784,-2.1496598639455784,-2.1496598639455784,-2.1496598639455784,-2.1496598639455784,-2.1496598639455784,-2.1496598639455784,-2.1496598639455784,-2.1496598639455784,-2.1496598639455784,-2.1496598639455784,-2.1496598639455784,-2.1496598639455784,-2.1496598639455784,-2.1496598639455784,-2.1496598639455784,-2.1496598639455784,-2.1496598639455784,-2.1496598639455784,-2.1496598639455784,-2.1496598639455784,-2.1496598639455784,-2.1496598639455784,-2.1496598639455784,-2.1496598639455784,-2.1496598639455784,-2.1496598639455784,-2.1496598639455784,-2.1496598639455784,-2.1496598639455784,-2.1496598639455784,-2.1496598639455784,-2.1496598639455784,-2.1496598639455784,-2.1496598639455784,-2.1496598639455784,-2.1496598639455784,-2.1496598639455784,-2.1496598639455784,0.04421768707482993,0.047619047619047616,0.061224489795918366,0.07482993197278912,0.08843537414965986,0.10204081632653061,0.12244897959183673,0.1598639455782313,0.2585034013605442,0.3945578231292517,0.4421768707482993,0.46258503401360546,0.46938775510204084,0.47278911564625853,0.47278911564625853,0.47278911564625853,0.47278911564625853,0.47278911564625853,0.47278911564625853,0.47278911564625853,0.47278911564625853,0.47278911564625853,0.47278911564625853,0.46598639455782315,0.4421768707482993,0.42517006802721086,0.41496598639455784,0.41156462585034015,0.40816326530612246,0.4013605442176871,0.3877551020408163,0.3673469387755102,0.35034013605442177,0.3333333333333333,0.3231292517006803,0.3197278911564626,0.3163265306122449,0.3163265306122449,0.3129251700680272,0.3129251700680272,0.3129251700680272,0.3129251700680272,0.30952380952380953,0.30952380952380953,0.30952380952380953,0.30952380952380953,0.30952380952380953,0.30952380952380953,0.30952380952380953,0.30952380952380953,0.30612244897959184,0.30612244897959184,0.30612244897959184,0.30612244897959184,0.30612244897959184,0.30612244897959184,0.30612244897959184,0.30612244897959184,0.30612244897959184,0.30612244897959184,0.30612244897959184,0.30612244897959184,0.30612244897959184,0.30612244897959184,0.30612244897959184,0.30612244897959184,0.30612244897959184,0.30612244897959184,0.30612244897959184,0.30612244897959184,0.30612244897959184,0.30612244897959184,0.30612244897959184,0.30612244897959184,0.30612244897959184,0.30612244897959184,0.30612244897959184,0.30612244897959184,0.30612244897959184,0.30612244897959184,0.30612244897959184,0.30612244897959184,0.30612244897959184,0.30612244897959184,0.30612244897959184,0.30612244897959184,0.30612244897959184,0.30612244897959184,0.30612244897959184,0.30612244897959184,0.30612244897959184,0.30612244897959184,0.30612244897959184,0.30612244897959184,0.30612244897959184,0.30612244897959184,0.30612244897959184,0.30612244897959184,0.30612244897959184,0.30612244897959184,0.30612244897959184,0.30612244897959184,0.30612244897959184,0.30612244897959184,0.30612244897959184,0.30612244897959184,0.30612244897959184,0.30612244897959184,0.30612244897959184,0.30612244897959184,0.30612244897959184,0.30612244897959184,0.30612244897959184,0.30612244897959184,0.30612244897959184,0.30612244897959184,0.30612244897959184,0.30612244897959184,0.30612244897959184,0.30612244897959184,0.30612244897959184,0.30612244897959184,0.30612244897959184,0.30612244897959184,0.30612244897959184,0.30612244897959184,0.30612244897959184,0.30612244897959184,0.30612244897959184,0.30612244897959184,0.30612244897959184,0.30612244897959184,0.30612244897959184,0.30612244897959184,0.30612244897959184,0.30612244897959184,0.25170068027210885,0.20748299319727892,0.17687074829931973,0.1598639455782313,0.14625850340136054,0.1360544217687075,0.1292517006802721,0.1292517006802721,0.12585034013605442,0.12585034013605442,0.12244897959183673,0.11224489795918367,0.1054421768707483,0.10204081632653061,0.09863945578231292,0.09863945578231292,0.09863945578231292,0.09523809523809523,0.09523809523809523,0.09183673469387756,0.08843537414965986,0.08503401360544217,0.08163265306122448,0.0782312925170068,0.07482993197278912,0.07142857142857142,0.06802721088435375,0.06462585034013606,0.061224489795918366,0.05782312925170068,0.05442176870748299,0.05102040816326531,0.05102040816326531,0.047619047619047616,0.047619047619047616,0.04421768707482993,0.04421768707482993,0.04421768707482993,0.04421768707482993,0.04081632653061224,0.04081632653061224,0.03741496598639456,0.034013605442176874,0.030612244897959183,0.030612244897959183,0.027210884353741496,0.027210884353741496,0.027210884353741496,0.023809523809523808,0.023809523809523808,0.023809523809523808,0.023809523809523808,0.023809523809523808,0.023809523809523808,0.023809523809523808,0.023809523809523808,0.023809523809523808,0.023809523809523808,0.023809523809523808,0.023809523809523808,0.023809523809523808,0.023809523809523808,0.023809523809523808,0.023809523809523808,0.023809523809523808,0.023809523809523808,0.023809523809523808,0.023809523809523808,0.023809523809523808,0.023809523809523808,0.023809523809523808,0.023809523809523808,0.023809523809523808,0.023809523809523808,0.023809523809523808,0.023809523809523808,0.023809523809523808,0.023809523809523808,0.023809523809523808,0.023809523809523808,0.023809523809523808,0.023809523809523808,0.023809523809523808,0.023809523809523808,0.023809523809523808,0.023809523809523808,0.023809523809523808,0.023809523809523808,0.023809523809523808,0.023809523809523808,0.023809523809523808,0.023809523809523808,0.023809523809523808,0.023809523809523808,0.023809523809523808,0.023809523809523808,0.023809523809523808,0.023809523809523808,0.023809523809523808,0.023809523809523808,0.023809523809523808,0.023809523809523808,0.023809523809523808,0.023809523809523808,0.023809523809523808,0.023809523809523808,0.023809523809523808,0.023809523809523808,0.023809523809523808,0.023809523809523808,0.023809523809523808,0.023809523809523808,0.023809523809523808,0.023809523809523808,0.023809523809523808,0.023809523809523808,0.023809523809523808,0.023809523809523808,0.023809523809523808,0.023809523809523808,0.023809523809523808,0.023809523809523808,0.023809523809523808,0.023809523809523808,0.023809523809523808,0.023809523809523808,0.023809523809523808,0.023809523809523808,0.023809523809523808,0.023809523809523808,0.023809523809523808,0.023809523809523808,0.023809523809523808,0.023809523809523808,0.023809523809523808,0.023809523809523808,0.023809523809523808,0.023809523809523808,0.023809523809523808,0.023809523809523808,0.023809523809523808,0.023809523809523808,0.023809523809523808,0.023809523809523808,0.023809523809523808,0.023809523809523808,0.023809523809523808,0.023809523809523808,0.023809523809523808,0.023809523809523808,0.023809523809523808,0.023809523809523808,0.023809523809523808,0.023809523809523808,0.023809523809523808,0.023809523809523808,0.023809523809523808,0.023809523809523808,0.023809523809523808,0.023809523809523808,0.023809523809523808,0.023809523809523808,0.023809523809523808,0.023809523809523808,0.023809523809523808,0.023809523809523808,0.023809523809523808,0.023809523809523808,0.023809523809523808,0.023809523809523808,0.023809523809523808,0.023809523809523808,0.023809523809523808,0.023809523809523808,0.023809523809523808,0.023809523809523808,0.023809523809523808,0.023809523809523808,0.023809523809523808,0.023809523809523808,0.023809523809523808,0.023809523809523808,0.023809523809523808,0.023809523809523808,0.023809523809523808,0.023809523809523808,0.023809523809523808,0.023809523809523808,0.023809523809523808,0.023809523809523808,0.023809523809523808,0.023809523809523808,0.023809523809523808,0.023809523809523808,0.023809523809523808,0.023809523809523808,0.023809523809523808,0.023809523809523808,0.023809523809523808,0.023809523809523808,0.023809523809523808,0.023809523809523808,0.023809523809523808,0.023809523809523808,0.023809523809523808,0.023809523809523808,0.023809523809523808,0.023809523809523808,0.023809523809523808,0.023809523809523808,0.023809523809523808,0.023809523809523808,0.023809523809523808,0.023809523809523808,0.023809523809523808,0.023809523809523808,0.023809523809523808,0.023809523809523808,0.023809523809523808,0.023809523809523808,0.023809523809523808,0.023809523809523808,0.023809523809523808,0.023809523809523808,0.023809523809523808,0.027210884353741496,0.027210884353741496,0.030612244897959183,0.030612244897959183,0.030612244897959183,0.034013605442176874,0.034013605442176874,0.03741496598639456,0.03741496598639456,0.03741496598639456,0.03741496598639456,0.03741496598639456,0.03741496598639456,0.04081632653061224,0.04081632653061224,0.04081632653061224,0.04421768707482993,0.047619047619047616,0.05102040816326531,0.05442176870748299,0.05782312925170068,0.061224489795918366,0.06462585034013606,0.0782312925170068,0.08503401360544217,0.09863945578231292,0.1054421768707483,0.10884353741496598,0.11224489795918367,0.11564625850340136,0.11904761904761904,0.12585034013605442,0.12585034013605442,0.12585034013605442,0.12585034013605442,0.12585034013605442,0.12585034013605442,0.12585034013605442,0.12585034013605442,0.12585034013605442,0.12585034013605442,0.12585034013605442,0.12585034013605442,0.12585034013605442,0.12585034013605442,0.12585034013605442,0.12585034013605442,0.12585034013605442,0.12585034013605442,0.12585034013605442,0.12585034013605442,0.12585034013605442,0.19727891156462585,0.2619047619047619,0.30952380952380953,0.3469387755102041,0.37755102040816324,0.3979591836734694,0.4217687074829932,0.4557823129251701,0.46938775510204084,0.48299319727891155,0.4897959183673469,0.4931972789115646,0.4965986394557823,0.4965986394557823,0.5,0.5,0.5,0.5,0.5034013605442177,0.5034013605442177,0.5170068027210885,0.5272108843537415,0.5340136054421769,0.5374149659863946,0.5408163265306123,0.5408163265306123,0.54421768707483,0.54421768707483,0.54421768707483,0.5476190476190477,0.5476190476190477,0.5476190476190477,0.5476190476190477,0.5476190476190477,0.5510204081632653,0.5510204081632653,0.5510204081632653,0.5510204081632653,0.5544217687074829,0.5544217687074829,0.5544217687074829,0.5578231292517006,0.5578231292517006,0.5578231292517006,0.5578231292517006,0.5578231292517006,0.5578231292517006,0.5578231292517006,0.5578231292517006,0.5578231292517006,0.5578231292517006,0.5578231292517006,0.5578231292517006,0.5578231292517006,0.5578231292517006,0.5578231292517006,0.5578231292517006,0.5578231292517006,0.5578231292517006,0.5578231292517006,0.5578231292517006,0.5578231292517006,0.5578231292517006,0.5578231292517006,0.5578231292517006,0.5578231292517006,0.5578231292517006,0.5578231292517006,0.5578231292517006,0.5578231292517006,0.5578231292517006,0.5578231292517006,0.5578231292517006,0.5578231292517006,0.5578231292517006,0.5578231292517006,0.5578231292517006,0.5578231292517006,0.5578231292517006,0.5578231292517006,0.5578231292517006,0.5578231292517006,0.5578231292517006,0.5578231292517006,0.5578231292517006,0.5578231292517006,0.5578231292517006,0.5578231292517006,0.5578231292517006,0.5578231292517006,0.5578231292517006,0.5578231292517006,0.5578231292517006,0.5578231292517006,0.5578231292517006,0.5578231292517006,0.5578231292517006,0.5578231292517006,0.5578231292517006,0.5578231292517006,0.5578231292517006,0.5578231292517006,0.5578231292517006,0.5578231292517006,0.5578231292517006,0.5578231292517006,0.5578231292517006,0.5578231292517006,0.5578231292517006,0.5578231292517006,0.5578231292517006,0.5578231292517006,0.5578231292517006,0.5578231292517006,0.5578231292517006,0.5578231292517006,0.5578231292517006,0.5578231292517006,0.5578231292517006,0.5578231292517006,0.5578231292517006,0.5578231292517006,0.5578231292517006,0.5578231292517006,0.5578231292517006,0.5578231292517006,0.5578231292517006,0.5578231292517006,0.5578231292517006,0.5578231292517006,0.5578231292517006,0.5578231292517006,0.5578231292517006,0.5578231292517006,0.5578231292517006,0.5578231292517006,0.5578231292517006,0.5578231292517006,0.5578231292517006,0.5578231292517006,0.5578231292517006,0.5578231292517006,0.5578231292517006,0.5578231292517006,0.673469387755102,0.7891156462585034,0.8503401360544217,0.891156462585034,0.9319727891156463,0.9659863945578231,0.9931972789115646,1.0034013605442176,1.010204081632653,1.0136054421768708,1.0136054421768708,1.0136054421768708,1.0136054421768708,1.0136054421768708,1.0136054421768708,1.0136054421768708,1.0136054421768708,1.0136054421768708,1.0136054421768708,1.0136054421768708,1.0068027210884354,1.0068027210884354,1.0034013605442176,0.9829931972789115,0.9523809523809523,0.9149659863945578,0.8775510204081632,0.8367346938775511,0.7789115646258503,0.6700680272108843,0.6292517006802721,0.5204081632653061,0.45918367346938777,0.40476190476190477,0.36394557823129253,0.3299319727891156,0.29931972789115646,0.272108843537415,0.25170068027210885,0.23809523809523808,0.22789115646258504,0.22448979591836735,0.22448979591836735,0.22448979591836735,0.22448979591836735,0.22448979591836735,0.22448979591836735,0.22448979591836735,0.22448979591836735,0.22448979591836735,0.22448979591836735,0.22448979591836735,0.22448979591836735,0.23129251700680273,0.23809523809523808,0.24489795918367346,0.24829931972789115,0.25170068027210885,0.25510204081632654,0.2585034013605442,0.2585034013605442,0.2619047619047619,0.2619047619047619,0.2619047619047619,0.2653061224489796,0.2653061224489796,0.2653061224489796,0.2653061224489796,0.2653061224489796,0.2687074829931973,0.2687074829931973,0.2687074829931973,0.2687074829931973,0.2687074829931973,0.2687074829931973,0.2687074829931973,0.2687074829931973,0.2687074829931973,0.2687074829931973,0.2687074829931973,0.2687074829931973,0.2687074829931973,0.2687074829931973,0.2687074829931973,0.2687074829931973,0.2687074829931973,0.2687074829931973,0.2687074829931973,0.2687074829931973,0.2687074829931973,0.2687074829931973,0.2687074829931973,0.2687074829931973,0.2687074829931973,0.2687074829931973,0.2687074829931973,0.2687074829931973,0.2687074829931973,0.2687074829931973,0.2687074829931973,0.2687074829931973,0.2687074829931973,0.2687074829931973,0.2687074829931973,0.2687074829931973,0.2687074829931973,0.2687074829931973,0.2687074829931973,0.2687074829931973,0.2687074829931973,0.2687074829931973,0.2687074829931973,0.2687074829931973,0.2687074829931973,0.2687074829931973,0.2687074829931973,0.2687074829931973,0.2687074829931973,0.2687074829931973,0.2687074829931973,0.2687074829931973,0.2687074829931973,0.2687074829931973,0.2687074829931973,0.2687074829931973,0.2687074829931973,0.2687074829931973,0.2687074829931973,0.2687074829931973,0.2687074829931973,0.2687074829931973,0.2789115646258503,0.3129251700680272,0.3435374149659864,0.36054421768707484,0.3707482993197279,0.37755102040816324,0.38095238095238093,0.38095238095238093,0.38095238095238093,0.3843537414965986,0.3843537414965986,0.3877551020408163,0.3877551020408163,0.391156462585034,0.3979591836734694,0.4013605442176871,0.40476190476190477,0.40476190476190477,0.41156462585034015,0.41156462585034015,0.41496598639455784,0.41496598639455784,0.41496598639455784,0.41496598639455784,0.41496598639455784,0.41496598639455784,0.41496598639455784,0.41496598639455784,0.41496598639455784,0.41496598639455784,0.41496598639455784,0.41496598639455784,0.41496598639455784,0.41496598639455784,0.41496598639455784,0.41496598639455784,0.41496598639455784,0.41496598639455784,0.41496598639455784,0.41496598639455784,0.41496598639455784,0.41496598639455784,0.41496598639455784,0.41496598639455784,0.41496598639455784,0.41496598639455784,0.41496598639455784,0.41496598639455784,0.41496598639455784,0.41496598639455784,0.41496598639455784,0.41496598639455784,0.41496598639455784,0.41496598639455784,0.41496598639455784,0.41496598639455784,0.41496598639455784,0.41496598639455784,0.41496598639455784,0.41496598639455784,0.41496598639455784,0.41496598639455784,0.41496598639455784,0.41496598639455784,0.41496598639455784,0.41496598639455784,0.41496598639455784,0.41496598639455784,0.41496598639455784,0.41496598639455784,0.41496598639455784,0.41496598639455784,0.41496598639455784,0.41496598639455784,0.41496598639455784,0.41496598639455784,0.41496598639455784,0.41496598639455784,0.41496598639455784,0.41496598639455784,0.41496598639455784,0.41496598639455784,0.41496598639455784,0.41496598639455784,0.41496598639455784,0.41496598639455784,0.41496598639455784,0.41496598639455784,0.41496598639455784,0.41496598639455784,0.41496598639455784,0.41496598639455784,0.41496598639455784,0.41496598639455784,0.41496598639455784,0.41496598639455784,0.41496598639455784,0.41496598639455784,0.41496598639455784,0.41496598639455784,0.41496598639455784,0.41496598639455784,0.41496598639455784,0.41496598639455784,0.41496598639455784,0.41496598639455784,0.41496598639455784,0.41496598639455784,0.47619047619047616,0.5578231292517006,0.6122448979591837,0.6564625850340136,0.6904761904761905,0.7108843537414966,0.7244897959183674,0.7346938775510204,0.7448979591836735,0.7585034013605442,0.7687074829931972,0.7789115646258503,0.7925170068027211,0.7959183673469388,0.7993197278911565,0.7993197278911565,0.8027210884353742,0.8027210884353742,0.8061224489795918,0.8061224489795918,0.8061224489795918,0.8061224489795918,0.8061224489795918,0.8061224489795918,0.8061224489795918,0.8061224489795918,0.8061224489795918,0.8061224489795918,0.8061224489795918,0.8095238095238095,0.8129251700680272,0.8231292517006803,0.8299319727891157,0.8299319727891157,0.8333333333333334,0.8367346938775511,0.8401360544217688,0.8401360544217688,0.8401360544217688,0.8401360544217688,0.8401360544217688,0.8401360544217688,0.8401360544217688,0.8401360544217688,0.8401360544217688,0.8401360544217688,0.8401360544217688,0.8401360544217688,0.8401360544217688,0.8401360544217688,0.8401360544217688,0.8401360544217688,0.8401360544217688,0.8401360544217688,0.8401360544217688,0.8401360544217688,0.8401360544217688,0.8401360544217688,0.8401360544217688,0.8401360544217688,0.8401360544217688,0.8401360544217688,0.8401360544217688,0.8401360544217688,0.8401360544217688,0.8401360544217688,0.8401360544217688,0.8401360544217688,0.8401360544217688,0.8401360544217688,0.8401360544217688,0.8401360544217688,0.8401360544217688,0.8401360544217688,0.8401360544217688,0.8401360544217688,0.8401360544217688,0.8401360544217688,0.8401360544217688,0.8401360544217688,0.8401360544217688,0.8401360544217688,0.8401360544217688,0.8401360544217688,0.8401360544217688,0.8401360544217688,0.8401360544217688,0.8401360544217688,0.8401360544217688,0.8401360544217688,0.8401360544217688,0.8401360544217688,0.8401360544217688,0.8401360544217688,0.8401360544217688,0.8401360544217688,0.8401360544217688,0.8401360544217688,0.8401360544217688,0.8401360544217688,0.8401360544217688,0.8401360544217688,0.8401360544217688,0.8401360544217688,0.8401360544217688,0.8401360544217688,0.8571428571428571,0.9047619047619048,0.9591836734693877,1.0068027210884354,1.0442176870748299,1.0680272108843538,1.08843537414966,1.0952380952380953,1.1020408163265305,1.1054421768707483,1.1088435374149659,1.1156462585034013,1.1224489795918366,1.1224489795918366,1.1258503401360545,1.129251700680272,1.1326530612244898,1.1326530612244898,1.1360544217687074,1.1360544217687074,1.1360544217687074,1.1360544217687074,1.1360544217687074,1.1360544217687074,1.1360544217687074,1.1360544217687074,1.1360544217687074,1.1360544217687074,1.1360544217687074,1.1360544217687074,1.1360544217687074,1.1360544217687074,1.1360544217687074,1.1360544217687074,1.1360544217687074,1.1360544217687074,1.1360544217687074,1.1360544217687074,1.1360544217687074,1.1360544217687074,1.1360544217687074,1.1360544217687074,1.1360544217687074,1.1360544217687074,1.1360544217687074,1.1360544217687074,1.1360544217687074,1.1360544217687074,1.1360544217687074,1.1360544217687074,1.1360544217687074,1.1360544217687074,1.1360544217687074,1.1360544217687074,1.1360544217687074,1.1360544217687074,1.1360544217687074,1.1360544217687074,1.1360544217687074,1.1360544217687074,1.1360544217687074,1.1360544217687074,1.1360544217687074,1.1360544217687074,1.1360544217687074,1.1360544217687074,1.1360544217687074,1.1360544217687074,1.1360544217687074,1.1360544217687074,1.1360544217687074,1.1360544217687074,1.1360544217687074,1.1360544217687074,1.1360544217687074,1.1360544217687074,1.1360544217687074,1.1360544217687074,1.1360544217687074,1.1360544217687074,1.1360544217687074,1.1360544217687074,1.1360544217687074,1.1360544217687074,1.1360544217687074,1.1360544217687074,1.1360544217687074,1.1360544217687074,1.1360544217687074,1.1360544217687074,1.1360544217687074,1.1360544217687074,1.1360544217687074,1.1360544217687074,1.1360544217687074,1.1360544217687074,1.1360544217687074,1.1360544217687074,1.1360544217687074,1.1360544217687074,1.1360544217687074,1.1360544217687074,1.1360544217687074,1.1360544217687074,1.1360544217687074,1.1360544217687074,1.1360544217687074,1.1360544217687074,1.1360544217687074,1.1360544217687074,1.1360544217687074,1.1360544217687074,1.1360544217687074,1.1360544217687074,1.1360544217687074,1.1360544217687074,1.1360544217687074,1.1360544217687074,1.1360544217687074,1.1360544217687074,1.1360544217687074,1.1360544217687074,1.1360544217687074,1.1360544217687074,1.1360544217687074,1.1360544217687074,1.1360544217687074,1.1360544217687074,1.1360544217687074,1.1360544217687074,1.1360544217687074,1.1360544217687074,1.1360544217687074,1.1360544217687074,1.1360544217687074,1.1360544217687074,1.1360544217687074,1.1360544217687074,1.1360544217687074,1.1360544217687074,1.1360544217687074,1.1360544217687074,1.1360544217687074,1.1360544217687074,1.1360544217687074,1.1360544217687074,1.1360544217687074,1.1360544217687074,1.1360544217687074,1.1360544217687074,1.1360544217687074,1.1156462585034013,1.0374149659863945,0.9659863945578231,0.8843537414965986,0.7789115646258503,0.6258503401360545,0.5680272108843537,0.4421768707482993,0.3843537414965986,0.36394557823129253,0.35714285714285715,0.35374149659863946,0.35374149659863946,0.35374149659863946,0.35374149659863946,0.35034013605442177,0.3333333333333333,0.32653061224489793,0.29931972789115646,0.2857142857142857,0.2789115646258503,0.2755102040816326,0.2755102040816326,0.272108843537415,0.272108843537415,0.272108843537415,0.272108843537415,0.2891156462585034,0.3163265306122449,0.35714285714285715,0.42857142857142855,0.5,0.564625850340136,0.6190476190476191,0.673469387755102,0.7210884353741497,0.7687074829931972,0.8197278911564626,0.8367346938775511,0.8537414965986394,0.8605442176870748,0.8673469387755102,0.8673469387755102,0.8673469387755102,0.8707482993197279,0.8707482993197279,0.8809523809523809,0.8979591836734694,0.9149659863945578,0.9387755102040817,0.9489795918367347,0.95578231292517,0.9659863945578231,0.9761904761904762,0.9829931972789115,0.9829931972789115,0.9863945578231292,0.9897959183673469,0.9897959183673469,0.9897959183673469,0.9931972789115646,0.9931972789115646,0.9931972789115646,0.9931972789115646,0.9931972789115646,0.9931972789115646,0.9931972789115646,0.9931972789115646,0.9931972789115646,0.9931972789115646,0.9931972789115646,0.9931972789115646,0.9931972789115646,0.9931972789115646,0.9931972789115646,0.9931972789115646,0.9931972789115646,0.9931972789115646,0.9931972789115646,0.9931972789115646,0.9931972789115646,0.9931972789115646,0.9931972789115646,0.9931972789115646,0.9931972789115646,0.9931972789115646,0.9931972789115646,0.9931972789115646,0.9489795918367347,0.891156462585034,0.8435374149659864,0.7857142857142857,0.7244897959183674,0.6666666666666666,0.5986394557823129,0.5680272108843537,0.5510204081632653,0.5408163265306123,0.5374149659863946,0.5340136054421769,0.5306122448979592,0.5238095238095238,0.5204081632653061,0.5170068027210885,0.5170068027210885,0.5170068027210885,0.5136054421768708,0.5136054421768708,0.5136054421768708,0.5136054421768708,0.5136054421768708,0.5136054421768708,0.5136054421768708,0.5136054421768708,0.5238095238095238,0.5374149659863946,0.5476190476190477,0.5578231292517006,0.5714285714285714,0.5748299319727891,0.5816326530612245,0.5816326530612245,0.5816326530612245,0.5850340136054422,0.5850340136054422,0.5850340136054422,0.5850340136054422,0.5850340136054422,0.5850340136054422,0.5850340136054422,0.5850340136054422,0.5850340136054422,0.5850340136054422,0.5850340136054422,0.5850340136054422,0.5850340136054422,0.5850340136054422,0.5850340136054422,0.5850340136054422,0.5850340136054422,0.5850340136054422,0.5850340136054422,0.5680272108843537,0.48299319727891155,0.38095238095238093,0.32653061224489793,0.2925170068027211,0.25170068027210885,0.23809523809523808,0.22789115646258504,0.22108843537414966,0.21428571428571427,0.2108843537414966,0.2108843537414966,0.20748299319727892,0.20748299319727892,0.20748299319727892,0.20408163265306123,0.20408163265306123,0.20408163265306123,0.20408163265306123,0.20408163265306123,0.20408163265306123,0.20068027210884354,0.1870748299319728,0.17006802721088435,0.14965986394557823,0.1292517006802721,0.12244897959183673,0.12244897959183673,0.11904761904761904,0.11904761904761904,0.11904761904761904,0.11904761904761904,0.11904761904761904,0.11904761904761904,0.11904761904761904,0.11904761904761904,0.11904761904761904,0.12244897959183673,0.12244897959183673,0.12244897959183673,0.12585034013605442,0.12585034013605442,0.12585034013605442,0.12585034013605442,0.12585034013605442,0.12585034013605442,0.12585034013605442,0.12585034013605442,0.12585034013605442,0.12585034013605442,0.12585034013605442,0.12585034013605442,0.12585034013605442,0.12585034013605442,0.12585034013605442,0.12585034013605442,0.12585034013605442,0.12585034013605442,0.12585034013605442,0.12585034013605442,0.12585034013605442,0.12585034013605442,0.12585034013605442,0.12585034013605442,0.12585034013605442,0.12585034013605442,0.12585034013605442,0.12585034013605442,0.12585034013605442,0.12585034013605442,0.12585034013605442,0.12585034013605442,0.12585034013605442,0.12585034013605442,0.12585034013605442,0.12585034013605442,0.12585034013605442,0.12585034013605442,0.12585034013605442,0.12585034013605442,0.12585034013605442,0.12585034013605442,0.12585034013605442,0.12585034013605442,0.12585034013605442,0.12585034013605442,0.12585034013605442,0.12585034013605442,0.12585034013605442,0.12585034013605442,0.12585034013605442,0.12585034013605442,0.12585034013605442,0.12585034013605442,0.12585034013605442,0.12585034013605442,0.12585034013605442,0.12585034013605442,0.12585034013605442,0.12585034013605442,0.12585034013605442,0.12585034013605442,0.12585034013605442,0.12585034013605442,0.12585034013605442,0.12585034013605442,0.12585034013605442,0.12585034013605442,0.12585034013605442,0.12585034013605442,0.12585034013605442,0.12585034013605442,0.12585034013605442,0.12585034013605442,0.12585034013605442,0.12585034013605442,0.12585034013605442,0.12585034013605442,0.12585034013605442,0.12585034013605442,0.12585034013605442,0.12585034013605442,0.12585034013605442,0.12585034013605442,0.12585034013605442,0.12585034013605442,0.12585034013605442,0.12585034013605442,0.12585034013605442,0.12585034013605442,0.12585034013605442,0.12585034013605442,0.12585034013605442,0.12585034013605442,0.12585034013605442,0.12585034013605442,0.12585034013605442,0.12585034013605442,0.12585034013605442,0.12585034013605442,0.12585034013605442,0.12585034013605442,0.12585034013605442,0.12585034013605442,0.12585034013605442,0.12585034013605442,0.12585034013605442,0.12585034013605442,0.12585034013605442,0.12585034013605442,0.12585034013605442,0.12585034013605442,0.12585034013605442,0.12585034013605442,0.12585034013605442,0.12585034013605442,0.12585034013605442,0.12585034013605442,0.12585034013605442,0.12585034013605442,0.12585034013605442,0.12585034013605442,0.12585034013605442,0.12585034013605442,0.12585034013605442,0.12585034013605442,0.12585034013605442,0.12585034013605442,0.12585034013605442,0.12585034013605442,0.12585034013605442,0.12585034013605442],"y":[-3.5714285714285716,-3.5714285714285716,-3.5714285714285716,-3.5714285714285716,-3.5714285714285716,-3.5714285714285716,-3.5714285714285716,-3.5714285714285716,-3.5714285714285716,-3.5714285714285716,-3.5714285714285716,-3.5714285714285716,-3.5714285714285716,-3.5714285714285716,-3.5714285714285716,-3.5714285714285716,-3.5714285714285716,-3.5714285714285716,-3.5714285714285716,-3.5714285714285716,-3.5714285714285716,-3.5714285714285716,-3.5714285714285716,-3.5714285714285716,-3.5714285714285716,-3.5714285714285716,-3.5714285714285716,-3.5714285714285716,-3.5714285714285716,-3.5714285714285716,-3.5714285714285716,-3.5714285714285716,-3.5714285714285716,-3.5714285714285716,-3.5714285714285716,-3.5714285714285716,-3.5714285714285716,-3.5714285714285716,-3.5714285714285716,-3.5714285714285716,-3.5714285714285716,-3.5714285714285716,-3.5714285714285716,-3.5714285714285716,-3.5714285714285716,-3.5714285714285716,-3.5714285714285716,-3.5714285714285716,-3.5714285714285716,-3.5714285714285716,-3.5714285714285716,-3.5714285714285716,-3.5714285714285716,-3.5714285714285716,-3.5714285714285716,-3.5714285714285716,-3.5714285714285716,-3.5714285714285716,-3.5714285714285716,-3.5714285714285716,-3.5714285714285716,-3.5714285714285716,-3.5714285714285716,-3.5714285714285716,-3.5714285714285716,-3.5714285714285716,-3.5714285714285716,-3.5714285714285716,-3.5714285714285716,-3.5714285714285716,-3.5714285714285716,-3.5714285714285716,-3.5714285714285716,-3.5714285714285716,-3.5714285714285716,-3.5714285714285716,-3.5714285714285716,-3.5714285714285716,-3.5714285714285716,-3.5714285714285716,-3.5714285714285716,-3.5714285714285716,-3.5714285714285716,-3.5714285714285716,-3.5714285714285716,-3.5714285714285716,-3.5714285714285716,-3.5714285714285716,-3.5714285714285716,-3.5714285714285716,-3.5714285714285716,-3.5714285714285716,-3.5714285714285716,-3.5714285714285716,-3.5714285714285716,-3.5714285714285716,-3.5714285714285716,-3.5714285714285716,-3.5714285714285716,-3.5714285714285716,-3.5714285714285716,-3.5714285714285716,-3.5714285714285716,-3.5714285714285716,-3.5714285714285716,-3.5714285714285716,-3.5714285714285716,-3.5714285714285716,-3.5714285714285716,-3.5714285714285716,-3.5714285714285716,-3.5714285714285716,-3.5714285714285716,-3.5714285714285716,-3.5714285714285716,-3.5714285714285716,-3.5714285714285716,-3.5714285714285716,-3.5714285714285716,-3.5714285714285716,-3.5714285714285716,-3.5714285714285716,-3.5714285714285716,-3.5714285714285716,-3.5714285714285716,-3.5714285714285716,-3.5714285714285716,-3.5714285714285716,-3.5714285714285716,-3.5714285714285716,-3.5714285714285716,-3.5714285714285716,-3.5714285714285716,-3.5714285714285716,-3.5714285714285716,-3.5714285714285716,-3.5714285714285716,-3.5714285714285716,-3.5714285714285716,-3.5714285714285716,-3.5714285714285716,-3.5714285714285716,-3.5714285714285716,-3.5714285714285716,-3.5714285714285716,-3.5714285714285716,-3.5714285714285716,-3.5714285714285716,-3.5714285714285716,-3.5714285714285716,-3.5714285714285716,-3.5714285714285716,-3.5714285714285716,-3.5714285714285716,-3.5714285714285716,-3.5714285714285716,-3.5714285714285716,-3.5714285714285716,-3.5714285714285716,-3.5714285714285716,-3.5714285714285716,-3.5714285714285716,-3.5714285714285716,-3.5714285714285716,-3.5714285714285716,-3.5714285714285716,-3.5714285714285716,-3.5714285714285716,-3.5714285714285716,-3.5714285714285716,-3.5714285714285716,-3.5714285714285716,-3.5714285714285716,-3.5714285714285716,-3.5714285714285716,-3.5714285714285716,-3.5714285714285716,0.5,0.5,0.49047619047619045,0.48095238095238096,0.46190476190476193,0.4523809523809524,0.4142857142857143,0.35714285714285715,0.19523809523809524,-0.07142857142857142,-0.15714285714285714,-0.19523809523809524,-0.21428571428571427,-0.22380952380952382,-0.22380952380952382,-0.22380952380952382,-0.22380952380952382,-0.22380952380952382,-0.22380952380952382,-0.22380952380952382,-0.22380952380952382,-0.21428571428571427,-0.21428571428571427,-0.18571428571428572,-0.16666666666666666,-0.14761904761904762,-0.1380952380952381,-0.1380952380952381,-0.1380952380952381,-0.12857142857142856,-0.10952380952380952,-0.09047619047619047,-0.05238095238095238,-0.023809523809523808,-0.004761904761904762,-0.004761904761904762,-0.004761904761904762,-0.004761904761904762,-0.004761904761904762,-0.004761904761904762,-0.004761904761904762,-0.004761904761904762,-0.004761904761904762,-0.004761904761904762,-0.004761904761904762,-0.004761904761904762,-0.004761904761904762,-0.004761904761904762,-0.004761904761904762,-0.004761904761904762,-0.004761904761904762,-0.004761904761904762,-0.004761904761904762,-0.004761904761904762,-0.004761904761904762,-0.004761904761904762,-0.004761904761904762,-0.004761904761904762,-0.004761904761904762,-0.004761904761904762,-0.004761904761904762,-0.004761904761904762,-0.004761904761904762,-0.004761904761904762,-0.004761904761904762,-0.004761904761904762,-0.004761904761904762,-0.004761904761904762,-0.004761904761904762,-0.004761904761904762,-0.004761904761904762,-0.004761904761904762,-0.004761904761904762,-0.004761904761904762,-0.004761904761904762,-0.004761904761904762,-0.004761904761904762,-0.004761904761904762,-0.004761904761904762,-0.004761904761904762,-0.004761904761904762,-0.004761904761904762,-0.004761904761904762,-0.004761904761904762,-0.004761904761904762,-0.004761904761904762,-0.004761904761904762,-0.004761904761904762,-0.004761904761904762,-0.004761904761904762,-0.004761904761904762,-0.004761904761904762,-0.004761904761904762,-0.004761904761904762,-0.004761904761904762,-0.004761904761904762,-0.004761904761904762,-0.004761904761904762,-0.004761904761904762,-0.004761904761904762,-0.004761904761904762,-0.004761904761904762,-0.004761904761904762,-0.004761904761904762,-0.004761904761904762,-0.004761904761904762,-0.004761904761904762,-0.004761904761904762,-0.004761904761904762,-0.004761904761904762,-0.004761904761904762,-0.004761904761904762,-0.004761904761904762,-0.004761904761904762,-0.004761904761904762,-0.004761904761904762,-0.004761904761904762,-0.004761904761904762,-0.004761904761904762,-0.004761904761904762,-0.004761904761904762,-0.004761904761904762,-0.004761904761904762,-0.004761904761904762,-0.004761904761904762,-0.004761904761904762,-0.004761904761904762,-0.004761904761904762,-0.004761904761904762,-0.004761904761904762,-0.004761904761904762,-0.004761904761904762,-0.004761904761904762,-0.004761904761904762,-0.004761904761904762,-0.004761904761904762,0.014285714285714285,0.023809523809523808,0.023809523809523808,0.023809523809523808,0.023809523809523808,0.023809523809523808,0.023809523809523808,0.023809523809523808,0.014285714285714285,0.014285714285714285,0.014285714285714285,0.014285714285714285,0.014285714285714285,0.014285714285714285,0.014285714285714285,0.014285714285714285,0.014285714285714285,0.014285714285714285,0.014285714285714285,0.014285714285714285,0.014285714285714285,0.014285714285714285,0.014285714285714285,0.014285714285714285,0.014285714285714285,0.014285714285714285,0.014285714285714285,0.014285714285714285,0.014285714285714285,0.014285714285714285,0.014285714285714285,0.014285714285714285,0.014285714285714285,0.014285714285714285,0.014285714285714285,0.014285714285714285,0.014285714285714285,0.014285714285714285,0.014285714285714285,0.014285714285714285,0.004761904761904762,0.004761904761904762,0.004761904761904762,-0.004761904761904762,-0.004761904761904762,-0.004761904761904762,-0.004761904761904762,-0.004761904761904762,-0.004761904761904762,-0.004761904761904762,-0.004761904761904762,-0.004761904761904762,-0.004761904761904762,-0.004761904761904762,-0.004761904761904762,-0.004761904761904762,-0.004761904761904762,-0.004761904761904762,-0.004761904761904762,-0.004761904761904762,-0.004761904761904762,-0.004761904761904762,-0.004761904761904762,-0.004761904761904762,-0.004761904761904762,-0.004761904761904762,-0.004761904761904762,-0.004761904761904762,-0.004761904761904762,-0.004761904761904762,-0.004761904761904762,-0.004761904761904762,-0.004761904761904762,-0.004761904761904762,-0.004761904761904762,-0.004761904761904762,-0.004761904761904762,-0.004761904761904762,-0.004761904761904762,-0.004761904761904762,-0.004761904761904762,-0.004761904761904762,-0.004761904761904762,-0.004761904761904762,-0.004761904761904762,-0.004761904761904762,-0.004761904761904762,-0.004761904761904762,-0.004761904761904762,-0.004761904761904762,-0.004761904761904762,-0.004761904761904762,-0.004761904761904762,-0.004761904761904762,-0.004761904761904762,-0.004761904761904762,-0.004761904761904762,-0.004761904761904762,-0.004761904761904762,-0.004761904761904762,-0.004761904761904762,-0.004761904761904762,-0.004761904761904762,-0.004761904761904762,-0.004761904761904762,-0.004761904761904762,-0.004761904761904762,-0.004761904761904762,-0.004761904761904762,-0.004761904761904762,-0.004761904761904762,-0.004761904761904762,-0.004761904761904762,-0.004761904761904762,-0.004761904761904762,-0.004761904761904762,-0.004761904761904762,-0.004761904761904762,-0.004761904761904762,-0.004761904761904762,-0.004761904761904762,-0.004761904761904762,-0.004761904761904762,-0.004761904761904762,-0.004761904761904762,-0.004761904761904762,-0.004761904761904762,-0.004761904761904762,-0.004761904761904762,-0.004761904761904762,-0.004761904761904762,-0.004761904761904762,-0.004761904761904762,-0.004761904761904762,-0.004761904761904762,-0.004761904761904762,-0.004761904761904762,-0.004761904761904762,-0.004761904761904762,-0.004761904761904762,-0.004761904761904762,-0.004761904761904762,-0.004761904761904762,-0.004761904761904762,-0.004761904761904762,-0.004761904761904762,-0.004761904761904762,-0.004761904761904762,-0.004761904761904762,-0.004761904761904762,-0.004761904761904762,-0.004761904761904762,-0.004761904761904762,-0.004761904761904762,-0.004761904761904762,-0.004761904761904762,-0.004761904761904762,-0.004761904761904762,-0.004761904761904762,-0.004761904761904762,-0.004761904761904762,-0.004761904761904762,-0.004761904761904762,-0.004761904761904762,-0.004761904761904762,-0.004761904761904762,-0.004761904761904762,-0.004761904761904762,-0.004761904761904762,-0.004761904761904762,-0.004761904761904762,-0.004761904761904762,-0.004761904761904762,-0.004761904761904762,-0.004761904761904762,-0.004761904761904762,-0.004761904761904762,-0.004761904761904762,-0.004761904761904762,-0.004761904761904762,-0.004761904761904762,-0.004761904761904762,-0.004761904761904762,-0.004761904761904762,-0.004761904761904762,-0.004761904761904762,-0.004761904761904762,-0.004761904761904762,-0.004761904761904762,-0.004761904761904762,-0.004761904761904762,-0.004761904761904762,-0.004761904761904762,-0.004761904761904762,-0.004761904761904762,-0.004761904761904762,-0.004761904761904762,-0.004761904761904762,-0.004761904761904762,-0.004761904761904762,-0.004761904761904762,-0.004761904761904762,-0.004761904761904762,-0.004761904761904762,-0.004761904761904762,-0.004761904761904762,-0.004761904761904762,-0.004761904761904762,-0.004761904761904762,-0.004761904761904762,-0.004761904761904762,-0.004761904761904762,-0.004761904761904762,-0.004761904761904762,-0.004761904761904762,-0.004761904761904762,-0.004761904761904762,-0.004761904761904762,-0.004761904761904762,-0.004761904761904762,-0.004761904761904762,-0.004761904761904762,-0.004761904761904762,-0.004761904761904762,-0.004761904761904762,-0.004761904761904762,0.004761904761904762,0.004761904761904762,0.014285714285714285,0.014285714285714285,0.023809523809523808,0.023809523809523808,0.023809523809523808,0.023809523809523808,0.023809523809523808,0.023809523809523808,0.023809523809523808,0.023809523809523808,0.03333333333333333,0.03333333333333333,0.04285714285714286,0.04285714285714286,0.05238095238095238,0.06190476190476191,0.07142857142857142,0.08095238095238096,0.09047619047619047,0.10952380952380952,0.1380952380952381,0.15714285714285714,0.19523809523809524,0.21428571428571427,0.21428571428571427,0.22380952380952382,0.23333333333333334,0.2523809523809524,0.2523809523809524,0.2523809523809524,0.2523809523809524,0.2523809523809524,0.2523809523809524,0.2523809523809524,0.2523809523809524,0.2523809523809524,0.2523809523809524,0.2523809523809524,0.2523809523809524,0.2523809523809524,0.2523809523809524,0.2523809523809524,0.2523809523809524,0.2523809523809524,0.2523809523809524,0.2523809523809524,0.2523809523809524,0.2523809523809524,0.2523809523809524,0.2904761904761905,0.3380952380952381,0.36666666666666664,0.3952380952380952,0.4238095238095238,0.44285714285714284,0.46190476190476193,0.49047619047619045,0.5095238095238095,0.5285714285714286,0.5380952380952381,0.5476190476190477,0.5476190476190477,0.5476190476190477,0.5476190476190477,0.5476190476190477,0.5476190476190477,0.5476190476190477,0.5476190476190477,0.5571428571428572,0.5666666666666667,0.5761904761904761,0.5857142857142857,0.5857142857142857,0.5857142857142857,0.5857142857142857,0.5857142857142857,0.5857142857142857,0.5857142857142857,0.5857142857142857,0.5857142857142857,0.5857142857142857,0.5857142857142857,0.5857142857142857,0.5857142857142857,0.5761904761904761,0.5761904761904761,0.5761904761904761,0.5666666666666667,0.5571428571428572,0.5571428571428572,0.5571428571428572,0.5476190476190477,0.5476190476190477,0.5476190476190477,0.5476190476190477,0.5476190476190477,0.5476190476190477,0.5476190476190477,0.5476190476190477,0.5476190476190477,0.5476190476190477,0.5476190476190477,0.5476190476190477,0.5476190476190477,0.5476190476190477,0.5476190476190477,0.5476190476190477,0.5476190476190477,0.5476190476190477,0.5476190476190477,0.5476190476190477,0.5476190476190477,0.5476190476190477,0.5476190476190477,0.5476190476190477,0.5476190476190477,0.5476190476190477,0.5476190476190477,0.5476190476190477,0.5476190476190477,0.5476190476190477,0.5476190476190477,0.5476190476190477,0.5476190476190477,0.5476190476190477,0.5476190476190477,0.5476190476190477,0.5476190476190477,0.5476190476190477,0.5476190476190477,0.5476190476190477,0.5476190476190477,0.5476190476190477,0.5476190476190477,0.5476190476190477,0.5476190476190477,0.5476190476190477,0.5476190476190477,0.5476190476190477,0.5476190476190477,0.5476190476190477,0.5476190476190477,0.5476190476190477,0.5476190476190477,0.5476190476190477,0.5476190476190477,0.5476190476190477,0.5476190476190477,0.5476190476190477,0.5476190476190477,0.5476190476190477,0.5476190476190477,0.5476190476190477,0.5476190476190477,0.5476190476190477,0.5476190476190477,0.5476190476190477,0.5476190476190477,0.5476190476190477,0.5476190476190477,0.5476190476190477,0.5476190476190477,0.5476190476190477,0.5476190476190477,0.5476190476190477,0.5476190476190477,0.5476190476190477,0.5476190476190477,0.5476190476190477,0.5476190476190477,0.5476190476190477,0.5476190476190477,0.5476190476190477,0.5476190476190477,0.5476190476190477,0.5476190476190477,0.5476190476190477,0.5476190476190477,0.5476190476190477,0.5476190476190477,0.5476190476190477,0.5476190476190477,0.5476190476190477,0.5476190476190477,0.5476190476190477,0.5476190476190477,0.5476190476190477,0.5476190476190477,0.5476190476190477,0.5476190476190477,0.5476190476190477,0.5476190476190477,0.5476190476190477,0.5380952380952381,0.5380952380952381,0.5380952380952381,0.5380952380952381,0.5380952380952381,0.5380952380952381,0.5380952380952381,0.5380952380952381,0.5380952380952381,0.5380952380952381,0.5380952380952381,0.5380952380952381,0.5380952380952381,0.5380952380952381,0.5380952380952381,0.5380952380952381,0.5380952380952381,0.5380952380952381,0.5285714285714286,0.5285714285714286,0.5190476190476191,0.5190476190476191,0.5095238095238095,0.48095238095238096,0.43333333333333335,0.38571428571428573,0.35714285714285715,0.3476190476190476,0.3380952380952381,0.3380952380952381,0.3476190476190476,0.35714285714285715,0.3761904761904762,0.3952380952380952,0.40476190476190477,0.43333333333333335,0.46190476190476193,0.46190476190476193,0.4714285714285714,0.4714285714285714,0.4714285714285714,0.4714285714285714,0.4714285714285714,0.4714285714285714,0.4714285714285714,0.4714285714285714,0.4714285714285714,0.4714285714285714,0.4714285714285714,0.4714285714285714,0.4714285714285714,0.4714285714285714,0.4714285714285714,0.4714285714285714,0.4714285714285714,0.4714285714285714,0.4714285714285714,0.4714285714285714,0.48095238095238096,0.48095238095238096,0.48095238095238096,0.48095238095238096,0.48095238095238096,0.48095238095238096,0.48095238095238096,0.48095238095238096,0.48095238095238096,0.48095238095238096,0.48095238095238096,0.48095238095238096,0.48095238095238096,0.48095238095238096,0.48095238095238096,0.48095238095238096,0.48095238095238096,0.48095238095238096,0.48095238095238096,0.48095238095238096,0.48095238095238096,0.48095238095238096,0.48095238095238096,0.48095238095238096,0.48095238095238096,0.48095238095238096,0.48095238095238096,0.48095238095238096,0.48095238095238096,0.48095238095238096,0.48095238095238096,0.48095238095238096,0.48095238095238096,0.48095238095238096,0.48095238095238096,0.48095238095238096,0.48095238095238096,0.48095238095238096,0.48095238095238096,0.48095238095238096,0.48095238095238096,0.48095238095238096,0.48095238095238096,0.48095238095238096,0.48095238095238096,0.48095238095238096,0.48095238095238096,0.48095238095238096,0.48095238095238096,0.48095238095238096,0.48095238095238096,0.48095238095238096,0.48095238095238096,0.48095238095238096,0.48095238095238096,0.48095238095238096,0.48095238095238096,0.48095238095238096,0.48095238095238096,0.48095238095238096,0.48095238095238096,0.48095238095238096,0.48095238095238096,0.48095238095238096,0.48095238095238096,0.48095238095238096,0.48095238095238096,0.48095238095238096,0.48095238095238096,0.48095238095238096,0.48095238095238096,0.48095238095238096,0.48095238095238096,0.48095238095238096,0.48095238095238096,0.48095238095238096,0.48095238095238096,0.48095238095238096,0.48095238095238096,0.48095238095238096,0.48095238095238096,0.48095238095238096,0.48095238095238096,0.48095238095238096,0.48095238095238096,0.48095238095238096,0.48095238095238096,0.48095238095238096,0.48095238095238096,0.48095238095238096,0.48095238095238096,0.48095238095238096,0.48095238095238096,0.48095238095238096,0.48095238095238096,0.48095238095238096,0.48095238095238096,0.48095238095238096,0.48095238095238096,0.48095238095238096,0.48095238095238096,0.48095238095238096,0.48095238095238096,0.48095238095238096,0.48095238095238096,0.48095238095238096,0.48095238095238096,0.48095238095238096,0.48095238095238096,0.48095238095238096,0.48095238095238096,0.48095238095238096,0.48095238095238096,0.48095238095238096,0.48095238095238096,0.48095238095238096,0.48095238095238096,0.48095238095238096,0.48095238095238096,0.48095238095238096,0.48095238095238096,0.48095238095238096,0.48095238095238096,0.48095238095238096,0.48095238095238096,0.48095238095238096,0.48095238095238096,0.48095238095238096,0.48095238095238096,0.48095238095238096,0.48095238095238096,0.48095238095238096,0.48095238095238096,0.48095238095238096,0.48095238095238096,0.48095238095238096,0.48095238095238096,0.48095238095238096,0.48095238095238096,0.48095238095238096,0.48095238095238096,0.48095238095238096,0.48095238095238096,0.48095238095238096,0.48095238095238096,0.48095238095238096,0.48095238095238096,0.48095238095238096,0.48095238095238096,0.48095238095238096,0.48095238095238096,0.48095238095238096,0.48095238095238096,0.48095238095238096,0.48095238095238096,0.48095238095238096,0.48095238095238096,0.48095238095238096,0.48095238095238096,0.48095238095238096,0.48095238095238096,0.48095238095238096,0.48095238095238096,0.48095238095238096,0.48095238095238096,0.48095238095238096,0.48095238095238096,0.48095238095238096,0.48095238095238096,0.48095238095238096,0.48095238095238096,0.48095238095238096,0.48095238095238096,0.48095238095238096,0.48095238095238096,0.48095238095238096,0.48095238095238096,0.48095238095238096,0.48095238095238096,0.48095238095238096,0.48095238095238096,0.48095238095238096,0.4714285714285714,0.4714285714285714,0.4714285714285714,0.4714285714285714,0.4714285714285714,0.4714285714285714,0.4714285714285714,0.4714285714285714,0.49047619047619045,0.5,0.5095238095238095,0.5190476190476191,0.5190476190476191,0.5190476190476191,0.5190476190476191,0.5190476190476191,0.5190476190476191,0.5190476190476191,0.5190476190476191,0.5190476190476191,0.5190476190476191,0.5190476190476191,0.5190476190476191,0.5190476190476191,0.5190476190476191,0.5285714285714286,0.5285714285714286,0.5285714285714286,0.5285714285714286,0.5285714285714286,0.5380952380952381,0.5380952380952381,0.5380952380952381,0.5380952380952381,0.5380952380952381,0.5380952380952381,0.5380952380952381,0.5380952380952381,0.5380952380952381,0.5380952380952381,0.5380952380952381,0.5380952380952381,0.5380952380952381,0.5380952380952381,0.5380952380952381,0.5380952380952381,0.5380952380952381,0.5380952380952381,0.5380952380952381,0.5380952380952381,0.5380952380952381,0.5380952380952381,0.5380952380952381,0.5380952380952381,0.5380952380952381,0.5380952380952381,0.5380952380952381,0.5380952380952381,0.5380952380952381,0.5380952380952381,0.5380952380952381,0.5380952380952381,0.5380952380952381,0.5380952380952381,0.5380952380952381,0.5380952380952381,0.5380952380952381,0.5380952380952381,0.5380952380952381,0.5380952380952381,0.5380952380952381,0.5380952380952381,0.5380952380952381,0.5380952380952381,0.5380952380952381,0.5380952380952381,0.5380952380952381,0.5380952380952381,0.5380952380952381,0.5380952380952381,0.5380952380952381,0.5380952380952381,0.5380952380952381,0.5380952380952381,0.5380952380952381,0.5380952380952381,0.5380952380952381,0.5380952380952381,0.5380952380952381,0.5380952380952381,0.5380952380952381,0.5380952380952381,0.5380952380952381,0.5380952380952381,0.5380952380952381,0.5380952380952381,0.5380952380952381,0.5380952380952381,0.5380952380952381,0.5380952380952381,0.5380952380952381,0.5380952380952381,0.5380952380952381,0.5380952380952381,0.5380952380952381,0.5380952380952381,0.5380952380952381,0.5476190476190477,0.5476190476190477,0.5476190476190477,0.5380952380952381,0.5380952380952381,0.5380952380952381,0.5380952380952381,0.5285714285714286,0.5285714285714286,0.5285714285714286,0.5285714285714286,0.5285714285714286,0.5285714285714286,0.5285714285714286,0.5285714285714286,0.5285714285714286,0.5285714285714286,0.5285714285714286,0.5285714285714286,0.5285714285714286,0.5285714285714286,0.5285714285714286,0.5285714285714286,0.5285714285714286,0.5285714285714286,0.5285714285714286,0.5285714285714286,0.5285714285714286,0.5285714285714286,0.5285714285714286,0.5285714285714286,0.5285714285714286,0.5285714285714286,0.5285714285714286,0.5285714285714286,0.5285714285714286,0.5285714285714286,0.5285714285714286,0.5285714285714286,0.5285714285714286,0.5285714285714286,0.5285714285714286,0.5285714285714286,0.5285714285714286,0.5285714285714286,0.5285714285714286,0.5285714285714286,0.5285714285714286,0.5285714285714286,0.5285714285714286,0.5285714285714286,0.5285714285714286,0.5285714285714286,0.5285714285714286,0.5285714285714286,0.5285714285714286,0.5285714285714286,0.5285714285714286,0.5285714285714286,0.5285714285714286,0.5285714285714286,0.5285714285714286,0.5285714285714286,0.5285714285714286,0.5285714285714286,0.5285714285714286,0.5285714285714286,0.5285714285714286,0.5285714285714286,0.5285714285714286,0.5285714285714286,0.5285714285714286,0.5285714285714286,0.5285714285714286,0.5285714285714286,0.5285714285714286,0.5285714285714286,0.5285714285714286,0.5285714285714286,0.5285714285714286,0.5285714285714286,0.5285714285714286,0.5285714285714286,0.5285714285714286,0.5285714285714286,0.5285714285714286,0.5285714285714286,0.5285714285714286,0.5285714285714286,0.5285714285714286,0.5285714285714286,0.5285714285714286,0.5285714285714286,0.5285714285714286,0.5285714285714286,0.5285714285714286,0.5285714285714286,0.5285714285714286,0.5285714285714286,0.5285714285714286,0.5285714285714286,0.5285714285714286,0.5285714285714286,0.5285714285714286,0.5285714285714286,0.5285714285714286,0.5285714285714286,0.5285714285714286,0.5285714285714286,0.5285714285714286,0.5285714285714286,0.5285714285714286,0.5285714285714286,0.5285714285714286,0.5285714285714286,0.5285714285714286,0.5285714285714286,0.5285714285714286,0.5285714285714286,0.5285714285714286,0.5285714285714286,0.5285714285714286,0.5285714285714286,0.5285714285714286,0.5285714285714286,0.5285714285714286,0.5285714285714286,0.5285714285714286,0.5285714285714286,0.5285714285714286,0.5285714285714286,0.5285714285714286,0.5285714285714286,0.5285714285714286,0.5285714285714286,0.5285714285714286,0.5285714285714286,0.5285714285714286,0.5285714285714286,0.5285714285714286,0.5285714285714286,0.5285714285714286,0.5285714285714286,0.5285714285714286,0.5285714285714286,0.5285714285714286,0.5285714285714286,0.5285714285714286,0.5285714285714286,0.5380952380952381,0.5952380952380952,0.6523809523809524,0.7095238095238096,0.7666666666666667,0.8238095238095238,0.8428571428571429,0.9095238095238095,0.9380952380952381,0.9571428571428572,0.9571428571428572,0.9571428571428572,0.9571428571428572,0.9571428571428572,0.9571428571428572,0.9571428571428572,0.9666666666666667,0.9761904761904762,0.9857142857142858,0.9952380952380953,0.9952380952380953,0.9952380952380953,0.9952380952380953,0.9952380952380953,0.9952380952380953,0.9952380952380953,0.9952380952380953,0.9761904761904762,0.9571428571428572,0.9380952380952381,0.919047619047619,0.919047619047619,0.9285714285714286,0.9380952380952381,0.9476190476190476,0.9571428571428572,0.9666666666666667,0.9761904761904762,0.9761904761904762,0.9857142857142858,0.9857142857142858,0.9857142857142858,0.9857142857142858,0.9857142857142858,0.9857142857142858,0.9857142857142858,0.9952380952380953,1.0047619047619047,1.0047619047619047,1.0047619047619047,1.0047619047619047,1.0142857142857142,1.0142857142857142,1.0142857142857142,1.0142857142857142,1.0142857142857142,1.0142857142857142,1.0142857142857142,1.0142857142857142,1.0142857142857142,1.0142857142857142,1.0142857142857142,1.0142857142857142,1.0142857142857142,1.0142857142857142,1.0142857142857142,1.0142857142857142,1.0142857142857142,1.0142857142857142,1.0142857142857142,1.0142857142857142,1.0142857142857142,1.0142857142857142,1.0142857142857142,1.0142857142857142,1.0142857142857142,1.0142857142857142,1.0142857142857142,1.0142857142857142,1.0142857142857142,1.0142857142857142,1.0142857142857142,1.0142857142857142,1.0142857142857142,1.0142857142857142,1.0142857142857142,1.0142857142857142,1.0142857142857142,0.8714285714285714,0.6904761904761905,0.5666666666666667,0.44285714285714284,0.319047619047619,0.21428571428571427,0.09047619047619047,0.023809523809523808,-0.04285714285714286,-0.08095238095238096,-0.1,-0.10952380952380952,-0.1380952380952381,-0.14761904761904762,-0.15714285714285714,-0.15714285714285714,-0.16666666666666666,-0.16666666666666666,-0.1761904761904762,-0.1761904761904762,-0.1761904761904762,-0.1761904761904762,-0.1761904761904762,-0.1761904761904762,-0.1761904761904762,-0.16666666666666666,-0.14761904761904762,-0.11904761904761904,-0.09047619047619047,-0.07142857142857142,-0.04285714285714286,-0.03333333333333333,-0.023809523809523808,-0.014285714285714285,-0.014285714285714285,-0.004761904761904762,-0.004761904761904762,-0.004761904761904762,-0.004761904761904762,-0.004761904761904762,-0.004761904761904762,-0.004761904761904762,-0.004761904761904762,-0.004761904761904762,-0.004761904761904762,-0.004761904761904762,-0.004761904761904762,-0.004761904761904762,-0.004761904761904762,-0.004761904761904762,-0.004761904761904762,-0.004761904761904762,-0.004761904761904762,-0.004761904761904762,-0.004761904761904762,-0.05238095238095238,-0.10952380952380952,-0.11904761904761904,-0.1380952380952381,-0.15714285714285714,-0.15714285714285714,-0.16666666666666666,-0.1761904761904762,-0.1761904761904762,-0.1761904761904762,-0.1761904761904762,-0.1761904761904762,-0.1761904761904762,-0.1761904761904762,-0.1761904761904762,-0.1761904761904762,-0.1761904761904762,-0.1761904761904762,-0.1761904761904762,-0.1761904761904762,-0.16666666666666666,-0.09047619047619047,-0.03333333333333333,0.014285714285714285,0.04285714285714286,0.04285714285714286,0.04285714285714286,0.04285714285714286,0.03333333333333333,0.023809523809523808,0.014285714285714285,0.014285714285714285,0.004761904761904762,0.004761904761904762,-0.004761904761904762,-0.004761904761904762,-0.004761904761904762,-0.004761904761904762,-0.004761904761904762,-0.004761904761904762,-0.004761904761904762,-0.004761904761904762,-0.004761904761904762,-0.004761904761904762,-0.004761904761904762,-0.004761904761904762,-0.004761904761904762,-0.004761904761904762,-0.004761904761904762,-0.004761904761904762,-0.004761904761904762,-0.004761904761904762,-0.004761904761904762,-0.004761904761904762,-0.004761904761904762,-0.004761904761904762,-0.004761904761904762,-0.004761904761904762,-0.004761904761904762,-0.004761904761904762,-0.004761904761904762,-0.004761904761904762,-0.004761904761904762,-0.004761904761904762,-0.004761904761904762,-0.004761904761904762,-0.004761904761904762,-0.004761904761904762,-0.004761904761904762,-0.004761904761904762,-0.004761904761904762,-0.004761904761904762,-0.004761904761904762,-0.004761904761904762,-0.004761904761904762,-0.004761904761904762,-0.004761904761904762,-0.004761904761904762,-0.004761904761904762,-0.004761904761904762,-0.004761904761904762,-0.004761904761904762,-0.004761904761904762,-0.004761904761904762,-0.004761904761904762,-0.004761904761904762,-0.004761904761904762,-0.004761904761904762,-0.004761904761904762,-0.004761904761904762,-0.004761904761904762,-0.004761904761904762,-0.004761904761904762,-0.004761904761904762,-0.004761904761904762,-0.004761904761904762,-0.004761904761904762,-0.004761904761904762,-0.004761904761904762,-0.004761904761904762,-0.004761904761904762,-0.004761904761904762,-0.004761904761904762,-0.004761904761904762,-0.004761904761904762,-0.004761904761904762,-0.004761904761904762,-0.004761904761904762,-0.004761904761904762,-0.004761904761904762,-0.004761904761904762,-0.004761904761904762,-0.004761904761904762,-0.004761904761904762,-0.004761904761904762,-0.004761904761904762,-0.004761904761904762,-0.004761904761904762,-0.004761904761904762,-0.004761904761904762,-0.004761904761904762,-0.004761904761904762,-0.004761904761904762,-0.004761904761904762,-0.004761904761904762,-0.004761904761904762,-0.004761904761904762,-0.004761904761904762,-0.004761904761904762,-0.004761904761904762,-0.004761904761904762,-0.004761904761904762,-0.004761904761904762,-0.004761904761904762,-0.004761904761904762,-0.004761904761904762,-0.004761904761904762,-0.004761904761904762,-0.004761904761904762,-0.004761904761904762,-0.004761904761904762,-0.004761904761904762,-0.004761904761904762,-0.004761904761904762,-0.004761904761904762,-0.004761904761904762,-0.004761904761904762,-0.004761904761904762,-0.004761904761904762,-0.004761904761904762,-0.004761904761904762,-0.004761904761904762,-0.004761904761904762,-0.004761904761904762,-0.004761904761904762,-0.004761904761904762,-0.004761904761904762,-0.004761904761904762,-0.004761904761904762,-0.004761904761904762,-0.004761904761904762,-0.004761904761904762,-0.004761904761904762,-0.004761904761904762,-0.004761904761904762,-0.004761904761904762,-0.004761904761904762,-0.004761904761904762,-0.004761904761904762,-0.004761904761904762,-0.004761904761904762]},"final_keyboard_state":["C","A","N","L","M","P","R","Z","E","B"],"num_clicks":10,"points":10,"cheat":false,"trial_type":"Hangman","trial_index":5,"time_elapsed":58553,"internal_node_id":"0.0-4.0","protocol_sum":"","subject_identifier":202,"subject_sum":[22,220,54,138,137,180,40,178,72,84,132,49,59,166,122,57,18,202,3,242,178,180,36,41,23,74,79,139,61,200,78,68],"subject_pair":101,"STUDY_ID":"669eec2e4270c76bc184a38e","PROLIFIC_PID":"63e5517cd738b83025348a43","SESSION_ID":"669ef30d9b40860d04e2f0a9","practice_instructions":1,"leaderboard_instructions":0,"bonus":0,"reveal_word":false,"self_rating":"2","confidence":"78"},{"view_history":"[{\"page_index\":0,\"viewing_time\":2003.2000000476837},{\"page_index\":1,\"viewing_time\":7125.899999856949}]","rt":9130,"trial_type":"instructions","trial_index":6,"time_elapsed":67684,"internal_node_id":"0.0-5.0","protocol_sum":"","subject_identifier":202,"subject_sum":[22,220,54,138,137,180,40,178,72,84,132,49,59,166,122,57,18,202,3,242,178,180,36,41,23,74,79,139,61,200,78,68],"subject_pair":101,"STUDY_ID":"669eec2e4270c76bc184a38e","PROLIFIC_PID":"63e5517cd738b83025348a43","SESSION_ID":"669ef30d9b40860d04e2f0a9","practice_instructions":1,"leaderboard_instructions":0,"bonus":0,"reveal_word":false,"self_rating":"2","confidence":"78"},{"rt":4353.299999952316,"responses":"{\"Q0\":\"...from the <b>upcoming tournament</b>.\"}","question_order":"[0]","trial_type":"survey-multi-choice","trial_index":7,"time_elapsed":72039,"internal_node_id":"0.0-6.0","protocol_sum":"","subject_identifier":202,"subject_sum":[22,220,54,138,137,180,40,178,72,84,132,49,59,166,122,57,18,202,3,242,178,180,36,41,23,74,79,139,61,200,78,68],"subject_pair":101,"correct":false,"test_part":"multichoice_leaderboard","STUDY_ID":"669eec2e4270c76bc184a38e","PROLIFIC_PID":"63e5517cd738b83025348a43","SESSION_ID":"669ef30d9b40860d04e2f0a9","practice_instructions":1,"leaderboard_instructions":0,"bonus":0,"reveal_word":false,"self_rating":"2","confidence":"78"},{"view_history":"[{\"page_index\":0,\"viewing_time\":1888.2000000476837}]","rt":1888.6000001430511,"trial_type":"instructions","trial_index":8,"time_elapsed":73929,"internal_node_id":"0.0-7.0-0.0","protocol_sum":"","subject_identifier":202,"subject_sum":[22,220,54,138,137,180,40,178,72,84,132,49,59,166,122,57,18,202,3,242,178,180,36,41,23,74,79,139,61,200,78,68],"subject_pair":101,"STUDY_ID":"669eec2e4270c76bc184a38e","PROLIFIC_PID":"63e5517cd738b83025348a43","SESSION_ID":"669ef30d9b40860d04e2f0a9","practice_instructions":1,"leaderboard_instructions":0,"bonus":0,"reveal_word":false,"self_rating":"2","confidence":"78"},{"rt":5126.200000047684,"responses":"{\"Q0\":\"...from <b>a previous session</b> that is part of the upcoming tournament.\"}","question_order":"[0]","trial_type":"survey-multi-choice","trial_index":9,"time_elapsed":79057,"internal_node_id":"0.0-7.0-1.0","protocol_sum":"","subject_identifier":202,"subject_sum":[22,220,54,138,137,180,40,178,72,84,132,49,59,166,122,57,18,202,3,242,178,180,36,41,23,74,79,139,61,200,78,68],"subject_pair":101,"correct":false,"test_part":"multichoice_leaderboard","STUDY_ID":"669eec2e4270c76bc184a38e","PROLIFIC_PID":"63e5517cd738b83025348a43","SESSION_ID":"669ef30d9b40860d04e2f0a9","practice_instructions":1,"leaderboard_instructions":0,"bonus":0,"reveal_word":false,"self_rating":"2","confidence":"78"},{"view_history":"[{\"page_index\":0,\"viewing_time\":1355.5}]","rt":1355.6000001430511,"trial_type":"instructions","trial_index":10,"time_elapsed":80414,"internal_node_id":"0.0-7.1-0.1","protocol_sum":"","subject_identifier":202,"subject_sum":[22,220,54,138,137,180,40,178,72,84,132,49,59,166,122,57,18,202,3,242,178,180,36,41,23,74,79,139,61,200,78,68],"subject_pair":101,"STUDY_ID":"669eec2e4270c76bc184a38e","PROLIFIC_PID":"63e5517cd738b83025348a43","SESSION_ID":"669ef30d9b40860d04e2f0a9","practice_instructions":1,"leaderboard_instructions":0,"bonus":0,"reveal_word":false,"self_rating":"2","confidence":"78"},{"rt":2386.7000000476837,"responses":"{\"Q0\":\"...from <b>a previous session</b> that is not part of the upcoming tournament.\"}","question_order":"[0]","trial_type":"survey-multi-choice","trial_index":11,"time_elapsed":82801,"internal_node_id":"0.0-7.1-1.1","protocol_sum":"","subject_identifier":202,"subject_sum":[22,220,54,138,137,180,40,178,72,84,132,49,59,166,122,57,18,202,3,242,178,180,36,41,23,74,79,139,61,200,78,68],"subject_pair":101,"correct":true,"test_part":"multichoice_leaderboard","STUDY_ID":"669eec2e4270c76bc184a38e","PROLIFIC_PID":"63e5517cd738b83025348a43","SESSION_ID":"669ef30d9b40860d04e2f0a9","practice_instructions":1,"leaderboard_instructions":0,"bonus":0,"reveal_word":false,"self_rating":"2","confidence":"78"},{"view_history":"[{\"page_index\":0,\"viewing_time\":8072.299999952316}]","rt":8072.599999904633,"trial_type":"instructions","trial_index":12,"time_elapsed":90874,"internal_node_id":"0.0-8.0","protocol_sum":"","subject_identifier":202,"subject_sum":[22,220,54,138,137,180,40,178,72,84,132,49,59,166,122,57,18,202,3,242,178,180,36,41,23,74,79,139,61,200,78,68],"subject_pair":101,"STUDY_ID":"669eec2e4270c76bc184a38e","PROLIFIC_PID":"63e5517cd738b83025348a43","SESSION_ID":"669ef30d9b40860d04e2f0a9","practice_instructions":1,"leaderboard_instructions":0,"bonus":0,"reveal_word":false,"self_rating":"2","confidence":"78"},{"rt":10005.599999904633,"responses":"{\"Q0\":\"...players' leaderboard position (in terms of <b>points</b>) in an <b>upcoming tournament.</b>\"}","question_order":"[0]","trial_type":"survey-multi-choice","trial_index":13,"time_elapsed":100882,"internal_node_id":"0.0-9.0","protocol_sum":"","subject_identifier":202,"subject_sum":[22,220,54,138,137,180,40,178,72,84,132,49,59,166,122,57,18,202,3,242,178,180,36,41,23,74,79,139,61,200,78,68],"subject_pair":101,"correct":true,"test_part":"multichoice_tournament","STUDY_ID":"669eec2e4270c76bc184a38e","PROLIFIC_PID":"63e5517cd738b83025348a43","SESSION_ID":"669ef30d9b40860d04e2f0a9","practice_instructions":1,"leaderboard_instructions":0,"bonus":0,"reveal_word":false,"self_rating":"2","confidence":"78"},{"view_history":"[{\"page_index\":0,\"viewing_time\":6392.600000143051}]","rt":6392.900000095367,"trial_type":"instructions","trial_index":14,"time_elapsed":107277,"internal_node_id":"0.0-11.0","protocol_sum":"","subject_identifier":202,"subject_sum":[22,220,54,138,137,180,40,178,72,84,132,49,59,166,122,57,18,202,3,242,178,180,36,41,23,74,79,139,61,200,78,68],"subject_pair":101,"STUDY_ID":"669eec2e4270c76bc184a38e","PROLIFIC_PID":"63e5517cd738b83025348a43","SESSION_ID":"669ef30d9b40860d04e2f0a9","practice_instructions":1,"leaderboard_instructions":0,"bonus":0,"reveal_word":false,"self_rating":"2","confidence":"78"},{"view_history":"[{\"page_index\":0,\"viewing_time\":4703.399999856949}]","rt":4703.799999952316,"trial_type":"instructions","trial_index":15,"time_elapsed":111983,"internal_node_id":"0.0-12.0-0.0","protocol_sum":"","subject_identifier":202,"subject_sum":[22,220,54,138,137,180,40,178,72,84,132,49,59,166,122,57,18,202,3,242,178,180,36,41,23,74,79,139,61,200,78,68],"subject_pair":101,"STUDY_ID":"669eec2e4270c76bc184a38e","PROLIFIC_PID":"63e5517cd738b83025348a43","SESSION_ID":"669ef30d9b40860d04e2f0a9","practice_instructions":1,"leaderboard_instructions":0,"bonus":0,"reveal_word":false,"self_rating":"2","confidence":"78"},{"word":"KENTUCKY","click_log":{"letter":["","N","E","K","T","U","C","Y"],"t":[0,2644.4000000953674,8476.100000143051,10293,12759.400000095367,13826.400000095367,16476,18026.299999952316],"hit":[null,1,1,2,1,1,1,1],"asked":["","N","NE","NEK","NEKT","NEKTU","NEKTUC","NEKTUCY"],"word_state":["________","__N_____","_EN_____","KEN___K_","KENT__K_","KENTU_K_","KENTUCK_","KENTUCKY"]},"hover_log":{"letter":["?","?","?","?","?","?","?","?","?","?","?","?","?","?","?","?","?","?","?","?","?","?","?","?","?","?","?","?","?","?","?","?","?","?","?","?","?","?","?","?","?","?","?","?","?","?","?","?","?","?","?","?","?","?","?","?","?","?","?","?","?","?","?","?","?","?","?","?","?","?","?","?","?","?","?","?","?","?","?","?","?","?","?","?","?","?","?","?","?","?","?","?","?","?","?","?","?","?","?","?","?","?","?","?","?","?","?","?","?","?","?","?","?","?","?","?","?","?","?","?","?","?","?","?","?","?","?","?","?","?","?","?","?","?","?","?","?","?","?","?","?","?","?","?","?","?","?","?","?","?","?","?","?","?","?","?","?","?","?","?","?","?","?","?","?","?","?","?","?","?","?","?","?","?","?","?","?","?","?","?","?","?","?","?","?","?","?","?","?","?","?","?","?","?","?","?","?","?","?","?","?","?","?","?","?","?","?","?","?","?","?","?","?","?","?","?","?","?","?","?","?","?","?","?","?","?","?","?","?","?","?","?","?","?","?","?","?","?","?","?","?","?","?","?","?","?","?","?","?","?","?","?","?","?","?","?","?","?","?","?","?","?","?","?","?","?","?","?","?","?","?","?","?","?","?","?","?","?","?","?","?","?","?","?","?","?","?","?","?","?","?","?","?","?","?","?","?","?","?","?","?","?","?","?","?","?","?","?","?","?","?","?","?","?","?","?","?","?","?","?","?","?","?","?","?","?","?","?","?","?","?","?","?","?","?","?","?","?","?","?","?","?","?","?","?","?","?","?","?","?","?","?","?","?","?","?","?","?","?","?","?","?","?","?","?","?","?","?","?","?","?","?","?","?","?","?","?","?","?","?","?","?","?","?","?","?","?","?","?","?","?","?","?","?","?","?","?","?","?","?","?","?","?","?","?","?","?","?","?","?","?","?","?","?","?","?","?","?","?","?","?","?","?","?","?","?","?","?","?","?","?","?","?","?","?","?","?","?","?","?","?","?","?","?","?","?","?","?","?","?","?","?","?","?","?","?","?","?","?","?","?","?","?","?","?","?","?","?","?","?","?","?","?","?","?","?","?","?","?","?","?","?","?","?","?","?","?","?","?","?","?","?","?","?","?","?","?","?","?","?","?","?","?","?","?","?","?","?","?","?","?","?","?","?","?","?","?","?","?","?","?","?","?","?","?","?","?","?","?","?","?","?","?","?","?","?","?","?","?","?","?","?","?","?","?","?","?","?","?","?","?","?","?","?","?","?","?","?","?","?","?","?","?","?","?","?","?","?","?","?","?","?","?","?","?","?","?","?","?","?","?","?","?","?","?","?","?","?","?","?","?","?","?","?","?","?","?","?","?","?","?","?","?","?","?","?","?","?","?","?","?","?","?","?","?","?","?","?","?","?","?","?","?","?","?","?","?","?","?","?","?","?","?","?","?","?","?","?","?","?","?","?","?","?","?","?","?","?","?","?","?","?","?","?","?","?","?","?","?","?","?","?","?","?","?","?","?","?","?","?","?","?","?","?","?","?","?","?","?","?","?","?","?","?","?","?","?","?","?","?","?","?","?","?","?","?","?","?","?","?","?","?","?","?","?","?","?","?","?","?","?","?","?","?","?","?","?","?","?","?","?","?","?","?","?","?","?","?","?","?","?","?","?","?","?","?","?","?","?","?","?","?","?","?","?","?","?","?","?","?","?","?","?","?","?","?","?","?","?","?","?","?","?","?","?","?","?","?","?","?","?","?","?","?","?","?","?","?","?","?","?","?","?","?","?","?","?","?","?","?","?","?","?","?","?","?","?","?","?","?","?","?","?","?","?","?","?","?","?","?","?","?","?","?","?","?","?","?","?","?","?","?","?","?","?","?","?","?","?","?","?","?","?","?","?","?","?","?","?","?","?","?","?","?","?","?","?","?","?","?","?","?","?","?","?","?","?","?","?","?","?","?","?","?","?","?","?","?","?","?","?","?","?","?","?","?","?","?","?","?","?","?","?","?","?","?","?","?","?","?","?","?","?","?","?","?","?","?","?","?","?","?","?","?","?","?","?","?","?","?","?","?","?","?","?","?","?","?","?","?","?","?","?","?","?","?","?","?","?","?","?","?","?","?","?","?","?","?","?","?","?","?","?","?","?","?","?","?","?","?","?","?","?","?","?","?","?","?","?","?","?","?","?","?","?","?","?","?","?","?","?","?","?","?","?","?","?","?","?","?","?","?","?","?","?","?","?","?","?","?","?","?","?","?","?","?","?","?","?","?","?","?","?","?","?","?","?","?","?","?","?","?","?","?","?","?","?","?","?","?","?","?","?","?","?","?","?","?","?","?","?","?","?","?","?","?","?","?","?","?","?","?","?","?","?","?","?","?","?","?","?","?","?","?","?","?","?","?","?","?","?","?","?","?","?","?","?","?","?","?","?","?","?","?","?","?","?","?","?","?","?","?","?","?","?","?","?","?","?","?","?","?","?","?","?","?","?","?","?","?","?","?","?","?","?","?","?","?","?","?","?","?","?","?","?","?","?","?","?","?","?","?","?","?","?","?","?","?","?","?","?","?","?","?","?","?","?","?","?","?","?","?","?","?","?","?","?","?","?","?","?","?","?","?","?","?","?","?","?","?","?","?","?","?","?","?","?","?","?","?","?","?","?","?","?","?","?","?","?","?","?","?","?","?","?","?","?","?","?","?","?","?","?","?","?","?","?","?","?","?","?","?","?","?","?","?","?","?","?","?","?","?","?","?","?","?","?","?","?","?","?","?","?","?","?","?","?","?","?","?","?","?","?","?","?","?","?","?","?","?","?","?","?","?","?","?","?","?","?","?","?","?","?","?","?","?","?","?","?","?","?","?","?","?","?","?","?","?","?","?","?","?","?","?","?","?","?","?","?","?","?","?","?","?","?","?","?","?","?","?","?","?","?","?","?","?","?","?","?","?","?","?","?","?","?","?","?","?","?","?","?","?","?","?","?","?","?","?","?","?","?","?","?","?","?","?","?","?","?","?","?","?","?","?","?","?","?","?","?","?","?","?","?","?","?","?","?","?","?","?","?","?","?","?","?","?","?","?","?","?","?","?","?","?","?","?","?","?","?","?","?","?","?","?","?","?","?","?","?","?","?","?","?","?","?","?","?","?","?","?","?","?","?","?","?","?","?","?","?","?","?","?","?","?","?","?","?","?","?","?","?","?","?","?","?","?","?","?","?","?","?","?","?","?","?","?","?","?","?","?","?","?","?","?","?","?","?","?","?","?","?","?","?","?","?","?","?","?","?","?","?","?","?","?","?","?","?","?","?","?","?","?","?","?","?","?","?","?","?","?","?","?","?","?","?","?","?","?","?","?","?","?","?","?","?","?","?","?","?","?","?","?","?","?","?","?","?","?","?","?","?","?","?","?","?","?","?","?","?","?","?","?","?","?","?","?","?","?","?","?","?","?","?","?","?","?","?","?","?","?","?","?","?","?","?","?","?","?","?","?","?","?","?","?","?","?","?","?","?","?","?","?","?","?","?","?","?","?","?","?","?","?","?","?","?","?","?","?","?","?","?","?","?","?","?","?","?","?","?","?","?","?","?","?","?","?","?","?","?","?","?","?","?","?","?","?","?","?","?","?","?","?","?","?","?","?","?","?","?","?","?","?","?","?","?","?","?","?","?","?","?","?","?","?","?","?","?","?","?","?","?","?","?","?","?","?","?","?","?","?","?","?","?","?","?","?","?","?","?","?","?","?","?","?","?","?","?","?","?","?","?","?","?","?","?","?","?","?","?","?","?","?","?","?","?","?","?","?","?","?","?","?","?","?","?","?","?","?","?","?","?","?","?","?","?","?","?","?","?","?","?","?","?","?","?","?","?","?","?","?","?","?","?","?","?","?","?","?","?","?","?","?","?","?","?","?","?","?","?","?","?","?","?","?","?","?","?","?","?","?","?","?","?","?","?","?","?","?","?","?","?","?","?","?","?","?","?","?","?","?","?","?","?","?","?","?","?","?","?","?","?","?","?","?","?","?","?","?","?","?","?","?","?","?","?","?","?","?","?","?","?","?","?","?","?","?","?","?","?","?","?","?","?","?","?","?","?","?","?","?","?","?","?","?","?","?","?","?","?","?","?","?","?","?","?","?","?","?","?","?","?","?","?","?","?","?","?","?","?","?","?","?","?","?","?","?","?","?","?","?","?","?","?","?","?","?","?","?","?","?","?","?","?","?","?","?","?","?","?","?","?","?","?","?","?","?","?","?","?","?","?","?","?","?","?","?","?","?","?","?","?","?","?","?","?","?","?","?","?","?","?","?","?","?","?","?","?","?","?","?","?","?","?","?","?","?","?","?","?","?","?","?","?","?","?","?","?","?","?","?","?","?","?","?","?","?","?","?","?","?","?","?","?","?","?","?","?","?","?","?","?","?","?","?","?","?","?","?","?","?","?","?","?","?","?","?","?","?","?","?","?","?","?","?","?","?","?","?","?","?","?","?","?","?","?","?","?","?","?","?","?","?","?","?","?","?","?","?","?","?","?","?","?","?","?","?","?","?","?","?","?","?","?","?","?","?","?","?","?","?","?","?","?","?","?","?","?","?","?","?","?","?","?","?","?","?","?","?","?","?","?","?","?","?","?","?","?","?","?","?","?","?","?","?","?","?","?","?","?","?","?","?","?","?","?","?","?","?","?","?","?","?","?","?","?","?","?","?","?","?","?","?","?","?","?","?","?","?","?","?","?","?","?","?","?","?","?","?","?","?","?","?","?","?","?","?","?","?","?","?","?","?","?","?","?","?","?","?","?","?","?","?","?","?","?","?","?","?","?","?","?","?","?","?","?","?","?","?","?","?","?","?","?","?","?","?","?","?","?","?","?","?","?","?","?","?","?","?","?","?","?","?","?","?","?","?","?","?","?","?","?","?","?","?","?","?","?","?","?","?","?","?","?","?","?","?","?","?","?","?","?","?","?","?","?","?","?","?","?","?","?","?","?","?","?","?","?","?","?","?","?","?","?","?","?","?","?","?","?","?","?","?","?","?","?","?","?","?","?","?","?","?","?","?","?","?","?","?","?","?","?","?","?","?","?","?","?","?","?","?","?","?","?","?","?","?","?","?","?","?","?","?","?","?","?","?","?","?","?","?","?","?","?","?","?","?","?","?","?","?","?","?","?","?","?","?","?","?","?","?","?","?","?","?","?","?","?","?","?","?","?","?","?","?","?","?","?","?","?","?","?","?","?","?","?","?","?","?","?","?","?","?","?","?","?","?","?","?","?","?","?","?","?","?","?","?","?","?","?","?","?","?","?","?","?","?","?","?","?","?","?","?","?","?","?","?","?","?","?","?","?","?","?","?","?","?","?","?","?","?","?","?","?","?","?","?","?","?","?","?","?","?","?","?","?","?","?","?","?","?","?","?","?","?","?","?","?","?","?","?","?","?","?","?","?","?","?","?","?","?","?","?","?","?","?","?","?","?","?","?","?","?","?","?","?","?","?","?","?","?","?","?","?","?","?","?","?","?","?","?","?","?","?","?","?","?","?","?","?","?","?","?","?","?","?","?","?","?","?","?","?","?","?","?","?","?","?","?","?","?","?","?","?","?","?","?","?","?","?","?","?","?","?","?","?","?","?","?","?","?","?","?","?","?","?","?","?","?","?","?","?","?","?","?","?","?","?","?","?","?","?","?","?","?","?","?","?","?","?","?","?","?","?","?","?","?","?","?","?","?","?","?","?","?","?","?","?","?","?","?","?","?","?","?","?","?","?","?","?","?","?","?","?","?","?","?","?","?","?","?","?","?","?","?","?","?","?","?","?","?","?","?","?","?","?","?","?","?","?","?","?","?","?","?","?","?","?","?","?","?","?","?","?","?","?","?","?","?","?","?","?","?","?","?","?","?","?","?","?","?","?","?","?","?","?","?","?","?","?","?","?","?","?","?","?","?","?","?","?","?","?","?","?","?","?","?","?","?","?","?","?","?","?","?","?","?","?","?","?","?","?","?","?","?","?","?","?","?","?","?","?","?","?","?","?","?","?","?","?","?","?","?","?","?","?","?","?","?","?","?","?","?","?","?","?","?","?","?","?","?","?","?","?","?","?","?","?","?","?","?","?","?","?","?","?","?","?","?","?","?","?","?","?","?","?","?","?","?","?","?","?","?","?","?","?","?","?","?","?","?","?","?","?","?","?","?","?","?","?","?","?","?","?","?","?","?","?","?","?","?","?","?","?","?","?","?","?","?","?","?","?","?","?","?","?","?","?","?","?","?","?","?","?","?","?","?","?","?","?","?","?","?","?","?","?","?","?","?","?","?","?","?","?","?","?","?","?","?","?","?","?","?","?","?","?","?","?","?","?","?","?","?","?","?","?","?","?","?","?","?","?","?","?","?","?","?","?","?","?","?","?","?","?","?","?","?","?","?","?","?","?","?","?","?","?","?","?","?","?","?","?","?","?","?","?","?","?","?","?","?","?","?","?","?","?","?","?","?","?","?","?","?","?","?","?","?","?","?","?","?","?","?","?","?","?","?","?","?","?","?","?","?","?","?","?","?","?","?","?","?","?","?","?","?","?","?","?","?","?","?","?","?","?","?","?","?","?","?","?","?","?","?","?","?","?","?","?","?","?","?","?","?","?","?","?","?","?","?","?","?","?","?","?","?","?","?","?","?","?","?","?","?","?","?","?","?","?","?","?","?","?","?","?","?","?","?","?","?","?","?","?","?","?","?","?","?","?","?","?","?","?","?","?","?","?","?","?","?","?","?","?","?","?","?","?","?","?","?","?","?","?","?","?","?","?","?","?","?","?","?","?","?","?","?","?","?","?","?","?","?","?","?","?","?","?","?","?","?","?","?","?","?","?","?","?","?","?","?","?","?","?","?","?","?","?","?","?","?","?","?","?","?","?","?","?","?","?","?","?","?","?","?","?","?","?"