[{"success":true,"trial_type":"fullscreen","trial_index":0,"time_elapsed":3033,"internal_node_id":"0.0-0.0","protocol_sum":"","subject_identifier":130,"subject_sum":[16,140,153,91,149,60,138,53,86,17,3,226,1,76,248,40,235,101,74,153,227,16,248,127,171,148,194,244,183,210,160,79],"subject_pair":65,"STUDY_ID":"669a702db1122fc5150a13ce","PROLIFIC_PID":"5f04b7a99b50ac10df3a9eac","SESSION_ID":"669b28405c9a0ab8c3765122","practice_instructions":1,"leaderboard_instructions":0,"bonus":0,"reveal_word":false,"self_rating":"1","confidence":"25"},{"view_history":"[{\"page_index\":0,\"viewing_time\":4534.900000035763}]","rt":4535.100000023842,"trial_type":"instructions","trial_index":1,"time_elapsed":7569,"internal_node_id":"0.0-1.0","protocol_sum":"","subject_identifier":130,"subject_sum":[16,140,153,91,149,60,138,53,86,17,3,226,1,76,248,40,235,101,74,153,227,16,248,127,171,148,194,244,183,210,160,79],"subject_pair":65,"STUDY_ID":"669a702db1122fc5150a13ce","PROLIFIC_PID":"5f04b7a99b50ac10df3a9eac","SESSION_ID":"669b28405c9a0ab8c3765122","practice_instructions":1,"leaderboard_instructions":0,"bonus":0,"reveal_word":false,"self_rating":"1","confidence":"25"},{"view_history":"[{\"page_index\":0,\"viewing_time\":17319.69999998808}]","rt":17319.900000035763,"trial_type":"instructions","trial_index":2,"time_elapsed":24890,"internal_node_id":"0.0-2.0-0.0","protocol_sum":"","subject_identifier":130,"subject_sum":[16,140,153,91,149,60,138,53,86,17,3,226,1,76,248,40,235,101,74,153,227,16,248,127,171,148,194,244,183,210,160,79],"subject_pair":65,"STUDY_ID":"669a702db1122fc5150a13ce","PROLIFIC_PID":"5f04b7a99b50ac10df3a9eac","SESSION_ID":"669b28405c9a0ab8c3765122","practice_instructions":1,"leaderboard_instructions":0,"bonus":0,"reveal_word":false,"self_rating":"1","confidence":"25"},{"rt":8298.200000047684,"responses":"{\"Q0\":\"... reveal the word with as <b>few letter guesses</b> as possible\"}","question_order":"[0]","trial_type":"survey-multi-choice","trial_index":3,"time_elapsed":33190,"internal_node_id":"0.0-2.0-1.0","protocol_sum":"","subject_identifier":130,"subject_sum":[16,140,153,91,149,60,138,53,86,17,3,226,1,76,248,40,235,101,74,153,227,16,248,127,171,148,194,244,183,210,160,79],"subject_pair":65,"correct":true,"test_part":"multichoice_nonpretend","STUDY_ID":"669a702db1122fc5150a13ce","PROLIFIC_PID":"5f04b7a99b50ac10df3a9eac","SESSION_ID":"669b28405c9a0ab8c3765122","practice_instructions":1,"leaderboard_instructions":0,"bonus":0,"reveal_word":false,"self_rating":"1","confidence":"25"},{"view_history":"[{\"page_index\":0,\"viewing_time\":1616.5}]","rt":1616.6000000238419,"trial_type":"instructions","trial_index":4,"time_elapsed":34807,"internal_node_id":"0.0-3.0","protocol_sum":"","subject_identifier":130,"subject_sum":[16,140,153,91,149,60,138,53,86,17,3,226,1,76,248,40,235,101,74,153,227,16,248,127,171,148,194,244,183,210,160,79],"subject_pair":65,"STUDY_ID":"669a702db1122fc5150a13ce","PROLIFIC_PID":"5f04b7a99b50ac10df3a9eac","SESSION_ID":"669b28405c9a0ab8c3765122","practice_instructions":1,"leaderboard_instructions":0,"bonus":0,"reveal_word":false,"self_rating":"1","confidence":"25"},{"word":"ZEBRA","click_log":{"letter":["","H","A","Z","E","B","R"],"t":[0,9578.099999964237,19692.299999952316,21761.799999952316,23742.19999998808,24247,25656],"hit":[null,0,1,1,1,1,1],"asked":["","H","HA","HAZ","HAZE","HAZEB","HAZEBR"],"word_state":["_____","_____","____A","Z___A","ZE__A","ZEB_A","ZEBRA"]},"hover_log":{"letter":["?","?","?","?","?","?","?","?","?","?","?","?","?","?","?","?","?","?","?","?","?","?","?","?","?","?","?","?","?","?","?","?","?","?","?","?","?","?","?","?","?","?","?","?","?","?","?","?","?","?","?","?","?","?","?","?","?","?","?","?","?","?","?","?","?","?","?","?","?","?","?","?","?","?","?","?","?","?","?","?","?","?","?","?","?","?","?","?","?","?","?","?","?","?","?","?","?","?","?","?","?","?","?","?","?","?","?","?","?","?","?","?","?","?","?","?","?","?","?","?","?","?","?","?","?","?","?","?","?","?","?","?","?","?","?","?","?","?","?","?","?","?","?","?","?","?","?","?","?","?","?","?","?","?","?","?","?","?","?","?","?","?","?","?","?","?","?","?","?","?","?","?","?","?","?","?","?","?","?","?","?","?","?","?","?","?","?","?","?","?","?","?","?","?","?","?","?","?","?","?","?","?","?","?","?","?","?","?","?","?","?","?","?","?","?","?","?","?","?","?","?","?","?","?","?","?","?","?","?","?","?","?","?","?","?","?","?","?","?","?","?","?","?","?","?","?","?","?","?","?","?","?","?","?","?","?","?","?","?","?","?","?","?","?","?","?","?","?","?","?","?","?","?","?","?","?","?","?","?","?","?","?","?","?","?","?","?","?","?","?","?","?","?","?","?","?","?","?","?","?","?","?","?","?","?","?","?","?","?","?","?","?","?","?","?","?","?","?","?","?","?","?","?","?","?","?","?","?","?","?","?","?","?","?","?","?","?","?","?","?","?","?","?","?","?","?","?","?","?","?","?","?","?","?","?","?","?","?","?","?","?","?","?","?","?","?","?","?","?","?","?","?","?","?","?","?","?","?","?","?","?","?","?","?","?","?","?","?","?","?","?","?","?","?","?","?","?","?","?","?","?","?","?","?","?","?","?","?","?","?","?","?","?","?","?","?","?","?","?","?","?","?","?","?","?","?","?","?","?","?","?","?","?","?","?","?","?","?","?","?","?","?","?","?","?","?","?","?","?","?","?","?","?","?","?","?","?","?","?","?","?","?","?","?","?","?","?","?","?","?","?","?","?","?","?","?","?","?","?","?","?","?","?","?","?","?","?","?","?","?","?","?","?","?","?","?","?","?","?","?","?","?","?","?","?","?","?","?","?","?","?","?","?","?","?","?","?","?","?","?","?","?","?","?","?","?","?","?","?","?","?","?","?","?","?","?","?","?","?","?","?","?","?","?","?","?","?","?","?","?","?","?","?","?","?","?","?","?","?","?","?","?","?","?","?","?","?","?","?","H","H","H","H","H","H","H","H","H","H","H","H","H","H","H","H","H","H","H","H","H","H","H","H","H","H","H","H","H","H","H","H","H","H","H","H","H","H","H","H","H","H","H","H","H","H","H","H","H","H","H","H","H","H","H","H","H","H","H","H","H","H","H","H","H","H","H","H","H","H","H","H","H","H","H","H","H","H","H","H","H","H","H","H","H","H","H","H","H","H","H","H","H","H","H","H","H","H","H","H","H","H","H","H","H","H","H","H","H","H","H","H","H","H","H","H","H","H","H","H","H","H","H","H","H","H","H","H","H","H","H","H","H","H","H","H","H","H","H","H","H","H","H","H","H","H","H","H","H","H","H","H","H","H","H","H","H","H","H","H","H","H","H","H","H","H","H","H","H","H","H","H","H","H","H","H","H","H","H","H","H","H","H","H","H","H","H","H","H","H","H","H","H","H","H","H","H","H","H","H","H","H","H","H","H","H","H","H","H","H","H","H","H","H","H","H","H","H","H","H","H","H","H","H","H","H","H","H","H","H","H","H","H","H","H","H","H","H","H","H","H","H","H","H","H","H","H","H","H","H","H","H","H","H","H","H","H","H","H","H","H","H","H","H","H","H","H","H","H","H","H","H","H","H","H","H","H","H","H","H","H","H","H","H","H","H","H","H","H","H","H","H","H","H","H","H","H","H","H","H","H","H","H","H","H","H","H","H","H","H","H","H","H","H","H","H","H","H","H","H","H","H","H","H","H","H","H","H","H","H","H","H","H","H","H","H","H","H","H","H","H","H","H","H","H","H","H","H","H","H","H","H","H","H","H","H","H","H","H","H","H","H","H","H","H","H","H","H","H","H","H","H","H","H","H","H","H","H","H","H","H","H","H","H","H","H","H","H","H","H","H","H","H","H","H","H","H","H","H","H","H","H","H","H","H","H","H","H","H","H","H","H","H","H","H","H","H","H","H","H","H","H","H","H","H","H","H","H","H","H","H","H","H","H","H","H","H","H","H","H","H","H","H","H","H","H","H","H","H","H","H","H","H","H","H","H","H","H","H","H","H","H","H","H","H","H","H","H","H","H","H","H","H","H","H","H","H","H","H","H","H","H","H","H","H","H","H","H","H","H","H","H","H","H","H","H","H","H","H","H","H","H","H","H","H","H","H","H","H","H","H","H","H","H","H","H","H","H","H","H","H","H","H","H","H","H","H","H","H","H","H","H","H","H","H","H","H","H","H","H","?","?","?","?","?","?","?","?","?","?","?","?","?","?","?","?","?","?","?","?","?","?","?","?","?","?","?","?","?","?","?","?","?","?","?","?","?","?","?","?","?","?","?","?","?","?","?","?","?","?","?","?","?","?","?","?","?","?","?","?","?","?","?","?","?","?","?","A","A","A","A","A","A","A","A","A","A","A","A","A","A","A","A","A","A","A","A","A","A","A","A","A","A","A","A","A","A","A","A","A","A","A","A","A","A","A","A","A","A","A","A","A","A","A","A","A","A","A","A","A","A","A","A","A","A","A","A","A","A","A","A","A","A","A","A","A","A","A","A","A","A","A","A","A","A","A","A","A","A","A","A","A","A","A","A","A","A","A","A","A","A","A","A","A","A","A","A","A","A","A","A","A","A","A","A","A","A","A","A","A","A","A","A","A","A","A","A","A","A","A","A","Z","Z","Z","Z","Z","Z","Z","Z","Z","Z","Z","Z","Z","Z","Z","Z","Z","Z","Z","Z","Z","Z","Z","Z","Z","Z","Z","Z","Z","Z","Z","Z","Z","Z","Z","Z","Z","Z","Z","Z","Z","Z","Z","Z","Z","Z","Z","Z","Z","Z","Z","Z","Z","Z","Z","Z","Z","Z","Z","Z","Z","Z","Z","Z","Z","Z","Z","Z","Z","Z","Z","Z","Z","Z","Z","Z","Z","Z","Z","Z","Z","Z","Z","Z","Z","Z","Z","Z","Z","Z","Z","Z","Z","Z","Z","Z","Z","Z","Z","Z","Z","Z","Z","Z","Z","Z","Z","Z","Z","Z","Z","Z","Z","Z","Z","Z","Z","Z","Z","E","E","E","E","E","E","E","E","E","E","E","E","E","E","E","E","E","E","E","E","E","E","E","E","E","E","E","E","E","E","E","E","B","B","B","B","B","B","B","B","B","B","B","B","B","B","B","B","B","B","B","B","B","B","B","B","B","B","B","B","B","B","B","B","B","B","B","B","B","B","B","B","B","B","B","B","B","B","B","B","B","B","B","B","B","B","B","B","B","B","B","B","B","B","B","B","B","B","B","B","B","B","B","B","B","B","B","B","B","B","B","B","B","B","B","B","R","R","R","R","R","R","R","R","R","R","R","R","R","R","R","R","R","R","R","R","R","R","R","R","R","R","R","R","R","R","R","R","R","R","R","R","R","R","R","R","R","R","R","R","R","R","R","R","R","R","R","R","R","R","R","R","R","R","R","R","R","R","R","R","R","R","R","R","R","R","R","R","R","R","R","R","R","R","R","R","R","R","R","R","R","R","R","R","R","R","R","R","R","R","R","R","R","R","R","R","R","R","R","R","R","R","R","R","R","R","R","R","R","R","R","R","R","R","R","R","R","R","R","R","R","R"],"t":[23,34,50,68,84,101,118,135,151,169,184,201,218,235,251,268,285,301,318,334,351,367,384,400,417,434,451,468,484,500,518,534,551,568,584,601,617,634,651,668,684,700,717,734,751,767,784,801,817,834,851,867,884,901,917,934,950,967,984,1000,1017,1034,1050,1066,1084,1101,1117,1134,1150,1167,1184,1200,1217,1234,1250,1267,1284,1300,1315,1333,1349,1366,1384,1399,1417,1434,1450,1467,1484,1499,1516,1534,1550,1567,1584,1600,1617,1634,1650,1667,1684,1700,1716,1733,1750,1767,1784,1800,1817,1834,1850,1866,1882,1899,1917,1933,1950,1967,1983,2000,2016,2032,2049,2067,2083,2100,2117,2133,2150,2167,2183,2200,2217,2232,2250,2266,2283,2300,2317,2333,2350,2366,2383,2400,2416,2433,2450,2466,2483,2500,2516,2533,2550,2566,2583,2599,2616,2631,2648,2666,2683,2700,2716,2733,2749,2766,2784,2799,2816,2832,2849,2866,2883,2899,2915,2932,2949,2966,2983,2999,3016,3032,3049,3065,3082,3099,3116,3133,3149,3166,3183,3199,3216,3233,3250,3266,3282,3299,3316,3333,3349,3366,3382,3399,3416,3433,3449,3466,3483,3499,3516,3532,3549,3566,3582,3599,3616,3633,3649,3666,3683,3699,3716,3733,3749,3766,3781,3799,3816,3832,3850,3866,3882,3899,3916,3933,3949,3967,3982,3999,4015,4031,4048,4066,4082,4099,4114,4131,4148,4166,4182,4198,4215,4232,4249,4265,4281,4298,4315,4333,4349,4365,4381,4399,4416,4432,4449,4466,4482,4499,4516,4533,4549,4564,4582,4599,4615,4632,4649,4666,4682,4699,4716,4732,4749,4765,4781,4798,4815,4832,4849,4865,4882,4899,4916,4932,4949,4965,4982,4999,5015,5032,5049,5065,5081,5098,5115,5132,5148,5165,5182,5199,5215,5232,5248,5265,5281,5298,5316,5332,5348,5365,5381,5399,5414,5432,5449,5465,5482,5498,5515,5532,5547,5565,5582,5598,5615,5632,5648,5664,5680,5697,5714,5732,5748,5765,5780,5797,5814,5831,5848,5865,5882,5898,5915,5932,5948,5965,5982,5999,6015,6031,6048,6064,6081,6098,6115,6131,6148,6165,6182,6198,6214,6231,6248,6265,6281,6298,6315,6331,6348,6365,6380,6398,6415,6431,6448,6465,6482,6497,6514,6531,6548,6563,6580,6598,6614,6631,6648,6664,6681,6698,6715,6731,6748,6764,6780,6798,6815,6831,6848,6864,6881,6898,6914,6931,6948,6965,6981,6998,7014,7031,7048,7063,7080,7097,7114,7131,7148,7163,7180,7197,7214,7231,7248,7264,7281,7298,7314,7331,7348,7365,7380,7397,7413,7430,7448,7464,7481,7497,7514,7531,7548,7564,7580,7597,7614,7631,7648,7664,7681,7698,7714,7731,7747,7764,7781,7797,7814,7830,7848,7864,7881,7897,7914,7930,7947,7964,7980,7997,8014,8031,8047,8063,8081,8097,8114,8131,8147,8164,8180,8197,8214,8231,8247,8264,8280,8297,8314,8331,8347,8364,8380,8397,8414,8431,8447,8464,8480,8497,8514,8529,8546,8563,8580,8597,8614,8630,8647,8664,8680,8697,8713,8730,8747,8763,8780,8797,8814,8830,8847,8863,8880,8897,8913,8929,8947,8964,8979,8996,9013,9030,9047,9064,9080,9098,9112,9129,9146,9163,9180,9197,9213,9229,9247,9263,9279,9297,9314,9330,9347,9363,9380,9396,9413,9429,9446,9463,9479,9500,9512,9529,9546,9563,9580,9596,9613,9630,9646,9663,9680,9698,9713,9730,9747,9764,9781,9797,9813,9830,9846,9864,9879,9896,9913,9930,9946,9963,9980,9997,10013,10030,10046,10063,10080,10097,10112,10129,10146,10163,10180,10197,10213,10229,10246,10263,10280,10296,10313,10330,10346,10363,10380,10396,10414,10431,10446,10463,10479,10497,10513,10530,10546,10563,10580,10596,10612,10629,10646,10663,10679,10696,10713,10730,10746,10763,10780,10796,10813,10829,10846,10863,10879,10896,10912,10929,10945,10963,10978,10996,11013,11030,11046,11063,11079,11096,11112,11129,11146,11163,11179,11196,11213,11230,11246,11263,11280,11296,11313,11329,11346,11362,11379,11394,11411,11429,11446,11463,11479,11496,11513,11529,11546,11563,11578,11596,11612,11628,11645,11662,11679,11696,11712,11729,11746,11762,11779,11796,11812,11829,11846,11862,11879,11895,11912,11929,11946,11962,11979,11996,12012,12029,12045,12062,12078,12096,12112,12129,12148,12162,12179,12196,12212,12228,12245,12261,12280,12296,12313,12329,12345,12362,12379,12395,12412,12429,12444,12462,12478,12495,12512,12529,12545,12562,12579,12595,12612,12629,12645,12662,12679,12695,12712,12729,12745,12762,12779,12795,12810,12828,12844,12862,12878,12895,12912,12929,12945,12962,12979,12995,13012,13028,13045,13062,13078,13096,13112,13128,13145,13161,13178,13195,13211,13229,13245,13262,13279,13295,13312,13329,13345,13362,13378,13395,13412,13428,13445,13462,13478,13495,13512,13528,13545,13562,13578,13595,13612,13628,13644,13661,13678,13695,13711,13729,13745,13762,13778,13795,13812,13827,13845,13862,13878,13894,13911,13928,13945,13961,13978,13993,14011,14028,14045,14061,14078,14094,14111,14128,14143,14160,14177,14195,14211,14228,14244,14261,14278,14296,14311,14327,14343,14360,14377,14395,14411,14428,14445,14461,14478,14494,14511,14527,14545,14561,14578,14595,14611,14628,14645,14661,14678,14694,14710,14727,14744,14760,14778,14794,14811,14828,14845,14861,14878,14894,14911,14928,14944,14961,14978,14995,15011,15028,15044,15061,15077,15094,15111,15128,15144,15161,15178,15194,15210,15227,15244,15261,15277,15294,15311,15328,15344,15361,15377,15394,15411,15427,15444,15461,15478,15494,15511,15528,15542,15559,15576,15593,15609,15626,15644,15661,15677,15695,15711,15728,15744,15761,15777,15794,15810,15827,15844,15861,15877,15894,15911,15927,15944,15960,15977,15994,16010,16027,16044,16061,16077,16094,16110,16127,16144,16160,16177,16194,16210,16227,16244,16260,16277,16294,16310,16327,16344,16360,16377,16393,16410,16427,16443,16460,16477,16493,16510,16526,16543,16560,16577,16594,16610,16627,16644,16660,16677,16693,16710,16727,16744,16760,16777,16794,16810,16826,16843,16860,16877,16894,16910,16927,16944,16960,16977,16993,17010,17027,17043,17060,17077,17093,17109,17127,17143,17160,17177,17193,17210,17226,17243,17260,17276,17293,17310,17327,17343,17360,17377,17394,17410,17427,17444,17459,17477,17493,17510,17526,17543,17560,17577,17593,17610,17627,17643,17660,17676,17692,17710,17726,17742,17760,17777,17793,17810,17826,17843,17860,17876,17892,17910,17926,17943,17959,17976,17993,18009,18026,18043,18059,18076,18093,18110,18126,18143,18159,18176,18193,18208,18225,18242,18259,18276,18293,18309,18326,18343,18359,18375,18393,18410,18425,18443,18459,18475,18492,18509,18525,18542,18559,18576,18593,18610,18626,18643,18660,18676,18693,18709,18726,18742,18758,18776,18792,18809,18825,18843,18859,18876,18893,18909,18926,18942,18959,18976,18993,19009,19026,19043,19059,19076,19092,19109,19126,19142,19159,19176,19192,19209,19226,19243,19259,19276,19292,19310,19326,19342,19359,19375,19392,19409,19426,19442,19459,19475,19492,19510,19526,19542,19558,19574,19591,19609,19625,19642,19658,19675,19691,19709,19725,19742,19759,19775,19792,19808,19826,19843,19858,19875,19892,19909,19926,19942,19959,19976,19992,20009,20026,20042,20059,20075,20092,20109,20125,20142,20159,20176,20192,20209,20225,20242,20258,20275,20292,20309,20325,20342,20359,20376,20391,20409,20425,20442,20459,20475,20492,20509,20525,20542,20560,20575,20592,20609,20625,20642,20659,20675,20691,20708,20724,20741,20758,20775,20792,20809,20825,20842,20859,20875,20891,20908,20925,20941,20958,20975,20992,21008,21023,21040,21058,21074,21091,21108,21125,21141,21158,21175,21191,21208,21225,21242,21258,21275,21291,21308,21325,21342,21357,21374,21391,21408,21425,21441,21458,21475,21491,21508,21525,21541,21558,21575,21591,21608,21625,21641,21658,21674,21691,21708,21724,21740,21757,21775,21791,21807,21825,21841,21858,21874,21891,21909,21924,21941,21958,21974,21991,22008,22024,22041,22058,22074,22091,22106,22124,22141,22158,22175,22191,22208,22224,22241,22258,22274,22291,22306,22323,22340,22358,22374,22391,22408,22424,22441,22458,22474,22491,22507,22525,22541,22557,22574,22591,22608,22625,22641,22658,22674,22691,22708,22724,22741,22757,22774,22791,22807,22824,22841,22858,22874,22891,22908,22924,22941,22958,22974,22990,23007,23024,23040,23057,23074,23091,23108,23124,23141,23157,23173,23190,23208,23223,23240,23257,23274,23291,23306,23324,23341,23357,23374,23391,23407,23424,23441,23457,23474,23490,23507,23524,23540,23557,23574,23591,23607,23624,23640,23656,23673,23689,23706,23724,23739,23756,23773,23790,23807,23824,23841,23857,23873,23890,23907,23924,23939,23956,23974,23990,24007,24024,24040,24057,24074,24090,24107,24124,24140,24157,24173,24189,24206,24223,24239,24256,24274,24289,24306,24324,24340,24356,24373,24391,24407,24424,24440,24456,24473,24491,24507,24523,24540,24556,24573,24589,24607,24623,24640,24657,24674,24690,24707,24724,24740,24757,24773,24790,24807,24823,24840,24857,24873,24890,24907,24923,24940,24957,24973,24990,25006,25023,25040,25056,25073,25090,25107,25123,25140,25157,25174,25190,25207,25222,25238,25256,25273,25289,25305,25323,25339,25356,25373,25390,25406,25423,25439,25456,25473,25490,25506,25523,25540,25556,25572,25589,25605,25622,25639,25655,25677,25689,25707,25723,25739,25756,25772,25789,25806,25823,25840,25857,25873,25890,25905,25923,25940,25956,25972,25990,26006,26023,26040,26056,26073,26090,26106,26123,26140,26156,26173,26189,26206,26223,26239,26256,26273,26289,26306,26323,26339,26355,26373,26389,26406,26423,26439,26456,26473,26489,26505,26522,26539,26555,26572,26589,26604,26621,26638,26656,26672,26688,26705,26722,26739,26756,26772,26788,26807,26822,26839,26856,26873,26889,26906,26923,26939,26956,26973,26989,27006,27022,27039,27056,27073,27089,27106,27121,27138,27156,27171,27188,27205,27222,27239,27256,27272,27289,27306,27322,27338,27356,27372,27388,27405,27422,27439,27455,27472,27489,27505,27522,27539,27555,27572,27589,27606,27622,27639,27655,27674],"hit":[null],"x":[-1.6054421768707483,-1.6054421768707483,-1.6054421768707483,-1.6054421768707483,-1.6054421768707483,-1.6054421768707483,-1.6054421768707483,-1.6054421768707483,-1.6054421768707483,-1.6054421768707483,-1.6054421768707483,-1.6054421768707483,-1.6054421768707483,-1.6054421768707483,-1.6054421768707483,-1.6054421768707483,-1.6054421768707483,-1.6054421768707483,-1.6054421768707483,-1.6054421768707483,-1.6054421768707483,-1.6054421768707483,-1.6054421768707483,-1.6054421768707483,-1.6054421768707483,-1.6054421768707483,-1.6054421768707483,-1.6054421768707483,-1.6054421768707483,-1.6054421768707483,-1.6054421768707483,-1.6054421768707483,-1.6054421768707483,-1.6054421768707483,-1.6054421768707483,-1.6054421768707483,-1.6054421768707483,-1.6054421768707483,-1.6054421768707483,-1.6054421768707483,-1.6054421768707483,-1.6054421768707483,-1.6054421768707483,-1.6054421768707483,-1.6054421768707483,-1.6054421768707483,-1.6054421768707483,-1.6054421768707483,-1.6054421768707483,-1.6054421768707483,-1.6054421768707483,-1.6054421768707483,-1.6054421768707483,-1.6054421768707483,-1.6054421768707483,-1.6054421768707483,-1.6054421768707483,-1.6054421768707483,-1.6054421768707483,-1.6054421768707483,-1.6054421768707483,-1.6054421768707483,-1.6054421768707483,-1.6054421768707483,-1.6054421768707483,-1.6054421768707483,-1.6054421768707483,-1.6054421768707483,-1.6054421768707483,-1.6054421768707483,-1.6054421768707483,-1.6054421768707483,-1.6054421768707483,-1.6054421768707483,-1.6054421768707483,-1.6054421768707483,-1.6054421768707483,-1.6054421768707483,-1.6054421768707483,-1.6054421768707483,-1.6054421768707483,-1.6054421768707483,-1.6054421768707483,-1.6054421768707483,-1.6054421768707483,-1.6054421768707483,-1.6054421768707483,-1.6054421768707483,-1.6054421768707483,-1.6054421768707483,-1.6054421768707483,-1.6054421768707483,-1.6054421768707483,-1.6054421768707483,-1.6054421768707483,-1.6054421768707483,-1.6054421768707483,-1.6054421768707483,-1.6054421768707483,-1.6054421768707483,-1.6054421768707483,-1.6054421768707483,-1.6054421768707483,-1.6054421768707483,-1.6054421768707483,-1.6054421768707483,-1.6054421768707483,-1.6054421768707483,-1.6054421768707483,-1.6054421768707483,-1.6054421768707483,-1.6054421768707483,-1.6054421768707483,-1.6054421768707483,-1.6054421768707483,-1.6054421768707483,-1.6054421768707483,-1.6054421768707483,-1.6054421768707483,-1.6054421768707483,-1.6054421768707483,-1.6054421768707483,-1.6054421768707483,-1.6054421768707483,-1.6054421768707483,-1.6054421768707483,-1.6054421768707483,-1.6054421768707483,-1.6054421768707483,-1.6054421768707483,-1.6054421768707483,-1.6054421768707483,-1.6054421768707483,-1.6054421768707483,-1.6054421768707483,-1.6054421768707483,-1.6054421768707483,-1.6054421768707483,-1.6054421768707483,-1.6054421768707483,-1.6054421768707483,-1.6054421768707483,-1.6054421768707483,-1.6054421768707483,-1.6054421768707483,-1.6054421768707483,-1.6054421768707483,-1.6054421768707483,-1.6054421768707483,-1.6054421768707483,-1.6054421768707483,-1.6054421768707483,-1.6054421768707483,-1.6054421768707483,-1.6054421768707483,-1.6054421768707483,-1.6054421768707483,-1.6054421768707483,-1.6054421768707483,-1.6054421768707483,-1.6054421768707483,-1.6054421768707483,-1.6054421768707483,-1.6054421768707483,-1.6054421768707483,-1.6054421768707483,-1.6054421768707483,-1.6054421768707483,-1.6054421768707483,-1.6054421768707483,-1.6054421768707483,-1.6054421768707483,-1.6054421768707483,-1.6054421768707483,-1.6054421768707483,-1.6054421768707483,-1.6054421768707483,-1.6054421768707483,-1.6054421768707483,-1.6054421768707483,-1.6054421768707483,-1.6054421768707483,-1.6054421768707483,-1.6054421768707483,-1.6054421768707483,-1.6054421768707483,-1.6054421768707483,-1.6054421768707483,-1.6054421768707483,-1.6054421768707483,-1.6054421768707483,-1.6054421768707483,-1.6054421768707483,-1.6054421768707483,-1.6054421768707483,-1.6054421768707483,-1.6054421768707483,-1.6054421768707483,-1.6054421768707483,-1.6054421768707483,-1.6054421768707483,-1.6054421768707483,-1.6054421768707483,-1.6054421768707483,-1.6054421768707483,-1.6054421768707483,-1.6054421768707483,-1.6054421768707483,-1.6054421768707483,-1.6054421768707483,-1.6054421768707483,-1.6054421768707483,-1.6054421768707483,-1.6054421768707483,-1.6054421768707483,-1.6054421768707483,-1.6054421768707483,-1.6054421768707483,-1.6054421768707483,-1.6054421768707483,-1.6054421768707483,-1.6054421768707483,-1.6054421768707483,-1.6054421768707483,-1.6054421768707483,-1.6054421768707483,-1.6054421768707483,-1.6054421768707483,-1.6054421768707483,-1.6054421768707483,-1.6054421768707483,-1.6054421768707483,-1.6054421768707483,-1.6054421768707483,-1.6054421768707483,-1.6054421768707483,-1.6054421768707483,-1.6054421768707483,-1.6054421768707483,-1.6054421768707483,-1.6054421768707483,-1.6054421768707483,-1.6054421768707483,-1.6054421768707483,-1.6054421768707483,-1.6054421768707483,-1.6054421768707483,-1.6054421768707483,-1.6054421768707483,-1.6054421768707483,-1.6054421768707483,-1.6054421768707483,-1.6054421768707483,-1.6054421768707483,-1.6054421768707483,-1.6054421768707483,-1.6054421768707483,-1.6054421768707483,-1.6054421768707483,-1.6054421768707483,-1.6054421768707483,-1.6054421768707483,-1.6054421768707483,-1.6054421768707483,-1.6054421768707483,-1.6054421768707483,-1.6054421768707483,-1.6054421768707483,-1.6054421768707483,-1.6054421768707483,-1.6054421768707483,-1.6054421768707483,-1.6054421768707483,-1.6054421768707483,-1.6054421768707483,-1.6054421768707483,-1.6054421768707483,-1.6054421768707483,-1.6054421768707483,-1.6054421768707483,-1.6054421768707483,-1.6054421768707483,-1.6054421768707483,-1.6054421768707483,-1.6054421768707483,-1.6054421768707483,-1.6054421768707483,-1.6054421768707483,-1.6054421768707483,-1.6054421768707483,-1.6054421768707483,-1.6054421768707483,-1.6054421768707483,-1.6054421768707483,-1.6054421768707483,-1.6054421768707483,-1.6054421768707483,-1.6054421768707483,-1.6054421768707483,-1.6054421768707483,-1.6054421768707483,-1.6054421768707483,-1.6054421768707483,-1.6054421768707483,-1.6054421768707483,-1.6054421768707483,-1.6054421768707483,-1.6054421768707483,-1.6054421768707483,-1.6054421768707483,-1.6054421768707483,-1.6054421768707483,-1.6054421768707483,-1.6054421768707483,-1.6054421768707483,-1.6054421768707483,-1.6054421768707483,-1.6054421768707483,-1.6054421768707483,-1.6054421768707483,-1.6054421768707483,-1.6054421768707483,-1.6054421768707483,-1.6054421768707483,-1.6054421768707483,-1.6054421768707483,-1.6054421768707483,-1.6054421768707483,-1.6054421768707483,-1.6054421768707483,-1.6054421768707483,-1.6054421768707483,-1.6054421768707483,-1.6054421768707483,-1.6054421768707483,-1.6054421768707483,-1.6054421768707483,-1.6054421768707483,-1.6054421768707483,-1.6054421768707483,-1.6054421768707483,-1.6054421768707483,-1.6054421768707483,-1.6054421768707483,-1.6054421768707483,-1.6054421768707483,-1.6054421768707483,-1.6054421768707483,-1.6054421768707483,-1.6054421768707483,-1.6054421768707483,-1.6054421768707483,-1.6054421768707483,-1.6054421768707483,-1.6054421768707483,-1.6054421768707483,-1.6054421768707483,-1.6054421768707483,-1.6054421768707483,-1.6054421768707483,-1.6054421768707483,-1.6054421768707483,-1.6054421768707483,-1.6054421768707483,-1.6054421768707483,-1.6054421768707483,-1.6054421768707483,-1.6054421768707483,-1.6054421768707483,-1.6054421768707483,-1.6054421768707483,-1.6054421768707483,-1.6054421768707483,-1.6054421768707483,-1.6054421768707483,-1.6054421768707483,-1.6054421768707483,-1.6054421768707483,-1.6054421768707483,-1.6054421768707483,-1.6054421768707483,-1.6054421768707483,-1.6054421768707483,-1.6054421768707483,-1.6054421768707483,-1.6054421768707483,-1.6054421768707483,-1.6054421768707483,-1.6054421768707483,-1.6054421768707483,-1.6054421768707483,-1.6054421768707483,-1.6054421768707483,-1.6054421768707483,-1.6054421768707483,-1.6054421768707483,-1.6054421768707483,-1.6054421768707483,-1.6054421768707483,-1.6054421768707483,-1.6054421768707483,-1.6054421768707483,-1.6054421768707483,-1.6054421768707483,-1.6054421768707483,-1.6054421768707483,-1.6054421768707483,-1.6054421768707483,-1.6054421768707483,-1.6054421768707483,-1.6054421768707483,-1.6054421768707483,-1.6054421768707483,-1.6054421768707483,-1.6054421768707483,-1.6054421768707483,-1.6054421768707483,-1.6054421768707483,-1.6054421768707483,-1.6054421768707483,-1.6054421768707483,-1.6054421768707483,-1.6054421768707483,-1.6054421768707483,-1.6054421768707483,-1.6054421768707483,-1.6054421768707483,-1.6054421768707483,-1.6054421768707483,-1.6054421768707483,-1.6054421768707483,-1.6054421768707483,-1.6054421768707483,-1.6054421768707483,-1.6054421768707483,-1.6054421768707483,-1.6054421768707483,-1.6054421768707483,-1.6054421768707483,-1.6054421768707483,-1.6054421768707483,-1.6054421768707483,-1.6054421768707483,-1.6054421768707483,-1.6054421768707483,-1.6054421768707483,-1.6054421768707483,-1.6054421768707483,-1.6054421768707483,-1.6054421768707483,-1.6054421768707483,-1.6054421768707483,-1.6054421768707483,-1.6054421768707483,-1.6054421768707483,-1.6054421768707483,-1.6054421768707483,-1.6054421768707483,-1.6054421768707483,-1.6054421768707483,-1.6054421768707483,-1.6054421768707483,-1.6054421768707483,-1.6054421768707483,-1.6054421768707483,-1.6054421768707483,-1.6054421768707483,-1.6054421768707483,-1.6054421768707483,-1.6054421768707483,-1.6054421768707483,-1.6054421768707483,-1.6054421768707483,-1.6054421768707483,-1.6054421768707483,-1.6054421768707483,-1.6054421768707483,-1.6054421768707483,-1.6054421768707483,-1.6054421768707483,-1.6054421768707483,-1.6054421768707483,-1.6054421768707483,-1.6054421768707483,-1.6054421768707483,-1.6054421768707483,-1.6054421768707483,-1.6054421768707483,-1.6054421768707483,-1.6054421768707483,-1.6054421768707483,-1.6054421768707483,-1.6054421768707483,-1.6054421768707483,-1.6054421768707483,-1.6054421768707483,-1.6054421768707483,-1.6054421768707483,-1.6054421768707483,-1.6054421768707483,-1.6054421768707483,-1.6054421768707483,-1.6054421768707483,-1.6054421768707483,-1.6054421768707483,-1.6054421768707483,-1.6054421768707483,-1.6054421768707483,-1.6054421768707483,-1.6054421768707483,-1.6054421768707483,-1.6054421768707483,-1.6054421768707483,-1.6054421768707483,-1.6054421768707483,-1.6054421768707483,-1.6054421768707483,-1.6054421768707483,-1.6054421768707483,-1.6054421768707483,-1.6054421768707483,-1.6054421768707483,-1.6054421768707483,-1.6054421768707483,-1.6054421768707483,-1.6054421768707483,-1.6054421768707483,-1.6054421768707483,-1.6054421768707483,-1.6054421768707483,-1.6054421768707483,-1.6054421768707483,-1.6054421768707483,-1.6054421768707483,-1.6054421768707483,-1.6054421768707483,-1.6054421768707483,-1.6054421768707483,-1.6054421768707483,-1.6054421768707483,-1.6054421768707483,-1.6054421768707483,-1.6054421768707483,-1.6054421768707483,-1.6054421768707483,-1.6054421768707483,-1.6054421768707483,-1.6054421768707483,-1.6054421768707483,-1.6054421768707483,-1.6054421768707483,-1.6054421768707483,-1.6054421768707483,-1.6054421768707483,-1.6054421768707483,-1.6054421768707483,-1.6054421768707483,-1.6054421768707483,-1.6054421768707483,-1.6054421768707483,-1.6054421768707483,-1.6054421768707483,-1.6054421768707483,-1.6054421768707483,-1.6054421768707483,-1.6054421768707483,-1.6054421768707483,-1.6054421768707483,-1.6054421768707483,1.0226758061623087,1.0226758061623087,1.0226758061623087,1.0226758061623087,1.0226758061623087,1.0204081632653061,1.0204081632653061,1.0204081632653061,1.0204081632653061,1.0204081632653061,1.0204081632653061,1.0204081632653061,1.0204081632653061,1.0204081632653061,1.0204081632653061,1.0204081632653061,1.0204081632653061,1.0204081632653061,1.0204081632653061,1.0204081632653061,1.0204081632653061,1.0204081632653061,1.0204081632653061,1.0204081632653061,1.0204081632653061,1.0204081632653061,1.0204081632653061,1.0204081632653061,1.0204081632653061,1.0204081632653061,1.0204081632653061,1.0204081632653061,1.0204081632653061,1.0204081632653061,1.0204081632653061,1.0204081632653061,1.0204081632653061,1.0204081632653061,1.0204081632653061,1.0204081632653061,1.0204081632653061,1.0204081632653061,1.0204081632653061,1.0204081632653061,1.0204081632653061,1.0204081632653061,1.0204081632653061,1.0204081632653061,1.0204081632653061,1.0204081632653061,1.0204081632653061,1.0204081632653061,1.0204081632653061,1.0204081632653061,1.0204081632653061,1.0204081632653061,1.0204081632653061,1.0204081632653061,1.0204081632653061,1.0204081632653061,1.0204081632653061,1.0204081632653061,1.0204081632653061,1.0204081632653061,1.0204081632653061,1.0204081632653061,1.0204081632653061,1.0204081632653061,1.0204081632653061,1.0204081632653061,1.0204081632653061,1.0204081632653061,1.0204081632653061,1.0204081632653061,1.0204081632653061,1.0204081632653061,1.0204081632653061,1.0204081632653061,1.0204081632653061,1.0204081632653061,1.0204081632653061,1.0204081632653061,1.0204081632653061,1.0204081632653061,1.0204081632653061,1.0204081632653061,1.0204081632653061,1.0204081632653061,1.0204081632653061,1.0204081632653061,1.0204081632653061,1.0204081632653061,1.0204081632653061,1.0204081632653061,1.0204081632653061,1.0204081632653061,1.0204081632653061,1.0204081632653061,1.0204081632653061,1.0204081632653061,1.0204081632653061,1.0204081632653061,1.0204081632653061,1.0204081632653061,1.0204081632653061,1.0204081632653061,1.0204081632653061,1.0204081632653061,1.0204081632653061,1.0204081632653061,1.0204081632653061,1.0204081632653061,1.0204081632653061,1.0204081632653061,1.0204081632653061,1.0204081632653061,1.0204081632653061,1.0204081632653061,1.0204081632653061,1.0204081632653061,1.0204081632653061,1.0204081632653061,1.0204081632653061,1.0204081632653061,1.0204081632653061,1.0204081632653061,1.0204081632653061,1.0204081632653061,1.0204081632653061,1.0204081632653061,1.0204081632653061,1.0204081632653061,1.0204081632653061,1.0204081632653061,1.0204081632653061,1.0204081632653061,1.0204081632653061,1.0204081632653061,1.0204081632653061,1.0204081632653061,1.0204081632653061,1.0204081632653061,1.0204081632653061,1.0204081632653061,1.0204081632653061,1.0204081632653061,1.0204081632653061,1.0204081632653061,1.0204081632653061,1.0204081632653061,1.0204081632653061,1.0204081632653061,1.0204081632653061,1.0204081632653061,1.0204081632653061,1.0204081632653061,1.0204081632653061,1.0204081632653061,1.0204081632653061,1.0204081632653061,1.0204081632653061,1.0204081632653061,1.0204081632653061,1.0204081632653061,1.0204081632653061,1.0204081632653061,1.0204081632653061,1.0204081632653061,1.0204081632653061,1.0204081632653061,1.0204081632653061,1.0204081632653061,1.0204081632653061,1.0204081632653061,1.0204081632653061,1.0204081632653061,1.0204081632653061,1.0204081632653061,1.0204081632653061,1.0204081632653061,1.0204081632653061,1.0204081632653061,1.0204081632653061,1.0204081632653061,1.0204081632653061,1.0204081632653061,1.0204081632653061,1.0204081632653061,1.0204081632653061,1.0204081632653061,1.0204081632653061,1.0204081632653061,1.0204081632653061,1.0204081632653061,1.0204081632653061,1.0204081632653061,1.0204081632653061,1.0204081632653061,1.0204081632653061,1.0204081632653061,1.0204081632653061,1.0204081632653061,1.0204081632653061,1.0204081632653061,1.0204081632653061,1.0204081632653061,1.0204081632653061,1.0204081632653061,1.0204081632653061,1.0204081632653061,1.0204081632653061,1.0204081632653061,1.0204081632653061,1.0204081632653061,1.0204081632653061,1.0204081632653061,1.0204081632653061,1.0204081632653061,1.0204081632653061,1.0204081632653061,1.0204081632653061,1.0204081632653061,1.0204081632653061,1.0204081632653061,1.0204081632653061,1.0204081632653061,1.0204081632653061,1.0204081632653061,1.0204081632653061,1.0204081632653061,1.0204081632653061,1.0204081632653061,1.0204081632653061,1.0204081632653061,1.0204081632653061,1.0204081632653061,1.0204081632653061,1.0204081632653061,1.0204081632653061,1.0204081632653061,1.0204081632653061,1.0204081632653061,1.0204081632653061,1.0204081632653061,1.0204081632653061,1.0204081632653061,1.0204081632653061,1.0204081632653061,1.0204081632653061,1.0204081632653061,1.0204081632653061,1.0204081632653061,1.0204081632653061,1.0204081632653061,1.0204081632653061,1.0204081632653061,1.0204081632653061,1.0204081632653061,1.0204081632653061,1.0204081632653061,1.0204081632653061,1.0204081632653061,1.0204081632653061,1.0204081632653061,1.0204081632653061,1.0204081632653061,1.0204081632653061,1.0204081632653061,1.0204081632653061,1.0204081632653061,1.0204081632653061,1.0204081632653061,1.0204081632653061,1.0204081632653061,1.0204081632653061,1.0204081632653061,1.0204081632653061,1.0204081632653061,1.0204081632653061,1.0204081632653061,1.0204081632653061,1.0204081632653061,1.0204081632653061,1.0204081632653061,1.0204081632653061,1.0204081632653061,1.0204081632653061,1.0204081632653061,1.0204081632653061,1.0204081632653061,1.0204081632653061,1.0204081632653061,1.0204081632653061,1.0204081632653061,1.0204081632653061,1.0204081632653061,1.0204081632653061,1.0204081632653061,1.0204081632653061,1.0204081632653061,1.0204081632653061,1.0204081632653061,1.0204081632653061,1.0204081632653061,1.0204081632653061,1.0204081632653061,1.0204081632653061,1.0204081632653061,1.0204081632653061,1.0204081632653061,1.0204081632653061,1.0204081632653061,1.0204081632653061,1.0204081632653061,1.0204081632653061,1.0204081632653061,1.0204081632653061,1.0204081632653061,1.0204081632653061,1.0204081632653061,1.0204081632653061,1.0204081632653061,1.0204081632653061,1.0204081632653061,1.0204081632653061,1.0204081632653061,1.0204081632653061,1.0204081632653061,1.0204081632653061,1.0204081632653061,1.0204081632653061,1.0204081632653061,1.0204081632653061,1.0204081632653061,1.0204081632653061,1.0204081632653061,1.0204081632653061,1.0204081632653061,1.0204081632653061,1.0204081632653061,1.0204081632653061,1.0204081632653061,1.0204081632653061,1.0204081632653061,1.0204081632653061,1.0204081632653061,1.0204081632653061,1.0204081632653061,1.0204081632653061,1.0204081632653061,1.0204081632653061,1.0204081632653061,1.0204081632653061,1.0204081632653061,1.0204081632653061,1.0204081632653061,1.0204081632653061,1.0204081632653061,1.0204081632653061,1.0204081632653061,1.0204081632653061,1.0204081632653061,1.0204081632653061,1.0204081632653061,1.0204081632653061,1.0204081632653061,1.0204081632653061,1.0204081632653061,1.0204081632653061,1.0204081632653061,1.0204081632653061,1.0204081632653061,1.0204081632653061,1.0204081632653061,1.0204081632653061,1.0204081632653061,1.0204081632653061,1.0204081632653061,1.0204081632653061,1.0204081632653061,1.0204081632653061,1.0204081632653061,1.0204081632653061,1.0204081632653061,1.0204081632653061,1.0204081632653061,1.0204081632653061,1.0204081632653061,1.0204081632653061,1.0204081632653061,1.0204081632653061,1.0204081632653061,1.0204081632653061,1.0204081632653061,1.0204081632653061,1.0204081632653061,1.0204081632653061,1.0204081632653061,1.0204081632653061,1.0204081632653061,1.0204081632653061,1.0204081632653061,1.0204081632653061,1.0204081632653061,1.0204081632653061,1.0204081632653061,1.0204081632653061,1.0204081632653061,1.0204081632653061,1.0204081632653061,1.0204081632653061,1.0204081632653061,1.0204081632653061,1.0204081632653061,1.0204081632653061,1.0204081632653061,1.0204081632653061,1.0204081632653061,1.0204081632653061,1.0204081632653061,1.0204081632653061,1.0204081632653061,1.0204081632653061,1.0204081632653061,1.0204081632653061,1.0204081632653061,1.0204081632653061,1.0204081632653061,1.0204081632653061,1.0204081632653061,1.0204081632653061,1.0204081632653061,1.0204081632653061,1.0204081632653061,1.0204081632653061,1.0204081632653061,1.0204081632653061,1.0204081632653061,1.0204081632653061,1.0204081632653061,1.0204081632653061,1.0204081632653061,1.0204081632653061,1.0204081632653061,1.0204081632653061,1.0204081632653061,1.0204081632653061,1.0204081632653061,1.0204081632653061,1.0204081632653061,1.0204081632653061,1.0204081632653061,1.0204081632653061,1.0204081632653061,1.0204081632653061,1.0204081632653061,1.0204081632653061,1.0204081632653061,1.0204081632653061,1.0204081632653061,1.0204081632653061,1.0204081632653061,1.0204081632653061,1.0204081632653061,1.0204081632653061,1.0204081632653061,1.0204081632653061,1.0204081632653061,1.0204081632653061,1.0204081632653061,1.0204081632653061,1.0204081632653061,1.0204081632653061,1.0204081632653061,1.0204081632653061,1.0204081632653061,1.0204081632653061,1.0204081632653061,1.0204081632653061,1.0204081632653061,1.0204081632653061,1.0204081632653061,1.0204081632653061,1.0204081632653061,1.0204081632653061,1.0204081632653061,1.0204081632653061,1.0204081632653061,1.0204081632653061,1.0204081632653061,1.0204081632653061,1.0204081632653061,1.0204081632653061,1.0204081632653061,1.0204081632653061,1.0204081632653061,1.0204081632653061,1.0204081632653061,1.0204081632653061,1.0204081632653061,1.0204081632653061,1.0204081632653061,1.0204081632653061,1.0204081632653061,1.0204081632653061,1.0204081632653061,1.0204081632653061,1.0204081632653061,1.0204081632653061,1.0204081632653061,1.0204081632653061,1.0204081632653061,1.0204081632653061,1.0204081632653061,1.0204081632653061,1.0204081632653061,1.0204081632653061,1.0204081632653061,1.0204081632653061,1.0204081632653061,1.0204081632653061,1.0204081632653061,1.0204081632653061,1.0204081632653061,1.0204081632653061,1.0204081632653061,1.0204081632653061,1.0204081632653061,1.0204081632653061,1.0204081632653061,1.0204081632653061,1.0204081632653061,1.0204081632653061,1.0204081632653061,1.0204081632653061,1.0204081632653061,1.0204081632653061,1.0204081632653061,1.0204081632653061,1.0204081632653061,0.011337903081154337,0.011337903081154337,0.011337903081154337,0.01020408163265306,0.01020408163265306,0.01020408163265306,0.01020408163265306,0.01020408163265306,0.01020408163265306,0.01020408163265306,0.01020408163265306,0.01020408163265306,0.01020408163265306,0.01020408163265306,0.01020408163265306,0.01020408163265306,0.01020408163265306,0.01020408163265306,0.01020408163265306,0.01020408163265306,0.01020408163265306,0.01020408163265306,0.01020408163265306,0.01020408163265306,0.01020408163265306,0.01020408163265306,0.01020408163265306,0.01020408163265306,0.01020408163265306,0.01020408163265306,0.01020408163265306,0.01020408163265306,0.01020408163265306,0.01020408163265306,0.01020408163265306,0.01020408163265306,0.01020408163265306,0.01020408163265306,0.01020408163265306,0.01020408163265306,0.01020408163265306,0.01020408163265306,0.01020408163265306,0.01020408163265306,0.01020408163265306,0.01020408163265306,0.01020408163265306,0.01020408163265306,0.01020408163265306,0.01020408163265306,0.01020408163265306,0.01020408163265306,0.01020408163265306,0.01020408163265306,0.01020408163265306,0.01020408163265306,0.01020408163265306,0.01020408163265306,0.01020408163265306,0.01020408163265306,0.01020408163265306,0.01020408163265306,0.01020408163265306,0.01020408163265306,0.01020408163265306,0.01020408163265306,0.01020408163265306,-0.01587298127258716,-0.01587298127258716,-0.01587298127258716,-0.01587298127258716,-0.01587298127258716,-0.01587298127258716,-0.017006802721088437,-0.017006802721088437,-0.017006802721088437,-0.017006802721088437,-0.017006802721088437,-0.017006802721088437,-0.017006802721088437,-0.017006802721088437,-0.017006802721088437,-0.017006802721088437,-0.017006802721088437,-0.017006802721088437,-0.017006802721088437,-0.017006802721088437,-0.017006802721088437,-0.017006802721088437,-0.017006802721088437,-0.017006802721088437,-0.017006802721088437,-0.017006802721088437,-0.017006802721088437,-0.017006802721088437,-0.017006802721088437,-0.017006802721088437,-0.017006802721088437,-0.017006802721088437,-0.017006802721088437,-0.017006802721088437,-0.017006802721088437,-0.017006802721088437,-0.017006802721088437,-0.017006802721088437,-0.017006802721088437,-0.017006802721088437,-0.017006802721088437,-0.017006802721088437,-0.017006802721088437,-0.017006802721088437,-0.017006802721088437,-0.017006802721088437,-0.017006802721088437,-0.017006802721088437,-0.017006802721088437,-0.017006802721088437,-0.017006802721088437,-0.017006802721088437,-0.017006802721088437,-0.017006802721088437,-0.017006802721088437,-0.017006802721088437,-0.017006802721088437,-0.017006802721088437,-0.017006802721088437,-0.017006802721088437,-0.017006802721088437,-0.017006802721088437,-0.017006802721088437,-0.017006802721088437,-0.017006802721088437,-0.017006802721088437,-0.017006802721088437,-0.017006802721088437,-0.017006802721088437,-0.017006802721088437,-0.017006802721088437,-0.017006802721088437,-0.017006802721088437,-0.017006802721088437,-0.017006802721088437,-0.017006802721088437,-0.017006802721088437,-0.017006802721088437,-0.017006802721088437,-0.017006802721088437,-0.017006802721088437,-0.017006802721088437,-0.017006802721088437,-0.017006802721088437,-0.017006802721088437,-0.017006802721088437,-0.017006802721088437,-0.017006802721088437,-0.017006802721088437,-0.017006802721088437,-0.017006802721088437,-0.017006802721088437,-0.017006802721088437,-0.017006802721088437,-0.017006802721088437,-0.017006802721088437,-0.017006802721088437,-0.017006802721088437,-0.017006802721088437,-0.017006802721088437,-0.017006802721088437,-0.017006802721088437,-0.017006802721088437,-0.017006802721088437,-0.017006802721088437,-0.017006802721088437,-0.017006802721088437,-0.017006802721088437,-0.017006802721088437,-0.017006802721088437,-0.017006802721088437,-0.017006802721088437,-0.017006802721088437,-0.017006802721088437,-0.017006802721088437,-0.017006802721088437,-0.017006802721088437,-0.017006802721088437,-0.017006802721088437,-0.017006802721088437,-0.017006802721088437,-0.017006802721088437,-0.017006802721088437,-0.017006802721088437,0.9954649218085672,0.9954649218085672,0.9954649218085672,0.9954649218085672,0.9954649218085672,0.9954649218085672,0.9931972789115646,0.9931972789115646,0.9931972789115646,0.9931972789115646,0.9931972789115646,0.9931972789115646,0.9931972789115646,0.9931972789115646,0.9931972789115646,0.9931972789115646,0.9931972789115646,0.9931972789115646,0.9931972789115646,0.9931972789115646,0.9931972789115646,0.9931972789115646,0.9931972789115646,0.9931972789115646,0.9931972789115646,0.9931972789115646,0.9931972789115646,0.9931972789115646,0.9931972789115646,0.9931972789115646,0.9931972789115646,0.9931972789115646,0.9931972789115646,0.9931972789115646,0.9931972789115646,0.9931972789115646,0.9931972789115646,0.9931972789115646,0.9931972789115646,0.9931972789115646,0.9931972789115646,0.9931972789115646,0.9931972789115646,0.9931972789115646,0.9931972789115646,0.9931972789115646,0.9931972789115646,0.9931972789115646,0.9931972789115646,0.9931972789115646,0.9931972789115646,0.9931972789115646,0.9931972789115646,0.9931972789115646,0.9931972789115646,0.9931972789115646,0.9931972789115646,0.9931972789115646,0.9931972789115646,0.9931972789115646,0.9931972789115646,0.9931972789115646,0.9931972789115646,0.9931972789115646,0.9931972789115646,0.9931972789115646,0.9931972789115646,0.9931972789115646,0.9931972789115646,0.9931972789115646,0.9931972789115646,0.9931972789115646,0.9931972789115646,0.9931972789115646,0.9931972789115646,0.9931972789115646,0.9931972789115646,0.9931972789115646,0.9931972789115646,0.9931972789115646,0.9931972789115646,0.9931972789115646,0.9931972789115646,0.9931972789115646,0.9931972789115646,0.9931972789115646,0.9931972789115646,0.9931972789115646,0.9931972789115646,0.9931972789115646,0.9931972789115646,0.9931972789115646,0.9931972789115646,0.9931972789115646,0.9931972789115646,0.9931972789115646,0.9931972789115646,0.9931972789115646,0.9931972789115646,0.9931972789115646,0.9931972789115646,0.9931972789115646,0.9931972789115646,0.9931972789115646,0.9931972789115646,0.9931972789115646,0.9931972789115646,0.9931972789115646,0.9931972789115646,0.9931972789115646,0.9931972789115646,0.9931972789115646,0.9931972789115646,0.9931972789115646,0.9931972789115646,0.9931972789115646,0.9931972789115646,0.9931972789115646,0.9931972789115646,0.5532880510602679,0.5532880510602679,0.5532880510602679,0.5532880510602679,0.5532880510602679,0.5532880510602679,0.5510204081632653,0.5510204081632653,0.5510204081632653,0.5510204081632653,0.5510204081632653,0.5510204081632653,0.5510204081632653,0.5510204081632653,0.5510204081632653,0.5510204081632653,0.5510204081632653,0.5510204081632653,0.5510204081632653,0.5510204081632653,0.5510204081632653,0.5510204081632653,0.5510204081632653,0.5510204081632653,0.5510204081632653,0.5510204081632653,0.5510204081632653,0.5510204081632653,0.5510204081632653,0.5510204081632653,0.5510204081632653,0.5510204081632653,0.16326530612244897,0.16326530612244897,0.16326530612244897,0.16326530612244897,0.16326530612244897,0.16326530612244897,0.16326530612244897,0.16326530612244897,0.16326530612244897,0.16326530612244897,0.16326530612244897,0.16326530612244897,0.16326530612244897,0.16326530612244897,0.16326530612244897,0.16326530612244897,0.16326530612244897,0.16326530612244897,0.16326530612244897,0.16326530612244897,0.16326530612244897,0.16326530612244897,0.16326530612244897,0.16326530612244897,0.16326530612244897,0.16326530612244897,0.16326530612244897,0.16326530612244897,0.16326530612244897,0.16326530612244897,0.16326530612244897,0.16326530612244897,0.16326530612244897,0.16326530612244897,0.16326530612244897,0.16326530612244897,0.16326530612244897,0.16326530612244897,0.16326530612244897,0.16326530612244897,0.16326530612244897,0.16326530612244897,0.16326530612244897,0.16326530612244897,0.16326530612244897,0.16326530612244897,0.16326530612244897,0.16326530612244897,0.16326530612244897,0.16326530612244897,0.16326530612244897,0.16326530612244897,0.16326530612244897,0.16326530612244897,0.16326530612244897,0.16326530612244897,0.16326530612244897,0.16326530612244897,0.16326530612244897,0.16326530612244897,0.16326530612244897,0.16326530612244897,0.16326530612244897,0.16326530612244897,0.16326530612244897,0.16326530612244897,0.16326530612244897,0.16326530612244897,0.16326530612244897,0.16326530612244897,0.16326530612244897,0.16326530612244897,0.16326530612244897,0.16326530612244897,0.16326530612244897,0.16326530612244897,0.16326530612244897,0.16326530612244897,0.16326530612244897,0.16326530612244897,0.16326530612244897,0.16326530612244897,0.16326530612244897,0.16326530612244897,1.1156462585034013,1.1156462585034013,1.1156462585034013,1.1156462585034013,1.1156462585034013,1.1156462585034013,1.1156462585034013,1.1156462585034013,1.1156462585034013,1.1156462585034013,1.1156462585034013,1.1156462585034013,1.1156462585034013,1.1156462585034013,1.1156462585034013,1.1156462585034013,1.1156462585034013,1.1156462585034013,1.1156462585034013,1.1156462585034013,1.1156462585034013,1.1156462585034013,1.1156462585034013,1.1156462585034013,1.1156462585034013,1.1156462585034013,1.1156462585034013,1.1156462585034013,1.1156462585034013,1.1156462585034013,1.1156462585034013,1.1156462585034013,1.1156462585034013,1.1156462585034013,1.1156462585034013,1.1156462585034013,1.1156462585034013,1.1156462585034013,1.1156462585034013,1.1156462585034013,1.1156462585034013,1.1156462585034013,1.1156462585034013,1.1156462585034013,1.1156462585034013,1.1156462585034013,1.1156462585034013,1.1156462585034013,1.1156462585034013,1.1156462585034013,1.1156462585034013,1.1156462585034013,1.1156462585034013,1.1156462585034013,1.1156462585034013,1.1156462585034013,1.1156462585034013,1.1156462585034013,1.1156462585034013,1.1156462585034013,1.1156462585034013,1.1156462585034013,1.1156462585034013,1.1156462585034013,1.1156462585034013,1.1156462585034013,1.1156462585034013,1.1156462585034013,1.1156462585034013,1.1156462585034013,1.1156462585034013,1.1156462585034013,1.1156462585034013,1.1156462585034013,1.1156462585034013,1.1156462585034013,1.1156462585034013,1.1156462585034013,1.1156462585034013,1.1156462585034013,1.1156462585034013,1.1156462585034013,1.1156462585034013,1.1156462585034013,1.1156462585034013,1.1156462585034013,1.1156462585034013,1.1156462585034013,1.1156462585034013,1.1156462585034013,1.1156462585034013,1.1156462585034013,1.1156462585034013,1.1156462585034013,1.1156462585034013,1.1156462585034013,1.1156462585034013,1.1156462585034013,1.1156462585034013,1.1156462585034013,1.1156462585034013,1.1156462585034013,1.1156462585034013,1.1156462585034013,1.1156462585034013,1.1156462585034013,1.1156462585034013,1.1156462585034013,1.1156462585034013,1.1156462585034013,1.1156462585034013,1.1156462585034013,1.1156462585034013,1.1156462585034013,1.1156462585034013,1.1156462585034013,1.1156462585034013,1.1156462585034013,1.1156462585034013,1.1156462585034013,1.1156462585034013,1.1156462585034013,1.1156462585034013,1.1156462585034013,1.1156462585034013,1.1156462585034013],"y":[-3.1746031746031744,-3.1746031746031744,-3.1746031746031744,-3.1746031746031744,-3.1746031746031744,-3.1746031746031744,-3.1746031746031744,-3.1746031746031744,-3.1746031746031744,-3.1746031746031744,-3.1746031746031744,-3.1746031746031744,-3.1746031746031744,-3.1746031746031744,-3.1746031746031744,-3.1746031746031744,-3.1746031746031744,-3.1746031746031744,-3.1746031746031744,-3.1746031746031744,-3.1746031746031744,-3.1746031746031744,-3.1746031746031744,-3.1746031746031744,-3.1746031746031744,-3.1746031746031744,-3.1746031746031744,-3.1746031746031744,-3.1746031746031744,-3.1746031746031744,-3.1746031746031744,-3.1746031746031744,-3.1746031746031744,-3.1746031746031744,-3.1746031746031744,-3.1746031746031744,-3.1746031746031744,-3.1746031746031744,-3.1746031746031744,-3.1746031746031744,-3.1746031746031744,-3.1746031746031744,-3.1746031746031744,-3.1746031746031744,-3.1746031746031744,-3.1746031746031744,-3.1746031746031744,-3.1746031746031744,-3.1746031746031744,-3.1746031746031744,-3.1746031746031744,-3.1746031746031744,-3.1746031746031744,-3.1746031746031744,-3.1746031746031744,-3.1746031746031744,-3.1746031746031744,-3.1746031746031744,-3.1746031746031744,-3.1746031746031744,-3.1746031746031744,-3.1746031746031744,-3.1746031746031744,-3.1746031746031744,-3.1746031746031744,-3.1746031746031744,-3.1746031746031744,-3.1746031746031744,-3.1746031746031744,-3.1746031746031744,-3.1746031746031744,-3.1746031746031744,-3.1746031746031744,-3.1746031746031744,-3.1746031746031744,-3.1746031746031744,-3.1746031746031744,-3.1746031746031744,-3.1746031746031744,-3.1746031746031744,-3.1746031746031744,-3.1746031746031744,-3.1746031746031744,-3.1746031746031744,-3.1746031746031744,-3.1746031746031744,-3.1746031746031744,-3.1746031746031744,-3.1746031746031744,-3.1746031746031744,-3.1746031746031744,-3.1746031746031744,-3.1746031746031744,-3.1746031746031744,-3.1746031746031744,-3.1746031746031744,-3.1746031746031744,-3.1746031746031744,-3.1746031746031744,-3.1746031746031744,-3.1746031746031744,-3.1746031746031744,-3.1746031746031744,-3.1746031746031744,-3.1746031746031744,-3.1746031746031744,-3.1746031746031744,-3.1746031746031744,-3.1746031746031744,-3.1746031746031744,-3.1746031746031744,-3.1746031746031744,-3.1746031746031744,-3.1746031746031744,-3.1746031746031744,-3.1746031746031744,-3.1746031746031744,-3.1746031746031744,-3.1746031746031744,-3.1746031746031744,-3.1746031746031744,-3.1746031746031744,-3.1746031746031744,-3.1746031746031744,-3.1746031746031744,-3.1746031746031744,-3.1746031746031744,-3.1746031746031744,-3.1746031746031744,-3.1746031746031744,-3.1746031746031744,-3.1746031746031744,-3.1746031746031744,-3.1746031746031744,-3.1746031746031744,-3.1746031746031744,-3.1746031746031744,-3.1746031746031744,-3.1746031746031744,-3.1746031746031744,-3.1746031746031744,-3.1746031746031744,-3.1746031746031744,-3.1746031746031744,-3.1746031746031744,-3.1746031746031744,-3.1746031746031744,-3.1746031746031744,-3.1746031746031744,-3.1746031746031744,-3.1746031746031744,-3.1746031746031744,-3.1746031746031744,-3.1746031746031744,-3.1746031746031744,-3.1746031746031744,-3.1746031746031744,-3.1746031746031744,-3.1746031746031744,-3.1746031746031744,-3.1746031746031744,-3.1746031746031744,-3.1746031746031744,-3.1746031746031744,-3.1746031746031744,-3.1746031746031744,-3.1746031746031744,-3.1746031746031744,-3.1746031746031744,-3.1746031746031744,-3.1746031746031744,-3.1746031746031744,-3.1746031746031744,-3.1746031746031744,-3.1746031746031744,-3.1746031746031744,-3.1746031746031744,-3.1746031746031744,-3.1746031746031744,-3.1746031746031744,-3.1746031746031744,-3.1746031746031744,-3.1746031746031744,-3.1746031746031744,-3.1746031746031744,-3.1746031746031744,-3.1746031746031744,-3.1746031746031744,-3.1746031746031744,-3.1746031746031744,-3.1746031746031744,-3.1746031746031744,-3.1746031746031744,-3.1746031746031744,-3.1746031746031744,-3.1746031746031744,-3.1746031746031744,-3.1746031746031744,-3.1746031746031744,-3.1746031746031744,-3.1746031746031744,-3.1746031746031744,-3.1746031746031744,-3.1746031746031744,-3.1746031746031744,-3.1746031746031744,-3.1746031746031744,-3.1746031746031744,-3.1746031746031744,-3.1746031746031744,-3.1746031746031744,-3.1746031746031744,-3.1746031746031744,-3.1746031746031744,-3.1746031746031744,-3.1746031746031744,-3.1746031746031744,-3.1746031746031744,-3.1746031746031744,-3.1746031746031744,-3.1746031746031744,-3.1746031746031744,-3.1746031746031744,-3.1746031746031744,-3.1746031746031744,-3.1746031746031744,-3.1746031746031744,-3.1746031746031744,-3.1746031746031744,-3.1746031746031744,-3.1746031746031744,-3.1746031746031744,-3.1746031746031744,-3.1746031746031744,-3.1746031746031744,-3.1746031746031744,-3.1746031746031744,-3.1746031746031744,-3.1746031746031744,-3.1746031746031744,-3.1746031746031744,-3.1746031746031744,-3.1746031746031744,-3.1746031746031744,-3.1746031746031744,-3.1746031746031744,-3.1746031746031744,-3.1746031746031744,-3.1746031746031744,-3.1746031746031744,-3.1746031746031744,-3.1746031746031744,-3.1746031746031744,-3.1746031746031744,-3.1746031746031744,-3.1746031746031744,-3.1746031746031744,-3.1746031746031744,-3.1746031746031744,-3.1746031746031744,-3.1746031746031744,-3.1746031746031744,-3.1746031746031744,-3.1746031746031744,-3.1746031746031744,-3.1746031746031744,-3.1746031746031744,-3.1746031746031744,-3.1746031746031744,-3.1746031746031744,-3.1746031746031744,-3.1746031746031744,-3.1746031746031744,-3.1746031746031744,-3.1746031746031744,-3.1746031746031744,-3.1746031746031744,-3.1746031746031744,-3.1746031746031744,-3.1746031746031744,-3.1746031746031744,-3.1746031746031744,-3.1746031746031744,-3.1746031746031744,-3.1746031746031744,-3.1746031746031744,-3.1746031746031744,-3.1746031746031744,-3.1746031746031744,-3.1746031746031744,-3.1746031746031744,-3.1746031746031744,-3.1746031746031744,-3.1746031746031744,-3.1746031746031744,-3.1746031746031744,-3.1746031746031744,-3.1746031746031744,-3.1746031746031744,-3.1746031746031744,-3.1746031746031744,-3.1746031746031744,-3.1746031746031744,-3.1746031746031744,-3.1746031746031744,-3.1746031746031744,-3.1746031746031744,-3.1746031746031744,-3.1746031746031744,-3.1746031746031744,-3.1746031746031744,-3.1746031746031744,-3.1746031746031744,-3.1746031746031744,-3.1746031746031744,-3.1746031746031744,-3.1746031746031744,-3.1746031746031744,-3.1746031746031744,-3.1746031746031744,-3.1746031746031744,-3.1746031746031744,-3.1746031746031744,-3.1746031746031744,-3.1746031746031744,-3.1746031746031744,-3.1746031746031744,-3.1746031746031744,-3.1746031746031744,-3.1746031746031744,-3.1746031746031744,-3.1746031746031744,-3.1746031746031744,-3.1746031746031744,-3.1746031746031744,-3.1746031746031744,-3.1746031746031744,-3.1746031746031744,-3.1746031746031744,-3.1746031746031744,-3.1746031746031744,-3.1746031746031744,-3.1746031746031744,-3.1746031746031744,-3.1746031746031744,-3.1746031746031744,-3.1746031746031744,-3.1746031746031744,-3.1746031746031744,-3.1746031746031744,-3.1746031746031744,-3.1746031746031744,-3.1746031746031744,-3.1746031746031744,-3.1746031746031744,-3.1746031746031744,-3.1746031746031744,-3.1746031746031744,-3.1746031746031744,-3.1746031746031744,-3.1746031746031744,-3.1746031746031744,-3.1746031746031744,-3.1746031746031744,-3.1746031746031744,-3.1746031746031744,-3.1746031746031744,-3.1746031746031744,-3.1746031746031744,-3.1746031746031744,-3.1746031746031744,-3.1746031746031744,-3.1746031746031744,-3.1746031746031744,-3.1746031746031744,-3.1746031746031744,-3.1746031746031744,-3.1746031746031744,-3.1746031746031744,-3.1746031746031744,-3.1746031746031744,-3.1746031746031744,-3.1746031746031744,-3.1746031746031744,-3.1746031746031744,-3.1746031746031744,-3.1746031746031744,-3.1746031746031744,-3.1746031746031744,-3.1746031746031744,-3.1746031746031744,-3.1746031746031744,-3.1746031746031744,-3.1746031746031744,-3.1746031746031744,-3.1746031746031744,-3.1746031746031744,-3.1746031746031744,-3.1746031746031744,-3.1746031746031744,-3.1746031746031744,-3.1746031746031744,-3.1746031746031744,-3.1746031746031744,-3.1746031746031744,-3.1746031746031744,-3.1746031746031744,-3.1746031746031744,-3.1746031746031744,-3.1746031746031744,-3.1746031746031744,-3.1746031746031744,-3.1746031746031744,-3.1746031746031744,-3.1746031746031744,-3.1746031746031744,-3.1746031746031744,-3.1746031746031744,-3.1746031746031744,-3.1746031746031744,-3.1746031746031744,-3.1746031746031744,-3.1746031746031744,-3.1746031746031744,-3.1746031746031744,-3.1746031746031744,-3.1746031746031744,-3.1746031746031744,-3.1746031746031744,-3.1746031746031744,-3.1746031746031744,-3.1746031746031744,-3.1746031746031744,-3.1746031746031744,-3.1746031746031744,-3.1746031746031744,-3.1746031746031744,-3.1746031746031744,-3.1746031746031744,-3.1746031746031744,-3.1746031746031744,-3.1746031746031744,-3.1746031746031744,-3.1746031746031744,-3.1746031746031744,-3.1746031746031744,-3.1746031746031744,-3.1746031746031744,-3.1746031746031744,-3.1746031746031744,-3.1746031746031744,-3.1746031746031744,-3.1746031746031744,-3.1746031746031744,-3.1746031746031744,-3.1746031746031744,-3.1746031746031744,-3.1746031746031744,-3.1746031746031744,-3.1746031746031744,-3.1746031746031744,-3.1746031746031744,-3.1746031746031744,-3.1746031746031744,-3.1746031746031744,-3.1746031746031744,-3.1746031746031744,-3.1746031746031744,-3.1746031746031744,-3.1746031746031744,-3.1746031746031744,-3.1746031746031744,-3.1746031746031744,-3.1746031746031744,-3.1746031746031744,-3.1746031746031744,-3.1746031746031744,-3.1746031746031744,-3.1746031746031744,-3.1746031746031744,-3.1746031746031744,-3.1746031746031744,-3.1746031746031744,-3.1746031746031744,-3.1746031746031744,-3.1746031746031744,-3.1746031746031744,-3.1746031746031744,-3.1746031746031744,-3.1746031746031744,-3.1746031746031744,-3.1746031746031744,-3.1746031746031744,-3.1746031746031744,-3.1746031746031744,-3.1746031746031744,-3.1746031746031744,-3.1746031746031744,-3.1746031746031744,-3.1746031746031744,-3.1746031746031744,-3.1746031746031744,-3.1746031746031744,-3.1746031746031744,-3.1746031746031744,-3.1746031746031744,-3.1746031746031744,-3.1746031746031744,-3.1746031746031744,-3.1746031746031744,-3.1746031746031744,-3.1746031746031744,-3.1746031746031744,-3.1746031746031744,-3.1746031746031744,-3.1746031746031744,-3.1746031746031744,-3.1746031746031744,-3.1746031746031744,-3.1746031746031744,-3.1746031746031744,-3.1746031746031744,-3.1746031746031744,-3.1746031746031744,-3.1746031746031744,-3.1746031746031744,-3.1746031746031744,-3.1746031746031744,-3.1746031746031744,-3.1746031746031744,-3.1746031746031744,-3.1746031746031744,-3.1746031746031744,-3.1746031746031744,-3.1746031746031744,-3.1746031746031744,-3.1746031746031744,-3.1746031746031744,-3.1746031746031744,-3.1746031746031744,-3.1746031746031744,-3.1746031746031744,-3.1746031746031744,-3.1746031746031744,-3.1746031746031744,-3.1746031746031744,-3.1746031746031744,-3.1746031746031744,-3.1746031746031744,-3.1746031746031744,-3.1746031746031744,-3.1746031746031744,-3.1746031746031744,-3.1746031746031744,-3.1746031746031744,-3.1746031746031744,-3.1746031746031744,-3.1746031746031744,-3.1746031746031744,-3.1746031746031744,-3.1746031746031744,-3.1746031746031744,-3.1746031746031744,-3.1746031746031744,-3.1746031746031744,-3.1746031746031744,-3.1746031746031744,-3.1746031746031744,-3.1746031746031744,0.05238104926215296,0.05238104926215296,0.05238104926215296,0.05238104926215296,0.05238104926215296,0.049206349206349385,0.049206349206349385,0.049206349206349385,0.049206349206349385,0.049206349206349385,0.049206349206349385,0.049206349206349385,0.049206349206349385,0.049206349206349385,0.049206349206349385,0.049206349206349385,0.049206349206349385,0.049206349206349385,0.049206349206349385,0.049206349206349385,0.049206349206349385,0.049206349206349385,0.049206349206349385,0.049206349206349385,0.049206349206349385,0.049206349206349385,0.049206349206349385,0.049206349206349385,0.049206349206349385,0.049206349206349385,0.049206349206349385,0.049206349206349385,0.049206349206349385,0.049206349206349385,0.049206349206349385,0.049206349206349385,0.049206349206349385,0.049206349206349385,0.049206349206349385,0.049206349206349385,0.049206349206349385,0.049206349206349385,0.049206349206349385,0.049206349206349385,0.049206349206349385,0.049206349206349385,0.049206349206349385,0.049206349206349385,0.049206349206349385,0.049206349206349385,0.049206349206349385,0.049206349206349385,0.049206349206349385,0.049206349206349385,0.049206349206349385,0.049206349206349385,0.049206349206349385,0.049206349206349385,0.049206349206349385,0.049206349206349385,0.049206349206349385,0.049206349206349385,0.049206349206349385,0.049206349206349385,0.049206349206349385,0.049206349206349385,0.049206349206349385,0.049206349206349385,0.049206349206349385,0.049206349206349385,0.049206349206349385,0.049206349206349385,0.049206349206349385,0.049206349206349385,0.049206349206349385,0.049206349206349385,0.049206349206349385,0.049206349206349385,0.049206349206349385,0.049206349206349385,0.049206349206349385,0.049206349206349385,0.049206349206349385,0.049206349206349385,0.049206349206349385,0.049206349206349385,0.049206349206349385,0.049206349206349385,0.049206349206349385,0.049206349206349385,0.049206349206349385,0.049206349206349385,0.049206349206349385,0.049206349206349385,0.049206349206349385,0.049206349206349385,0.049206349206349385,0.049206349206349385,0.049206349206349385,0.049206349206349385,0.049206349206349385,0.049206349206349385,0.049206349206349385,0.049206349206349385,0.049206349206349385,0.049206349206349385,0.049206349206349385,0.049206349206349385,0.049206349206349385,0.049206349206349385,0.049206349206349385,0.049206349206349385,0.049206349206349385,0.049206349206349385,0.049206349206349385,0.049206349206349385,0.049206349206349385,0.049206349206349385,0.049206349206349385,0.049206349206349385,0.049206349206349385,0.049206349206349385,0.049206349206349385,0.049206349206349385,0.049206349206349385,0.049206349206349385,0.049206349206349385,0.049206349206349385,0.049206349206349385,0.049206349206349385,0.049206349206349385,0.049206349206349385,0.049206349206349385,0.049206349206349385,0.049206349206349385,0.049206349206349385,0.049206349206349385,0.049206349206349385,0.049206349206349385,0.049206349206349385,0.049206349206349385,0.049206349206349385,0.049206349206349385,0.049206349206349385,0.049206349206349385,0.049206349206349385,0.049206349206349385,0.049206349206349385,0.049206349206349385,0.049206349206349385,0.049206349206349385,0.049206349206349385,0.049206349206349385,0.049206349206349385,0.049206349206349385,0.049206349206349385,0.049206349206349385,0.049206349206349385,0.049206349206349385,0.049206349206349385,0.049206349206349385,0.049206349206349385,0.049206349206349385,0.049206349206349385,0.049206349206349385,0.049206349206349385,0.049206349206349385,0.049206349206349385,0.049206349206349385,0.049206349206349385,0.049206349206349385,0.049206349206349385,0.049206349206349385,0.049206349206349385,0.049206349206349385,0.049206349206349385,0.049206349206349385,0.049206349206349385,0.049206349206349385,0.049206349206349385,0.049206349206349385,0.049206349206349385,0.049206349206349385,0.049206349206349385,0.049206349206349385,0.049206349206349385,0.049206349206349385,0.049206349206349385,0.049206349206349385,0.049206349206349385,0.049206349206349385,0.049206349206349385,0.049206349206349385,0.049206349206349385,0.049206349206349385,0.049206349206349385,0.049206349206349385,0.049206349206349385,0.049206349206349385,0.049206349206349385,0.049206349206349385,0.049206349206349385,0.049206349206349385,0.049206349206349385,0.049206349206349385,0.049206349206349385,0.049206349206349385,0.049206349206349385,0.049206349206349385,0.049206349206349385,0.049206349206349385,0.049206349206349385,0.049206349206349385,0.049206349206349385,0.049206349206349385,0.049206349206349385,0.049206349206349385,0.049206349206349385,0.049206349206349385,0.049206349206349385,0.049206349206349385,0.049206349206349385,0.049206349206349385,0.049206349206349385,0.049206349206349385,0.049206349206349385,0.049206349206349385,0.049206349206349385,0.049206349206349385,0.049206349206349385,0.049206349206349385,0.049206349206349385,0.049206349206349385,0.049206349206349385,0.049206349206349385,0.049206349206349385,0.049206349206349385,0.049206349206349385,0.049206349206349385,0.049206349206349385,0.049206349206349385,0.049206349206349385,0.049206349206349385,0.049206349206349385,0.049206349206349385,0.049206349206349385,0.049206349206349385,0.049206349206349385,0.049206349206349385,0.049206349206349385,0.049206349206349385,0.049206349206349385,0.049206349206349385,0.049206349206349385,0.049206349206349385,0.049206349206349385,0.049206349206349385,0.049206349206349385,0.049206349206349385,0.049206349206349385,0.049206349206349385,0.049206349206349385,0.049206349206349385,0.049206349206349385,0.049206349206349385,0.049206349206349385,0.049206349206349385,0.049206349206349385,0.049206349206349385,0.049206349206349385,0.049206349206349385,0.049206349206349385,0.049206349206349385,0.049206349206349385,0.049206349206349385,0.049206349206349385,0.049206349206349385,0.049206349206349385,0.049206349206349385,0.049206349206349385,0.049206349206349385,0.049206349206349385,0.049206349206349385,0.049206349206349385,0.049206349206349385,0.049206349206349385,0.049206349206349385,0.049206349206349385,0.049206349206349385,0.049206349206349385,0.049206349206349385,0.049206349206349385,0.049206349206349385,0.049206349206349385,0.049206349206349385,0.049206349206349385,0.049206349206349385,0.049206349206349385,0.049206349206349385,0.049206349206349385,0.049206349206349385,0.049206349206349385,0.049206349206349385,0.049206349206349385,0.049206349206349385,0.049206349206349385,0.049206349206349385,0.049206349206349385,0.049206349206349385,0.049206349206349385,0.049206349206349385,0.049206349206349385,0.049206349206349385,0.049206349206349385,0.049206349206349385,0.049206349206349385,0.049206349206349385,0.049206349206349385,0.049206349206349385,0.049206349206349385,0.049206349206349385,0.049206349206349385,0.049206349206349385,0.049206349206349385,0.049206349206349385,0.049206349206349385,0.049206349206349385,0.049206349206349385,0.049206349206349385,0.049206349206349385,0.049206349206349385,0.049206349206349385,0.049206349206349385,0.049206349206349385,0.049206349206349385,0.049206349206349385,0.049206349206349385,0.049206349206349385,0.049206349206349385,0.049206349206349385,0.049206349206349385,0.049206349206349385,0.049206349206349385,0.049206349206349385,0.049206349206349385,0.049206349206349385,0.049206349206349385,0.049206349206349385,0.049206349206349385,0.049206349206349385,0.049206349206349385,0.049206349206349385,0.049206349206349385,0.049206349206349385,0.049206349206349385,0.049206349206349385,0.049206349206349385,0.049206349206349385,0.049206349206349385,0.049206349206349385,0.049206349206349385,0.049206349206349385,0.049206349206349385,0.049206349206349385,0.049206349206349385,0.049206349206349385,0.049206349206349385,0.049206349206349385,0.049206349206349385,0.049206349206349385,0.049206349206349385,0.049206349206349385,0.049206349206349385,0.049206349206349385,0.049206349206349385,0.049206349206349385,0.049206349206349385,0.049206349206349385,0.049206349206349385,0.049206349206349385,0.049206349206349385,0.049206349206349385,0.049206349206349385,0.049206349206349385,0.049206349206349385,0.049206349206349385,0.049206349206349385,0.049206349206349385,0.049206349206349385,0.049206349206349385,0.049206349206349385,0.049206349206349385,0.049206349206349385,0.049206349206349385,0.049206349206349385,0.049206349206349385,0.049206349206349385,0.049206349206349385,0.049206349206349385,0.049206349206349385,0.049206349206349385,0.049206349206349385,0.049206349206349385,0.049206349206349385,0.049206349206349385,0.049206349206349385,0.049206349206349385,0.049206349206349385,0.049206349206349385,0.049206349206349385,0.049206349206349385,0.049206349206349385,0.049206349206349385,0.049206349206349385,0.049206349206349385,0.049206349206349385,0.049206349206349385,0.049206349206349385,0.049206349206349385,0.049206349206349385,0.049206349206349385,0.049206349206349385,0.049206349206349385,0.049206349206349385,0.049206349206349385,0.049206349206349385,0.049206349206349385,0.049206349206349385,0.049206349206349385,0.049206349206349385,0.049206349206349385,0.049206349206349385,0.049206349206349385,0.049206349206349385,0.049206349206349385,0.049206349206349385,0.049206349206349385,0.049206349206349385,0.049206349206349385,0.049206349206349385,0.049206349206349385,0.049206349206349385,0.049206349206349385,0.049206349206349385,0.049206349206349385,0.049206349206349385,0.049206349206349385,0.049206349206349385,0.049206349206349385,0.049206349206349385,0.049206349206349385,0.049206349206349385,0.049206349206349385,0.049206349206349385,0.049206349206349385,0.049206349206349385,0.049206349206349385,0.049206349206349385,0.049206349206349385,0.049206349206349385,0.049206349206349385,0.049206349206349385,0.049206349206349385,0.049206349206349385,0.049206349206349385,0.049206349206349385,0.049206349206349385,0.049206349206349385,0.049206349206349385,0.049206349206349385,0.049206349206349385,0.049206349206349385,0.049206349206349385,0.049206349206349385,0.049206349206349385,0.049206349206349385,0.049206349206349385,0.049206349206349385,0.049206349206349385,0.049206349206349385,0.049206349206349385,0.049206349206349385,0.049206349206349385,0.049206349206349385,0.049206349206349385,0.049206349206349385,0.049206349206349385,0.049206349206349385,0.049206349206349385,0.049206349206349385,0.049206349206349385,0.049206349206349385,0.049206349206349385,0.049206349206349385,0.049206349206349385,0.049206349206349385,0.049206349206349385,0.049206349206349385,0.049206349206349385,0.049206349206349385,0.049206349206349385,0.049206349206349385,0.049206349206349385,0.049206349206349385,0.049206349206349385,0.049206349206349385,0.049206349206349385,0.049206349206349385,0.049206349206349385,0.049206349206349385,0.049206349206349385,0.049206349206349385,0.049206349206349385,0.049206349206349385,0.049206349206349385,0.049206349206349385,0.049206349206349385,0.049206349206349385,0.049206349206349385,0.049206349206349385,0.049206349206349385,0.049206349206349385,0.049206349206349385,0.049206349206349385,0.049206349206349385,0.049206349206349385,0.049206349206349385,0.049206349206349385,0.049206349206349385,0.049206349206349385,0.049206349206349385,0.049206349206349385,0.049206349206349385,0.049206349206349385,0.049206349206349385,0.049206349206349385,0.049206349206349385,0.049206349206349385,0.049206349206349385,0.049206349206349385,-0.16984126984126965,-0.16984126984126965,-0.16984126984126965,-0.16984126984126965,-0.16984126984126965,-0.16984126984126965,-0.16984126984126965,-0.16984126984126965,-0.16984126984126965,-0.16984126984126965,-0.16984126984126965,-0.16984126984126965,-0.16984126984126965,-0.16984126984126965,-0.16984126984126965,-0.16984126984126965,-0.16984126984126965,-0.16984126984126965,-0.16984126984126965,-0.16984126984126965,-0.16984126984126965,-0.16984126984126965,-0.16984126984126965,-0.16984126984126965,-0.16984126984126965,-0.16984126984126965,-0.16984126984126965,-0.16984126984126965,-0.16984126984126965,-0.16984126984126965,-0.16984126984126965,-0.16984126984126965,-0.16984126984126965,-0.16984126984126965,-0.16984126984126965,-0.16984126984126965,-0.16984126984126965,-0.16984126984126965,-0.16984126984126965,-0.16984126984126965,-0.16984126984126965,-0.16984126984126965,-0.16984126984126965,-0.16984126984126965,-0.16984126984126965,-0.16984126984126965,-0.16984126984126965,-0.16984126984126965,-0.16984126984126965,-0.16984126984126965,-0.16984126984126965,-0.16984126984126965,-0.16984126984126965,-0.16984126984126965,-0.16984126984126965,-0.16984126984126965,-0.16984126984126965,-0.16984126984126965,-0.16984126984126965,-0.16984126984126965,-0.16984126984126965,-0.16984126984126965,-0.16984126984126965,-0.16984126984126965,-0.16984126984126965,-0.16984126984126965,-0.16984126984126965,-0.011110917348710137,-0.011110917348710137,-0.011110917348710137,-0.011110917348710137,-0.011110917348710137,-0.011110917348710137,-0.01746031746031728,-0.01746031746031728,-0.01746031746031728,-0.01746031746031728,-0.01746031746031728,-0.01746031746031728,-0.01746031746031728,-0.01746031746031728,-0.01746031746031728,-0.01746031746031728,-0.01746031746031728,-0.01746031746031728,-0.01746031746031728,-0.01746031746031728,-0.01746031746031728,-0.01746031746031728,-0.01746031746031728,-0.01746031746031728,-0.01746031746031728,-0.01746031746031728,-0.01746031746031728,-0.01746031746031728,-0.01746031746031728,-0.01746031746031728,-0.01746031746031728,-0.01746031746031728,-0.01746031746031728,-0.01746031746031728,-0.01746031746031728,-0.01746031746031728,-0.01746031746031728,-0.01746031746031728,-0.01746031746031728,-0.01746031746031728,-0.01746031746031728,-0.01746031746031728,-0.01746031746031728,-0.01746031746031728,-0.01746031746031728,-0.01746031746031728,-0.01746031746031728,-0.01746031746031728,-0.01746031746031728,-0.01746031746031728,-0.01746031746031728,-0.01746031746031728,-0.01746031746031728,-0.01746031746031728,-0.01746031746031728,-0.01746031746031728,-0.01746031746031728,-0.01746031746031728,-0.01746031746031728,-0.01746031746031728,-0.01746031746031728,-0.01746031746031728,-0.01746031746031728,-0.01746031746031728,-0.01746031746031728,-0.01746031746031728,-0.01746031746031728,-0.01746031746031728,-0.01746031746031728,-0.01746031746031728,-0.01746031746031728,-0.01746031746031728,-0.01746031746031728,-0.01746031746031728,-0.01746031746031728,-0.01746031746031728,-0.01746031746031728,-0.01746031746031728,-0.01746031746031728,-0.01746031746031728,-0.01746031746031728,-0.01746031746031728,-0.01746031746031728,-0.01746031746031728,-0.01746031746031728,-0.01746031746031728,-0.01746031746031728,-0.01746031746031728,-0.01746031746031728,-0.01746031746031728,-0.01746031746031728,-0.01746031746031728,-0.01746031746031728,-0.01746031746031728,-0.01746031746031728,-0.01746031746031728,-0.01746031746031728,-0.01746031746031728,-0.01746031746031728,-0.01746031746031728,-0.01746031746031728,-0.01746031746031728,-0.01746031746031728,-0.01746031746031728,-0.01746031746031728,-0.01746031746031728,-0.01746031746031728,-0.01746031746031728,-0.01746031746031728,-0.01746031746031728,-0.01746031746031728,-0.01746031746031728,-0.01746031746031728,-0.01746031746031728,-0.01746031746031728,-0.01746031746031728,-0.01746031746031728,-0.01746031746031728,-0.01746031746031728,-0.01746031746031728,-0.01746031746031728,-0.01746031746031728,-0.01746031746031728,-0.01746031746031728,1.0809527684771827,1.0809527684771827,1.0809527684771827,1.0809527684771827,1.0809527684771827,1.0809527684771827,1.077777777777778,1.077777777777778,1.077777777777778,1.077777777777778,1.077777777777778,1.077777777777778,1.077777777777778,1.077777777777778,1.077777777777778,1.077777777777778,1.077777777777778,1.077777777777778,1.077777777777778,1.077777777777778,1.077777777777778,1.077777777777778,1.077777777777778,1.077777777777778,1.077777777777778,1.077777777777778,1.077777777777778,1.077777777777778,1.077777777777778,1.077777777777778,1.077777777777778,1.077777777777778,1.077777777777778,1.077777777777778,1.077777777777778,1.077777777777778,1.077777777777778,1.077777777777778,1.077777777777778,1.077777777777778,1.077777777777778,1.077777777777778,1.077777777777778,1.077777777777778,1.077777777777778,1.077777777777778,1.077777777777778,1.077777777777778,1.077777777777778,1.077777777777778,1.077777777777778,1.077777777777778,1.077777777777778,1.077777777777778,1.077777777777778,1.077777777777778,1.077777777777778,1.077777777777778,1.077777777777778,1.077777777777778,1.077777777777778,1.077777777777778,1.077777777777778,1.077777777777778,1.077777777777778,1.077777777777778,1.077777777777778,1.077777777777778,1.077777777777778,1.077777777777778,1.077777777777778,1.077777777777778,1.077777777777778,1.077777777777778,1.077777777777778,1.077777777777778,1.077777777777778,1.077777777777778,1.077777777777778,1.077777777777778,1.077777777777778,1.077777777777778,1.077777777777778,1.077777777777778,1.077777777777778,1.077777777777778,1.077777777777778,1.077777777777778,1.077777777777778,1.077777777777778,1.077777777777778,1.077777777777778,1.077777777777778,1.077777777777778,1.077777777777778,1.077777777777778,1.077777777777778,1.077777777777778,1.077777777777778,1.077777777777778,1.077777777777778,1.077777777777778,1.077777777777778,1.077777777777778,1.077777777777778,1.077777777777778,1.077777777777778,1.077777777777778,1.077777777777778,1.077777777777778,1.077777777777778,1.077777777777778,1.077777777777778,1.077777777777778,1.077777777777778,1.077777777777778,1.077777777777778,1.077777777777778,1.077777777777778,-0.06825377449156728,-0.06825377449156728,-0.06825377449156728,-0.06825377449156728,-0.06825377449156728,-0.06825377449156728,-0.07460317460317442,-0.07460317460317442,-0.07460317460317442,-0.07460317460317442,-0.07460317460317442,-0.07460317460317442,-0.07460317460317442,-0.07460317460317442,-0.07460317460317442,-0.07460317460317442,-0.07460317460317442,-0.07460317460317442,-0.07460317460317442,-0.07460317460317442,-0.07460317460317442,-0.07460317460317442,-0.07460317460317442,-0.07460317460317442,-0.07460317460317442,-0.07460317460317442,-0.07460317460317442,-0.07460317460317442,-0.07460317460317442,-0.07460317460317442,-0.07460317460317442,-0.07460317460317442,-0.01746031746031728,-0.01746031746031728,-0.01746031746031728,-0.01746031746031728,-0.01746031746031728,-0.01746031746031728,-0.01746031746031728,-0.01746031746031728,-0.01746031746031728,-0.01746031746031728,-0.01746031746031728,-0.01746031746031728,-0.01746031746031728,-0.01746031746031728,-0.01746031746031728,-0.01746031746031728,-0.01746031746031728,-0.01746031746031728,-0.01746031746031728,-0.01746031746031728,-0.01746031746031728,-0.01746031746031728,-0.01746031746031728,-0.01746031746031728,-0.01746031746031728,-0.01746031746031728,-0.01746031746031728,-0.01746031746031728,-0.01746031746031728,-0.01746031746031728,-0.01746031746031728,-0.01746031746031728,-0.01746031746031728,-0.01746031746031728,-0.01746031746031728,-0.01746031746031728,-0.01746031746031728,-0.01746031746031728,-0.01746031746031728,-0.01746031746031728,-0.01746031746031728,-0.01746031746031728,-0.01746031746031728,-0.01746031746031728,-0.01746031746031728,-0.01746031746031728,-0.01746031746031728,-0.01746031746031728,-0.01746031746031728,-0.01746031746031728,-0.01746031746031728,-0.01746031746031728,-0.01746031746031728,-0.01746031746031728,-0.01746031746031728,-0.01746031746031728,-0.01746031746031728,-0.01746031746031728,-0.01746031746031728,-0.01746031746031728,-0.01746031746031728,-0.01746031746031728,-0.01746031746031728,-0.01746031746031728,-0.01746031746031728,-0.01746031746031728,-0.01746031746031728,-0.01746031746031728,-0.01746031746031728,-0.01746031746031728,-0.01746031746031728,-0.01746031746031728,-0.01746031746031728,-0.01746031746031728,-0.01746031746031728,-0.01746031746031728,-0.01746031746031728,-0.01746031746031728,-0.01746031746031728,-0.01746031746031728,-0.01746031746031728,-0.01746031746031728,-0.01746031746031728,-0.01746031746031728,0.46507955884176605,0.46507955884176605,0.46507955884176605,0.46507955884176605,0.46507955884176605,0.45873015873015893,0.45873015873015893,0.45873015873015893,0.45873015873015893,0.45873015873015893,0.45873015873015893,0.45873015873015893,0.45873015873015893,0.45873015873015893,0.45873015873015893,0.45873015873015893,0.45873015873015893,0.45873015873015893,0.45873015873015893,0.45873015873015893,0.45873015873015893,0.45873015873015893,0.45873015873015893,0.45873015873015893,0.45873015873015893,0.45873015873015893,0.45873015873015893,0.45873015873015893,0.45873015873015893,0.45873015873015893,0.45873015873015893,0.45873015873015893,0.45873015873015893,0.45873015873015893,0.45873015873015893,0.45873015873015893,0.45873015873015893,0.45873015873015893,0.45873015873015893,0.45873015873015893,0.45873015873015893,0.45873015873015893,0.45873015873015893,0.45873015873015893,0.45873015873015893,0.45873015873015893,0.45873015873015893,0.45873015873015893,0.45873015873015893,0.45873015873015893,0.45873015873015893,0.45873015873015893,0.45873015873015893,0.45873015873015893,0.45873015873015893,0.45873015873015893,0.45873015873015893,0.45873015873015893,0.45873015873015893,0.45873015873015893,0.45873015873015893,0.45873015873015893,0.45873015873015893,0.45873015873015893,0.45873015873015893,0.45873015873015893,0.45873015873015893,0.45873015873015893,0.45873015873015893,0.45873015873015893,0.45873015873015893,0.45873015873015893,0.45873015873015893,0.45873015873015893,0.45873015873015893,0.45873015873015893,0.45873015873015893,0.45873015873015893,0.45873015873015893,0.45873015873015893,0.45873015873015893,0.45873015873015893,0.45873015873015893,0.45873015873015893,0.45873015873015893,0.45873015873015893,0.45873015873015893,0.45873015873015893,0.45873015873015893,0.45873015873015893,0.45873015873015893,0.45873015873015893,0.45873015873015893,0.45873015873015893,0.45873015873015893,0.45873015873015893,0.45873015873015893,0.45873015873015893,0.45873015873015893,0.45873015873015893,0.45873015873015893,0.45873015873015893,0.45873015873015893,0.45873015873015893,0.45873015873015893,0.45873015873015893,0.45873015873015893,0.45873015873015893,0.45873015873015893,0.45873015873015893,0.45873015873015893,0.45873015873015893,0.45873015873015893,0.45873015873015893,0.45873015873015893,0.45873015873015893,0.45873015873015893,0.45873015873015893,0.45873015873015893,0.45873015873015893,0.45873015873015893,0.45873015873015893,0.45873015873015893,0.45873015873015893,0.45873015873015893,0.45873015873015893]},"final_keyboard_state":["H","A","Z","E","B","R"],"num_clicks":6,"points":14,"cheat":false,"trial_type":"Hangman","trial_index":5,"time_elapsed":62483,"internal_node_id":"0.0-4.0","protocol_sum":"","subject_identifier":130,"subject_sum":[16,140,153,91,149,60,138,53,86,17,3,226,1,76,248,40,235,101,74,153,227,16,248,127,171,148,194,244,183,210,160,79],"subject_pair":65,"STUDY_ID":"669a702db1122fc5150a13ce","PROLIFIC_PID":"5f04b7a99b50ac10df3a9eac","SESSION_ID":"669b28405c9a0ab8c3765122","practice_instructions":1,"leaderboard_instructions":0,"bonus":0,"reveal_word":false,"self_rating":"1","confidence":"25"},{"view_history":"[{\"page_index\":0,\"viewing_time\":2542.199999988079},{\"page_index\":1,\"viewing_time\":11883.700000047684}]","rt":14426.600000023842,"trial_type":"instructions","trial_index":6,"time_elapsed":76911,"internal_node_id":"0.0-5.0","protocol_sum":"","subject_identifier":130,"subject_sum":[16,140,153,91,149,60,138,53,86,17,3,226,1,76,248,40,235,101,74,153,227,16,248,127,171,148,194,244,183,210,160,79],"subject_pair":65,"STUDY_ID":"669a702db1122fc5150a13ce","PROLIFIC_PID":"5f04b7a99b50ac10df3a9eac","SESSION_ID":"669b28405c9a0ab8c3765122","practice_instructions":1,"leaderboard_instructions":0,"bonus":0,"reveal_word":false,"self_rating":"1","confidence":"25"},{"rt":6451.5,"responses":"{\"Q0\":\"...from <b>a previous session</b> that is not part of the upcoming tournament.\"}","question_order":"[0]","trial_type":"survey-multi-choice","trial_index":7,"time_elapsed":83364,"internal_node_id":"0.0-6.0","protocol_sum":"","subject_identifier":130,"subject_sum":[16,140,153,91,149,60,138,53,86,17,3,226,1,76,248,40,235,101,74,153,227,16,248,127,171,148,194,244,183,210,160,79],"subject_pair":65,"correct":true,"test_part":"multichoice_leaderboard","STUDY_ID":"669a702db1122fc5150a13ce","PROLIFIC_PID":"5f04b7a99b50ac10df3a9eac","SESSION_ID":"669b28405c9a0ab8c3765122","practice_instructions":1,"leaderboard_instructions":0,"bonus":0,"reveal_word":false,"self_rating":"1","confidence":"25"},{"view_history":"[{\"page_index\":0,\"viewing_time\":10419.5}]","rt":10419.600000023842,"trial_type":"instructions","trial_index":8,"time_elapsed":93784,"internal_node_id":"0.0-8.0","protocol_sum":"","subject_identifier":130,"subject_sum":[16,140,153,91,149,60,138,53,86,17,3,226,1,76,248,40,235,101,74,153,227,16,248,127,171,148,194,244,183,210,160,79],"subject_pair":65,"STUDY_ID":"669a702db1122fc5150a13ce","PROLIFIC_PID":"5f04b7a99b50ac10df3a9eac","SESSION_ID":"669b28405c9a0ab8c3765122","practice_instructions":1,"leaderboard_instructions":0,"bonus":0,"reveal_word":false,"self_rating":"1","confidence":"25"},{"rt":6592.800000011921,"responses":"{\"Q0\":\"...players' leaderboard position (in terms of <b>points</b>) in an <b>upcoming tournament.</b>\"}","question_order":"[0]","trial_type":"survey-multi-choice","trial_index":9,"time_elapsed":100378,"internal_node_id":"0.0-9.0","protocol_sum":"","subject_identifier":130,"subject_sum":[16,140,153,91,149,60,138,53,86,17,3,226,1,76,248,40,235,101,74,153,227,16,248,127,171,148,194,244,183,210,160,79],"subject_pair":65,"correct":true,"test_part":"multichoice_tournament","STUDY_ID":"669a702db1122fc5150a13ce","PROLIFIC_PID":"5f04b7a99b50ac10df3a9eac","SESSION_ID":"669b28405c9a0ab8c3765122","practice_instructions":1,"leaderboard_instructions":0,"bonus":0,"reveal_word":false,"self_rating":"1","confidence":"25"},{"view_history":"[{\"page_index\":0,\"viewing_time\":6678.400000035763}]","rt":6678.600000023842,"trial_type":"instructions","trial_index":10,"time_elapsed":107057,"internal_node_id":"0.0-11.0","protocol_sum":"","subject_identifier":130,"subject_sum":[16,140,153,91,149,60,138,53,86,17,3,226,1,76,248,40,235,101,74,153,227,16,248,127,171,148,194,244,183,210,160,79],"subject_pair":65,"STUDY_ID":"669a702db1122fc5150a13ce","PROLIFIC_PID":"5f04b7a99b50ac10df3a9eac","SESSION_ID":"669b28405c9a0ab8c3765122","practice_instructions":1,"leaderboard_instructions":0,"bonus":0,"reveal_word":false,"self_rating":"1","confidence":"25"},{"view_history":"[{\"page_index\":0,\"viewing_time\":6786.700000047684}]","rt":6786.900000035763,"trial_type":"instructions","trial_index":11,"time_elapsed":113845,"internal_node_id":"0.0-12.0-0.0","protocol_sum":"","subject_identifier":130,"subject_sum":[16,140,153,91,149,60,138,53,86,17,3,226,1,76,248,40,235,101,74,153,227,16,248,127,171,148,194,244,183,210,160,79],"subject_pair":65,"STUDY_ID":"669a702db1122fc5150a13ce","PROLIFIC_PID":"5f04b7a99b50ac10df3a9eac","SESSION_ID":"669b28405c9a0ab8c3765122","practice_instructions":1,"leaderboard_instructions":0,"bonus":0,"reveal_word":false,"self_rating":"1","confidence":"25"},{"word":"THUMB","click_log":{"letter":["","E","A","U","R","N","O","T","S","M","W","H","B"],"t":[0,5175.100000023842,6173.699999988079,7306.5,13804.699999988079,15719.100000023842,16935.69999998808,17702.100000023842,22116.600000023842,23898.80000001192,38393.60000002384,40158.80000001192,41175.30000001192],"hit":[null,0,0,1,0,0,0,1,0,1,0,1,1],"asked":["","E","EA","EAU","EAUR","EAURN","EAURNO","EAURNOT","EAURNOTS","EAURNOTSM","EAURNOTSMW","EAURNOTSMWH","EAURNOTSMWHB"],"word_state":["_____","_____","_____","__U__","__U__","__U__","__U__","T_U__","T_U__","T_UM_","T_UM_","THUM_","THUMB"]},"hover_log":{"letter":["?","?","?","?","?","?","?","?","?","?","?","?","?","?","?","?","?","?","?","?","?","?","?","?","?","?","?","?","?","?","?","?","?","?","?","?","?","?","?","?","?","?","?","?","?","?","?","?","?","?","?","?","?","?","?","?","?","?","?","?","?","?","?","?","?","?","?","?","?","?","?","?","?","?","?","?","?","?","?","?","?","?","?","?","?","?","?","?","?","?","?","?","?","?","?","?","?","?","?","?","?","?","?","?","?","?","?","?","?","?","?","?","?","?","?","?","?","?","?","?","?","?","?","?","?","?","?","?","?","?","?","?","?","?","?","?","?","?","?","?","?","?","?","?","?","?","?","?","?","?","?","?","?","?","?","?","?","?","?","?","?","?","?","?","?","?","?","?","?","?","?","?","?","?","?","?","?","?","?","?","?","?","?","?","?","?","?","?","?","?","?","?","?","?","?","?","?","?","?","?","?","?","?","?","?","?","?","?","?","?","?","?","?","?","?","?","?","?","?","?","?","?","?","?","?","?","?","?","?","?","?","?","?","?","?","?","?","?","?","?","?","?","?","?","?","?","?","?","?","?","?","?","?","?","?","?","?","?","?","?","?","?","?","?","?","?","?","?","?","?","?","?","?","?","?","?","?","?","?","?","?","?","?","?","?","?","?","?","?","?","?","?","?","?","?","?","?","?","?","?","?","?","?","?","?","?","?","?","?","?","?","?","?","?","?","?","?","?","?","?","?","?","?","?","?","?","?","?","?","?","?","?","?","?","?","?","?","?","?","?","?","?","?","?","?","?","?","?","?","?","?","?","?","?","?","?","?","?","?","?","?","?","?","?","?","?","?","?","?","?","?","?","?","?","?","?","?","?","?","?","?","?","?","?","?","?","?","?","?","?","?","?","?","?","?","?","?","?","?","?","?","?","?","?","?","?","?","?","?","?","?","?","?","?","?","?","?","?","?","?","?","?","?","?","?","?","?","?","?","?","?","?","?","?","?","?","?","?","?","?","?","?","?","?","?","?","?","?","?","?","?","?","?","?","?","?","?","?","?","?","?","?","?","?","?","?","?","?","?","?","?","?","?","?","?","?","?","?","?","?","?","?","?","?","?","?","?","?","?","?","?","?","?","?","?","?","?","?","?","?","?","?","?","?","?","?","?","?","?","?","?","?","?","?","?","?","?","?","?","?","?","?","?","?","?","?","?","?","?","?","?","?","?","?","?","?","?","?","?","?","?","?","?","?","?","?","?","?","?","?","?","?","?","?","?","?","?","?","?","?","?","?","?","?","?","?","?","?","?","?","?","?","?","?","?","?","?","?","?","?","?","?","?","?","?","?","?","?","?","?","?","?","?","?","?","?","?","?","?","?","?","?","?","?","?","?","?","?","?","?","?","?","?","?","?","?","?","?","?","?","?","?","?","?","?","?","?","?","?","?","?","?","?","?","?","?","?","?","?","?","?","?","?","?","?","?","?","?","?","?","?","?","?","?","?","?","?","?","?","?","?","?","?","?","?","?","?","?","?","?","?","?","?","?","?","?","?","?","?","?","?","?","?","?","?","?","?","?","?","?","?","?","?","?","?","?","?","?","?","?","?","?","?","?","?","?","?","?","?","?","?","?","?","?","?","?","?","?","?","?","?","?","?","?","?","?","?","?","?","?","?","?","?","?","?","?","?","?","?","?","?","?","?","?","?","?","?","?","?","?","?","?","?","?","?","?","?","?","?","?","?","?","?","?","?","?","?","?","?","?","?","?","?","?","?","?","?","?","?","?","?","?","?","?","?","?","?","?","?","?","?","?","?","?","?","?","?","?","?","?","?","?","?","?","?","?","?","?","?","?","?","?","?","?","?","?","?","?","?","?","?","?","?","?","?","?","?","?","?","?","?","?","?","?","?","?","?","?","?","?","?","?","?","?","?","?","?","?","?","?","?","?","?","?","?","?","?","?","?","?","?","?","?","?","?","?","?","?","?","?","?","?","?","?","?","?","?","?","?","?","?","?","?","?","?","?","?","?","?","?","?","?","?","?","?","?","?","?","?","?","?","?","?","?","?","?","?","?","?","?","?","?","?","?","?","?","?","?","?","?","?","?","?","?","?","?","?","?","?","?","?","?","?","?","?","?","?","?","?","?","?","?","?","?","?","?","?","?","?","?","?","?","?","?","?","?","?","?","?","?","?","?","?","?","?","?","?","?","?","?","?","?","?","?","?","?","?","?","?","?","?","?","?","?","?","?","?","?","?","?","?","?","?","?","?","?","?","?","?","?","?","?","?","?","?","?","?","?","?","?","?","?","?","?","?","?","?","?","?","?","?","?","?","?","?","?","?","?","?","?","?","?","?","?","?","?","?","?","?","?","?","?","?","?","?","?","?","?","?","?","?","?","?","?","?","?","?","?","?","?","?","?","?","?","?","?","?","?","?","?","?","?","?","?","?","?","?","?","?","?","?","?","?","?","?","?","?","?","?","?","?","?","?","?","?","?","?","?","?","?","?","?","?","?","?","?","?","?","?","?","?","?","?","?","?","?","?","?","?","?","?","?","?","?","?","?","?","?","?","?","?","?","?","?","?","?","?","?","?","?","?","?","?","?","?","?","?","?","?","?","?","?","?","?","?","?","?","?","?","?","?","?","?","?","?","?","?","?","?","?","?","?","?","?","?","?","?","?","?","?","?","?","?","?","?","?","?","?","?","?","?","?","?","?","?","?","?","?","?","?","?","?","?","?","?","?","?","?","?","?","?","?","?","?","?","?","?","?","?","?","?","?","?","?","?","?","?","?","?","?","?","?","?","?","?","?","?","?","?","?","?","?","?","?","?","?","?","?","?","?","?","?","?","?","?","?","?","?","?","?","?","?","?","?","?","?","?","?","?","?","?","?","?","?","?","?","?","?","?","?","?","?","?","?","?","?","?","?","?","?","?","?","?","?","?","?","?","?","?","?","?","?","?","?","?","?","?","?","?","?","?","?","?","?","?","?","?","?","?","?","?","?","?","?","?","?","?","?","?","?","?","?","?","?","?","?","?","?","?","?","?","?","?","?","?","?","?","?","?","?","?","?","?","?","?","?","?","?","?","?","?","?","?","?","?","?","?","?","?","?","?","?","?","?","?","?","?","?","?","?","?","?","?","?","?","?","?","?","?","?","?","?","?","?","?","?","?","?","?","?","?","?","?","?","?","?","?","?","?","?","?","?","?","?","?","?","?","?","?","?","?","?","?","?","?","?","?","?","?","?","?","?","?","?","?","?","?","?","?","?","?","?","?","?","?","?","?","?","?","?","?","?","?","?","?","?","?","?","?","?","?","?","?","?","?","?","?","?","?","?","?","?","?","?","?","?","?","?","?","?","?","?","?","?","?","?","?","?","?","?","?","?","?","?","?","?","?","?","?","?","?","?","?","?","?","?","?","?","?","?","?","?","?","?","?","?","?","?","?","?","?","?","?","?","?","?","?","?","?","?","?","?","?","?","?","?","?","?","?","?","?","?","?","?","?","?","?","?","?","?","?","?","?","?","?","?","?","?","?","?","?","?","?","?","?","?","?","?","?","?","?","?","?","?","?","?","?","?","?","?","?","?","?","?","?","?","?","?","?","?","?","?","?","?","?","?","?","?","?","?","?","?","?","?","?","?","?","?","?","?","?","?","?","?","?","?","?","?","?","?","?","?","?","?","?","?","?","?","?","?","?","?","?","?","?","?","?","?","?","?","?","?","?","?","?","?","?","?","?","?","?","?","?","?","?","?","?","?","?","?","?","?","?","?","?","?","?","?","?","?","?","?","?","?","?","?","?","?","?","?","?","?","?","?","?","?","?","?","?","?","?","?","?","?","?","?","?","?","?","?","?","?","?","?","?","?","?","?","?","?","?","?","?","?","?","?","?","?","?","?","?","?","?","?","?","?","?","?","?","?","?","?","?","?","?","?","?","?","?","?","?","?","?","?","?","?","?","?","?","?","?","?","?","?","?","?","?","?","?","?","?","?","?","?","?","?","?","?","?","?","?","?","?","?","?","?","?","?","?","?","?","?","?","?","?","?","?","?","?","?","?","?","?","?","?","?","?","?","?","?","?","?","?","?","?","?","?","?","?","?","?","?","?","?","?","?","?","?","?","?","?","?","?","?","?","?","?","?","?","?","?","?","?","?","?","?","?","?","?","?","?","?","?","?","?","?","?","?","?","?","?","?","?","?","?","?","?","?","?","?","?","?","?","?","?","?","?","?","?","?","?","?","?","?","?","?","?","?","?","?","?","?","?","?","?","?","?","?","?","?","?","?","?","?","?","?","?","?","?","?","?","?","?","?","?","?","?","?","?","?","?","?","?","?","?","?","?","?","?","?","?","?","?","?","?","?","?","?","?","?","?","?","?","?","?","?","?","?","?","?","?","?","?","?","?","?","?","?","?","?","?","?","?","?","?","?","?","?","?","?","?","?","?","?","?","?","?","?","?","?","?","?","?","?","?","?","?","?","?","?","?","?","?","?","?","?","?","?","?","?","?","?","?","?","?","?","?","?","?","?","?","?","?","?","?","?","?","?","?","?","?","?","?","?","?","?","?","?","?","?","?","?","?","?","?","?","?","?","?","?","?","?","?","?","?","?","?","?","?","?","?","?","?","?","?","?","?","?","?","?","?","?","?","?","?","?","?","?","?","?","?","?","?","?","?","?","?","?","?","?","?","?","?","?","?","?","?","?","?","?","?","?","?","?","?","?","?","?","?","?","?","?","?","?","?","?","?","?","?","?","?","?","?","?","?","?","?","?","?","?","?","?","?","?","?","?","?","?","?","?","?","?","?","?","?","?","?","?","?","?","?","?","?","?","?","?","?","?","?","?","?","?","?","?","?","?","?","?","?","?","?","?","?","?","?","?","?","?","?","?","?","?","?","?","?","?","?","?","?","?","?","?","?","?","?","?","?","?","?","?","?","?","?","?","?","?","?","?","?","?","?","?","?","?","?","?","?","?","?","?","?","?","?","?