[{"success":true,"trial_type":"fullscreen","trial_index":0,"time_elapsed":19815,"internal_node_id":"0.0-0.0","protocol_sum":"","subject_identifier":514,"subject_sum":[76,151,0,4,176,103,141,67,159,23,126,119,211,202,189,183,233,164,77,247,112,148,141,220,36,103,203,199,107,114,17,195],"subject_pair":257,"STUDY_ID":"66a3ed3c5d10d0e7d8a6b9da","PROLIFIC_PID":"669aecb075f22207e8e8d2ef","SESSION_ID":"66a42b3fab18ede54b07010d","practice_instructions":1,"leaderboard_instructions":1,"bonus":0,"reveal_word":false,"self_rating":"1","confidence":"100"},{"view_history":"[{\"page_index\":0,\"viewing_time\":5603.5999999940395}]","rt":5604.29999999702,"trial_type":"instructions","trial_index":1,"time_elapsed":25422,"internal_node_id":"0.0-1.0","protocol_sum":"","subject_identifier":514,"subject_sum":[76,151,0,4,176,103,141,67,159,23,126,119,211,202,189,183,233,164,77,247,112,148,141,220,36,103,203,199,107,114,17,195],"subject_pair":257,"STUDY_ID":"66a3ed3c5d10d0e7d8a6b9da","PROLIFIC_PID":"669aecb075f22207e8e8d2ef","SESSION_ID":"66a42b3fab18ede54b07010d","practice_instructions":1,"leaderboard_instructions":1,"bonus":0,"reveal_word":false,"self_rating":"1","confidence":"100"},{"view_history":"[{\"page_index\":0,\"viewing_time\":12431.5}]","rt":12432.5,"trial_type":"instructions","trial_index":2,"time_elapsed":37856,"internal_node_id":"0.0-2.0-0.0","protocol_sum":"","subject_identifier":514,"subject_sum":[76,151,0,4,176,103,141,67,159,23,126,119,211,202,189,183,233,164,77,247,112,148,141,220,36,103,203,199,107,114,17,195],"subject_pair":257,"STUDY_ID":"66a3ed3c5d10d0e7d8a6b9da","PROLIFIC_PID":"669aecb075f22207e8e8d2ef","SESSION_ID":"66a42b3fab18ede54b07010d","practice_instructions":1,"leaderboard_instructions":1,"bonus":0,"reveal_word":false,"self_rating":"1","confidence":"100"},{"rt":9553.89999999106,"responses":"{\"Q0\":\"... reveal the word with as <b>few letter guesses</b> as possible\"}","question_order":"[0]","trial_type":"survey-multi-choice","trial_index":3,"time_elapsed":47419,"internal_node_id":"0.0-2.0-1.0","protocol_sum":"","subject_identifier":514,"subject_sum":[76,151,0,4,176,103,141,67,159,23,126,119,211,202,189,183,233,164,77,247,112,148,141,220,36,103,203,199,107,114,17,195],"subject_pair":257,"correct":true,"test_part":"multichoice_nonpretend","STUDY_ID":"66a3ed3c5d10d0e7d8a6b9da","PROLIFIC_PID":"669aecb075f22207e8e8d2ef","SESSION_ID":"66a42b3fab18ede54b07010d","practice_instructions":1,"leaderboard_instructions":1,"bonus":0,"reveal_word":false,"self_rating":"1","confidence":"100"},{"view_history":"[{\"page_index\":0,\"viewing_time\":3604.5}]","rt":3605.1000000089407,"trial_type":"instructions","trial_index":4,"time_elapsed":51030,"internal_node_id":"0.0-3.0","protocol_sum":"","subject_identifier":514,"subject_sum":[76,151,0,4,176,103,141,67,159,23,126,119,211,202,189,183,233,164,77,247,112,148,141,220,36,103,203,199,107,114,17,195],"subject_pair":257,"STUDY_ID":"66a3ed3c5d10d0e7d8a6b9da","PROLIFIC_PID":"669aecb075f22207e8e8d2ef","SESSION_ID":"66a42b3fab18ede54b07010d","practice_instructions":1,"leaderboard_instructions":1,"bonus":0,"reveal_word":false,"self_rating":"1","confidence":"100"},{"word":"ZEBRA","click_log":{"letter":["","T","S","E","D","R","B","Z","A"],"t":[0,6266,17753,21364.60000000894,29517.29999999702,40710.79999999702,61084.90000000596,64995.60000000894,66478],"hit":[null,0,0,1,0,1,1,1,1],"asked":["","T","TS","TSE","TSED","TSEDR","TSEDRB","TSEDRBZ","TSEDRBZA"],"word_state":["_____","_____","_____","_E___","_E___","_E_R_","_EBR_","ZEBR_","ZEBRA"]},"hover_log":{"letter":["?","?","?","?","?","?","?","?","?","?","?","?","?","?","?","?","?","?","?","?","?","?","?","?","?","?","?","?","?","?","?","?","?","?","?","?","?","?","?","?","?","?","?","?","?","?","?","K","K","K","?","?","?","C","C","C","C","C","?","?","?","?","?","?","?","?","?","?","?","?","?","?","?","?","?","?","?","?","?","?","?","?","?","?","?","?","?","?","?","?","?","?","?","?","?","?","?","?","?","?","?","?","?","?","?","?","?","?","?","?","?","?","?","?","?","?","?","?","?","?","?","?","?","?","?","?","?","?","?","?","?","?","?","?","?","?","?","?","?","?","?","?","?","?","?","?","?","?","?","?","?","?","?","?","?","?","?","?","?","?","?","?","?","?","?","?","?","?","?","?","?","?","?","?","?","?","?","?","?","?","?","?","?","?","?","?","?","?","?","?","?","?","?","?","?","?","?","?","?","?","?","?","?","?","?","?","?","?","?","?","?","?","?","?","?","?","?","?","?","?","?","?","?","?","?","?","?","?","?","?","?","?","?","?","?","?","?","?","?","?","?","?","?","?","?","?","?","?","?","?","?","?","?","?","?","?","?","?","?","?","?","?","?","?","?","?","?","?","?","?","?","?","?","?","?","?","?","?","C","?","?","?","L","L","L","L","L","L","L","L","L","L","L","L","?","M","M","?","N","N","N","N","N","N","N","N","N","N","N","N","N","N","?","?","?","?","?","?","?","?","U","U","U","U","U","U","U","U","U","U","U","?","?","?","?","?","?","?","?","?","?","?","T","T","T","T","T","T","T","T","T","T","T","T","T","T","T","T","T","T","T","T","T","T","T","T","T","T","T","T","T","T","T","T","T","T","T","T","T","T","T","?","U","?","?","?","O","O","P","P","?","?","?","?","?","?","?","?","?","?","?","?","?","?","?","?","?","?","?","?","?","?","?","?","?","?","?","?","?","?","?","?","?","?","?","?","?","?","?","?","?","?","?","?","?","?","?","?","?","?","?","?","?","?","?","?","?","?","?","?","?","?","?","?","?","?","?","?","?","?","I","I","I","I","I","I","I","I","I","I","I","I","I","I","I","I","I","I","I","I","I","I","I","I","I","I","I","I","I","I","I","I","I","I","I","I","I","I","I","I","I","I","I","I","I","I","I","I","I","I","I","I","I","I","I","I","I","I","I","I","I","I","I","I","I","I","I","I","I","I","I","I","I","I","I","I","I","I","I","I","I","I","I","I","I","I","I","I","I","I","I","I","I","I","I","I","I","I","I","I","I","?","?","?","?","?","?","?","?","?","?","?","?","?","?","?","?","?","?","?","?","?","?","?","?","?","?","?","?","?","?","?","?","?","?","?","?","?","?","?","?","?","?","?","?","?","?","?","?","?","?","?","?","?","?","?","?","?","?","?","?","?","?","?","?","?","?","?","?","?","?","?","?","?","?","?","?","?","?","?","?","?","?","?","?","?","?","?","?","?","?","?","?","?","?","?","?","?","?","?","?","?","?","?","?","?","?","?","?","?","?","?","?","?","?","?","?","?","?","?","?","?","?","?","?","?","?","?","?","?","?","?","?","?","?","?","?","?","?","?","?","?","?","?","?","?","?","?","?","?","?","?","?","?","?","?","?","?","?","?","?","?","?","?","?","?","?","?","?","?","?","?","?","?","?","?","?","?","?","?","?","?","?","?","?","?","?","?","?","?","?","?","?","?","?","?","?","?","?","?","?","?","?","?","?","?","?","?","?","?","?","?","?","?","?","?","?","?","?","?","?","?","?","?","?","?","?","?","?","?","?","?","?","?","?","?","?","?","?","?","?","?","?","?","?","?","?","?","?","?","?","?","?","?","?","?","?","?","?","?","?","?","?","?","?","?","?","?","?","?","?","?","?","?","?","?","?","?","?","?","?","?","?","?","?","?","?","?","?","?","?","?","?","?","?","?","?","?","?","?","?","?","?","?","?","?","?","?","?","?","?","?","?","?","?","?","?","?","?","?","?","?","?","?","?","?","?","?","?","?","?","?","?","?","?","?","?","?","?","?","?","?","?","?","?","?","?","?","?","?","?","?","?","?","?","?","?","?","?","?","?","?","?","?","?","?","?","?","?","?","?","?","?","?","?","?","?","?","?","?","?","?","?","?","?","?","?","?","?","?","?","?","?","?","?","?","?","?","?","?","?","?","?","?","?","?","?","?","?","?","?","?","?","?","?","?","?","?","?","?","?","?","?","?","?","?","?","?","?","?","?","?","?","?","?","?","?","?","?","N","?","?","?","?","?","?","?","V","V","?","U","?","?","?","?","?","?","?","?","S","S","S","S","S","S","S","S","S","S","S","S","S","S","S","S","S","S","S","S","S","S","S","S","S","S","S","S","S","S","S","S","S","S","S","S","S","S","S","S","S","S","S","?","T","T","U","?","W","W","X","X","X","?","?","?","?","?","?","?","?","?","?","?","?","?","?","?","?","?","?","?","?","?","?","?","?","?","?","?","?","?","?","?","?","?","?","?","?","?","?","?","?","?","?","?","?","?","?","?","?","?","?","?","?","?","?","?","?","?","?","?","?","?","?","?","?","?","?","?","?","?","?","?","?","?","?","?","?","?","?","?","?","?","?","P","P","P","?","?","?","?","?","?","?","?","?","?","?","?","?","?","?","?","?","P","P","?","?","?","?","?","?","O","O","?","?","?","?","?","?","?","?","?","?","?","?","?","?","?","?","?","?","?","D","D","D","D","D","?","?","?","E","E","E","E","E","E","E","E","E","E","E","E","E","E","E","E","E","E","E","E","E","E","?","?","?","?","?","?","?","?","?","?","?","E","E","E","E","E","E","E","E","E","E","E","E","E","E","E","E","E","E","E","E","E","E","E","E","E","E","E","E","E","E","E","E","E","E","E","?","N","N","N","N","?","?","?","?","?","?","?","?","?","?","?","?","?","?","?","?","?","?","?","?","?","?","?","?","?","?","?","?","?","?","?","?","?","?","?","?","?","?","?","?","?","?","?","?","?","?","?","?","?","?","?","?","?","?","?","?","?","?","?","?","?","?","?","?","?","?","?","?","?","?","?","?","?","?","?","?","?","?","?","?","?","?","?","?","?","?","?","?","?","?","?","?","?","?","?","?","?","?","?","?","?","?","?","?","?","?","?","?","?","?","?","?","?","?","?","?","?","?","?","?","?","?","?","?","?","?","?","?","?","?","?","?","?","?","?","?","?","?","?","?","?","?","?","?","?","?","?","?","?","?","?","?","?","?","?","?","?","?","?","?","?","?","?","?","?","?","?","?","?","?","?","?","?","?","?","?","?","?","?","?","?","?","?","?","?","?","?","?","?","?","?","?","?","?","?","?","?","?","?","?","?","?","?","?","?","?","?","?","?","?","?","?","?","?","?","?","?","?","?","?","?","?","?","?","?","?","?","?","?","?","?","?","?","?","?","?","?","?","?","?","?","?","?","?","?","?","?","?","?","?","?","?","?","?","?","?","?","?","?","?","?","?","?","?","?","?","?","?","?","?","?","?","?","?","?","?","?","?","?","?","?","?","?","?","?","?","?","?","?","?","?","?","?","?","?","?","?","?","?","?","?","?","?","?","?","?","?","?","?","?","?","?","?","?","?","?","?","?","?","?","?","?","?","?","?","?","?","?","?","?","?","?","?","?","?","?","?","?","?","?","?","?","?","?","?","?","?","?","?","?","?","?","?","?","?","?","?","?","?","?","?","?","?","?","?","?","?","?","?","?","?","?","?","?","?","?","?","?","?","?","?","?","?","?","?","?","?","?","?","?","?","?","?","?","?","?","?","?","?","?","?","?","?","?","?","?","?","?","?","N","?","?","?","?","?","?","?","?","?","?","?","?","?","?","?","?","?","?","C","C","C","C","C","C","?","?","?","D","D","D","D","D","D","D","D","D","D","D","D","D","D","D","D","D","D","D","D","D","D","D","D","D","D","D","D","D","D","D","D","D","D","D","D","D","D","D","D","D","D","D","D","D","D","D","D","D","D","D","D","D","D","D","D","D","D","D","D","D","?","M","M","M","M","M","M","M","M","M","M","M","M","M","M","M","M","M","M","M","M","M","M","M","M","M","M","M","M","M","M","M","M","M","M","M","M","M","M","M","M","M","M","M","M","M","?","?","?","?","?","?","?","?","?","?","?","?","?","?","?","?","?","?","?","?","?","?","?","?","?","?","?","?","?","?","?","?","?","?","?","?","?","?","?","?","?","?","?","D","?","?","?","?","?","?","?","?","?","?","?","?","?","?","?","?","?","?","?","?","?","?","?","?","?","?","?","?","?","?","?","?","?","?","?","?","?","?","?","?","?","?","?","?","?","?","?","?","?","?","?","?","?","?","?","?","?","?","?","?","?","?","?","?","?","?","?","?","?","?","?","?","?","?","?","?","?","?","?","?","?","?","?","?","?","?","?","?","?","?","?","?","?","?","?","?","?","?","?","?","?","?","?","?","D","?","?","?","?","O","?","P","?","?","?","Q","Q","Q","Q","Q","Q","Q","Q","Q","Q","Q","Q","Q","Q","Q","Q","Q","Q","Q","Q","Q","Q","Q","Q","Q","Q","Q","Q","Q","Q","Q","Q","Q","Q","Q","Q","Q","Q","Q","Q","Q","Q","Q","Q","Q","Q","Q","Q","Q","Q","Q","Q","Q","Q","Q","Q","Q","Q","Q","Q","Q","Q","Q","Q","Q","Q","Q","Q","Q","Q","Q","Q","Q","Q","Q","Q","Q","Q","Q","Q","Q","Q","Q","Q","Q","Q","Q","Q","Q","Q","Q","Q","Q","Q","Q","Q","Q","Q","Q","Q","Q","Q","Q","Q","Q","Q","Q","Q","Q","Q","Q","Q","Q","Q","Q","Q","Q","Q","Q","Q","Q","Q","Q","Q","Q","Q","Q","Q","Q","Q","Q","Q","Q","Q","Q","Q","Q","Q","Q","Q","Q","Q","Q","Q","Q","Q","Q","Q","Q","Q","Q","Q","Q","Q","Q","Q","Q","Q","Q","Q","Q","Q","Q","Q","Q","Q","Q","Q","Q","Q","Q","Q","Q","Q","Q","Q","Q","Q","Q","Q","Q","Q","Q","Q","Q","Q","Q","Q","Q","Q","Q","Q","Q","Q","Q","Q","Q","Q","Q","Q","Q","Q","Q","Q","Q","Q","Q","Q","Q","Q","Q","Q","Q","Q","Q","Q","Q","Q","Q","Q","Q","Q","Q","Q","Q","Q","Q","Q","Q","Q","Q","Q","Q","Q","Q","Q","Q","Q","Q","Q","Q","Q","Q","Q","Q","Q","Q","Q","Q","Q","Q","Q","Q","Q","Q","Q","Q","Q","Q","Q","Q","Q","Q","Q","Q","Q","Q","Q","Q","Q","Q","Q","Q","Q","Q","Q","Q","Q","Q","Q","Q","Q","Q","Q","Q","Q","Q","Q","Q","Q","Q","Q","Q","Q","Q","Q","Q","Q","Q","Q","Q","Q","Q","Q","Q","Q","Q","Q","Q","Q","Q","Q","Q","Q","Q","Q","Q","Q","Q","Q","Q","Q","Q","Q","Q","Q","Q","Q","Q","Q","Q","Q","Q","Q","Q","Q","Q","Q","Q","Q","Q","Q","Q","Q","Q","Q","Q","Q","Q","Q","Q","Q","Q","Q","Q","Q","Q","Q","Q","Q","Q","Q","Q","Q","Q","Q","Q","Q","Q","Q","Q","Q","Q","Q","Q","Q","Q","Q","Q","Q","Q","Q","Q","Q","Q","Q","Q","?","?","?","?","?","?","R","R","R","R","R","R","R","R","R","R","R","R","R","R","R","R","R","R","R","R","R","R","R","R","R","R","R","R","R","R","R","R","R","R","R","R","R","R","R","R","R","R","R","R","R","R","R","R","R","R","R","R","R","R","R","?","?","?","?","?","?","?","Z","Z","Z","Z","Z","Z","Z","Z","Z","Z","Z","Z","Z","Z","Z","Z","Z","Z","Z","Z","Z","Z","Z","Z","Z","Z","Z","Z","Z","Z","Z","Z","Z","Z","Z","Z","Z","Z","Z","Z","Z","Z","Z","Z","Z","Z","Z","Z","Z","Z","Z","Z","Z","Z","Z","Z","Z","Z","Z","Z","Z","Z","Z","Z","Z","Z","Z","Z","Z","Z","Z","Z","Z","Z","Z","Z","Z","Z","Z","Z","Z","Z","Z","Z","Z","Z","?","?","?","?","?","?","?","?","?","?","?","?","?","?","?","?","?","?","?","?","?","?","?","?","?","?","?","?","?","?","?","?","?","?","?","?","?","?","?","?","?","?","?","?","?","?","?","?","?","?","?","?","?","?","?","?","?","?","?","?","?","?","?","?","?","?","?","?","?","?","?","?","?","?","?","?","?","?","?","?","?","?","?","?","?","?","?","?","?","?","?","?","?","?","?","?","?","?","?","?","?","?","?","?","?","?","?","?","?","?","?","?","?","?","?","?","?","?","?","?","?","?","?","?","?","?","?","?","?","?","?","?","?","?","?","?","?","?","?","?","?","?","?","?","?","?","?","?","?","?","?","?","?","?","?","?","?","?","?","?","?","?","?","?","?","?","?","?","?","?","?","?","?","?","?","?","?","?","?","?","?","?","?","?","?","?","?","?","?","?","?","?","?","?","?","?","?","?","?","?","?","?","?","?","?","?","?","?","?","?","?","?","?","?","?","?","?","?","?","?","?","?","?","?","?","?","?","?","?","?","?","?","?","?","?","?","?","?","?","?","?","?","?","?","?","?","?","?","?","?","?","?","?","?","?","?","?","?","?","?","?","?","?","?","?","?","?","?","?","?","?","?","?","?","?","?","?","?","?","?","?","?","?","?","?","?","?","?","?","?","?","?","?","?","?","?","?","?","?","?","?","?","?","?","?","?","?","?","?","?","?","?","?","?","?","?","?","?","?","?","?","?","?","?","?","?","?","?","?","?","?","?","?","?","?","?","?","?","?","?","?","?","?","?","?","?","?","?","?","?","?","?","?","?","?","?","?","?","?","?","?","?","?","?","?","?","?","?","?","?","?","?","?","?","?","?","?","?","?","?","?","?","?","?","?","?","?","?","?","?","?","?","?","?","?","?","?","?","?","?","?","?","?","?","?","?","?","?","?","?","?","?","?","?","?","?","?","?","?","?","?","?","?","?","?","?","?","?","?","?","?","?","?","?","?","?","?","?","?","?","?","?","?","?","?","?","M","M","M","M","M","M","M","M","M","M","M","M","M","M","M","M","M","M","M","M","M","M","M","M","M","M","M","M","M","M","M","M","M","M","M","M","M","M","M","M","M","M","M","?","?","?","?","?","?","?","?","?","?","?","?","?","?","?","?","?","?","?","?","?","?","?","?","?","?","?","?","?","?","?","?","?","?","?","?","?","?","?","?","?","?","?","?","?","?","?","?","?","?","?","?","?","?","?","?","?","?","?","?","?","?","?","?","?","?","?","?","?","?","?","?","?","?","?","?","?","?","?","?","?","?","?","?","?","?","?","?","?","?","?","?","?","?","?","?","?","?","?","?","?","?","?","?","?","?","?","?","?","?","?","?","?","?","?","?","?","?","?","?","?","?","?","?","?","?","?","?","?","?","?","?","?","?","?","?","?","?","?","?","?","?","?","?","?","?","?","?","?","?","?","?","?","?","?","?","?","?","?","?","?","?","?","?","?","?","?","?","?","?","?","?","?","?","?","?","?","?","?","?","?","?","?","?","?","?","?","?","?","?","?","?","?","?","?","?","?","?","?","?","?","?","?","?","?","?","?","?","?","?","?","?","?","?","?","?","?","?","?","?","?","?","?","?","?","?","?","?","?","?","?","?","?","?","?","?","?","?","?","?","?","?","?","?","?","?","?","?","?","?","?","?","?","?","?","?","?","?","?","?","?","?","?","?","?","?","?","?","?","?","?","?","?","?","?","?","?","?","?","?","?","?","?","?","?","?","?","?","?","?","?","?","?","?","?","?","?","?","?","?","?","?","?","?","?","?","?","?","?","?","?","?","?","?","?","?","?","?","?","?","?","?","?","?","?","?","?","?","?","?","?","?","?","?","?","?","?","?","?","?","?","?","?","?","?","?","?","?","?","?","?","?","?","?","?","?","?","?","?","?","?","?","?","?","?","?","?","?","?","?","?","?","?","?","?","?","?","?","?","?","?","?","?","?","?","?","?","?","?","?","?","?","?","?","?","?","?","?","?","?","?","?","?","?","?","?","?","?","?","?","?","?","?","?","?","?","?","?","?","?","?","?","?","?","?","?","?","?","?","?","?","?","?","?","?","?","?","?","?","?","?","?","?","?","?","?","?","?","?","?","?","?","?","?","?","?","?","?","?","?","?","?","?","?","?","?","?","?","?","?","?","?","?","?","?","?","?","?","?","?","?","?","?","?","?","?","?","?","?","?","?","?","?","?","?","?","?","?","?","?","?","?","?","?","?","?","?","?","?","?","?","?","?","?","?","?","?","?","?","?","?","?","?","?","?","?","?","?","?","?","?","?","?","?","?","?","?","?","T","?","?","?","?","?","?","?","?","?","?","?","?","T","T","T","T","T","?","?","K","K","K","K","?","?","?","?","?","?","?","?","?","?","?","B","B","B","B","B","B","B","B","B","B","B","B","B","B","B","B","B","B","B","B","B","B","B","B","B","B","B","B","B","B","B","B","B","B","B","B","B","B","B","B","B","B","B","B","B","B","B","B","B","B","B","B","B","B","?","?","?","?","?","A","A","A","A","A","A","A","A","A","A","A","A","A","A","A","A","A","A","A","A","A","A","A","A","A","A","A","A","A","A","A","A","A","A","A","A","A","A","A","A","A","A","A","A","A","A","A","A","A","A","A","A","A","A","A","A","A","A","A","A","A","A","A","A","A","A","A","A","A","A","A","A","A","A","A","A","A","A","A","A","A","A","A","A","A","A","A","A","A","A","A","A","A","A","A","A","A","A","A","A","A","A","A","A","A","A","A","A","A","A","A","A","A","A","A","A","A","A","A","A","A","A","A","A","A","A","A","A","A","A","?","K","?","?","T","T","T","?","?","?","?","?","?","T","T","T","T","T","T","T","T","T","T","U","U","?","V","V","V","V","W","W","W","W","W","W","?","X","X","X","?","Y","Y","Y","Y","Y","Y","?","?","Z","Z","Z","Z","Z","Z","Z","Z","Z","Z","Z","Z","Z","Z","Z","Z","Z","Z","Z","Z","Z","Z","Z","Z","Z","Z","Z","Z","Z","Z","Z","Z","Z","Z","Z","Z","Z","Z","?","Y","Y","?","?","N","?","M","?","?","?","B","B","B","B","B","B","B","B","B","B","B","B","B","B","B","B","B","B","B","B","B","B","B","B","B","B","B","B","B","B","?","?","?","?","?","?","A","A","A","A","A","A","A","A","A","A","A","A","A","A","A","A","A","A","A","A","A","A","A","A","A","A","A","A","A","A","A","A","A","A","A","A","A","A","A","A","A","A","A","A","A","A","A","A","A","A","A","A","A","A","?","B","?","C","C","D","D","E","E","?","?","?","F","F","F","F","F","F","?","?","?","?","?","?","?","?","?","?","?","?","?","?","?","?","?","?","?","?","?","?","?","?","?","?","?","?","?","?","?","?","?","?","?","?","?","?","?","?","?","?","?","?","?","?","?","?","?","?","?","?","?","?","?","?","?","?","?","?","?","?","?","?","?","?","?","?","?","?","?","?","?","?","?","?","?","?","?","?","?","?","?","?","?","?","?","?","?"],"t":[56,141,165,176,194,211,234,243,263,280,291,310,325,344,359,380,395,415,428,444,461,474,491,508,524,544,557,576,594,609,628,643,659,677,694,710,727,742,761,778,795,811,829,845,862,879,897,915,931,943,959,977,992,1022,1038,1055,1067,1093,1110,1125,1140,1158,1174,1191,1208,1226,1240,1259,1274,1293,1307,1324,1341,1359,1374,1391,1407,1425,1443,1458,1477,1491,1507,1526,1542,1558,1578,1593,1608,1625,1644,1665,1674,1691,1709,1725,1741,1758,1775,1792,1809,1826,1842,1858,1874,1891,1909,1926,1940,1956,1975,1993,2009,2026,2041,2059,2075,2095,2110,2127,2141,2157,2175,2191,2209,2224,2242,2259,2275,2291,2309,2326,2341,2357,2374,2393,2409,2427,2442,2457,2475,2497,2515,2530,2558,2576,2592,2608,2625,2642,2658,2675,2692,2709,2724,2743,2758,2777,2791,2808,2824,2841,2857,2875,2891,2908,2924,2941,2958,2980,2995,3010,3029,3044,3060,3074,3094,3108,3125,3146,3162,3175,3192,3210,3229,3242,3263,3275,3297,3309,3326,3347,3363,3377,3393,3416,3428,3443,3463,3476,3491,3513,3529,3543,3560,3580,3594,3607,3626,3644,3662,3676,3695,3711,3727,3742,3759,3778,3798,3826,3844,3860,3873,3890,3909,3924,3939,3959,3976,3990,4006,4023,4039,4056,4073,4089,4106,4123,4140,4157,4173,4190,4207,4223,4240,4257,4273,4290,4306,4323,4341,4357,4374,4391,4408,4425,4443,4458,4475,4491,4506,4523,4542,4558,4575,4593,4608,4624,4642,4658,4674,4692,4707,4725,4741,4756,4776,4791,4807,4825,4841,4859,4875,4891,4909,4923,4941,4958,4973,4990,5008,5024,5041,5058,5074,5093,5109,5125,5141,5158,5174,5191,5206,5224,5241,5258,5274,5290,5308,5324,5342,5358,5375,5391,5407,5424,5451,5463,5482,5495,5508,5524,5541,5561,5572,5594,5611,5626,5644,5658,5675,5696,5707,5726,5742,5760,5774,5791,5811,5826,5844,5857,5876,5891,5908,5925,5944,5958,5975,5992,6007,6023,6042,6057,6075,6091,6109,6132,6159,6174,6192,6208,6231,6244,6257,6275,6293,6309,6324,6343,6358,6375,6393,6410,6424,6443,6460,6477,6491,6512,6526,6545,6562,6579,6596,6609,6628,6646,6659,6675,6694,6709,6725,6744,6760,6776,6793,6808,6825,6843,6860,6876,6891,6911,6927,6942,6958,6975,6992,7009,7026,7043,7060,7077,7093,7110,7128,7145,7161,7177,7194,7208,7227,7244,7259,7275,7293,7312,7331,7344,7357,7378,7394,7411,7428,7444,7458,7477,7495,7512,7528,7546,7558,7579,7596,7612,7625,7643,7661,7680,7693,7711,7728,7742,7759,7780,7790,7809,7826,7845,7859,7877,7893,7911,7926,7942,7961,7977,7994,8009,8028,8045,8060,8078,8094,8111,8127,8145,8161,8175,8195,8211,8227,8244,8258,8275,8293,8310,8328,8341,8359,8376,8394,8411,8438,8460,8473,8490,8506,8523,8539,8556,8572,8590,8607,8624,8641,8659,8676,8692,8709,8724,8743,8759,8776,8793,8807,8825,8843,8858,8876,8891,8908,8923,8942,8958,8974,8990,9006,9023,9041,9059,9073,9089,9107,9124,9141,9158,9175,9194,9207,9224,9240,9256,9274,9290,9308,9323,9340,9361,9373,9391,9406,9424,9440,9457,9475,9492,9509,9526,9540,9558,9575,9591,9608,9625,9641,9658,9674,9690,9707,9723,9741,9757,9774,9790,9808,9825,9840,9857,9873,9891,9907,9929,9947,9974,9990,10008,10023,10040,10059,10073,10090,10107,10125,10140,10157,10174,10190,10207,10224,10241,10258,10274,10291,10307,10323,10340,10357,10373,10391,10408,10424,10440,10456,10474,10490,10507,10524,10540,10558,10574,10591,10606,10625,10641,10658,10675,10691,10707,10723,10741,10757,10774,10789,10808,10824,10840,10857,10874,10892,10908,10923,10939,10956,10972,10989,11006,11022,11039,11055,11072,11090,11108,11123,11139,11156,11172,11189,11206,11223,11240,11257,11276,11290,11307,11323,11340,11356,11373,11393,11407,11422,11439,11456,11473,11490,11507,11524,11542,11558,11576,11590,11607,11623,11640,11657,11674,11693,11709,11725,11741,11758,11775,11791,11809,11823,11841,11857,11872,11890,11907,11926,11943,11960,11974,11989,12008,12024,12041,12057,12074,12090,12108,12126,12141,12158,12174,12190,12208,12224,12241,12257,12275,12291,12309,12324,12342,12357,12374,12390,12407,12423,12442,12458,12474,12490,12506,12526,12539,12556,12572,12590,12606,12623,12641,12657,12673,12691,12707,12724,12740,12756,12774,12792,12807,12827,12839,12856,12873,12889,12905,12923,12940,12957,12975,12993,13012,13022,13041,13057,13074,13091,13106,13123,13141,13156,13174,13191,13208,13225,13241,13260,13275,13292,13311,13326,13342,13356,13374,13390,13406,13423,13439,13456,13472,13489,13507,13523,13539,13555,13572,13589,13608,13623,13639,13656,13673,13690,13708,13724,13740,13756,13774,13791,13807,13825,13842,13857,13874,13891,13907,13924,13942,13958,13974,13990,14007,14024,14041,14058,14075,14092,14107,14124,14141,14157,14173,14190,14207,14222,14239,14255,14273,14289,14308,14326,14339,14356,14372,14389,14406,14423,14440,14456,14474,14491,14507,14526,14541,14557,14574,14591,14609,14623,14641,14656,14674,14690,14706,14723,14739,14758,14775,14794,14809,14824,14841,14858,14873,14890,14907,14923,14941,14958,14973,14990,15006,15023,15040,15057,15074,15089,15106,15122,15140,15161,15179,15191,15207,15226,15242,15256,15274,15292,15311,15325,15341,15361,15378,15394,15409,15428,15446,15460,15478,15493,15508,15529,15545,15558,15575,15595,15610,15625,15641,15661,15676,15693,15707,15726,15745,15757,15774,15793,15809,15823,15841,15863,15875,15890,15907,15925,15942,15956,15976,15992,16010,16027,16043,16057,16076,16092,16110,16123,16141,16162,16176,16190,16212,16225,16243,16260,16278,16293,16310,16329,16344,16359,16378,16391,16414,16426,16444,16458,16477,16491,16507,16526,16542,16557,16576,16600,16622,16640,16656,16673,16691,16707,16723,16740,16758,16774,16791,16808,16824,16840,16857,16874,16890,16907,16924,16941,16957,16973,16990,17010,17025,17041,17057,17075,17091,17108,17126,17142,17156,17176,17191,17207,17230,17248,17260,17276,17290,17308,17326,17343,17358,17376,17394,17408,17423,17441,17463,17479,17493,17510,17525,17545,17558,17578,17593,17611,17627,17644,17657,17675,17691,17707,17722,17740,17760,17775,17789,17809,17824,17842,17856,17873,17891,17909,17925,17941,17958,17976,17989,18008,18028,18045,18058,18075,18094,18110,18124,18141,18159,18176,18191,18209,18228,18246,18259,18275,18293,18310,18327,18343,18363,18378,18393,18410,18430,18446,18459,18477,18493,18512,18526,18543,18560,18578,18594,18612,18625,18641,18661,18682,18694,18712,18726,18742,18758,18774,18793,18809,18824,18841,18862,18879,18892,18909,18928,18942,18959,18977,18995,19011,19025,19043,19062,19079,19093,19110,19126,19145,19168,19191,19207,19224,19238,19256,19272,19289,19306,19322,19340,19357,19374,19390,19407,19423,19440,19457,19476,19490,19506,19523,19540,19557,19574,19589,19606,19623,19640,19657,19673,19689,19706,19724,19740,19756,19772,19791,19809,19824,19841,19857,19874,19889,19907,19925,19941,19960,19973,19990,20007,20023,20041,20057,20073,20090,20107,20125,20140,20157,20178,20193,20207,20224,20239,20258,20273,20290,20307,20323,20339,20358,20374,20390,20408,20424,20440,20458,20473,20490,20506,20522,20541,20556,20572,20590,20607,20622,20639,20656,20672,20689,20706,20724,20739,20756,20773,20790,20806,20825,20839,20855,20873,20892,20907,20923,20940,20960,20974,20991,21006,21023,21040,21059,21072,21091,21107,21123,21139,21156,21172,21190,21207,21224,21240,21257,21273,21291,21307,21325,21341,21358,21377,21399,21424,21442,21459,21473,21490,21508,21525,21543,21558,21574,21590,21607,21624,21644,21666,21681,21695,21707,21724,21742,21758,21773,21790,21808,21825,21839,21856,21875,21892,21909,21925,21943,21960,21974,21992,22011,22026,22040,22059,22079,22095,22110,22128,22141,22160,22176,22195,22208,22225,22244,22260,22277,22297,22309,22330,22342,22361,22374,22394,22410,22424,22446,22461,22474,22493,22510,22528,22541,22562,22573,22592,22609,22626,22640,22657,22675,22694,22708,22725,22743,22762,22776,22795,22809,22824,22845,22858,22872,22889,22912,22927,22941,22959,22976,22994,23007,23026,23042,23059,23072,23092,23108,23126,23139,23157,23180,23205,23223,23239,23257,23273,23291,23307,23323,23340,23357,23373,23390,23407,23423,23441,23459,23474,23491,23507,23523,23540,23558,23574,23589,23606,23625,23643,23659,23673,23690,23707,23723,23740,23757,23773,23790,23807,23824,23842,23857,23875,23890,23905,23922,23941,23958,23973,23992,24007,24025,24040,24059,24075,24091,24106,24122,24140,24158,24175,24190,24207,24224,24241,24259,24273,24290,24309,24324,24341,24357,24373,24392,24408,24428,24441,24458,24473,24489,24505,24522,24540,24556,24572,24590,24606,24625,24640,24655,24672,24689,24706,24722,24738,24755,24772,24789,24806,24822,24839,24857,24873,24890,24909,24924,24940,24956,24973,24990,25006,25023,25040,25057,25073,25090,25106,25123,25140,25156,25174,25189,25207,25223,25240,25256,25274,25290,25307,25324,25340,25358,25374,25392,25407,25423,25439,25458,25473,25490,25506,25523,25539,25555,25573,25590,25607,25623,25639,25657,25673,25690,25706,25722,25741,25757,25774,25791,25807,25824,25839,25856,25874,25889,25908,25930,25956,25971,25988,26005,26022,26039,26056,26073,26089,26106,26124,26139,26159,26173,26189,26207,26223,26241,26256,26271,26288,26305,26322,26338,26355,26371,26388,26405,26423,26440,26455,26471,26488,26505,26522,26538,26555,26572,26588,26605,26622,26640,26655,26671,26689,26705,26722,26739,26755,26773,26789,26806,26822,26840,26856,26873,26889,26906,26923,26941,26957,26974,26990,27006,27024,27040,27056,27074,27089,27107,27123,27138,27157,27173,27189,27205,27223,27240,27255,27271,27288,27305,27321,27338,27355,27371,27388,27412,27426,27438,27456,27472,27488,27505,27522,27538,27555,27572,27589,27609,27623,27639,27656,27674,27691,27706,27723,27738,27758,27774,27790,27806,27823,27842,27856,27874,27890,27906,27923,27941,27955,27973,27991,28007,28023,28039,28056,28074,28091,28108,28124,28140,28158,28174,28190,28206,28222,28240,28258,28273,28290,28308,28324,28340,28357,28376,28391,28407,28423,28440,28458,28474,28490,28507,28532,28558,28574,28591,28607,28624,28641,28655,28672,28689,28705,28723,28739,28756,28772,28791,28806,28824,28840,28859,28874,28894,28906,28922,28941,28956,28974,28989,29007,29023,29039,29055,29074,29091,29106,29123,29139,29157,29173,29190,29206,29223,29238,29254,29271,29288,29306,29322,29338,29357,29372,29389,29406,29423,29441,29457,29475,29490,29507,29523,29539,29556,29573,29591,29607,29622,29640,29657,29672,29689,29706,29724,29739,29758,29773,29790,29808,29823,29838,29857,29873,29891,29906,29923,29941,29956,29973,29990,30008,30024,30040,30057,30074,30089,30106,30123,30140,30158,30171,30192,30206,30224,30239,30257,30273,30289,30307,30325,30339,30355,30373,30388,30406,30423,30439,30456,30473,30489,30505,30523,30540,30558,30574,30591,30606,30624,30639,30659,30674,30691,30707,30724,30741,30756,30774,30789,30806,30822,30839,30856,30872,30890,30905,30922,30938,30957,30972,30989,31006,31022,31039,31056,31073,31088,31105,31123,31139,31157,31172,31190,31206,31221,31239,31256,31273,31290,31305,31322,31340,31356,31373,31388,31406,31423,31440,31457,31472,31489,31506,31523,31539,31557,31574,31591,31606,31623,31640,31656,31673,31691,31706,31724,31741,31765,31789,31806,31823,31839,31855,31872,31888,31906,31923,31942,31956,31972,31988,32005,32022,32039,32056,32073,32089,32107,32124,32139,32157,32173,32188,32207,32223,32240,32257,32276,32290,32307,32324,32342,32357,32371,32389,32407,32421,32438,32455,32471,32488,32505,32521,32539,32555,32571,32588,32604,32621,32638,32654,32671,32688,32704,32721,32738,32755,32771,32789,32806,32822,32838,32857,32872,32891,32907,32924,32941,32957,32973,32992,33006,33022,33039,33059,33072,33089,33106,33123,33139,33155,33171,33189,33205,33221,33238,33262,33278,33291,33305,33322,33338,33356,33372,33389,33405,33422,33439,33455,33472,33489,33506,33521,33538,33555,33576,33590,33606,33622,33639,33655,33671,33688,33705,33721,33738,33755,33772,33788,33805,33822,33839,33854,33871,33888,33905,33921,33938,33954,33971,33988,34005,34022,34039,34056,34072,34089,34106,34122,34139,34156,34172,34189,34206,34221,34238,34256,34273,34289,34306,34323,34339,34355,34372,34392,34409,34423,34439,34457,34472,34489,34507,34523,34540,34558,34574,34590,34606,34622,34639,34654,34673,34692,34709,34721,34738,34755,34772,34788,34807,34824,34839,34856,34872,34888,34906,34923,34940,34957,34971,34989,35005,35021,35038,35056,35072,35088,35105,35121,35138,35155,35171,35188,35204,35227,35255,35272,35289,35305,35323,35338,35356,35374,35389,35406,35422,35440,35455,35473,35489,35505,35522,35540,35556,35572,35588,35604,35621,35638,35654,35671,35688,35705,35721,35738,35755,35771,35788,35804,35821,35838,35854,35871,35888,35906,35921,35938,35957,35972,35991,36005,36022,36040,36056,36072,36088,36107,36124,36139,36162,36177,36189,36205,36224,36238,36255,36272,36289,36305,36323,36339,36356,36372,36389,36407,36424,36440,36457,36473,36491,36506,36524,36539,36555,36573,36591,36606,36623,36641,36657,36673,36690,36706,36723,36739,36755,36771,36788,36805,36823,36841,36857,36874,36890,36905,36921,36938,36955,36972,36989,37005,37023,37039,37055,37073,37091,37105,37123,37140,37159,37173,37190,37207,37223,37240,37256,37273,37289,37305,37323,37340,37357,37373,37390,37406,37424,37439,37456,37474,37489,37506,37523,37540,37556,37574,37589,37606,37624,37644,37672,37689,37706,37722,37739,37756,37772,37788,37807,37824,37839,37855,37873,37888,37907,37922,37941,37957,37973,37991,38006,38022,38041,38056,38072,38091,38107,38122,38140,38156,38172,38190,38206,38222,38239,38256,38272,38289,38306,38322,38340,38356,38372,38390,38406,38422,38440,38455,38472,38490,38506,38523,38540,38556,38572,38588,38605,38624,38638,38655,38671,38688,38704,38721,38738,38755,38771,38788,38807,38821,38838,38854,38871,38888,38905,38922,38939,38957,38973,38990,39007,39023,39040,39055,39075,39088,39106,39127,39139,39155,39171,39190,39204,39221,39237,39254,39271,39288,39306,39321,39339,39356,39372,39389,39406,39422,39439,39455,39472,39489,39507,39523,39539,39556,39572,39588,39605,39622,39640,39657,39673,39689,39705,39723,39739,39756,39772,39789,39807,39823,39841,39859,39875,39891,39908,39923,39940,39956,39974,39990,40006,40022,40039,40058,40072,40089,40105,40122,40139,40157,40172,40189,40205,40222,40239,40257,40275,40289,40307,40324,40339,40355,40372,40388,40405,40421,40438,40457,40474,40488,40506,40522,40539,40564,40579,40591,40604,40621,40639,40655,40671,40688,40706,40723,40738,40757,40772,40788,40804,40821,40839,40855,40872,40889,40908,40923,40941,40956,40973,40990,41006,41022,41039,41056,41073,41089,41104,41121,41138,41154,41173,41189,41205,41223,41239,41256,41272,41288,41306,41321,41339,41356,41372,41389,41405,41422,41440,41457,41472,41489,41508,41522,41540,41556,41573,41591,41606,41623,41639,41658,41673,41690,41708,41723,41739,41755,41772,41792,41806,41822,41839,41854,41871,41888,41905,41923,41939,41956,41973,41991,42005,42022,42039,42055,42071,42088,42104,42121,42138,42155,42172,42191,42206,42224,42239,42257,42273,42289,42306,42323,42340,42357,42372,42389,42405,42423,42439,42457,42473,42492,42508,42522,42539,42556,42572,42589,42606,42621,42638,42655,42672,42689,42705,42724,42742,42756,42773,42789,42806,42822,42839,42855,42873,42888,42905,42924,42939,42957,42973,42988,43006,43023,43041,43056,43072,43091,43106,43122,43140,43155,43172,43191,43205,43223,43240,43263,43289,43307,43324,43341,43358,43374,43390,43407,43423,43440,43459,43473,43487,43504,43522,43537,43555,43573,43589,43605,43622,43640,43656,43673,43691,43706,43723,43738,43757,43771,43789,43805,43824,43839,43856,43872,43889,43905,43923,43938,43955,43972,43990,44007,44023,44039,44057,44074,44091,44107,44123,44139,44154,44172,44190,44206,44222,44238,44256,44272,44289,44305,44322,44338,44355,44372,44391,44407,44421,44439,44455,44474,44491,44506,44523,44538,44556,44573,44590,44606,44625,44639,44654,44672,44689,44708,44723,44740,44755,44773,44791,44805,44821,44839,44854,44873,44897,44911,44924,44940,44955,44974,44993,45008,45028,45039,45058,45073,45091,45111,45126,45140,45161,45174,45192,45207,45223,45238,45257,45273,45292,45308,45326,45341,45358,45375,45392,45406,45423,45445,45459,45474,45492,45505,45525,45540,45560,45573,45591,45611,45623,45643,45659,45675,45689,45707,45723,45740,45757,45774,45789,45809,45824,45839,45855,45874,45891,45906,45921,45942,45963,45988,46005,46020,46039,46055,46073,46093,46105,46122,46140,46156,46172,46189,46206,46222,46240,46257,46274,46289,46306,46325,46349,46377,46388,46406,46423,46439,46455,46472,46489,46505,46522,46538,46557,46573,46589,46606,46622,46638,46654,46671,46690,46706,46723,46741,46756,46772,46789,46806,46822,46841,46856,46872,46890,46907,46923,46939,46955,46972,46990,47006,47023,47040,47056,47073,47089,47104,47121,47138,47155,47171,47189,47205,47222,47238,47255,47273,47288,47305,47323,47339,47354,47372,47389,47405,47422,47439,47454,47472,47489,47505,47522,47539,47557,47572,47589,47606,47621,47639,47655,47672,47689,47707,47723,47740,47763,47779,47792,47805,47822,47842,47858,47872,47890,47909,47925,47940,47957,47976,47993,48006,48026,48043,48062,48075,48089,48110,48126,48141,48157,48176,48194,48207,48224,48243,48260,48274,48290,48310,48325,48339,48358,48376,48395,48407,48426,48441,48458,48478,48492,48506,48525,48541,48559,48573,48591,48611,48626,48641,48655,48675,48694,48708,48724,48742,48759,48774,48791,48809,48834,48855,48872,48889,48904,48924,48938,48956,48974,48990,49007,49025,49040,49057,49072,49089,49105,49122,49139,49157,49174,49190,49214,49228,49241,49262,49278,49304,49321,49338,49355,49373,49388,49406,49422,49438,49458,49474,49489,49506,49523,49539,49555,49572,49589,49605,49622,49639,49656,49672,49688,49706,49723,49740,49754,49773,49788,49805,49821,49838,49855,49871,49889,49905,49922,49940,49956,49974,49989,50005,50022,50040,50055,50071,50090,50107,50122,50139,50155,50171,50189,50204,50223,50239,50255,50272,50287,50304,50320,50337,50354,50370,50387,50405,50421,50437,50454,50471,50488,50504,50520,50537,50554,50571,50588,50605,50624,50638,50655,50671,50689,50705,50722,50738,50755,50771,50789,50804,50821,50839,50854,50872,50889,50907,50921,50937,50955,50973,50989,51005,51021,51040,51055,51072,51088,51106,51123,51139,51157,51173,51190,51206,51224,51238,51256,51274,51303,51325,51340,51356,51372,51390,51407,51422,51438,51456,51473,51489,51506,51524,51539,51557,51573,51589,51605,51623,51640,51656,51671,51688,51706,51723,51739,51755,51772,51788,51805,51821,51838,51856,51873,51889,51905,51921,51938,51954,51972,51988,52006,52022,52045,52057,52074,52087,52104,52121,52138,52154,52172,52189,52204,52221,52239,52254,52270,52287,52305,52321,52338,52356,52372,52389,52406,52422,52438,52456,52471,52490,52506,52523,52539,52556,52573,52590,52605,52621,52638,52654,52673,52689,52705,52721,52738,52754,52773,52788,52805,52821,52840,52855,52872,52888,52905,52921,52939,52954,52973,52991,53004,53022,53038,53055,53071,53088,53104,53121,53139,53157,53173,53189,53204,53221,53237,53255,53272,53288,53305,53322,53338,53357,53373,53389,53406,53421,53439,53456,53475,53489,53506,53521,53538,53555,53571,53588,53604,53622,53638,53654,53671,53687,53704,53722,53738,53755,53773,53788,53804,53823,53838,53857,53873,53889,53905,53922,53938,53956,53971,53988,54005,54022,54038,54056,54072,54088,54106,54122,54138,54157,54173,54189,54207,54224,54238,54256,54273,54290,54305,54322,54338,54355,54372,54390,54405,54424,54439,54456,54472,54489,54505,54522,54539,54556,54572,54588,54605,54621,54638,54654,54671,54690,54706,54722,54738,54755,54771,54789,54806,54821,54839,54855,54872,54889,54905,54923,54939,54954,54972,54988,55005,55021,55038,55055,55071,55088,55106,55121,55139,55154,55172,55189,55205,55221,55238,55255,55272,55288,55305,55321,55338,55354,55371,55388,55405,55421,55439,55455,55471,55488,55505,55521,55538,55556,55571,55590,55606,55622,55639,55656,55674,55689,55705,55725,55738,55756,55771,55789,55806,55821,55840,55856,55871,55890,55905,55923,55940,55955,55971,55988,56009,56021,56037,56053,56071,56088,56107,56120,56137,56154,56172,56187,56206,56223,56240,56256,56272,56288,56306,56322,56339,56356,56379,56401,56423,56437,56454,56472,56488,56504,56521,56540,56555,56571,56590,56607,56623,56638,56654,56671,56690,56705,56722,56738,56755,56771,56788,56806,56823,56837,56854,56871,56887,56905,56921,56937,56954,56973,56988,57005,57021,57040,57054,57072,57089,57105,57122,57139,57155,57173,57190,57205,57222,57240,57257,57272,57288,57304,57321,57337,57354,57371,57388,57405,57422,57438,57455,57473,57488,57504,57522,57538,57556,57572,57588,57605,57623,57638,57656,57673,57689,57705,57722,57739,57754,57773,57800,57826,57856,57871,57888,57904,57922,57938,57954,57970,57991,58005,58021,58040,58055,58074,58088,58105,58122,58138,58155,58171,58189,58207,58222,58238,58255,58272,58290,58305,58320,58338,58356,58373,58388,58405,58422,58438,58455,58472,58489,58505,58522,58539,58556,58573,58590,58604,58621,58638,58655,58671,58687,58706,58721,58738,58754,58772,58790,58806,58823,58837,58854,58872,58889,58904,58921,58939,58955,58971,58989,59005,59023,59039,59056,59073,59090,59105,59122,59140,59156,59171,59189,59205,59221,59237,59261,59277,59290,59307,59328,59354,59371,59388,59406,59421,59438,59456,59473,59488,59505,59521,59538,59555,59571,59589,59605,59623,59637,59656,59672,59688,59705,59721,59744,59773,59788,59804,59822,59840,59854,59871,59888,59905,59922,59938,59956,59973,59989,60005,60022,60040,60056,60073,60088,60107,60122,60138,60155,60173,60188,60204,60223,60239,60255,60273,60289,60304,60321,60339,60354,60372,60388,60404,60422,60437,60454,60470,60488,60504,60522,60538,60553,60572,60588,60605,60622,60639,60655,60671,60689,60709,60722,60737,60755,60771,60787,60804,60820,60838,60854,60870,60888,60906,60921,60937,60953,60970,60987,61005,61020,61039,61057,61071,61092,61106,61122,61137,61156,61171,61188,61206,61222,61238,61255,61271,61288,61306,61325,61342,61357,61373,61389,61408,61425,61440,61458,61473,61490,61504,61522,61541,61558,61571,61591,61607,61625,61640,61659,61674,61691,61706,61724,61744,61760,61773,61790,61810,61825,61840,61858,61876,61891,61905,61923,61944,61959,61973,61991,62007,62024,62042,62058,62073,62090,62110,62136,62143,62171,62187,62204,62221,62238,62255,62271,62287,62306,62321,62337,62354,62373,62388,62404,62421,62437,62455,62471,62487,62504,62521,62539,62556,62571,62589,62604,62621,62638,62654,62672,62689,62706,62722,62738,62755,62772,62790,62806,62822,62839,62855,62871,62889,62905,62922,62938,62956,62971,62989,63005,63022,63038,63055,63074,63088,63107,63123,63137,63153,63172,63188,63205,63222,63238,63255,63272,63288,63304,63322,63343,63359,63373,63388,63409,63426,63438,63457,63476,63493,63507,63525,63540,63565,63579,63599,63613,63637,63654,63672,63687,63704,63720,63737,63756,63772,63789,63805,63821,63837,63854,63870,63888,63905,63922,63939,63955,63973,63988,64004,64021,64037,64055,64071,64088,64105,64121,64139,64154,64172,64187,64205,64221,64238,64255,64273,64288,64304,64321,64339,64356,64371,64388,64405,64422,64438,64455,64471,64488,64505,64522,64541,64555,64572,64588,64605,64621,64638,64655,64674,64688,64704,64721,64739,64754,64771,64788,64805,64823,64838,64854,64870,64890,64905,64921,64940,64957,64974,64989,65004,65020,65037,65054,65070,65088,65105,65121,65138,65154,65171,65187,65204,65223,65240,65254,65271,65289,65304,65321,65339,65355,65371,65388,65406,65423,65439,65454,65472,65488,65505,65520,65537,65555,65571,65588,65606,65622,65638,65655,65671,65688,65704,65721,65739,65754,65771,65789,65804,65821,65838,65855,65871,65888,65905,65922,65938,65956,65972,65988,66005,66021,66037,66055,66072,66088,66105,66121,66139,66155,66171,66187,66204,66221,66237,66270,66285,66303,66320,66338,66354,66370,66388,66406,66421,66439,66454,66472,66494,66507,66525,66543,66558,66573,66591,66608,66627,66641,66658,66676,66692,66706,66723,66744,66759,66775,66788,66808,66824,66840,66857,66876,66893,66907,66924,66942,66959,66973,66990,67008,67026,67039,67057,67076,67094,67109,67124,67139,67156,67176,67192,67205,67223,67241,67258,67273,67289,67307,67326,67339,67360,67374,67393,67407,67422,67442,67457,67473,67491,67509,67524,67538,67562,67580,67595,67608,67621,67638,67656,67674,67689,67704,67723,67738,67755,67772,67789,67807,67823,67841,67856,67873,67889,67906,67923,67938,67955,67974,67990,68005,68023,68040,68056,68072,68091,68106,68125,68140,68158,68175,68193,68208,68223,68239,68258,68272,68289,68307,68322,68339,68359,68373,68391,68407,68423,68442,68459,68473,68496],"hit":[null],"x":[-1.751700680272109,-1.751700680272109,-1.751700680272109,-1.751700680272109,-1.751700680272109,-1.751700680272109,-1.751700680272109,-1.751700680272109,-1.751700680272109,-1.751700680272109,-1.751700680272109,-1.751700680272109,-1.751700680272109,-1.751700680272109,-1.751700680272109,-1.751700680272109,-1.751700680272109,-1.751700680272109,-1.751700680272109,-1.751700680272109,-1.751700680272109,-1.751700680272109,-1.751700680272109,-1.751700680272109,-1.751700680272109,-1.751700680272109,-1.751700680272109,-1.751700680272109,-1.751700680272109,-1.751700680272109,-1.751700680272109,-1.751700680272109,-1.751700680272109,-1.751700680272109,-1.751700680272109,-1.751700680272109,-1.751700680272109,-1.751700680272109,-1.751700680272109,-1.751700680272109,-1.751700680272109,-1.751700680272109,-1.751700680272109,-1.751700680272109,-1.751700680272109,0.061224489795918366,0.07142857142857142,0.09183673469387756,0.12585034013605442,0.1598639455782313,0.19727891156462585,0.23129251700680273,0.25510204081632654,0.272108843537415,0.29931972789115646,0.3129251700680272,0.3231292517006803,0.3299319727891156,0.336734693877551,0.3401360544217687,0.3401360544217687,0.3401360544217687,0.3401360544217687,0.3401360544217687,0.3401360544217687,0.3401360544217687,0.3401360544217687,0.3401360544217687,0.3401360544217687,0.3401360544217687,0.3401360544217687,0.3401360544217687,0.3401360544217687,0.3401360544217687,0.3401360544217687,0.3401360544217687,0.3401360544217687,0.3401360544217687,0.3401360544217687,0.3401360544217687,0.3401360544217687,0.3401360544217687,0.3401360544217687,0.3401360544217687,0.3401360544217687,0.3401360544217687,0.3401360544217687,0.3401360544217687,0.3401360544217687,0.3401360544217687,0.3401360544217687,0.3401360544217687,0.3401360544217687,0.3401360544217687,0.3401360544217687,0.3401360544217687,0.3401360544217687,0.3401360544217687,0.3401360544217687,0.3401360544217687,0.3469387755102041,0.35374149659863946,0.36054421768707484,0.3673469387755102,0.3673469387755102,0.3673469387755102,0.3673469387755102,0.3673469387755102,0.3673469387755102,0.3673469387755102,0.3673469387755102,0.3673469387755102,0.3673469387755102,0.3673469387755102,0.3673469387755102,0.3673469387755102,0.3707482993197279,0.3741496598639456,0.3843537414965986,0.3979591836734694,0.40816326530612246,0.4217687074829932,0.42857142857142855,0.43197278911564624,0.43197278911564624,0.42517006802721086,0.41156462585034015,0.4013605442176871,0.391156462585034,0.3741496598639456,0.36054421768707484,0.3435374149659864,0.3333333333333333,0.3231292517006803,0.3163265306122449,0.3163265306122449,0.3163265306122449,0.3163265306122449,0.3129251700680272,0.3129251700680272,0.30612244897959184,0.29931972789115646,0.29591836734693877,0.2891156462585034,0.282312925170068,0.282312925170068,0.282312925170068,0.2925170068027211,0.30272108843537415,0.30952380952380953,0.3163265306122449,0.3231292517006803,0.3299319727891156,0.3333333333333333,0.3401360544217687,0.3435374149659864,0.35034013605442177,0.36394557823129253,0.3707482993197279,0.3707482993197279,0.3707482993197279,0.3707482993197279,0.3707482993197279,0.3707482993197279,0.3707482993197279,0.3707482993197279,0.3707482993197279,0.3707482993197279,0.3707482993197279,0.3707482993197279,0.391156462585034,0.42517006802721086,0.46258503401360546,0.5102040816326531,0.5306122448979592,0.5374149659863946,0.5408163265306123,0.5408163265306123,0.5408163265306123,0.5408163265306123,0.5408163265306123,0.5408163265306123,0.5408163265306123,0.5408163265306123,0.5408163265306123,0.5408163265306123,0.5408163265306123,0.5408163265306123,0.5408163265306123,0.5408163265306123,0.5408163265306123,0.5408163265306123,0.5408163265306123,0.5408163265306123,0.54421768707483,0.5748299319727891,0.608843537414966,0.673469387755102,0.7108843537414966,0.7414965986394558,0.7517006802721088,0.7619047619047619,0.7687074829931972,0.7721088435374149,0.7721088435374149,0.7789115646258503,0.782312925170068,0.782312925170068,0.782312925170068,0.782312925170068,0.782312925170068,0.782312925170068,0.782312925170068,0.782312925170068,0.782312925170068,0.782312925170068,0.782312925170068,0.7925170068027211,0.8197278911564626,0.8741496598639455,0.9115646258503401,0.9421768707482994,0.9591836734693877,0.9591836734693877,0.9591836734693877,0.9591836734693877,0.9591836734693877,0.9591836734693877,0.9591836734693877,0.9591836734693877,0.9591836734693877,0.9591836734693877,0.9591836734693877,0.9591836734693877,0.9591836734693877,0.9591836734693877,0.9591836734693877,0.9591836734693877,0.9591836734693877,0.95578231292517,0.9523809523809523,0.9455782312925171,0.9387755102040817,0.9115646258503401,0.8673469387755102,0.7959183673469388,0.7244897959183674,0.6394557823129252,0.5918367346938775,0.5612244897959183,0.5544217687074829,0.5544217687074829,0.5544217687074829,0.5544217687074829,0.5544217687074829,0.5544217687074829,0.5544217687074829,0.5544217687074829,0.5544217687074829,0.5544217687074829,0.5544217687074829,0.5544217687074829,0.5544217687074829,0.5544217687074829,0.5544217687074829,0.5544217687074829,0.5544217687074829,0.5544217687074829,0.5544217687074829,0.5544217687074829,0.5544217687074829,0.5544217687074829,0.5544217687074829,0.54421768707483,0.48639455782312924,0.4421768707482993,0.3877551020408163,0.3231292517006803,0.2789115646258503,0.25510204081632654,0.24149659863945577,0.23129251700680273,0.23129251700680273,0.23129251700680273,0.23129251700680273,0.23129251700680273,0.23129251700680273,0.23129251700680273,0.23129251700680273,0.23129251700680273,0.23129251700680273,0.23129251700680273,0.23469387755102042,0.2789115646258503,0.336734693877551,0.3945578231292517,0.4557823129251701,0.5102040816326531,0.5510204081632653,0.5714285714285714,0.5748299319727891,0.5782312925170068,0.5782312925170068,0.5782312925170068,0.5816326530612245,0.5850340136054422,0.5850340136054422,0.5850340136054422,0.5816326530612245,0.5816326530612245,0.5782312925170068,0.5748299319727891,0.5680272108843537,0.5544217687074829,0.5170068027210885,0.46258503401360546,0.4013605442176871,0.36394557823129253,0.3401360544217687,0.3299319727891156,0.32653061224489793,0.3231292517006803,0.3231292517006803,0.3197278911564626,0.3129251700680272,0.30952380952380953,0.30272108843537415,0.29931972789115646,0.2789115646258503,0.2619047619047619,0.25510204081632654,0.24489795918367346,0.23809523809523808,0.23469387755102042,0.22789115646258504,0.22108843537414966,0.21768707482993196,0.2108843537414966,0.20408163265306123,0.19727891156462585,0.19387755102040816,0.1870748299319728,0.1836734693877551,0.17687074829931973,0.17006802721088435,0.16666666666666666,0.15306122448979592,0.15306122448979592,0.15306122448979592,0.15306122448979592,0.15306122448979592,0.15306122448979592,0.15306122448979592,0.15306122448979592,0.15306122448979592,0.15306122448979592,0.15306122448979592,0.15306122448979592,0.15306122448979592,0.15306122448979592,0.15306122448979592,0.15306122448979592,0.15306122448979592,0.15306122448979592,0.15306122448979592,0.15306122448979592,0.15306122448979592,0.15306122448979592,0.15306122448979592,0.15306122448979592,0.15306122448979592,0.15306122448979592,0.15306122448979592,0.15306122448979592,0.15306122448979592,0.15306122448979592,0.15306122448979592,0.15306122448979592,0.15306122448979592,0.15306122448979592,0.18027210884353742,0.23469387755102042,0.29591836734693877,0.36394557823129253,0.45918367346938777,0.5408163265306123,0.6598639455782312,0.7414965986394558,0.8129251700680272,0.891156462585034,0.9625850340136054,1.0068027210884354,1.0442176870748299,1.0680272108843538,1.0782312925170068,1.0850340136054422,1.0918367346938775,1.098639455782313,1.1020408163265305,1.1054421768707483,1.1054421768707483,1.1054421768707483,1.1054421768707483,1.1088435374149659,1.1088435374149659,1.1088435374149659,1.1088435374149659,1.1088435374149659,1.1088435374149659,1.1088435374149659,1.1088435374149659,1.1088435374149659,1.1088435374149659,1.1088435374149659,1.1088435374149659,1.1088435374149659,1.1088435374149659,1.1088435374149659,1.1088435374149659,1.1088435374149659,1.1088435374149659,1.1088435374149659,1.1088435374149659,1.1088435374149659,1.1088435374149659,1.1088435374149659,1.1088435374149659,1.1088435374149659,1.1088435374149659,1.1088435374149659,1.1088435374149659,1.1088435374149659,1.1088435374149659,1.1088435374149659,1.1088435374149659,1.1088435374149659,1.1088435374149659,1.1088435374149659,1.1088435374149659,1.1088435374149659,1.1088435374149659,1.1088435374149659,1.1088435374149659,1.1088435374149659,1.1088435374149659,1.1088435374149659,1.1088435374149659,1.1088435374149659,1.1088435374149659,1.1088435374149659,1.1088435374149659,1.1088435374149659,1.1088435374149659,1.1088435374149659,1.1088435374149659,1.1088435374149659,1.1088435374149659,1.1088435374149659,1.1088435374149659,1.1088435374149659,1.1122448979591837,1.1258503401360545,1.1360544217687074,1.1394557823129252,1.1394557823129252,1.1394557823129252,1.1394557823129252,1.1394557823129252,1.1394557823129252,1.1394557823129252,1.1394557823129252,1.1394557823129252,1.1394557823129252,1.1394557823129252,1.1394557823129252,1.1394557823129252,1.1394557823129252,1.1394557823129252,1.1394557823129252,1.1394557823129252,1.1394557823129252,1.1394557823129252,1.1394557823129252,1.1394557823129252,1.1394557823129252,1.1394557823129252,1.1394557823129252,1.1394557823129252,1.1394557823129252,1.1394557823129252,1.1394557823129252,1.1394557823129252,1.1394557823129252,1.1394557823129252,1.1394557823129252,1.1394557823129252,1.1394557823129252,1.1394557823129252,1.1394557823129252,1.1394557823129252,1.1394557823129252,1.1394557823129252,1.1394557823129252,1.1394557823129252,1.1394557823129252,1.1394557823129252,1.1394557823129252,1.1394557823129252,1.1394557823129252,1.1394557823129252,1.1394557823129252,1.1394557823129252,1.1394557823129252,1.1394557823129252,1.1394557823129252,1.1394557823129252,1.1394557823129252,1.1394557823129252,1.1394557823129252,1.1394557823129252,1.1394557823129252,1.1394557823129252,1.1394557823129252,1.1394557823129252,1.1394557823129252,1.1394557823129252,1.1394557823129252,1.1394557823129252,1.1394557823129252,1.1394557823129252,1.1394557823129252,1.1394557823129252,1.1394557823129252,1.1394557823129252,1.1394557823129252,1.1394557823129252,1.1394557823129252,1.1394557823129252,1.1394557823129252,1.1394557823129252,1.1394557823129252,1.1394557823129252,1.1394557823129252,1.1394557823129252,1.1394557823129252,1.1394557823129252,1.1394557823129252,1.1394557823129252,1.1394557823129252,1.1394557823129252,1.1394557823129252,1.1394557823129252,1.1394557823129252,1.1394557823129252,1.1394557823129252,1.1394557823129252,1.1394557823129252,1.1394557823129252,1.1394557823129252,1.1394557823129252,1.1020408163265305,1.0476190476190477,0.9829931972789115,0.9081632653061225,0.7278911564625851,0.6632653061224489,0.5102040816326531,0.42857142857142855,0.36394557823129253,0.32653061224489793,0.3197278911564626,0.30952380952380953,0.29591836734693877,0.2925170068027211,0.2891156462585034,0.2857142857142857,0.282312925170068,0.2755102040816326,0.2585034013605442,0.25510204081632654,0.25170068027210885,0.25170068027210885,0.25170068027210885,0.25170068027210885,0.2585034013605442,0.2653061224489796,0.2789115646258503,0.30272108843537415,0.336734693877551,0.3741496598639456,0.40816326530612246,0.41496598639455784,0.41836734693877553,0.41836734693877553,0.41836734693877553,0.41836734693877553,0.41836734693877553,0.41836734693877553,0.41836734693877553,0.41836734693877553,0.41836734693877553,0.41836734693877553,0.41836734693877553,0.41836734693877553,0.41836734693877553,0.41836734693877553,0.4217687074829932,0.4523809523809524,0.5068027210884354,0.5204081632653061,0.5510204081632653,0.5544217687074829,0.5578231292517006,0.5578231292517006,0.5578231292517006,0.5578231292517006,0.5578231292517006,0.5578231292517006,0.5578231292517006,0.5578231292517006,0.5578231292517006,0.5578231292517006,0.5578231292517006,0.5578231292517006,0.5612244897959183,0.5680272108843537,0.5782312925170068,0.6020408163265306,0.6258503401360545,0.6530612244897959,0.6768707482993197,0.7244897959183674,0.7414965986394558,0.7721088435374149,0.7891156462585034,0.7925170068027211,0.8027210884353742,0.8027210884353742,0.8027210884353742,0.8027210884353742,0.8027210884353742,0.8027210884353742,0.8027210884353742,0.8027210884353742,0.8027210884353742,0.8027210884353742,0.8027210884353742,0.8027210884353742,0.8027210884353742,0.8027210884353742,0.8027210884353742,0.8027210884353742,0.8061224489795918,0.8095238095238095,0.8095238095238095,0.8095238095238095,0.8095238095238095,0.8095238095238095,0.8095238095238095,0.8095238095238095,0.8095238095238095,0.8095238095238095,0.8095238095238095,0.8095238095238095,0.8095238095238095,0.8095238095238095,0.8095238095238095,0.8095238095238095,0.8095238095238095,0.8095238095238095,0.8095238095238095,0.8095238095238095,0.8095238095238095,0.8095238095238095,0.8095238095238095,0.8095238095238095,0.8095238095238095,0.8095238095238095,0.8095238095238095,0.8095238095238095,0.8095238095238095,0.8095238095238095,0.8095238095238095,0.8095238095238095,0.8095238095238095,0.8095238095238095,0.8095238095238095,0.8095238095238095,0.8095238095238095,0.8095238095238095,0.8095238095238095,0.8095238095238095,0.8095238095238095,0.8095238095238095,0.8095238095238095,0.8095238095238095,0.8095238095238095,0.8095238095238095,0.8095238095238095,0.8095238095238095,0.8095238095238095,0.8095238095238095,0.8095238095238095,0.8095238095238095,0.8027210884353742,0.7993197278911565,0.7959183673469388,0.7891156462585034,0.7721088435374149,0.7312925170068028,0.6802721088435374,0.5952380952380952,0.54421768707483,0.5034013605442177,0.47278911564625853,0.45918367346938777,0.4523809523809524,0.445578231292517,0.445578231292517,0.4387755102040816,0.43537414965986393,0.42857142857142855,0.41836734693877553,0.41496598639455784,0.40816326530612246,0.4013605442176871,0.3979591836734694,0.391156462585034,0.3877551020408163,0.37755102040816324,0.3707482993197279,0.3673469387755102,0.36054421768707484,0.35714285714285715,0.35034013605442177,0.3469387755102041,0.3401360544217687,0.32653061224489793,0.3197278911564626,0.30612244897959184,0.30612244897959184,0.30612244897959184,0.2755102040816326,0.272108843537415,0.2653061224489796,0.2619047619047619,0.2585034013605442,0.25510204081632654,0.24829931972789115,0.24489795918367346,0.23809523809523808,0.23469387755102042,0.23129251700680273,0.22789115646258504,0.22448979591836735,0.22448979591836735,0.22448979591836735,0.22448979591836735,0.22448979591836735,0.22448979591836735,0.22448979591836735,0.22448979591836735,0.22448979591836735,0.22448979591836735,0.22448979591836735,0.22448979591836735,0.22448979591836735,0.22789115646258504,0.24149659863945577,0.272108843537415,0.30952380952380953,0.36054421768707484,0.38095238095238093,0.3877551020408163,0.391156462585034,0.391156462585034,0.391156462585034,0.391156462585034,0.391156462585034,0.391156462585034,0.391156462585034,0.391156462585034,0.391156462585034,0.391156462585034,0.391156462585034,0.3945578231292517,0.43537414965986393,0.46938775510204084,0.5034013605442177,0.5408163265306123,0.5578231292517006,0.564625850340136,0.5680272108843537,0.5680272108843537,0.5680272108843537,0.5680272108843537,0.5714285714285714,0.5748299319727891,0.5782312925170068,0.5816326530612245,0.5816326530612245,0.5816326530612245,0.5816326530612245,0.5816326530612245,0.5816326530612245,0.5816326530612245,0.5816326530612245,0.5816326530612245,0.5816326530612245,0.5816326530612245,0.5816326530612245,0.5816326530612245,0.5816326530612245,0.5816326530612245,0.5816326530612245,0.5816326530612245,0.5816326530612245,0.5816326530612245,0.5816326530612245,0.5816326530612245,0.5816326530612245,0.5816326530612245,0.5816326530612245,0.5816326530612245,0.5816326530612245,0.5816326530612245,0.5816326530612245,0.5816326530612245,0.5816326530612245,0.5816326530612245,0.5816326530612245,0.5816326530612245,0.5816326530612245,0.5816326530612245,0.5816326530612245,0.5816326530612245,0.5816326530612245,0.5816326530612245,0.5816326530612245,0.5816326530612245,0.5816326530612245,0.5816326530612245,0.5816326530612245,0.5816326530612245,0.5816326530612245,0.5816326530612245,0.5816326530612245,0.5816326530612245,0.5816326530612245,0.5816326530612245,0.5816326530612245,0.5816326530612245,0.5816326530612245,0.5816326530612245,0.5816326530612245,0.5816326530612245,0.5816326530612245,0.5816326530612245,0.5816326530612245,0.5816326530612245,0.5816326530612245,0.5816326530612245,0.5816326530612245,0.5816326530612245,0.5680272108843537,0.5340136054421769,0.4931972789115646,0.43537414965986393,0.41156462585034015,0.40476190476190477,0.4013605442176871,0.4013605442176871,0.4013605442176871,0.4013605442176871,0.4013605442176871,0.3945578231292517,0.3877551020408163,0.3843537414965986,0.37755102040816324,0.3707482993197279,0.3673469387755102,0.36054421768707484,0.35374149659863946,0.35034013605442177,0.3435374149659864,0.3401360544217687,0.3333333333333333,0.32653061224489793,0.3231292517006803,0.3197278911564626,0.3163265306122449,0.3129251700680272,0.3129251700680272,0.3129251700680272,0.3129251700680272,0.3129251700680272,0.35714285714285715,0.4013605442176871,0.4523809523809524,0.48299319727891155,0.4897959183673469,0.4897959183673469,0.4897959183673469,0.4897959183673469,0.4897959183673469,0.4897959183673469,0.4897959183673469,0.4897959183673469,0.4897959183673469,0.4897959183673469,0.4897959183673469,0.4897959183673469,0.4897959183673469,0.4897959183673469,0.4931972789115646,0.4965986394557823,0.5034013605442177,0.5136054421768708,0.5238095238095238,0.5238095238095238,0.5272108843537415,0.5340136054421769,0.5374149659863946,0.54421768707483,0.5510204081632653,0.5544217687074829,0.5544217687074829,0.5544217687074829,0.5544217687074829,0.5544217687074829,0.5544217687074829,0.5544217687074829,0.5544217687074829,0.5578231292517006,0.5612244897959183,0.564625850340136,0.564625850340136,0.564625850340136,0.564625850340136,0.564625850340136,0.564625850340136,0.564625850340136,0.564625850340136,0.564625850340136,0.564625850340136,0.564625850340136,0.564625850340136,0.5884353741496599,0.6224489795918368,0.6564625850340136,0.6904761904761905,0.7142857142857143,0.7278911564625851,0.7278911564625851,0.7278911564625851,0.7278911564625851,0.7278911564625851,0.7278911564625851,0.7278911564625851,0.7278911564625851,0.7278911564625851,0.7278911564625851,0.7278911564625851,0.7278911564625851,0.7278911564625851,0.7278911564625851,0.7278911564625851,0.7278911564625851,0.7278911564625851,0.7278911564625851,0.7278911564625851,0.7278911564625851,0.7278911564625851,0.7278911564625851,0.7278911564625851,0.7312925170068028,0.7585034013605442,0.7993197278911565,0.8367346938775511,0.8741496598639455,0.891156462585034,0.8945578231292517,0.8945578231292517,0.8945578231292517,0.8945578231292517,0.8945578231292517,0.8945578231292517,0.8945578231292517,0.8945578231292517,0.8945578231292517,0.8945578231292517,0.8945578231292517,0.8945578231292517,0.8945578231292517,0.826530612244898,0.7653061224489796,0.7040816326530612,0.6462585034013606,0.5578231292517006,0.5374149659863946,0.5034013605442177,0.4931972789115646,0.48299319727891155,0.47959183673469385,0.47959183673469385,0.47959183673469385,0.47959183673469385,0.46258503401360546,0.42517006802721086,0.3435374149659864,0.2585034013605442,0.1836734693877551,0.12244897959183673,0.08503401360544217,0.061224489795918366,0.05442176870748299,0.05102040816326531,0.05102040816326531,0.04081632653061224,0.03741496598639456,0.034013605442176874,0.034013605442176874,0.04081632653061224,0.04081632653061224,0.05102040816326531,0.05442176870748299,0.05442176870748299,0.05782312925170068,0.05782312925170068,0.05782312925170068,0.05782312925170068,0.05102040816326531,0.047619047619047616,0.03741496598639456,0.034013605442176874,0.030612244897959183,0.023809523809523808,0.02040816326530612,0.017006802721088437,0.017006802721088437,0.017006802721088437,0.017006802721088437,0.017006802721088437,0.017006802721088437,0.017006802721088437,0.017006802721088437,0.017006802721088437,0.017006802721088437,0.017006802721088437,0.017006802721088437,0.017006802721088437,0.017006802721088437,0.017006802721088437,0.017006802721088437,0.017006802721088437,0.017006802721088437,0.017006802721088437,0.017006802721088437,0.017006802721088437,0.017006802721088437,0.02040816326530612,0.030612244897959183,0.061224489795918366,0.1054421768707483,0.1598639455782313,0.23809523809523808,0.36054421768707484,0.5374149659863946,0.6122448979591837,0.6666666666666666,0.717687074829932,0.7551020408163265,0.7789115646258503,0.7891156462585034,0.7959183673469388,0.7959183673469388,0.7959183673469388,0.7959183673469388,0.7959183673469388,0.7959183673469388,0.7959183673469388,0.7959183673469388,0.7959183673469388,0.7959183673469388,0.7959183673469388,0.7959183673469388,0.7959183673469388,0.7959183673469388,0.7959183673469388,0.7959183673469388,0.7959183673469388,0.7959183673469388,0.7959183673469388,0.7959183673469388,0.7959183673469388,0.7959183673469388,0.7959183673469388,0.7959183673469388,0.7959183673469388,0.7959183673469388,0.7959183673469388,0.7959183673469388,0.7959183673469388,0.7959183673469388,0.7959183673469388,0.7959183673469388,0.7959183673469388,0.7959183673469388,0.7959183673469388,0.7959183673469388,0.7959183673469388,0.7959183673469388,0.7959183673469388,0.7959183673469388,0.7959183673469388,0.7959183673469388,0.7959183673469388,0.7959183673469388,0.7959183673469388,0.7959183673469388,0.7993197278911565,0.7993197278911565,0.7993197278911565,0.7993197278911565,0.7993197278911565,0.7993197278911565,0.7993197278911565,0.7993197278911565,0.7993197278911565,0.7993197278911565,0.8027210884353742,0.8027210884353742,0.8027210884353742,0.8027210884353742,0.8027210884353742,0.8061224489795918,0.8061224489795918,0.8061224489795918,0.8061224489795918,0.8061224489795918,0.8061224489795918,0.8061224489795918,0.8061224489795918,0.8061224489795918,0.8061224489795918,0.8061224489795918,0.8095238095238095,0.8163265306122449,0.826530612244898,0.8333333333333334,0.8401360544217688,0.8537414965986394,0.8639455782312925,0.8741496598639455,0.8843537414965986,0.8945578231292517,0.9081632653061225,0.9183673469387755,0.9183673469387755,0.9285714285714286,0.9285714285714286,0.9319727891156463,0.9319727891156463,0.9319727891156463,0.9319727891156463,0.9319727891156463,0.9319727891156463,0.9319727891156463,0.9319727891156463,0.9319727891156463,0.9319727891156463,0.9319727891156463,0.9285714285714286,0.9149659863945578,0.8741496598639455,0.8537414965986394,0.8299319727891157,0.8129251700680272,0.7925170068027211,0.782312925170068,0.7755102040816326,0.7585034013605442,0.7346938775510204,0.6972789115646258,0.6632653061224489,0.608843537414966,0.5544217687074829,0.5034013605442177,0.4557823129251701,0.42517006802721086,0.41156462585034015,0.40816326530612246,0.40816326530612246,0.40816326530612246,0.40476190476190477,0.3945578231292517,0.3877551020408163,0.3843537414965986,0.3843537414965986,0.38095238095238093,0.38095238095238093,0.38095238095238093,0.3843537414965986,0.3945578231292517,0.40816326530612246,0.42857142857142855,0.45918367346938777,0.48639455782312924,0.4965986394557823,0.5034013605442177,0.5102040816326531,0.5136054421768708,0.5204081632653061,0.5238095238095238,0.5306122448979592,0.5340136054421769,0.54421768707483,0.5476190476190477,0.5544217687074829,0.5612244897959183,0.564625850340136,0.5714285714285714,0.5714285714285714,0.5816326530612245,0.5850340136054422,0.5884353741496599,0.5952380952380952,0.5952380952380952,0.6020408163265306,0.6054421768707483,0.6122448979591837,0.6190476190476191,0.6224489795918368,0.6326530612244898,0.6394557823129252,0.6394557823129252,0.6394557823129252,0.6394557823129252,0.6394557823129252,0.6394557823129252,0.6394557823129252,0.6394557823129252,0.6360544217687075,0.6326530612244898,0.6258503401360545,0.6224489795918368,0.6122448979591837,0.608843537414966,0.6020408163265306,0.5986394557823129,0.5918367346938775,0.5884353741496599,0.5816326530612245,0.5782312925170068,0.5782312925170068,0.5782312925170068,0.5782312925170068,0.5782312925170068,0.5782312925170068,0.5782312925170068,0.5782312925170068,0.5782312925170068,0.5782312925170068,0.5782312925170068,0.5782312925170068,0.5782312925170068,0.5782312925170068,0.5782312925170068,0.5782312925170068,0.5782312925170068,0.5782312925170068,0.5782312925170068,0.5782312925170068,0.5782312925170068,0.5782312925170068,0.5782312925170068,0.5782312925170068,0.5782312925170068,0.5816326530612245,0.5850340136054422,0.5918367346938775,0.5986394557823129,0.608843537414966,0.6190476190476191,0.6258503401360545,0.6326530612244898,0.6326530612244898,0.6360544217687075,0.6360544217687075,0.6360544217687075,0.6360544217687075,0.6360544217687075,0.6360544217687075,0.6360544217687075,0.6360544217687075,0.6360544217687075,0.6360544217687075,0.6360544217687075,0.6360544217687075,0.6360544217687075,0.6360544217687075,0.6360544217687075,0.6360544217687075,0.6360544217687075,0.6360544217687075,0.6360544217687075,0.6360544217687075,0.6360544217687075,0.6360544217687075,0.6360544217687075,0.6360544217687075,0.6360544217687075,0.6360544217687075,0.6360544217687075,0.6360544217687075,0.6360544217687075,0.6360544217687075,0.6360544217687075,0.6360544217687075,0.6360544217687075,0.6360544217687075,0.6360544217687075,0.6360544217687075,0.6360544217687075,0.6360544217687075,0.6360544217687075,0.6360544217687075,0.6360544217687075,0.6360544217687075,0.6360544217687075,0.6360544217687075,0.6360544217687075,0.6360544217687075,0.6360544217687075,0.6360544217687075,0.6360544217687075,0.6360544217687075,0.6360544217687075,0.6360544217687075,0.6360544217687075,0.6360544217687075,0.6360544217687075,0.6360544217687075,0.6360544217687075,0.6360544217687075,0.6360544217687075,0.6360544217687075,0.6360544217687075,0.6360544217687075,0.6360544217687075,0.6360544217687075,0.6360544217687075,0.6360544217687075,0.6360544217687075,0.6360544217687075,0.6360544217687075,0.6360544217687075,0.6360544217687075,0.6360544217687075,0.6360544217687075,0.6360544217687075,0.6360544217687075,0.6360544217687075,0.6360544217687075,0.6360544217687075,0.6360544217687075,0.6360544217687075,0.6360544217687075,0.6360544217687075,0.6360544217687075,0.6360544217687075,0.6360544217687075,0.6360544217687075,0.6360544217687075,0.6360544217687075,0.6360544217687075,0.6360544217687075,0.6360544217687075,0.6360544217687075,0.6360544217687075,0.6360544217687075,0.6360544217687075,0.6360544217687075,0.6360544217687075,0.6360544217687075,0.6360544217687075,0.6360544217687075,0.6360544217687075,0.6360544217687075,0.6360544217687075,0.6360544217687075,0.6360544217687075,0.6360544217687075,0.6360544217687075,0.6360544217687075,0.6360544217687075,0.6360544217687075,0.6360544217687075,0.6360544217687075,0.6360544217687075,0.6360544217687075,0.6360544217687075,0.6360544217687075,0.6360544217687075,0.6360544217687075,0.6360544217687075,0.6360544217687075,0.6360544217687075,0.6360544217687075,0.6360544217687075,0.6360544217687075,0.6360544217687075,0.6360544217687075,0.6360544217687075,0.6360544217687075,0.6360544217687075,0.6360544217687075,0.6360544217687075,0.6360544217687075,0.6360544217687075,0.6360544217687075,0.6360544217687075,0.6360544217687075,0.6360544217687075,0.6360544217687075,0.6360544217687075,0.6360544217687075,0.6360544217687075,0.6360544217687075,0.6360544217687075,0.6360544217687075,0.6360544217687075,0.6360544217687075,0.6360544217687075,0.6360544217687075,0.6360544217687075,0.6360544217687075,0.6360544217687075,0.6360544217687075,0.6360544217687075,0.6360544217687075,0.6360544217687075,0.6360544217687075,0.6360544217687075,0.6360544217687075,0.6360544217687075,0.6360544217687075,0.6360544217687075,0.6360544217687075,0.6360544217687075,0.6360544217687075,0.6360544217687075,0.6360544217687075,0.6360544217687075,0.6360544217687075,0.6360544217687075,0.6360544217687075,0.6360544217687075,0.6360544217687075,0.6360544217687075,0.6360544217687075,0.6360544217687075,0.6360544217687075,0.6360544217687075,0.6360544217687075,0.6360544217687075,0.6360544217687075,0.6360544217687075,0.6360544217687075,0.6360544217687075,0.6360544217687075,0.6360544217687075,0.6360544217687075,0.6360544217687075,0.6360544217687075,0.6360544217687075,0.6360544217687075,0.6360544217687075,0.6360544217687075,0.6360544217687075,0.6360544217687075,0.6360544217687075,0.6360544217687075,0.6360544217687075,0.6360544217687075,0.6360544217687075,0.6360544217687075,0.6360544217687075,0.6360544217687075,0.6360544217687075,0.6360544217687075,0.6360544217687075,0.6360544217687075,0.6360544217687075,0.6360544217687075,0.6360544217687075,0.6360544217687075,0.6360544217687075,0.6360544217687075,0.6360544217687075,0.6360544217687075,0.6360544217687075,0.6360544217687075,0.6360544217687075,0.6360544217687075,0.6360544217687075,0.6360544217687075,0.6360544217687075,0.6360544217687075,0.6360544217687075,0.6360544217687075,0.6360544217687075,0.6360544217687075,0.6360544217687075,0.6360544217687075,0.6360544217687075,0.6360544217687075,0.6360544217687075,0.6360544217687075,0.6360544217687075,0.6360544217687075,0.6360544217687075,0.6360544217687075,0.6360544217687075,0.6360544217687075,0.6360544217687075,0.6360544217687075,0.6360544217687075,0.6360544217687075,0.6360544217687075,0.6360544217687075,0.6360544217687075,0.6360544217687075,0.6360544217687075,0.6360544217687075,0.6360544217687075,0.6360544217687075,0.6360544217687075,0.6360544217687075,0.6360544217687075,0.6360544217687075,0.6360544217687075,0.6360544217687075,0.6360544217687075,0.6360544217687075,0.6360544217687075,0.6360544217687075,0.6360544217687075,0.6360544217687075,0.6360544217687075,0.6360544217687075,0.6360544217687075,0.6360544217687075,0.6360544217687075,0.6360544217687075,0.6360544217687075,0.6360544217687075,0.6360544217687075,0.6360544217687075,0.6360544217687075,0.6360544217687075,0.6360544217687075,0.6360544217687075,0.6360544217687075,0.6360544217687075,0.6360544217687075,0.6360544217687075,0.6360544217687075,0.6360544217687075,0.6360544217687075,0.6360544217687075,0.6360544217687075,0.6360544217687075,0.6360544217687075,0.6360544217687075,0.6360544217687075,0.6360544217687075,0.6360544217687075,0.6360544217687075,0.6360544217687075,0.6360544217687075,0.6360544217687075,0.6360544217687075,0.6360544217687075,0.6360544217687075,0.6360544217687075,0.6360544217687075,0.6360544217687075,0.6360544217687075,0.6360544217687075,0.6360544217687075,0.6360544217687075,0.6360544217687075,0.6360544217687075,0.6360544217687075,0.6360544217687075,0.6360544217687075,0.6360544217687075,0.6360544217687075,0.6360544217687075,0.6360544217687075,0.6360544217687075,0.6360544217687075,0.6360544217687075,0.6360544217687075,0.6360544217687075,0.6360544217687075,0.6360544217687075,0.6360544217687075,0.6360544217687075,0.6360544217687075,0.6360544217687075,0.6360544217687075,0.6360544217687075,0.6360544217687075,0.6360544217687075,0.6360544217687075,0.6360544217687075,0.6360544217687075,0.6360544217687075,0.6360544217687075,0.6360544217687075,0.6360544217687075,0.6360544217687075,0.6360544217687075,0.6360544217687075,0.6360544217687075,0.6360544217687075,0.6360544217687075,0.6360544217687075,0.6360544217687075,0.6360544217687075,0.6360544217687075,0.6360544217687075,0.6360544217687075,0.6360544217687075,0.6360544217687075,0.6360544217687075,0.6360544217687075,0.6360544217687075,0.6360544217687075,0.6360544217687075,0.6360544217687075,0.6360544217687075,0.6360544217687075,0.6360544217687075,0.6360544217687075,0.6360544217687075,0.6360544217687075,0.6360544217687075,0.6360544217687075,0.6360544217687075,0.6360544217687075,0.6360544217687075,0.6360544217687075,0.6360544217687075,0.6360544217687075,0.6360544217687075,0.6360544217687075,0.6360544217687075,0.6360544217687075,0.6360544217687075,0.6360544217687075,0.6360544217687075,0.6360544217687075,0.6360544217687075,0.6360544217687075,0.6360544217687075,0.6360544217687075,0.6360544217687075,0.6360544217687075,0.6360544217687075,0.6360544217687075,0.6360544217687075,0.6360544217687075,0.6360544217687075,0.6360544217687075,0.6360544217687075,0.6360544217687075,0.6360544217687075,0.6360544217687075,0.6360544217687075,0.6360544217687075,0.6360544217687075,0.6360544217687075,0.6360544217687075,0.6360544217687075,0.6360544217687075,0.6360544217687075,0.6360544217687075,0.6360544217687075,0.6360544217687075,0.6360544217687075,0.5748299319727891,0.43537414965986393,0.37755102040816324,0.3401360544217687,0.336734693877551,0.336734693877551,0.336734693877551,0.336734693877551,0.336734693877551,0.336734693877551,0.336734693877551,0.336734693877551,0.336734693877551,0.336734693877551,0.336734693877551,0.336734693877551,0.336734693877551,0.336734693877551,0.3333333333333333,0.3299319727891156,0.3299319727891156,0.3299319727891156,0.3299319727891156,0.3299319727891156,0.3299319727891156,0.3435374149659864,0.35714285714285715,0.36394557823129253,0.3707482993197279,0.3707482993197279,0.37755102040816324,0.38095238095238093,0.3843537414965986,0.3877551020408163,0.3945578231292517,0.4013605442176871,0.40476190476190477,0.41156462585034015,0.41496598639455784,0.41836734693877553,0.41836734693877553,0.41836734693877553,0.41836734693877553,0.41836734693877553,0.41836734693877553,0.41836734693877553,0.41836734693877553,0.41836734693877553,0.41836734693877553,0.41836734693877553,0.41836734693877553,0.41836734693877553,0.41836734693877553,0.41836734693877553,0.41836734693877553,0.41836734693877553,0.41836734693877553,0.41836734693877553,0.41836734693877553,0.41836734693877553,0.41836734693877553,0.41836734693877553,0.41836734693877553,0.41836734693877553,0.41836734693877553,0.41836734693877553,0.41836734693877553,0.41836734693877553,0.41836734693877553,0.41836734693877553,0.41836734693877553,0.41836734693877553,0.41836734693877553,0.41836734693877553,0.41836734693877553,0.41836734693877553,0.41836734693877553,0.41836734693877553,0.41836734693877553,0.41836734693877553,0.41836734693877553,0.41836734693877553,0.41836734693877553,0.41836734693877553,0.41836734693877553,0.41836734693877553,0.41836734693877553,0.41836734693877553,0.42517006802721086,0.42857142857142855,0.42517006802721086,0.41496598639455784,0.41496598639455784,0.41156462585034015,0.41156462585034015,0.41156462585034015,0.41156462585034015,0.41156462585034015,0.41156462585034015,0.41496598639455784,0.42857142857142855,0.4387755102040816,0.4523809523809524,0.4557823129251701,0.45918367346938777,0.45918367346938777,0.45918367346938777,0.45918367346938777,0.45918367346938777,0.45918367346938777,0.45918367346938777,0.45918367346938777,0.45918367346938777,0.45918367346938777,0.45918367346938777,0.45918367346938777,0.45918367346938777,0.45918367346938777,0.45918367346938777,0.45918367346938777,0.45918367346938777,0.45918367346938777,0.45918367346938777,0.45918367346938777,0.45918367346938777,0.45918367346938777,0.45918367346938777,0.45918367346938777,0.4523809523809524,0.4523809523809524,0.4421768707482993,0.4387755102040816,0.4387755102040816,0.43537414965986393,0.43537414965986393,0.43197278911564624,0.42857142857142855,0.42517006802721086,0.4217687074829932,0.41836734693877553,0.41836734693877553,0.41836734693877553,0.41836734693877553,0.41836734693877553,0.41156462585034015,0.41156462585034015,0.40816326530612246,0.40816326530612246,0.40816326530612246,0.40816326530612246,0.40816326530612246,0.40816326530612246,0.40816326530612246,0.40816326530612246,0.40816326530612246,0.40816326530612246,0.40816326530612246,0.40816326530612246,0.40816326530612246,0.40816326530612246,0.40816326530612246,0.40816326530612246,0.40816326530612246,0.40816326530612246,0.40816326530612246,0.40816326530612246,0.40816326530612246,0.40816326530612246,0.40816326530612246,0.40816326530612246,0.40816326530612246,0.40816326530612246,0.40816326530612246,0.40816326530612246,0.40816326530612246,0.40816326530612246,0.4013605442176871,0.3979591836734694,0.3877551020408163,0.37755102040816324,0.3741496598639456,0.3707482993197279,0.36394557823129253,0.36394557823129253,0.36394557823129253,0.36394557823129253,0.36394557823129253,0.36394557823129253,0.36394557823129253,0.36394557823129253,0.36394557823129253,0.36394557823129253,0.36054421768707484,0.36054421768707484,0.36054421768707484,0.36054421768707484,0.36054421768707484,0.35714285714285715,0.35714285714285715,0.35714285714285715,0.35714285714285715,0.35714285714285715,0.35714285714285715,0.35714285714285715,0.35714285714285715,0.35714285714285715,0.35714285714285715,0.35714285714285715,0.35714285714285715,0.35714285714285715,0.35714285714285715,0.35714285714285715,0.35714285714285715,0.35714285714285715,0.35714285714285715,0.35714285714285715,0.35714285714285715,0.35714285714285715,0.35714285714285715,0.35714285714285715,0.35714285714285715,0.35714285714285715,0.35714285714285715,0.35714285714285715,0.35714285714285715,0.35714285714285715,0.35714285714285715,0.35714285714285715,0.35714285714285715,0.35714285714285715,0.35714285714285715,0.35714285714285715,0.35714285714285715,0.35714285714285715,0.35714285714285715,0.35714285714285715,0.35714285714285715,0.35714285714285715,0.35714285714285715,0.35714285714285715,0.35714285714285715,0.35714285714285715,0.35714285714285715,0.35714285714285715,0.35714285714285715,0.35714285714285715,0.35714285714285715,0.35714285714285715,0.35714285714285715,0.35714285714285715,0.35714285714285715,0.35714285714285715,0.35714285714285715,0.35714285714285715,0.35714285714285715,0.35714285714285715,0.35714285714285715,0.35714285714285715,0.35714285714285715,0.35714285714285715,0.35714285714285715,0.35714285714285715,0.35714285714285715,0.35714285714285715,0.35714285714285715,0.35714285714285715,0.35714285714285715,0.35714285714285715,0.35714285714285715,0.35714285714285715,0.35714285714285715,0.35714285714285715,0.35714285714285715,0.35714285714285715,0.35714285714285715,0.35714285714285715,0.35714285714285715,0.35714285714285715,0.35714285714285715,0.35714285714285715,0.35714285714285715,0.35714285714285715,0.3707482993197279,0.3979591836734694,0.42857142857142855,0.47619047619047616,0.5374149659863946,0.608843537414966,0.7040816326530612,0.7959183673469388,0.8639455782312925,0.9047619047619048,0.9421768707482994,0.9659863945578231,0.9795918367346939,0.9897959183673469,1,1.0068027210884354,1.0068027210884354,1.0068027210884354,1.0068027210884354,1.0068027210884354,1.0136054421768708,1.0204081632653061,1.030612244897959,1.034013605442177,1.034013605442177,1.034013605442177,1.034013605442177,1.034013605442177,1.034013605442177,1.034013605442177,1.034013605442177,1.034013605442177,1.034013605442177,1.034013605442177,1.034013605442177,1.034013605442177,1.034013605442177,1.034013605442177,1.034013605442177,1.034013605442177,1.034013605442177,1.034013605442177,1.034013605442177,1.034013605442177,1.034013605442177,1.034013605442177,1.034013605442177,1.034013605442177,1.034013605442177,1.034013605442177,1.034013605442177,1.034013605442177,1.034013605442177,1.034013605442177,1.034013605442177,1.034013605442177,1.034013605442177,1.034013605442177,1.034013605442177,1.034013605442177,1.034013605442177,1.034013605442177,1.034013605442177,1.034013605442177,1.034013605442177,1.034013605442177,1.034013605442177,1.034013605442177,1.034013605442177,1.034013605442177,1.0374149659863945,1.0408163265306123,1.0476190476190477,1.0476190476190477,1.0476190476190477,1.0476190476190477,1.0476190476190477,1.0476190476190477,1.0476190476190477,1.0476190476190477,1.0510204081632653,1.0510204081632653,1.0510204081632653,1.0510204081632653,1.0510204081632653,1.0510204081632653,1.0510204081632653,1.0510204081632653,1.0510204081632653,1.0510204081632653,1.0510204081632653,1.0510204081632653,1.0510204081632653,1.0510204081632653,1.0510204081632653,1.0510204081632653,1.0510204081632653,1.0510204081632653,1.0510204081632653,1.0510204081632653,1.0510204081632653,1.0510204081632653,1.0510204081632653,1.0510204081632653,1.0510204081632653,1.0510204081632653,1.0510204081632653,1.0510204081632653,1.0510204081632653,1.0510204081632653,1.0510204081632653,1.0510204081632653,1.0510204081632653,1.0510204081632653,1.0510204081632653,1.0510204081632653,1.0510204081632653,1.0510204081632653,1.0510204081632653,1.0510204081632653,1.0510204081632653,1.0510204081632653,1.0510204081632653,1.0510204081632653,1.0510204081632653,1.0510204081632653,1.0510204081632653,1.0510204081632653,1.0510204081632653,1.0510204081632653,1.0510204081632653,1.0476190476190477,1.0476190476190477,1.0476190476190477,1.0476190476190477,1.0476190476190477,1.0476190476190477,1.0476190476190477,1.0476190476190477,1.0476190476190477,1.0476190476190477,1.0476190476190477,1.0476190476190477,1.0476190476190477,1.0476190476190477,1.0476190476190477,1.0476190476190477,1.0476190476190477,1.0476190476190477,1.0476190476190477,1.0476190476190477,1.0476190476190477,1.0476190476190477,1.0476190476190477,1.0476190476190477,1.0476190476190477,1.0476190476190477,1.0476190476190477,1.0476190476190477,1.0476190476190477,1.0476190476190477,1.0476190476190477,1.0476190476190477,1.0476190476190477,1.0476190476190477,1.0476190476190477,1.0476190476190477,1.0476190476190477,1.0476190476190477,1.0476190476190477,1.0476190476190477,1.0476190476190477,1.0476190476190477,1.0476190476190477,1.0476190476190477,1.0476190476190477,1.0476190476190477,1.0476190476190477,1.0476190476190477,1.0476190476190477,1.0476190476190477,1.0476190476190477,1.0476190476190477,1.0476190476190477,1.0476190476190477,1.0476190476190477,1.0476190476190477,1.0476190476190477,1.0476190476190477,1.0476190476190477,1.0476190476190477,1.0476190476190477,1.0476190476190477,1.0476190476190477,1.0476190476190477,1.0476190476190477,1.0476190476190477,1.0476190476190477,1.0476190476190477,1.0476190476190477,1.0476190476190477,1.0476190476190477,1.0476190476190477,1.0476190476190477,1.0476190476190477,1.0476190476190477,1.0476190476190477,1.0476190476190477,1.0476190476190477,1.0476190476190477,1.0476190476190477,1.0476190476190477,1.0476190476190477,1.0476190476190477,1.0476190476190477,1.0476190476190477,1.0476190476190477,1.0476190476190477,1.0476190476190477,1.0476190476190477,1.0476190476190477,1.0476190476190477,1.0476190476190477,1.0476190476190477,1.0476190476190477,1.0476190476190477,1.0476190476190477,1.0476190476190477,1.0476190476190477,1.0476190476190477,1.0476190476190477,1.0476190476190477,1.0476190476190477,1.0476190476190477,1.0476190476190477,1.0476190476190477,1.0476190476190477,1.0476190476190477,1.0476190476190477,1.0476190476190477,1.0476190476190477,1.0476190476190477,1.0476190476190477,1.0476190476190477,1.0476190476190477,1.0476190476190477,1.0476190476190477,1.0476190476190477,1.0476190476190477,1.0476190476190477,1.0476190476190477,1.0476190476190477,1.0476190476190477,1.0476190476190477,1.0476190476190477,1.0476190476190477,1.0476190476190477,1.0476190476190477,1.0476190476190477,1.0476190476190477,1.0476190476190477,1.0476190476190477,1.0476190476190477,1.0476190476190477,1.0476190476190477,1.0476190476190477,1.0476190476190477,1.0476190476190477,1.0476190476190477,1.0476190476190477,1.0476190476190477,1.0476190476190477,1.0476190476190477,1.0476190476190477,1.0476190476190477,1.0476190476190477,1.0476190476190477,1.0476190476190477,1.0476190476190477,1.0476190476190477,1.0476190476190477,1.0476190476190477,1.0476190476190477,1.0476190476190477,1.0476190476190477,1.0476190476190477,1.0476190476190477,1.0476190476190477,1.0476190476190477,1.0476190476190477,1.0476190476190477,1.0476190476190477,1.0476190476190477,1.0476190476190477,1.0476190476190477,1.0476190476190477,1.0476190476190477,1.0476190476190477,1.0476190476190477,1.0476190476190477,1.0476190476190477,1.0476190476190477,1.0476190476190477,1.0476190476190477,1.0476190476190477,1.0476190476190477,1.0476190476190477,1.0476190476190477,1.0476190476190477,1.0476190476190477,1.0476190476190477,1.0476190476190477,1.0476190476190477,1.0476190476190477,1.0476190476190477,1.0476190476190477,1.0476190476190477,1.0476190476190477,1.0476190476190477,1.0476190476190477,1.0476190476190477,1.0476190476190477,1.0476190476190477,1.0476190476190477,1.0476190476190477,1.0476190476190477,1.0476190476190477,1.0476190476190477,1.0476190476190477,1.0476190476190477,1.0476190476190477,1.0476190476190477,1.0476190476190477,1.0476190476190477,1.0476190476190477,1.0476190476190477,1.0476190476190477,1.0476190476190477,1.0476190476190477,1.0476190476190477,1.0476190476190477,1.0476190476190477,1.0476190476190477,1.0476190476190477,1.0476190476190477,1.0476190476190477,1.0476190476190477,1.0476190476190477,1.0476190476190477,1.0476190476190477,1.0476190476190477,1.0476190476190477,1.0476190476190477,1.0476190476190477,1.0476190476190477,1.0476190476190477,1.0476190476190477,1.0476190476190477,1.0476190476190477,1.0476190476190477,1.0476190476190477,1.0476190476190477,1.0476190476190477,1.0476190476190477,1.0476190476190477,1.0476190476190477,1.0476190476190477,1.0476190476190477,1.0476190476190477,1.0476190476190477,1.0476190476190477,1.0476190476190477,1.0476190476190477,1.0476190476190477,1.0476190476190477,1.0476190476190477,1.0476190476190477,1.0476190476190477,1.0476190476190477,1.0476190476190477,1.0476190476190477,1.0476190476190477,1.0476190476190477,1.0476190476190477,1.0476190476190477,1.0476190476190477,1.0476190476190477,1.0476190476190477,1.0476190476190477,1.0476190476190477,1.0476190476190477,1.0476190476190477,1.0476190476190477,1.0476190476190477,1.0476190476190477,1.0476190476190477,1.0476190476190477,1.0476190476190477,1.0476190476190477,1.054421768707483,1.0578231292517006,1.064625850340136,1.0680272108843538,1.0748299319727892,1.0816326530612246,1.0850340136054422,1.0918367346938775,1.0952380952380953,1.1020408163265305,1.1088435374149659,1.1122448979591837,1.1122448979591837,1.1122448979591837,1.1122448979591837,1.1122448979591837,1.1122448979591837,1.1122448979591837,1.1122448979591837,1.1122448979591837,1.1122448979591837,1.1122448979591837,1.1156462585034013,1.119047619047619,1.1224489795918366,1.1258503401360545,1.129251700680272,1.1326530612244898,1.1360544217687074,1.1360544217687074,1.1360544217687074,1.1394557823129252,1.1428571428571428,1.1428571428571428,1.1428571428571428,1.1428571428571428,1.1428571428571428,1.1428571428571428,1.1428571428571428,1.1428571428571428,1.1428571428571428,1.1428571428571428,1.1428571428571428,1.1428571428571428,1.1428571428571428,1.1428571428571428,1.1428571428571428,1.1428571428571428,1.1428571428571428,1.1428571428571428,1.1428571428571428,1.1428571428571428,1.1428571428571428,1.1428571428571428,1.1428571428571428,1.1428571428571428,1.1428571428571428,1.1394557823129252,1.1326530612244898,1.1224489795918366,1.1054421768707483,1.0816326530612246,1.0714285714285714,1.064625850340136,1.0510204081632653,1.0408163265306123,1.030612244897959,1.0238095238095237,1.0136054421768708,1.0068027210884354,1.0068027210884354,1.0068027210884354,1.0068027210884354,1.0068027210884354,1.0068027210884354,1.0068027210884354,1.0068027210884354,1.0068027210884354,1.0068027210884354,1.0068027210884354,1.0068027210884354,1.0034013605442176,1.0034013605442176,1.0034013605442176,1.0034013605442176,1.0034013605442176,1.0034013605442176,1.0034013605442176,1.0034013605442176,1.0034013605442176,1.0034013605442176,1.0034013605442176,1.0034013605442176,1.0034013605442176,1.0034013605442176,1.0034013605442176,1.0034013605442176,1.0034013605442176,1.0034013605442176,1.0034013605442176,1.0034013605442176,1.0034013605442176,1.0034013605442176,1.0034013605442176,1.0034013605442176,1.0034013605442176,1.0034013605442176,1.0034013605442176,1.0034013605442176,1.0034013605442176,1.0034013605442176,1.0034013605442176,1.0034013605442176,1.0034013605442176,1.0034013605442176,1.0034013605442176,1.0034013605442176,1.0034013605442176,1.0034013605442176,1.0034013605442176,1.0034013605442176,1.0034013605442176,1.0034013605442176,1.0034013605442176,1.0034013605442176,1.0034013605442176,1.0034013605442176,1.0034013605442176,1.0034013605442176,1.0034013605442176,1.0034013605442176,1.0034013605442176,1.0034013605442176,1.0034013605442176,1.0034013605442176,1.0034013605442176,1.0034013605442176,1.0034013605442176,1.0034013605442176,1.0034013605442176,1.0034013605442176,1.0034013605442176,1.0034013605442176,1.0034013605442176,1.0034013605442176,1.0034013605442176,1.0034013605442176,1.0034013605442176,1.0034013605442176,1.0034013605442176,1.0034013605442176,1.0034013605442176,1,0.9931972789115646,0.9931972789115646,0.9863945578231292,0.9829931972789115,0.9761904761904762,0.9727891156462585,0.9625850340136054,0.9625850340136054,0.9625850340136054,0.9625850340136054,0.9625850340136054,0.9625850340136054,0.9625850340136054,0.9625850340136054,0.9625850340136054,0.9625850340136054,0.9625850340136054,0.9625850340136054,0.9625850340136054,0.9625850340136054,0.9625850340136054,0.9625850340136054,0.9625850340136054,0.9625850340136054,0.9625850340136054,0.9625850340136054,0.9625850340136054,0.9625850340136054,0.9625850340136054,0.9625850340136054,0.9625850340136054,0.9625850340136054,0.9625850340136054,0.9625850340136054,0.9625850340136054,0.9625850340136054,0.9625850340136054,0.9625850340136054,0.9625850340136054,0.9625850340136054,0.9625850340136054,0.9625850340136054,0.9625850340136054,0.9625850340136054,0.9625850340136054,0.9625850340136054,0.9625850340136054,0.9625850340136054,0.9625850340136054,0.9625850340136054,0.9625850340136054,0.9625850340136054,0.9625850340136054,0.9625850340136054,0.9625850340136054,0.9625850340136054,0.9625850340136054,0.9625850340136054,0.9625850340136054,0.9625850340136054,0.9625850340136054,0.9625850340136054,0.9625850340136054,0.9625850340136054,0.9625850340136054,0.9625850340136054,0.9625850340136054,0.9625850340136054,0.9625850340136054,0.9625850340136054,0.9625850340136054,0.9625850340136054,0.9625850340136054,0.9625850340136054,0.9625850340136054,0.9625850340136054,0.9625850340136054,0.9625850340136054,0.9625850340136054,0.9625850340136054,0.9625850340136054,0.9625850340136054,0.9625850340136054,0.9625850340136054,0.9625850340136054,0.9625850340136054,0.9625850340136054,0.9625850340136054,0.9625850340136054,0.9625850340136054,0.9625850340136054,0.9625850340136054,0.9625850340136054,0.9625850340136054,0.9625850340136054,0.9625850340136054,0.9625850340136054,0.9625850340136054,0.9625850340136054,0.9625850340136054,0.9625850340136054,0.9625850340136054,0.9625850340136054,0.9625850340136054,0.9625850340136054,0.9625850340136054,0.9625850340136054,0.9625850340136054,0.9625850340136054,0.9625850340136054,0.9625850340136054,0.9625850340136054,0.9625850340136054,0.9625850340136054,0.9625850340136054,0.9625850340136054,0.9625850340136054,0.9625850340136054,0.9625850340136054,0.9625850340136054,0.9625850340136054,0.9625850340136054,0.9625850340136054,0.9625850340136054,0.9625850340136054,0.9625850340136054,0.9625850340136054,0.9625850340136054,0.9625850340136054,0.9625850340136054,0.9625850340136054,0.9625850340136054,0.9625850340136054,0.9625850340136054,0.9625850340136054,0.9625850340136054,0.9625850340136054,0.9625850340136054,0.9625850340136054,0.9625850340136054,0.9625850340136054,0.9625850340136054,0.9625850340136054,0.9625850340136054,0.9625850340136054,0.9625850340136054,0.9625850340136054,0.9625850340136054,0.9625850340136054,0.9625850340136054,0.9625850340136054,0.9625850340136054,0.9625850340136054,0.9625850340136054,0.9625850340136054,0.9625850340136054,0.9625850340136054,0.9625850340136054,0.9625850340136054,0.9625850340136054,0.9625850340136054,0.9625850340136054,0.9625850340136054,0.9625850340136054,0.9625850340136054,0.9625850340136054,0.9625850340136054,0.9625850340136054,0.9625850340136054,0.9625850340136054,0.9625850340136054,0.9625850340136054,0.9625850340136054,0.9625850340136054,0.9625850340136054,0.9625850340136054,0.9625850340136054,0.9625850340136054,0.9625850340136054,0.9625850340136054,0.9625850340136054,0.9625850340136054,0.9625850340136054,0.9625850340136054,0.9625850340136054,0.9625850340136054,0.9625850340136054,0.9625850340136054,0.9625850340136054,0.9625850340136054,0.9625850340136054,0.9625850340136054,0.9625850340136054,0.9625850340136054,0.9625850340136054,0.9625850340136054,0.9625850340136054,0.9625850340136054,0.9625850340136054,0.9625850340136054,0.9625850340136054,0.9625850340136054,0.9625850340136054,0.9625850340136054,0.9625850340136054,0.9625850340136054,0.9625850340136054,0.9625850340136054,0.9625850340136054,0.9625850340136054,0.9625850340136054,0.9625850340136054,0.9625850340136054,0.9625850340136054,0.9625850340136054,0.9625850340136054,0.9625850340136054,0.9625850340136054,0.9625850340136054,0.9625850340136054,0.9625850340136054,0.9625850340136054,0.9625850340136054,0.9625850340136054,0.9625850340136054,0.9625850340136054,0.9625850340136054,0.9625850340136054,0.9625850340136054,0.9625850340136054,0.9625850340136054,0.9625850340136054,0.9625850340136054,0.9625850340136054,0.9625850340136054,0.9625850340136054,0.9625850340136054,0.9625850340136054,0.9625850340136054,0.9625850340136054,0.9625850340136054,0.9625850340136054,0.9625850340136054,0.9625850340136054,0.9625850340136054,0.9625850340136054,0.9625850340136054,0.9625850340136054,0.9625850340136054,0.9625850340136054,0.9625850340136054,0.9625850340136054,0.9625850340136054,0.9625850340136054,0.9625850340136054,0.9625850340136054,0.9625850340136054,0.9625850340136054,0.9625850340136054,0.9625850340136054,0.9625850340136054,0.9625850340136054,0.9625850340136054,0.9625850340136054,0.9625850340136054,0.9625850340136054,0.9625850340136054,0.9625850340136054,0.9625850340136054,0.9625850340136054,0.9625850340136054,0.9625850340136054,0.9625850340136054,0.9625850340136054,0.9625850340136054,0.9625850340136054,0.9625850340136054,0.9625850340136054,0.9625850340136054,0.9625850340136054,0.9625850340136054,0.9625850340136054,0.9625850340136054,0.9625850340136054,0.9625850340136054,0.9625850340136054,0.9625850340136054,0.9625850340136054,0.9625850340136054,0.9625850340136054,0.9625850340136054,0.9625850340136054,0.9625850340136054,0.9625850340136054,0.9625850340136054,0.9625850340136054,0.9625850340136054,0.9625850340136054,0.9625850340136054,0.9625850340136054,0.9625850340136054,0.9625850340136054,0.9625850340136054,0.9625850340136054,0.9625850340136054,0.9625850340136054,0.9625850340136054,0.9625850340136054,0.9625850340136054,0.9625850340136054,0.9625850340136054,0.9625850340136054,0.9625850340136054,0.9625850340136054,0.9625850340136054,0.9625850340136054,0.9625850340136054,0.9625850340136054,0.9625850340136054,0.9625850340136054,0.9625850340136054,0.9625850340136054,0.9625850340136054,0.9625850340136054,0.9625850340136054,0.9625850340136054,0.9625850340136054,0.9625850340136054,0.9625850340136054,0.95578231292517,0.9183673469387755,0.8809523809523809,0.8435374149659864,0.826530612244898,0.8197278911564626,0.8197278911564626,0.8197278911564626,0.8197278911564626,0.8197278911564626,0.8197278911564626,0.8197278911564626,0.8197278911564626,0.8197278911564626,0.8197278911564626,0.8197278911564626,0.8197278911564626,0.8197278911564626,0.8197278911564626,0.8197278911564626,0.8197278911564626,0.8197278911564626,0.8197278911564626,0.8197278911564626,0.8197278911564626,0.8197278911564626,0.8197278911564626,0.8197278911564626,0.8197278911564626,0.8197278911564626,0.8197278911564626,0.8197278911564626,0.8197278911564626,0.8197278911564626,0.8197278911564626,0.8197278911564626,0.8197278911564626,0.8197278911564626,0.8197278911564626,0.8197278911564626,0.8197278911564626,0.8197278911564626,0.8197278911564626,0.8197278911564626,0.8197278911564626,0.8197278911564626,0.8197278911564626,0.8197278911564626,0.8197278911564626,0.8197278911564626,0.8197278911564626,0.8197278911564626,0.8197278911564626,0.8197278911564626,0.8197278911564626,0.8197278911564626,0.8197278911564626,0.8197278911564626,0.8197278911564626,0.8163265306122449,0.8129251700680272,0.8129251700680272,0.8129251700680272,0.8129251700680272,0.8129251700680272,0.8129251700680272,0.8129251700680272,0.8129251700680272,0.8129251700680272,0.8129251700680272,0.8129251700680272,0.8129251700680272,0.8129251700680272,0.8129251700680272,0.8129251700680272,0.8129251700680272,0.8129251700680272,0.8129251700680272,0.8129251700680272,0.8129251700680272,0.8129251700680272,0.8061224489795918,0.8027210884353742,0.7959183673469388,0.7959183673469388,0.7891156462585034,0.7857142857142857,0.7789115646258503,0.7755102040816326,0.7687074829931972,0.75510204