[{"success":true,"trial_type":"fullscreen","trial_index":0,"time_elapsed":4870,"internal_node_id":"0.0-0.0","protocol_sum":"","subject_identifier":519,"subject_sum":[124,37,42,179,52,251,143,216,142,130,66,196,151,44,33,219,156,124,224,180,124,154,204,78,191,228,12,20,97,76,183,52],"subject_pair":259,"STUDY_ID":"66a3ed3c5d10d0e7d8a6b9da","PROLIFIC_PID":"66924bc95c72455b31b5c5ac","SESSION_ID":"66a43fda3d240cbe9c57fc49","practice_instructions":1,"leaderboard_instructions":0,"bonus":0,"reveal_word":true,"self_rating":"2","confidence":"65"},{"view_history":"[{\"page_index\":0,\"viewing_time\":10331}]","rt":10331,"trial_type":"instructions","trial_index":1,"time_elapsed":15203,"internal_node_id":"0.0-1.0","protocol_sum":"","subject_identifier":519,"subject_sum":[124,37,42,179,52,251,143,216,142,130,66,196,151,44,33,219,156,124,224,180,124,154,204,78,191,228,12,20,97,76,183,52],"subject_pair":259,"STUDY_ID":"66a3ed3c5d10d0e7d8a6b9da","PROLIFIC_PID":"66924bc95c72455b31b5c5ac","SESSION_ID":"66a43fda3d240cbe9c57fc49","practice_instructions":1,"leaderboard_instructions":0,"bonus":0,"reveal_word":true,"self_rating":"2","confidence":"65"},{"view_history":"[{\"page_index\":0,\"viewing_time\":41086}]","rt":41086,"trial_type":"instructions","trial_index":2,"time_elapsed":56289,"internal_node_id":"0.0-2.0-0.0","protocol_sum":"","subject_identifier":519,"subject_sum":[124,37,42,179,52,251,143,216,142,130,66,196,151,44,33,219,156,124,224,180,124,154,204,78,191,228,12,20,97,76,183,52],"subject_pair":259,"STUDY_ID":"66a3ed3c5d10d0e7d8a6b9da","PROLIFIC_PID":"66924bc95c72455b31b5c5ac","SESSION_ID":"66a43fda3d240cbe9c57fc49","practice_instructions":1,"leaderboard_instructions":0,"bonus":0,"reveal_word":true,"self_rating":"2","confidence":"65"},{"rt":17346,"responses":"{\"Q0\":\"... reveal the word with as <b>few letter guesses</b> as possible\"}","question_order":"[0]","trial_type":"survey-multi-choice","trial_index":3,"time_elapsed":73724,"internal_node_id":"0.0-2.0-1.0","protocol_sum":"","subject_identifier":519,"subject_sum":[124,37,42,179,52,251,143,216,142,130,66,196,151,44,33,219,156,124,224,180,124,154,204,78,191,228,12,20,97,76,183,52],"subject_pair":259,"correct":true,"test_part":"multichoice_nonpretend","STUDY_ID":"66a3ed3c5d10d0e7d8a6b9da","PROLIFIC_PID":"66924bc95c72455b31b5c5ac","SESSION_ID":"66a43fda3d240cbe9c57fc49","practice_instructions":1,"leaderboard_instructions":0,"bonus":0,"reveal_word":true,"self_rating":"2","confidence":"65"},{"view_history":"[{\"page_index\":0,\"viewing_time\":3801}]","rt":3801,"trial_type":"instructions","trial_index":4,"time_elapsed":77526,"internal_node_id":"0.0-3.0","protocol_sum":"","subject_identifier":519,"subject_sum":[124,37,42,179,52,251,143,216,142,130,66,196,151,44,33,219,156,124,224,180,124,154,204,78,191,228,12,20,97,76,183,52],"subject_pair":259,"STUDY_ID":"66a3ed3c5d10d0e7d8a6b9da","PROLIFIC_PID":"66924bc95c72455b31b5c5ac","SESSION_ID":"66a43fda3d240cbe9c57fc49","practice_instructions":1,"leaderboard_instructions":0,"bonus":0,"reveal_word":true,"self_rating":"2","confidence":"65"},{"word":"ZEBRA","click_log":{"letter":["","B","I","D","A","T","Z","E","R"],"t":[0,28806,34593,59240,63983,66667,79583,82068,87389],"hit":[null,1,0,0,1,0,1,1,1],"asked":["","B","BI","BID","BIDA","BIDAT","BIDATZ","BIDATZE","BIDATZER"],"word_state":["_____","__B__","__B__","__B__","__B_A","__B_A","Z_B_A","ZEB_A","ZEBRA"]},"hover_log":{"letter":["?","?","?","?","?","?","?","?","S","S","S","S","S","S","S","S","S","S","S","S","S","S","S","S","S","S","S","?","?","L","L","L","L","L","L","L","L","L","L","L","?","?","?","?","?","?","?","?","?","?","?","?","?","?","?","?","?","?","?","?","?","?","?","?","?","?","?","?","?","?","?","?","?","?","?","?","?","?","?","?","?","?","?","?","?","?","?","?","?","?","?","?","?","?","?","?","?","?","?","?","?","?","?","?","?","?","?","?","?","?","?","?","?","?","?","?","?","?","?","?","?","?","?","?","?","?","?","?","?","?","?","?","?","?","?","?","?","?","?","?","?","?","?","?","?","?","?","?","?","?","?","?","?","?","?","?","?","?","?","?","?","?","?","?","?","?","?","?","?","?","?","?","?","?","?","?","?","?","?","?","?","?","?","?","?","?","?","?","?","?","?","?","?","?","?","?","?","?","?","?","?","?","?","?","?","?","?","?","?","?","?","?","?","?","?","?","?","?","?","?","J","J","J","J","J","J","J","J","J","J","J","?","?","?","?","?","?","?","?","?","?","?","?","?","?","?","?","?","?","?","?","?","?","?","?","?","?","?","?","?","?","?","?","?","?","?","?","?","?","?","?","?","?","?","?","?","?","?","?","?","?","?","?","?","?","?","?","?","?","?","?","?","?","?","?","?","?","?","?","?","?","?","?","?","?","?","?","?","?","?","?","?","?","?","?","?","?","?","?","?","?","?","?","?","?","?","?","?","?","?","?","?","?","?","?","?","?","?","?","?","?","?","?","?","?","?","?","?","?","?","?","?","?","?","?","?","?","?","?","?","?","?","?","?","?","?","?","?","?","?","?","?","?","?","?","?","?","?","?","?","?","?","?","?","?","?","?","?","?","?","?","?","?","?","?","?","?","?","?","?","?","?","?","?","?","?","?","?","?","?","?","?","?","?","?","?","?","?","?","?","?","?","?","?","?","?","?","?","?","?","?","?","?","?","?","?","?","?","?","?","?","?","?","?","?","?","?","?","?","?","?","?","?","?","?","?","?","?","?","?","?","?","?","?","?","?","?","?","?","?","?","?","?","?","?","?","?","?","?","?","K","K","K","K","K","K","K","K","K","K","K","K","?","?","?","?","?","?","?","?","?","?","?","?","?","?","?","?","?","?","?","?","?","?","?","?","?","?","?","?","?","?","?","?","?","?","?","?","?","?","?","?","?","?","?","?","?","?","?","?","?","?","?","?","?","?","K","K","K","K","K","K","K","K","K","K","K","K","K","K","K","K","K","K","K","K","K","K","K","K","?","B","B","B","B","B","?","?","?","?","?","?","?","?","?","?","?","?","?","?","?","?","?","?","?","?","?","?","?","?","?","?","?","?","?","?","?","?","?","?","?","?","?","?","?","?","?","?","?","?","?","?","?","?","?","?","?","?","?","?","?","?","?","?","?","?","?","?","?","?","?","?","?","?","?","?","?","?","?","?","?","?","?","?","?","?","?","?","?","?","?","?","?","?","?","?","?","?","?","?","?","?","?","?","?","?","?","?","?","?","?","?","?","?","?","?","?","?","?","?","?","?","?","?","?","?","?","?","?","?","?","?","?","?","?","?","?","?","?","?","?","?","?","?","?","?","?","?","?","?","?","?","?","?","?","?","?","?","?","?","?","?","?","?","?","?","?","?","?","?","?","?","?","?","?","?","?","?","?","?","?","?","?","?","?","?","?","?","?","?","?","?","?","?","?","?","?","?","?","?","?","?","?","?","?","?","?","?","?","?","?","?","?","?","?","?","?","?","?","?","?","?","?","?","?","?","?","?","?","?","?","?","?","?","?","?","?","?","?","?","?","?","?","?","?","?","?","?","?","?","?","?","?","?","?","?","?","E","E","E","E","?","?","?","?","?","?","?","?","?","?","?","?","?","?","?","?","?","?","?","?","?","?","?","?","?","M","M","M","M","M","M","M","M","M","M","M","M","M","M","M","M","M","M","M","M","M","M","M","M","M","M","M","M","M","M","M","M","M","M","M","M","M","M","M","M","M","M","M","M","M","M","M","M","?","?","?","?","?","?","?","?","?","?","?","?","?","?","?","?","?","?","?","?","V","V","V","V","V","V","V","V","V","V","V","V","V","V","V","V","V","V","V","V","V","V","V","V","V","V","V","V","V","V","V","V","V","V","V","V","V","V","V","?","?","?","?","?","?","?","?","?","?","?","?","?","?","?","?","?","?","?","?","?","?","?","?","?","?","?","?","?","?","?","?","?","?","?","?","?","?","?","?","?","?","?","?","?","?","?","?","?","?","?","?","?","?","?","U","U","U","U","U","?","?","?","?","?","?","?","?","?","?","?","?","?","?","?","?","?","?","?","?","?","?","?","?","?","?","?","?","?","?","?","?","?","U","U","U","U","U","U","U","U","U","U","U","U","U","U","U","U","U","U","U","U","U","U","U","U","U","U","U","?","L","?","?","?","C","C","C","C","C","C","C","?","?","?","?","?","?","?","?","?","?","?","?","?","?","?","?","?","?","?","?","?","?","?","?","?","?","?","?","?","?","?","?","?","?","?","?","?","?","?","?","?","?","?","?","?","?","?","?","?","?","?","?","?","?","?","?","?","?","?","?","?","?","?","?","?","?","?","?","?","?","?","?","?","?","?","?","?","?","?","?","?","?","?","?","?","?","?","?","?","?","?","?","?","?","?","?","?","?","?","?","?","?","?","?","?","?","?","?","?","?","?","?","?","?","?","?","?","?","?","?","?","?","?","?","?","?","?","?","?","?","?","?","?","?","?","?","?","?","?","?","?","?","?","?","?","?","?","?","?","?","?","?","?","?","?","?","?","?","?","?","?","?","?","?","?","?","?","?","?","?","?","?","?","?","?","?","?","?","?","?","?","?","?","?","?","?","?","?","?","?","?","?","?","?","?","?","?","?","?","?","?","?","?","?","?","?","?","?","?","?","?","?","?","?","?","?","?","?","?","?","?","?","?","?","?","?","?","?","?","?","?","?","?","?","?","?","?","?","?","?","?","?","?","?","?","?","?","?","?","?","?","?","?","?","?","?","?","?","?","?","?","?","?","?","?","?","?","?","?","?","?","?","?","?","?","?","?","?","?","?","?","?","?","?","?","?","?","?","?","?","?","?","?","?","?","?","?","?","?","?","?","?","?","?","?","?","?","?","?","?","?","?","?","?","?","?","?","?","?","?","?","?","?","?","?","?","?","?","?","?","?","?","?","?","?","?","?","?","?","?","?","?","?","?","?","?","?","?","?","?","?","?","?","?","?","?","?","?","?","?","?","?","?","?","?","?","?","?","?","?","?","?","?","?","?","?","?","?","?","?","?","?","?","?","?","?","?","?","?","?","?","?","?","C","?","?","?","?","?","?","?","?","?","?","?","?","?","?","?","?","?","?","?","?","M","M","M","M","M","M","M","M","M","M","M","M","M","M","M","M","M","M","M","M","M","M","M","M","M","M","M","M","O","?","?","?","?","?","?","?","?","?","?","?","?","?","?","?","?","?","?","X","W","V","?","?","?","?","?","?","?","?","?","?","?","?","?","?","?","?","?","?","U","U","U","U","U","U","U","?","?","?","?","?","?","?","?","?","?","?","?","?","?","?","?","?","?","?","?","K","K","K","?","?","?","?","?","?","?","?","?","?","?","?","?","B","B","B","B","B","B","B","B","B","B","B","B","B","B","B","B","B","B","B","B","B","B","B","B","B","B","B","B","B","B","B","B","B","B","B","B","B","B","B","B","B","B","B","B","B","B","B","B","B","B","B","B","B","B","B","?","D","D","D","D","?","?","?","?","?","?","?","?","?","?","?","?","?","?","?","?","?","?","?","?","?","?","?","?","?","?","?","?","?","?","?","?","?","?","?","?","?","E","?","?","?","?","?","?","?","?","?","?","?","?","?","?","?","?","?","?","?","?","?","?","?","?","?","?","?","?","?","?","?","?","?","?","?","?","?","?","?","?","?","?","?","?","?","?","?","?","?","?","?","?","?","?","?","?","?","?","?","?","?","?","?","?","?","?","?","?","?","?","?","?","?","?","?","?","?","?","?","?","?","?","?","?","?","?","?","?","?","?","?","?","?","?","?","?","?","?","?","?","?","?","?","?","?","?","?","?","?","?","?","?","?","?","?","?","?","?","?","?","?","?","?","?","F","E","E","E","E","E","?","?","?","D","D","D","D","D","D","D","D","D","D","D","D","?","?","?","?","?","?","?","?","?","?","?","?","?","?","?","?","?","?","?","?","?","?","?","?","?","?","?","?","?","N","O","O","O","O","O","O","O","O","O","O","O","O","O","O","O","O","O","?","P","P","P","P","P","P","P","P","P","P","P","P","P","P","P","P","P","P","P","P","P","P","?","?","?","?","?","?","?","?","?","?","?","?","?","?","?","?","?","?","?","?","?","?","?","?","?","?","?","I","I","I","I","I","I","I","I","I","I","I","I","I","I","I","I","I","I","I","I","I","I","I","I","I","I","I","I","I","I","I","I","I","I","I","I","I","I","I","I","I","I","I","I","I","I","I","I","I","I","I","I","I","I","I","I","I","I","I","I","I","I","I","I","I","I","I","I","I","I","I","I","I","I","I","I","I","I","I","I","I","I","I","I","I","I","I","I","I","I","I","I","I","I","I","I","I","I","I","I","I","I","I","I","I","I","I","I","I","I","I","I","I","I","I","I","I","I","I","I","I","I","I","I","I","I","I","I","I","I","I","I","I","I","I","I","I","I","I","I","I","I","I","I","I","I","I","I","I","I","I","I","I","I","I","I","I","I","I","I","I","I","I","I","I","I","I","I","I","I","I","I","I","I","I","I","I","I","I","I","I","I","I","I","I","I","I","I","I","I","I","I","I","I","I","I","I","I","I","I","I","I","I","I","I","I","I","I","I","I","I","I","I","I","I","I","I","I","I","I","I","I","I","I","I","I","I","I","I","I","I","I","I","I","I","I","I","I","I","I","I","I","I","I","I","I","I","I","I","I","I","I","I","I","I","I","I","I","I","I","I","I","I","I","I","I","I","I","I","I","I","I","I","I","I","I","I","I","I","I","I","I","I","I","I","I","I","I","I","I","I","I","I","I","I","I","I","I","I","I","I","I","I","I","I","I","I","I","I","I","I","I","I","I","I","I","I","I","I","I","I","I","I","I","I","I","I","I","I","I","I","I","I","I","I","I","I","I","I","I","I","I","I","I","I","I","I","I","I","I","I","I","I","I","I","G","E","E","?","C","C","C","C","C","C","C","C","?","?","?","?","?","?","?","?","?","?","?","?","?","?","?","?","?","B","?","?","?","?","?","?","?","?","?","?","?","?","?","A","A","A","A","A","A","A","A","A","A","A","A","A","A","A","A","A","A","A","A","A","A","A","A","A","A","A","A","A","A","A","A","A","A","A","A","A","A","A","A","A","A","A","A","A","A","A","A","A","A","A","A","A","A","A","A","A","A","A","A","A","A","A","A","A","A","A","A","A","A","A","A","A","A","A","A","A","A","A","A","A","A","A","A","A","A","A","A","A","A","A","A","A","A","A","A","A","A","A","A","A","A","A","A","A","A","A","A","A","A","A","A","A","A","A","A","A","A","A","A","A","A","A","A","A","A","A","A","A","A","A","A","A","A","A","A","A","A","A","A","A","A","A","A","A","A","A","A","A","A","A","A","A","A","A","A","A","A","A","A","A","A","A","A","A","A","A","A","A","A","A","A","A","A","A","A","A","A","A","A","A","A","A","A","A","A","A","A","A","A","A","A","A","A","A","A","A","A","A","A","A","A","A","A","A","A","A","A","A","A","A","A","A","A","A","A","A","A","A","A","A","A","A","A","A","A","A","A","A","A","A","A","A","A","A","A","A","A","A","A","A","A","A","A","A","A","A","A","A","A","A","A","A","A","A","A","A","A","A","A","A","A","A","A","A","A","A","A","A","A","A","A","A","A","A","A","A","A","A","A","A","A","A","A","A","A","A","A","A","A","A","A","A","A","A","A","A","A","A","A","A","A","A","A","A","A","A","A","A","A","A","A","A","A","A","A","A","A","A","A","A","A","A","A","A","A","A","A","A","A","A","A","A","A","A","A","A","A","A","A","A","A","A","A","A","A","A","A","A","A","A","A","A","A","A","A","A","A","A","A","A","A","A","A","A","A","A","A","A","A","A","A","A","A","A","A","A","A","A","A","A","A","A","A","A","A","A","A","A","A","A","A","A","A","A","A","A","A","A","A","A","A","A","A","A","A","A","A","A","A","A","A","A","A","A","A","A","A","A","A","A","A","A","A","A","A","A","A","A","A","A","A","A","A","A","A","A","A","A","A","A","A","A","A","A","A","A","A","A","A","A","A","A","A","A","A","A","A","A","A","A","A","A","A","A","A","A","A","A","A","A","A","A","A","A","A","A","A","A","A","A","A","A","A","A","A","A","A","A","A","A","A","A","A","A","A","A","A","A","A","A","A","A","A","A","A","A","A","A","A","A","A","A","A","A","A","A","A","A","A","A","A","A","A","A","A","A","A","A","A","A","A","A","A","A","A","A","A","A","A","A","A","A","A","A","A","A","A","A","A","A","A","A","A","A","A","A","A","A","A","A","A","A","A","A","A","A","A","A","A","A","A","A","A","A","A","A","A","A","A","A","A","A","A","A","A","A","A","A","A","A","A","A","A","A","A","A","A","A","A","A","A","A","A","A","A","A","A","A","A","A","A","A","A","A","A","A","A","A","A","A","A","A","A","A","A","A","A","A","A","A","A","A","A","A","A","A","A","A","A","A","A","A","A","A","A","A","A","A","A","A","A","A","A","A","A","A","A","A","A","A","A","A","A","A","A","A","A","A","A","A","A","A","A","A","A","A","A","A","A","A","A","A","A","A","A","A","A","A","A","A","A","A","A","A","A","A","A","A","A","A","A","A","A","A","A","A","A","A","A","A","A","A","A","A","A","A","A","A","A","A","A","A","A","A","A","A","A","A","A","A","A","A","A","A","A","A","A","A","A","A","A","A","A","A","A","A","A","A","A","A","A","A","A","A","A","A","A","A","A","A","A","A","A","A","A","A","A","A","A","A","A","A","A","A","A","A","A","A","A","A","A","A","A","A","A","A","A","A","A","A","A","A","A","A","A","A","A","A","A","A","A","A","A","A","A","A","A","A","A","A","A","A","A","A","A","A","A","A","A","A","A","A","A","A","A","A","A","A","A","A","A","A","A","A","A","A","A","A","A","A","A","A","A","A","A","A","A","A","A","A","A","A","A","A","A","A","?","?","?","?","?","?","?","?","?","?","?","?","?","?","?","K","K","K","K","K","K","K","K","K","K","K","K","K","K","K","K","K","K","K","K","K","K","K","K","K","K","K","K","K","?","L","?","?","?","?","?","?","?","?","?","?","?","?","?","?","?","?","D","?","?","?","?","?","?","?","?","?","?","?","?","?","?","?","?","?","?","?","?","?","?","?","?","?","?","?","?","?","?","?","?","?","?","?","?","?","?","N","N","?","?","?","?","?","?","?","?","?","?","?","?","?","?","?","?","?","?","?","?","?","?","?","?","L","L","L","L","L","L","L","L","L","L","L","L","L","L","L","L","L","L","L","L","?","?","?","?","?","?","?","?","?","?","?","?","?","?","?","?","?","?","?","?","?","?","?","?","?","?","?","?","?","?","?","?","?","?","?","?","?","?","?","?","?","?","?","?","?","M","M","M","M","M","M","M","M","M","M","?","?","?","?","?","?","?","?","?","?","?","?","?","?","?","?","?","?","?","?","?","?","?","?","?","?","D","D","D","D","D","D","D","D","D","D","D","D","D","D","D","D","D","D","D","D","D","D","D","D","D","D","D","D","D","D","D","D","D","D","D","D","D","D","D","D","D","D","D","D","D","D","D","D","D","D","D","D","D","D","D","D","D","D","D","D","D","D","D","D","D","D","D","D","D","D","D","D","D","D","D","D","D","D","D","D","D","D","D","D","D","D","D","D","D","D","D","D","D","D","D","D","D","D","D","D","D","D","D","D","D","D","D","D","D","D","D","D","D","D","D","D","D","D","D","D","D","D","D","D","D","D","D","D","D","D","D","D","D","D","D","D","D","D","D","D","D","D","D","D","D","D","D","D","D","D","D","D","D","D","D","D","D","D","D","D","D","D","D","D","D","D","D","D","D","D","D","D","D","D","D","D","D","D","D","D","D","D","D","D","D","D","D","D","D","D","D","D","D","D","D","D","D","D","D","D","D","D","D","D","D","D","D","D","D","D","D","D","D","D","D","D","D","D","D","D","D","D","D","D","D","D","D","D","D","D","D","D","D","D","D","D","D","D","D","D","D","D","D","D","D","D","D","D","D","D","D","D","D","D","D","?","?","?","?","?","?","?","?","?","?","?","?","?","?","?","?","?","?","?","?","?","?","A","A","A","A","A","A","A","A","A","A","A","A","A","A","A","A","A","A","A","A","A","A","A","A","A","A","A","A","A","A","A","A","A","A","A","A","A","A","A","A","A","A","A","A","A","A","A","A","A","A","A","A","A","A","A","A","A","A","A","A","A","A","A","A","A","A","A","A","A","A","A","A","A","A","A","A","A","A","A","A","A","A","A","A","A","A","A","A","A","A","A","A","A","A","A","A","A","A","A","A","A","A","A","A","A","A","A","A","A","A","A","A","A","A","A","A","A","A","A","A","A","A","A","A","A","A","A","A","A","A","A","A","A","A","A","A","?","?","K","K","K","K","K","K","K","K","K","K","K","K","K","K","K","?","?","?","?","?","?","?","?","T","T","T","T","T","T","T","T","T","T","T","T","T","T","T","T","T","T","T","T","T","T","T","T","T","T","T","T","T","T","T","T","T","T","T","T","T","T","T","T","T","T","T","T","T","T","T","T","T","T","T","T","T","T","T","T","T","T","T","T","T","T","T","T","T","T","T","T","T","T","T","T","T","T","T","T","T","T","T","T","T","T","T","T","T","T","T","T","T","T","T","T","T","T","T","T","T","T","T","T","T","T","T","T","T","T","T","T","T","T","T","T","T","T","T","T","T","T","T","T","T","T","T","T","T","T","T","T","T","T","T","T","T","T","T","T","T","T","T","T","T","T","T","T","T","T","T","T","T","T","T","T","T","T","T","T","T","T","T","T","T","T","T","T","T","T","T","T","T","T","T","T","T","T","T","T","T","T","T","T","T","T","T","T","T","T","T","T","T","T","T","T","T","T","T","T","T","T","T","T","T","T","T","T","T","T","T","T","T","T","T","T","T","T","T","T","T","T","T","T","T","T","T","T","T","T","T","T","T","T","T","T","T","T","T","T","T","T","T","T","T","T","T","T","T","T","T","T","T","T","T","T","T","T","T","T","T","T","T","T","T","T","T","T","T","T","T","T","T","T","T","T","T","T","T","T","T","T","T","T","T","T","T","T","T","T","T","T","T","T","T","T","T","T","T","T","T","T","T","T","T","T","T","T","T","T","T","T","T","T","T","T","T","T","T","T","T","T","T","T","T","T","T","T","T","T","T","T","T","T","T","T","T","T","T","T","T","T","T","T","T","T","T","T","T","T","T","T","T","T","T","T","T","T","T","T","T","T","T","T","T","T","T","T","T","T","T","T","T","T","T","T","T","T","T","T","T","T","T","T","T","T","T","T","T","T","T","T","T","T","T","T","T","T","T","T","T","T","T","T","T","T","T","T","T","T","T","T","T","T","T","T","T","T","T","T","T","T","T","T","T","T","T","T","T","T","T","T","T","T","T","T","T","T","T","T","T","T","T","T","T","T","T","T","?","?","U","U","U","U","U","U","U","U","U","U","?","V","V","V","V","V","V","V","V","V","V","V","V","V","V","V","V","V","V","V","V","V","V","V","V","V","V","V","V","?","?","?","?","?","?","?","?","?","?","?","?","?","?","?","?","?","?","?","?","?","?","?","?","?","?","?","?","?","?","?","?","H","H","H","H","H","H","H","H","H","H","H","H","H","H","H","H","H","H","H","H","H","H","H","H","H","H","H","H","H","H","?","?","?","?","?","?","?","?","?","?","?","?","?","?","?","?","?","?","?","?","G","?","?","?","?","?","?","?","?","?","?","?","?","?","?","?","?","?","?","?","?","?","?","?","?","?","?","?","?","?","?","?","?","?","?","?","?","?","?","?","?","?","?","?","?","?","?","?","?","K","V","W","?","?","?","?","?","?","?","?","?","?","?","?","?","?","?","?","?","?","?","?","?","?","?","?","?","?","?","?","?","?","?","?","?","?","?","?","?","?","?","?","?","?","?","?","?","?","?","?","?","?","?","?","?","?","?","?","?","?","?","?","?","?","?","?","Z","Z","Z","Z","Z","Z","Z","Z","Z","Z","Z","Z","Z","Z","Z","Z","Z","Z","Z","Z","Z","Z","Z","Z","Z","Z","Z","Z","Z","Z","Z","Z","Z","Z","Z","Z","Z","Z","Z","Z","Z","Z","Z","Z","Z","Z","Z","Z","Z","Z","Z","Z","Z","Z","Z","Z","Z","Z","Z","Z","Z","Z","Z","Z","Z","Z","Z","Z","Z","Z","Z","Z","Z","Z","Z","Z","Z","Z","Z","Z","Z","Z","Z","Z","Z","Z","Z","Z","Z","Z","Z","Z","Z","Z","Z","Z","Z","Z","Z","Z","Z","Z","Z","Z","Z","Z","Z","Z","Z","Z","Z","Z","Z","Z","Z","Z","Z","Z","Z","Z","Z","Z","Z","Z","Z","Z","Z","Z","Z","Z","Z","Z","Z","Z","Z","Z","Z","Z","Z","Z","Z","Z","Z","Z","Z","Z","Z","Z","Z","Z","Z","Z","Z","Z","Z","Z","Z","Z","Z","Z","Z","Z","Z","Z","Z","Z","Z","Z","Z","Z","Z","Z","Z","Z","Z","Z","Z","Z","Z","Z","Z","Z","?","?","O","O","O","O","O","?","?","?","?","?","?","?","?","?","?","?","?","?","?","?","?","?","?","?","?","?","?","?","?","?","?","?","?","?","?","?","?","?","?","?","?","?","?","?","?","?","?","?","?","?","?","?","?","?","?","E","E","E","E","E","E","E","E","E","E","E","E","E","E","E","E","E","E","E","E","E","E","E","E","E","E","E","E","E","E","E","E","E","E","E","E","E","E","E","E","E","E","E","E","E","E","E","E","E","E","E","E","E","E","E","E","E","E","E","E","E","E","E","E","E","E","E","E","E","E","E","E","E","E","E","E","E","E","E","E","E","E","E","E","E","E","E","E","E","E","E","E","E","E","E","E","E","E","E","E","E","E","E","E","?","?","?","?","?","?","?","?","M","L","L","L","L","L","L","L","L","L","L","L","L","L","L","L","L","L","L","L","L","L","L","L","L","L","L","L","L","L","L","L","L","L","L","L","L","L","L","L","L","L","L","L","L","L","L","L","L","L","L","L","L","L","L","L","L","L","L","?","M","M","M","M","M","M","M","M","M","M","M","?","?","?","?","?","?","?","?","?","?","?","?","?","?","?","?","?","?","?","?","?","?","?","?","?","?","?","?","?","?","?","?","?","?","?","V","V","V","V","V","V","V","V","V","V","?","?","?","W","W","W","W","W","W","W","W","W","W","W","W","W","W","W","W","W","W","W","W","W","W","W","W","W","W","W","W","W","X","X","X","X","X","?","?","?","?","Y","Y","Y","Y","Y","?","?","?","?","?","?","?","?","?","?","?","?","?","?","?","?","?","?","?","?","?","?","?","?","?","?","?","Q","Q","?","?","?","?","?","?","?","?","?","?","?","?","?","?","?","?","?","?","?","?","?","R","R","R","R","R","R","R","R","R","R","R","R","R","R","R","R","R","R","R","R","R","R","R","R","R","R","R","R","R","R","R","R","R","R","R","R","R","R","R","R","R","R","R","R","R","R","R","R","R","R","R","R","R","R","R","R","R","R","R","R","R","R","R","R","R","R","R","R","R","R","R","R","R","R","R","R","R","R","R","R","R","R","R","R","R","R","R","R","R","R","R","R","R","R","R","R","R","R","R","R","R","R","R","R","R","R","R","R","R","R","R","R","R","R","R","R","R","R","R","R","R","R","R","R","R","R","R","R","R","R","R","R","R","R","R","R","R","R","R","R","R","R","R","R","R","R","R","R","R","R","R","R"],"t":[549,1089,1115,1130,1233,1249,1267,1283,1329,1332,1349,1367,1383,1401,1416,1434,1450,1468,1483,1500,1516,1533,1549,1566,1583,1599,1615,1632,1649,1668,1682,1699,1716,1732,1749,1766,1782,1799,1815,1832,1849,1865,1882,1900,1915,1932,1951,1967,1983,2001,2017,2034,2049,2066,2083,2099,2116,2132,2149,2165,2182,2198,2215,2233,2249,2264,2282,2298,2316,2331,2348,2364,2382,2398,2415,2431,2447,2464,2481,2498,2514,2532,2548,2565,2581,2598,2614,2631,2649,2665,2682,2697,2714,2731,2748,2764,2781,2798,2815,2833,2848,2865,2881,2898,2915,2931,2948,2965,2981,2997,3014,3031,3048,3065,3081,3099,3116,3131,3147,3165,3181,3197,3214,3230,3247,3264,3281,3297,3314,3331,3348,3364,3382,3398,3415,3431,3447,3465,3482,3498,3515,3531,3548,3566,3581,3598,3614,3633,3647,3666,3682,3697,3714,3732,3747,3765,3781,3797,3815,3831,3847,3865,3881,3897,3915,3931,3948,3964,3981,3998,4014,4032,4047,4065,4081,4099,4114,4133,4148,4165,4182,4199,4215,4231,4249,4265,4282,4298,4315,4331,4348,4366,4381,4399,4415,4433,4449,4465,4480,4498,4514,4531,4548,4564,4581,4598,4615,4632,4647,4665,4681,4697,4715,4733,4750,4765,4781,4798,4815,4831,4848,4899,4900,4914,4932,4950,4965,4981,4998,5016,5032,5048,5064,5082,5097,5114,5130,5148,5164,5181,5197,5214,5231,5248,5264,5281,5298,5314,5331,5347,5364,5381,5398,5415,5431,5448,5467,5481,5497,5514,5532,5547,5563,5616,5633,5649,5666,5683,5698,5714,5732,5748,5765,5781,5798,5814,5832,5848,5864,5881,5899,5916,5932,5947,5965,5982,5998,6015,6031,6047,6066,6081,6097,6114,6134,6148,6165,6181,6198,6216,6234,6251,6265,6281,6298,6314,6331,6349,6365,6381,6397,6414,6430,6448,6465,6481,6497,6515,6531,6549,6564,6581,6597,6614,6630,6647,6664,6681,6698,6715,6732,6749,6765,6781,6798,6814,6832,6848,6864,6881,6897,6914,6930,6947,6964,6981,6997,7015,7031,7048,7064,7084,7100,7116,7133,7147,7166,7181,7198,7214,7232,7249,7266,7283,7299,7316,7333,7349,7365,7381,7397,7414,7430,7448,7465,7481,7498,7514,7531,7547,7565,7580,7599,7615,7631,7648,7664,7681,7698,7715,7731,7748,7764,7781,7798,7813,7831,7848,7864,7881,7897,7914,7932,7947,7964,7980,7998,8015,8031,8047,8064,8080,8097,8115,8131,8148,8165,8181,8198,8214,8232,8247,8265,8281,8298,8315,8332,8347,8365,8381,8397,8414,8431,8448,8464,8481,8497,8514,8532,8547,8564,8581,8597,8613,8630,8647,8664,8681,8698,8714,8730,8747,8763,8781,8798,8814,8832,8848,8864,8880,8898,8913,8930,8948,8964,8981,8998,9015,9034,9048,9065,9081,9097,9114,9131,9148,9164,9181,9199,9215,9232,9249,9265,9283,9298,9314,9331,9349,9366,9381,9398,9414,9431,9448,9464,9481,9499,9515,9532,9549,9565,9581,9600,9615,9631,9647,9665,9683,9698,9714,9731,9747,9765,9782,9797,9816,9832,9848,9863,9880,9898,9913,9931,9948,9964,9981,9998,10014,10032,10047,10067,10081,10098,10114,10131,10147,10166,10182,10197,10214,10232,10251,10265,10281,10298,10315,10333,10349,10363,10381,10398,10414,10431,10447,10465,10482,10497,10514,10531,10547,10565,10580,10597,10614,10633,10648,10664,10682,10699,10715,10732,10748,10765,10784,10799,10814,10831,10848,10867,10882,10898,10915,10932,10949,10965,10981,10997,11014,11030,11047,11068,11080,11097,11114,11131,11148,11165,11183,11197,11215,11230,11249,11266,11282,11297,11314,11333,11347,11364,11382,11396,11414,11433,11447,11465,11482,11498,11514,11532,11547,11563,11581,11598,11615,11630,11647,11666,11681,11697,11715,11732,11748,11764,11781,11800,11814,11830,11848,11865,11882,11898,11914,11930,11949,11965,11981,11998,12014,12031,12047,12064,12081,12097,12114,12131,12148,12165,12180,12198,12216,12232,12247,12264,12282,12299,12315,12331,12350,12366,12382,12397,12415,12432,12447,12464,12482,12499,12514,12530,12549,12565,12582,12598,12615,12634,12651,12666,12682,12700,12716,12733,12750,12765,12781,12797,12815,12831,12848,12864,12880,12897,12914,12931,12947,12964,12981,12998,13013,13031,13048,13064,13081,13098,13114,13131,13148,13164,13181,13198,13214,13232,13249,13264,13281,13298,13314,13331,13348,13366,13383,13398,13415,13432,13448,13465,13480,13497,13514,13531,13548,13564,13582,13598,13614,13631,13648,13664,13681,13697,13715,13731,13747,13765,13781,13798,13814,13834,13847,13863,13882,13898,13913,13932,13948,13965,13980,13998,14016,14031,14048,14064,14082,14100,14114,14130,14148,14164,14183,14198,14215,14231,14247,14266,14280,14298,14314,14331,14348,14364,14381,14398,14414,14431,14448,14464,14480,14498,14515,14531,14548,14564,14582,14598,14615,14631,14648,14665,14681,14697,14714,14731,14748,14765,14781,14797,14813,14830,14847,14865,14884,14898,14915,14931,14947,14965,14983,14998,15015,15031,15048,15065,15081,15097,15115,15131,15147,15165,15181,15200,15215,15231,15248,15265,15281,15299,15315,15333,15348,15365,15381,15400,15415,15431,15448,15466,15483,15498,15514,15531,15548,15563,15581,15598,15615,15630,15648,15665,15681,15697,15715,15731,15748,15765,15781,15797,15814,15831,15848,15864,15881,15898,15914,15931,15947,15965,15981,15997,16014,16030,16047,16067,16080,16097,16115,16130,16149,16164,16181,16198,16216,16231,16248,16265,16281,16299,16313,16331,16348,16364,16381,16398,16413,16431,16450,16465,16481,16497,16516,16532,16547,16564,16580,16598,16614,16630,16647,16665,16681,16698,16715,16731,16748,16764,16782,16798,16813,16833,16848,16865,16881,16900,16914,16930,16948,16966,16982,16998,17015,17032,17048,17065,17082,17098,17114,17131,17149,17165,17181,17198,17216,17231,17249,17264,17281,17297,17315,17331,17348,17364,17382,17398,17415,17430,17448,17465,17481,17497,17513,17532,17547,17564,17580,17597,17614,17630,17647,17667,17682,17697,17714,17730,17747,17763,17781,17797,17814,17831,17848,17865,17882,17899,17916,17932,17948,17966,17982,17999,18015,18031,18048,18066,18081,18098,18116,18133,18149,18165,18181,18200,18215,18231,18248,18267,18283,18298,18315,18333,18348,18364,18382,18398,18415,18431,18447,18465,18482,18497,18514,18531,18550,18566,18582,18597,18614,18631,18649,18665,18682,18697,18714,18733,18748,18764,18782,18799,18816,18831,18848,18864,18882,18899,18915,18931,18948,18965,18982,18998,19014,19032,19050,19064,19081,19097,19116,19132,19148,19164,19183,19199,19215,19230,19248,19266,19283,19298,19315,19331,19348,19365,19381,19398,19417,19431,19448,19465,19481,19499,19515,19531,19547,19565,19582,19597,19615,19632,19648,19665,19682,19698,19715,19730,19748,19765,19782,19797,19815,19830,19848,19864,19880,19897,19917,19931,19948,19964,19981,19998,20015,20030,20048,20065,20080,20098,20114,20132,20148,20165,20181,20198,20215,20231,20247,20264,20283,20297,20314,20331,20348,20365,20381,20398,20414,20431,20447,20465,20481,20497,20515,20531,20547,20564,20580,20597,20615,20633,20648,20664,20681,20697,20713,20731,20747,20764,20780,20797,20814,20830,20847,20864,20881,20897,20914,20931,20947,20964,20981,20997,21014,21030,21046,21063,21081,21097,21114,21131,21147,21165,21182,21200,21214,21230,21248,21263,21281,21297,21314,21330,21348,21363,21380,21397,21414,21430,21447,21464,21481,21497,21516,21530,21546,21565,21580,21597,21615,21633,21647,21664,21681,21699,21713,21731,21748,21766,21781,21797,21813,21831,21847,21864,21881,21897,21915,21931,21947,21964,21980,21998,22013,22031,22047,22065,22081,22098,22114,22132,22148,22165,22181,22200,22214,22230,22248,22264,22281,22298,22313,22331,22349,22364,22380,22397,22416,22431,22448,22464,22481,22499,22514,22530,22547,22564,22582,22597,22614,22633,22648,22664,22681,22697,22715,22731,22747,22764,22783,22798,22814,22831,22850,22864,22881,22898,22914,22933,22948,22964,22981,22997,23016,23031,23048,23063,23083,23099,23115,23131,23147,23164,23180,23197,23214,23230,23248,23263,23281,23297,23314,23331,23348,23366,23382,23396,23413,23431,23451,23466,23481,23499,23517,23532,23547,23565,23582,23598,23613,23633,23648,23664,23681,23697,23713,23731,23748,23764,23780,23797,23814,23830,23847,23865,23880,23897,23913,23930,23947,23964,23981,23997,24014,24030,24047,24064,24081,24096,24113,24130,24147,24163,24181,24197,24214,24231,24247,24264,24281,24297,24313,24330,24347,24364,24380,24397,24414,24430,24447,24463,24481,24497,24513,24531,24548,24564,24580,24597,24613,24630,24647,24664,24680,24697,24714,24730,24747,24763,24781,24797,24814,24830,24847,24864,24881,24897,24914,24930,24946,24964,24981,24997,25014,25031,25047,25064,25080,25097,25114,25130,25147,25164,25180,25197,25214,25231,25248,25263,25280,25297,25314,25330,25347,25364,25380,25396,25414,25430,25447,25464,25480,25497,25513,25530,25546,25563,25580,25597,25614,25629,25647,25664,25681,25697,25714,25730,25747,25764,25780,25797,25814,25831,25849,25864,25881,25897,25913,25930,25947,25963,25980,25997,26015,26031,26047,26063,26080,26097,26114,26131,26147,26163,26181,26200,26214,26230,26250,26265,26280,26297,26314,26331,26347,26363,26380,26398,26415,26430,26446,26463,26481,26497,26513,26530,26547,26564,26581,26597,26614,26630,26647,26663,26679,26697,26714,26733,26747,26763,26780,26797,26813,26831,26847,26863,26880,26899,26914,26931,26947,26964,26980,26997,27014,27030,27047,27064,27080,27097,27114,27130,27147,27163,27182,27198,27214,27230,27247,27266,27281,27297,27314,27330,27346,27364,27380,27399,27415,27430,27447,27464,27480,27497,27513,27533,27547,27563,27581,27599,27614,27631,27647,27664,27681,27696,27714,27731,27747,27764,27780,27797,27815,27831,27846,27863,27881,27897,27913,27930,27949,27963,27980,27996,28015,28030,28047,28064,28082,28097,28114,28131,28147,28163,28180,28197,28214,28230,28247,28265,28281,28297,28313,28331,28348,28364,28380,28399,28414,28430,28447,28464,28480,28496,28514,28530,28549,28563,28580,28596,28640,28641,28662,28680,28698,28714,28731,28747,28764,28781,28799,28845,28846,28880,28897,28921,28934,28948,28965,28983,28999,29015,29033,29047,29064,29080,29097,29114,29131,29149,29164,29181,29199,29214,29231,29248,29265,29281,29297,29315,29332,29348,29364,29381,29399,29416,29432,29447,29465,29481,29497,29514,29530,29547,29567,29581,29597,29614,29631,29648,29664,29681,29697,29714,29730,29748,29764,29781,29798,29814,29831,29847,29864,29881,29898,29914,29930,29948,29964,29981,29997,30013,30031,30048,30064,30080,30097,30114,30130,30147,30163,30180,30199,30214,30231,30248,30264,30280,30297,30314,30331,30348,30364,30383,30398,30414,30430,30448,30464,30480,30498,30516,30531,30547,30564,30581,30597,30614,30631,30647,30664,30680,30698,30714,30730,30746,30764,30780,30798,30813,30830,30846,30863,30880,30897,30914,30930,30947,30963,30980,30997,31014,31031,31047,31063,31083,31098,31114,31130,31146,31166,31181,31198,31213,31230,31247,31265,31281,31297,31314,31332,31347,31364,31380,31399,31415,31430,31447,31463,31480,31497,31513,31530,31548,31564,31579,31597,31613,31633,31648,31663,31680,31697,31715,31730,31747,31764,31780,31797,31814,31831,31850,31863,31880,31898,31914,31930,31947,31964,31982,31998,32013,32031,32048,32063,32080,32097,32115,32130,32147,32164,32183,32197,32213,32230,32248,32263,32281,32297,32316,32331,32347,32364,32382,32398,32414,32431,32449,32464,32481,32497,32515,32532,32547,32563,32580,32597,32613,32630,32647,32664,32681,32698,32717,32731,32747,32764,32780,32797,32815,32830,32847,32863,32881,32897,32914,32930,32947,32964,32980,32997,33013,33032,33048,33064,33080,33099,33115,33131,33147,33164,33182,33197,33214,33231,33248,33264,33280,33298,33314,33330,33348,33367,33382,33396,33414,33431,33448,33464,33480,33497,33516,33531,33547,33563,33580,33597,33613,33631,33646,33664,33679,33696,33713,33730,33748,33763,33781,33799,33814,33830,33847,33866,33881,33898,33914,33931,33948,33964,33981,33997,34015,34030,34048,34063,34081,34097,34116,34130,34148,34165,34181,34197,34214,34230,34249,34265,34281,34296,34316,34334,34347,34363,34383,34397,34413,34431,34448,34463,34480,34498,34514,34530,34548,34564,34580,34599,34614,34631,34647,34664,34680,34697,34714,34731,34747,34764,34781,34798,34815,34831,34848,34864,34880,34898,34913,34930,34947,34963,34981,34997,35013,35030,35047,35063,35079,35099,35114,35130,35147,35164,35181,35197,35213,35230,35248,35264,35280,35297,35314,35330,35348,35364,35381,35396,35414,35430,35447,35463,35481,35496,35514,35530,35547,35564,35581,35598,35614,35631,35647,35665,35679,35697,35713,35729,35747,35763,35780,35796,35814,35830,35847,35864,35880,35897,35914,35930,35946,35964,35980,35997,36013,36030,36046,36063,36080,36097,36113,36130,36147,36163,36181,36196,36213,36231,36247,36263,36279,36297,36313,36329,36347,36363,36380,36396,36413,36431,36446,36463,36480,36498,36514,36530,36547,36564,36579,36598,36613,36630,36646,36664,36680,36697,36713,36730,36751,36765,36780,36796,36813,36829,36846,36863,36880,36896,36913,36929,36946,36964,36980,36996,37014,37030,37046,37063,37080,37097,37113,37130,37146,37164,37179,37197,37214,37231,37247,37263,37280,37297,37314,37330,37346,37364,37380,37397,37413,37431,37447,37463,37480,37497,37514,37530,37547,37564,37580,37596,37614,37630,37647,37663,37680,37696,37713,37730,37746,37764,37780,37797,37813,37830,37846,37863,37880,37897,37913,37930,37947,37963,37980,37996,38013,38030,38047,38063,38080,38097,38114,38129,38147,38163,38180,38196,38213,38230,38247,38263,38280,38297,38314,38332,38348,38364,38381,38397,38413,38430,38447,38463,38480,38497,38513,38529,38546,38564,38581,38597,38613,38629,38647,38663,38679,38698,38713,38730,38747,38765,38780,38797,38813,38829,38846,38863,38880,38897,38913,38930,38947,38964,38980,38997,39013,39031,39046,39063,39080,39097,39114,39129,39146,39163,39180,39197,39213,39230,39246,39264,39280,39296,39313,39330,39347,39364,39379,39397,39413,39430,39448,39463,39479,39498,39514,39529,39546,39565,39579,39596,39617,39631,39648,39664,39681,39698,39714,39729,39750,39763,39780,39797,39813,39830,39847,39863,39881,39899,39915,39930,39947,39965,39981,39997,40013,40032,40047,40064,40080,40096,40113,40130,40147,40164,40181,40197,40216,40230,40247,40265,40280,40297,40313,40331,40346,40364,40382,40399,40414,40431,40448,40464,40481,40497,40514,40530,40548,40564,40579,40597,40614,40630,40646,40665,40680,40697,40714,40731,40747,40763,40783,40798,40813,40831,40846,40864,40880,40897,40914,40930,40947,40964,40980,40997,41014,41030,41047,41064,41080,41097,41113,41129,41146,41163,41180,41196,41213,41231,41246,41264,41281,41296,41314,41329,41347,41364,41381,41396,41413,41430,41447,41463,41480,41496,41513,41530,41546,41563,41580,41596,41614,41631,41647,41663,41680,41696,41714,41730,41746,41763,41780,41797,41813,41829,41847,41862,41880,41897,41913,41929,41946,41963,41979,41996,42012,42029,42046,42063,42080,42097,42113,42129,42146,42163,42180,42196,42213,42230,42247,42263,42282,42297,42314,42330,42346,42364,42380,42396,42413,42430,42446,42462,42480,42497,42513,42530,42547,42564,42580,42597,42613,42630,42646,42663,42679,42697,42713,42730,42747,42763,42780,42796,42814,42830,42847,42864,42880,42897,42913,42930,42947,42963,42981,42996,43013,43031,43047,43063,43080,43096,43113,43130,43147,43163,43181,43197,43213,43229,43246,43263,43280,43297,43313,43330,43346,43364,43379,43396,43412,43431,43447,43463,43480,43497,43513,43530,43546,43563,43580,43596,43612,43629,43647,43662,43681,43697,43713,43730,43746,43764,43779,43797,43814,43830,43847,43863,43879,43896,43913,43931,43946,43963,43980,43997,44013,44030,44046,44063,44080,44097,44113,44129,44147,44163,44179,44196,44214,44230,44247,44263,44280,44296,44313,44330,44347,44364,44380,44396,44413,44429,44446,44462,44479,44497,44513,44529,44546,44564,44579,44596,44614,44629,44646,44663,44680,44697,44713,44730,44746,44763,44780,44796,44813,44831,44846,44863,44880,44896,44913,44930,44946,44962,44979,44998,45013,45029,45046,45064,45080,45097,45113,45129,45147,45164,45179,45198,45213,45230,45246,45263,45280,45296,45312,45329,45346,45364,45381,45396,45413,45429,45446,45463,45480,45496,45513,45529,45546,45563,45580,45597,45613,45630,45646,45663,45679,45697,45713,45729,45746,45763,45780,45796,45813,45829,45847,45863,45879,45897,45914,45930,45946,45962,45982,45995,46013,46030,46046,46062,46080,46096,46112,46129,46146,46163,46180,46196,46213,46229,46246,46262,46279,46296,46313,46329,46346,46364,46379,46396,46413,46430,46446,46463,46480,46496,46513,46529,46546,46563,46579,46596,46612,46630,46647,46663,46680,46696,46714,46729,46746,46763,46780,46795,46813,46829,46849,46863,46880,46896,46913,46929,46947,46963,46979,46996,47012,47030,47046,47062,47079,47097,47113,47129,47146,47164,47179,47196,47213,47229,47246,47262,47279,47296,47312,47329,47346,47363,47381,47396,47413,47431,47446,47462,47480,47496,47513,47529,47545,47562,47580,47596,47613,47629,47647,47662,47680,47696,47713,47729,47747,47763,47779,47796,47812,47829,47846,47862,47880,47897,47912,47929,47946,47963,47980,47996,48012,48030,48046,48063,48079,48097,48113,48129,48146,48162,48180,48197,48213,48229,48245,48263,48279,48296,48313,48328,48346,48363,48380,48396,48413,48429,48447,48463,48480,48496,48513,48530,48547,48562,48580,48595,48613,48630,48646,48662,48680,48696,48712,48730,48746,48762,48780,48797,48813,48830,48846,48862,48879,48897,48913,48929,48946,48963,48979,48996,49013,49029,49046,49063,49079,49096,49113,49129,49146,49163,49179,49195,49212,49229,49246,49263,49279,49296,49313,49329,49346,49363,49379,49396,49412,49430,49446,49464,49480,49497,49512,49530,49546,49563,49580,49596,49613,49630,49647,49663,49680,49697,49712,49729,49747,49762,49780,49796,49813,49830,49846,49862,49879,49896,49912,49929,49946,49963,49979,49996,50013,50029,50046,50063,50079,50096,50112,50129,50145,50163,50179,50196,50212,50230,50246,50263,50279,50297,50313,50332,50348,50364,50381,50396,50413,50432,50446,50461,50479,50497,50514,50531,50547,50564,50581,50598,50613,50629,50646,50663,50680,50697,50712,50730,50746,50762,50780,50797,50812,50829,50847,50862,50880,50896,50912,50930,50946,50963,50979,50996,51013,51029,51046,51063,51079,51097,51113,51129,51147,51163,51180,51196,51213,51229,51246,51263,51279,51296,51312,51329,51346,51363,51380,51396,51412,51430,51446,51464,51479,51496,51512,51529,51546,51565,51580,51596,51612,51630,51647,51663,51680,51697,51713,51729,51747,51763,51780,51796,51813,51829,51846,51863,51879,51896,51912,51929,51946,51963,51980,51996,52012,52029,52046,52064,52080,52096,52113,52130,52148,52163,52179,52196,52213,52230,52245,52262,52279,52297,52313,52329,52347,52362,52379,52396,52413,52429,52446,52462,52480,52496,52514,52528,52545,52563,52578,52596,52613,52630,52646,52663,52679,52697,52713,52729,52745,52763,52780,52796,52813,52829,52846,52865,52879,52896,52913,52929,52946,52962,52979,52996,53013,53029,53046,53062,53080,53096,53113,53129,53146,53164,53179,53196,53213,53229,53245,53263,53280,53296,53312,53328,53346,53363,53380,53396,53413,53430,53446,53463,53480,53496,53512,53528,53546,53562,53579,53596,53613,53630,53646,53662,53679,53696,53713,53729,53746,53763,53780,53796,53814,53830,53847,53863,53879,53896,53912,53929,53946,53963,53979,53996,54012,54029,54046,54063,54079,54096,54113,54129,54146,54163,54178,54196,54213,54230,54245,54263,54279,54296,54312,54329,54346,54363,54379,54396,54412,54429,54446,54462,54482,54496,54512,54530,54546,54564,54579,54597,54613,54630,54646,54662,54680,54697,54712,54730,54746,54765,54779,54796,54813,54829,54847,54864,54880,54896,54913,54929,54946,54963,54979,54998,55015,55029,55046,55063,55082,55096,55113,55129,55148,55164,55180,55196,55213,55231,55247,55263,55279,55296,55312,55329,55346,55362,55380,55395,55412,55430,55446,55462,55482,55496,55512,55529,55547,55562,55579,55597,55613,55630,55645,55663,55679,55698,55713,55730,55748,55765,55783,55798,55815,55833,55845,55865,55879,55899,55916,55933,55946,55965,55983,55999,56012,56029,56047,56063,56079,56096,56113,56130,56145,56163,56180,56196,56213,56229,56247,56263,56280,56296,56313,56329,56345,56363,56379,56396,56412,56429,56446,56463,56478,56496,56515,56530,56546,56562,56582,56597,56612,56630,56646,56663,56679,56697,56713,56730,56746,56763,56779,56798,56813,56829,56846,56865,56879,56895,56913,56929,56946,56963,56980,56998,57013,57028,57045,57064,57080,57096,57112,57130,57146,57163,57180,57196,57213,57230,57246,57263,57281,57297,57313,57328,57346,57365,57379,57396,57413,57431,57446,57463,57479,57496,57513,57529,57546,57563,57581,57596,57613,57629,57646,57663,57679,57695,57713,57730,57746,57763,57779,57796,57812,57830,57846,57862,57879,57897,57911,57928,57945,57963,57979,57996,58013,58032,58046,58063,58079,58097,58112,58129,58148,58163,58179,58197,58212,58230,58248,58263,58280,58296,58312,58330,58346,58363,58379,58396,58412,58430,58445,58462,58481,58497,58513,58530,58547,58563,58579,58596,58613,58631,58645,58663,58679,58697,58712,58729,58746,58763,58781,58796,58813,58829,58845,58863,58879,58896,58912,58929,58946,58964,58980,58996,59012,59031,59045,59062,59078,59095,59113,59129,59146,59162,59179,59197,59212,59229,59248,59261,59280,59296,59313,59329,59345,59362,59379,59397,59412,59429,59446,59463,59479,59496,59512,59529,59546,59562,59580,59595,59612,59629,59646,59662,59679,59696,59713,59729,59745,59762,59779,59795,59813,59829,59846,59863,59879,59896,59915,59929,59946,59963,59979,59996,60012,60029,60046,60063,60079,60096,60112,60129,60146,60162,60178,60195,60212,60229,60246,60263,60278,60296,60313,60328,60347,60362,60379,60395,60412,60429,60445,60462,60479,60495,60511,60529,60545,60562,60579,60595,60612,60629,60645,60662,60679,60696,60712,60729,60746,60762,60778,60795,60812,60828,60847,60862,60879,60896,60913,60929,60946,60962,60979,60996,61013,61028,61046,61062,61080,61096,61113,61130,61147,61162,61180,61198,61213,61230,61246,61265,61279,61296,61312,61330,61345,61363,61379,61396,61413,61429,61446,61463,61479,61496,61513,61528,61546,61562,61578,61595,61612,61629,61645,61662,61678,61696,61712,61729,61746,61762,61779,61795,61813,61829,61846,61862,61879,61896,61912,61930,61946,61962,61979,61996,62012,62029,62046,62062,62080,62096,62113,62130,62146,62162,62179,62195,62213,62229,62246,62262,62279,62295,62313,62328,62346,62362,62379,62396,62412,62429,62446,62462,62479,62496,62513,62529,62545,62563,62579,62595,62612,62628,62645,62662,62678,62696,62712,62728,62746,62762,62779,62795,62812,62829,62846,62863,62879,62895,62912,62930,62948,62962,62980,62996,63013,63029,63046,63062,63078,63096,63113,63128,63146,63162,63179,63198,63215,63229,63246,63263,63279,63296,63313,63329,63345,63362,63380,63395,63413,63429,63446,63463,63478,63496,63511,63529,63546,63563,63579,63596,63612,63629,63645,63663,63679,63695,63712,63729,63746,63762,63781,63796,63812,63829,63846,63862,63879,63896,63912,63928,63946,63963,63983,63996,64011,64063,64078,64096,64112,64129,64145,64162,64179,64196,64212,64229,64246,64262,64279,64296,64312,64328,64346,64362,64379,64396,64412,64429,64446,64462,64479,64495,64512,64528,64545,64562,64579,64596,64612,64629,64646,64663,64679,64695,64712,64729,64745,64762,64778,64796,64812,64829,64846,64862,64879,64895,64912,64929,64945,64962,64979,64996,65013,65030,65045,65062,65078,65096,65112,65130,65146,65162,65178,65195,65212,65229,65245,65261,65279,65295,65312,65328,65447,65463,65480,65497,65515,65528,65546,65563,65579,65595,65612,65629,65645,65663,65679,65697,65711,65730,65746,65763,65780,65796,65813,65829,65847,65863,65879,65896,65912,65930,65946,65963,65980,65998,66012,66029,66046,66063,66079,66097,66113,66129,66147,66163,66179,66195,66212,66230,66246,66263,66279,66295,66311,66328,66346,66362,66381,66396,66412,66430,66449,66465,66480,66496,66513,66530,66546,66563,66579,66595,66614,66630,66646,66666,66683,66697,66714,66730,66746,66762,66779,66796,66812,66829,66846,66862,66879,66896,66912,66929,66945,66962,66980,66996,67013,67029,67046,67062,67079,67096,67112,67129,67146,67162,67180,67195,67212,67228,67246,67263,67278,67295,67312,67330,67346,67362,67378,67396,67413,67429,67445,67462,67480,67496,67512,67529,67546,67562,67579,67596,67612,67629,67647,67662,67680,67695,67712,67728,67745,67761,67778,67795,67813,67829,67846,67861,67878,67895,67912,67929,67946,67962,67980,67996,68013,68029,68046,68062,68079,68096,68112,68129,68145,68163,68179,68197,68216,68230,68245,68263,68278,68295,68313,68328,68346,68362,68378,68395,68411,68428,68445,68463,68478,68495,68512,68529,68545,68562,68579,68595,68612,68629,68646,68662,68678,68695,68713,68728,68745,68761,68779,68795,68812,68828,68845,68862,68879,68895,68912,68929,68945,68961,68979,68996,69012,69029,69045,69062,69078,69095,69112,69129,69145,69163,69179,69195,69213,69229,69246,69262,69278,69295,69312,69329,69345,69362,69379,69395,69412,69428,69446,69462,69479,69496,69512,69528,69546,69562,69578,69595,69612,69629,69646,69663,69679,69696,69713,69729,69745,69762,69779,69796,69813,69829,69846,69863,69878,69895,69912,69928,69945,69962,69979,69995,70012,70029,70045,70062,70079,70095,70112,70129,70146,70163,70179,70195,70212,70229,70246,70262,70279,70295,70313,70329,70345,70362,70379,70396,70411,70429,70445,70462,70478,70495,70512,70528,70546,70562,70579,70595,70612,70628,70646,70662,70679,70695,70713,70729,70746,70761,70779,70796,70813,70829,70845,70862,70878,70895,70912,70929,70945,70962,70979,70995,71012,71028,71045,71062,71078,71095,71112,71129,71145,71161,71178,71196,71212,71228,71245,71263,71279,71295,71312,71328,71346,71362,71379,71396,71412,71429,71446,71462,71478,71496,71513,71529,71545,71561,71579,71595,71612,71629,71645,71662,71678,71697,71712,71730,71746,71762,71779,71795,71813,71829,71845,71862,71881,71898,71913,71929,71946,71964,71984,71997,72014,72031,72046,72061,72080,72096,72113,72128,72146,72163,72179,72196,72213,72228,72245,72262,72279,72296,72311,72330,72345,72361,72379,72395,72412,72428,72446,72462,72480,72495,72512,72529,72545,72562,72578,72595,72612,72628,72645,72662,72681,72695,72713,72728,72746,72762,72778,72796,72811,72829,72848,72862,72879,72896,72912,72929,72946,72961,72979,72995,73013,73028,73046,73063,73078,73095,73111,73129,73145,73161,73179,73196,73212,73229,73245,73262,73278,73295,73311,73330,73348,73364,73379,73395,73411,73429,73448,73464,73480,73497,73513,73532,73546,73562,73581,73599,73612,73630,73646,73664,73680,73697,73712,73729,73747,73762,73779,73796,73812,73829,73846,73862,73879,73895,73912,73929,73946,73963,73980,73996,74013,74029,74046,74062,74079,74098,74113,74128,74146,74162,74181,74196,74215,74229,74248,74262,74279,74295,74312,74329,74345,74362,74378,74395,74413,74429,74445,74462,74479,74495,74512,74529,74545,74562,74578,74595,74613,74631,74646,74662,74679,74697,74712,74730,74746,74763,74780,74796,74813,74828,74846,74865,74878,74896,74911,74928,74946,74963,74978,74995,75012,75030,75046,75062,75079,75096,75112,75129,75145,75162,75179,75194,75213,75228,75245,75262,75279,75295,75313,75329,75346,75362,75378,75395,75412,75429,75446,75462,75479,75496,75513,75529,75547,75564,75580,75596,75613,75629,75648,75662,75678,75695,75711,75728,75746,75763,75779,75795,75813,75829,75845,75863,75879,75896,75912,75931,75946,75962,75979,75998,76012,76028,76045,76063,76079,76095,76112,76129,76145,76162,76178,76196,76213,76228,76245,76262,76279,76295,76312,76328,76346,76363,76379,76396,76414,76430,76445,76461,76482,76497,76512,76529,76545,76563,76578,76595,76612,76628,76645,76661,76678,76695,76712,76728,76746,76761,76778,76796,76811,76828,76846,76864,76879,76895,76912,76930,76948,76963,76979,76995,77015,77030,77046,77062,77078,77096,77113,77130,77146,77163,77180,77196,77212,77229,77247,77264,77280,77298,77315,77330,77346,77364,77380,77396,77414,77431,77447,77465,77481,77496,77515,77531,77547,77564,77579,77597,77612,77629,77646,77661,77678,77696,77712,77728,77746,77762,77778,77795,77812,77829,77844,77862,77879,77895,77912,77929,77945,77962,77978,77995,78012,78029,78046,78063,78078,78095,78112,78129,78146,78163,78179,78195,78212,78230,78245,78262,78279,78296,78312,78329,78346,78362,78380,78395,78412,78430,78445,78462,78479,78495,78511,78529,78546,78562,78579,78596,78613,78630,78646,78662,78680,78696,78713,78729,78746,78762,78779,78795,78812,78828,78845,78863,78879,78896,78912,78929,78945,78962,78978,78996,79012,79029,79046,79062,79079,79098,79112,79131,79146,79164,79180,79196,79212,79228,79246,79263,79281,79296,79313,79329,79346,79362,79379,79395,79412,79428,79445,79462,79479,79496,79511,79529,79545,79562,79582,79598,79613,79630,79647,79663,79679,79696,79712,79729,79746,79763,79779,79795,79814,79831,79846,79865,79881,79896,79912,79929,79946,79963,79979,79996,80014,80029,80047,80062,80080,80096,80113,80129,80147,80163,80179,80195,80213,80231,80246,80261,80278,80296,80312,80330,80346,80364,80380,80396,80412,80429,80445,80462,80479,80496,80514,80529,80545,80562,80581,80598,80613,80629,80647,80664,80679,80695,80713,80731,80746,80762,80779,80797,80812,80829,80846,80864,80879,80895,80912,80929,80946,80962,80979,80994,81013,81028,81045,81062,81080,81094,81112,81131,81146,81163,81178,81195,81211,81230,81245,81263,81279,81297,81313,81328,81345,81362,81379,81395,81413,81430,81446,81462,81480,81496,81513,81529,81545,81562,81580,81597,81613,81629,81647,81662,81679,81696,81712,81729,81745,81763,81781,81796,81812,81830,81845,81861,81879,81896,81913,81929,81946,81962,81979,81995,82012,82028,82046,82062,82081,82095,82112,82129,82146,82162,82179,82196,82213,82229,82245,82262,82278,82295,82312,82329,82346,82363,82381,82396,82413,82429,82446,82463,82480,82496,82510,82545,82562,82579,82596,82613,82629,82646,82662,82680,82697,82713,82729,82747,82763,82780,82795,82812,82830,82845,82863,82880,82897,82914,82929,82947,82964,82980,82997,83013,83030,83046,83063,83079,83096,83113,83129,83146,83164,83180,83196,83213,83230,83247,83264,83279,83296,83314,83330,83346,83362,83379,83397,83413,83429,83447,83462,83479,83495,83512,83528,83547,83562,83579,83595,83612,83628,83645,83663,83680,83696,83713,83730,83746,83763,83779,83796,83811,83828,83845,83863,83879,83896,83913,83931,83946,83964,83979,83996,84013,84030,84045,84062,84079,84096,84112,84129,84146,84163,84179,84195,84213,84229,84247,84262,84280,84297,84313,84329,84345,84363,84379,84395,84412,84430,84446,84462,84478,84496,84514,84531,84545,84562,84578,84597,84612,84629,84645,84663,84680,84696,84712,84729,84745,84763,84779,84795,84814,84829,84845,84862,84879,84896,84913,84928,84945,84962,84980,84997,85012,85028,85046,85064,85079,85095,85112,85128,85145,85162,85178,85195,85212,85229,85246,85262,85280,85297,85312,85330,85346,85363,85379,85396,85412,85429,85446,85462,85478,85497,85512,85528,85545,85562,85581,85595,85613,85628,85645,85661,85678,85696,85712,85728,85745,85764,85779,85796,85812,85830,85847,85862,85878,85895,85914,85929,85946,85963,85978,85997,86013,86029,86045,86063,86080,86096,86112,86128,86147,86161,86178,86196,86212,86229,86246,86261,86279,86296,86311,86328,86345,86362,86378,86398,86412,86429,86444,86462,86478,86495,86511,86529,86548,86562,86578,86595,86613,86629,86645,86661,86678,86695,86712,86728,86745,86762,86779,86796,86811,86829,86845,86863,86878,86895,86913,86930,86945,86962,86979,86995,87011,87028,87046,87062,87078,87095,87111,87132,87145,87161,87178,87196,87212,87229,87245,87261,87278,87295,87312,87328,87345,87362,87378,87399,87412,87429,87444,87462,87479,87495,87512,87528,87546,87562,87579,87596,87613,87629,87645,87661,87679,87696,87712,87728,87745,87762,87779,87795,87812,87829,87845,87862,87878,87896,87912,87928,87945,87963,87980,87996,88011,88029,88045,88061,88078,88097,88113,88129,88145,88163,88179,88197,88214,88229,88246,88261,88279,88297,88313,88330,88346,88362,88379,88397,88413,88431,88446,88462,88477,88495,88512,88529,88544,88562,88578,88595,88612,88629,88645,88662,88678,88695,88713,88728,88744,88762,88778,88796,88811,88829,88845,88862,88879,88894,88912,88928,88945,88962,88979,88994,89012,89028,89046,89061,89078,89095,89112,89129,89146,89162,89179,89197,89211,89228,89246,89262,89279,89295,89312,89328,89345,89361,89379,89396],"hit":[null],"x":[-1.751700680272109,0.08843537414965986,0.08843537414965986,0.08503401360544217,0.07482993197278912,0.06802721088435375,0.061224489795918366,0.05782312925170068,0.05442176870748299,0.047619047619047616,0.04421768707482993,0.04081632653061224,0.03741496598639456,0.034013605442176874,0.034013605442176874,0.030612244897959183,0.030612244897959183,0.030612244897959183,0.027210884353741496,0.027210884353741496,0.027210884353741496,0.027210884353741496,0.027210884353741496,0.027210884353741496,0.027210884353741496,0.027210884353741496,0.030612244897959183,0.12585034013605442,0.24149659863945577,0.24829931972789115,0.2585034013605442,0.2619047619047619,0.2653061224489796,0.2653061224489796,0.2653061224489796,0.2653061224489796,0.2653061224489796,0.2653061224489796,0.2653061224489796,0.2619047619047619,0.1836734693877551,0.01020408163265306,-0.047619047619047616,-0.05782312925170068,-0.07482993197278912,-0.08503401360544217,-0.08843537414965986,-0.09523809523809523,-0.09863945578231292,-0.10204081632653061,-0.10204081632653061,-0.1054421768707483,-0.10884353741496598,-0.11224489795918367,-0.11904761904761904,-0.12244897959183673,-0.1292517006802721,-0.1326530612244898,-0.13945578231292516,-0.14285714285714285,-0.14965986394557823,-0.15306122448979592,-0.1564625850340136,-0.1564625850340136,-0.1564625850340136,-0.1598639455782313,-0.16326530612244897,-0.16326530612244897,-0.16326530612244897,-0.16666666666666666,-0.16666666666666666,-0.16666666666666666,-0.16666666666666666,-0.16666666666666666,-0.17006802721088435,-0.17006802721088435,-0.17006802721088435,-0.17006802721088435,-0.17006802721088435,-0.17006802721088435,-0.17006802721088435,-0.17006802721088435,-0.17006802721088435,-0.17006802721088435,-0.17006802721088435,-0.17006802721088435,-0.17006802721088435,-0.17006802721088435,-0.17006802721088435,-0.17006802721088435,-0.17006802721088435,-0.17006802721088435,-0.17006802721088435,-0.17006802721088435,-0.17006802721088435,-0.17006802721088435,-0.17006802721088435,-0.17006802721088435,-0.17006802721088435,-0.17006802721088435,-0.17006802721088435,-0.17006802721088435,-0.17006802721088435,-0.17006802721088435,-0.17006802721088435,-0.17006802721088435,-0.17006802721088435,-0.17006802721088435,-0.17006802721088435,-0.17006802721088435,-0.17006802721088435,-0.17006802721088435,-0.17006802721088435,-0.17006802721088435,-0.17006802721088435,-0.17006802721088435,-0.17006802721088435,-0.17006802721088435,-0.17006802721088435,-0.17006802721088435,-0.17006802721088435,-0.17006802721088435,-0.17006802721088435,-0.17006802721088435,-0.17006802721088435,-0.17006802721088435,-0.17006802721088435,-0.17006802721088435,-0.17006802721088435,-0.17006802721088435,-0.17006802721088435,-0.17006802721088435,-0.17006802721088435,-0.17006802721088435,-0.17006802721088435,-0.17006802721088435,-0.17006802721088435,-0.17006802721088435,-0.17006802721088435,-0.17006802721088435,-0.17006802721088435,-0.17006802721088435,-0.17006802721088435,-0.17006802721088435,-0.17006802721088435,-0.17006802721088435,-0.17006802721088435,-0.17006802721088435,-0.17006802721088435,-0.17006802721088435,-0.17006802721088435,-0.17006802721088435,-0.17006802721088435,-0.17006802721088435,-0.17006802721088435,-0.17006802721088435,-0.17006802721088435,-0.17006802721088435,-0.17006802721088435,-0.17006802721088435,-0.17006802721088435,-0.17006802721088435,-0.17006802721088435,-0.17006802721088435,-0.17006802721088435,-0.17006802721088435,-0.17006802721088435,-0.17006802721088435,-0.17006802721088435,-0.17006802721088435,-0.17006802721088435,-0.16666666666666666,-0.16666666666666666,-0.1598639455782313,-0.1564625850340136,-0.15306122448979592,-0.15306122448979592,-0.15306122448979592,-0.1326530612244898,-0.1292517006802721,-0.12585034013605442,-0.11904761904761904,-0.11564625850340136,-0.11224489795918367,-0.1054421768707483,-0.10204081632653061,-0.10204081632653061,-0.09523809523809523,-0.09183673469387756,-0.08503401360544217,-0.08163265306122448,-0.0782312925170068,-0.07482993197278912,-0.06802721088435375,-0.06462585034013606,-0.06462585034013606,-0.061224489795918366,-0.05782312925170068,-0.05782312925170068,-0.05782312925170068,-0.05782312925170068,-0.05782312925170068,-0.05782312925170068,-0.05782312925170068,-0.05782312925170068,-0.05782312925170068,-0.05782312925170068,-0.05782312925170068,-0.05782312925170068,-0.05782312925170068,-0.05782312925170068,-0.05782312925170068,-0.05782312925170068,-0.05442176870748299,-0.05442176870748299,-0.05102040816326531,-0.047619047619047616,-0.04421768707482993,-0.04421768707482993,-0.04081632653061224,-0.03741496598639456,-0.034013605442176874,-0.034013605442176874,-0.034013605442176874,-0.034013605442176874,-0.034013605442176874,-0.034013605442176874,-0.034013605442176874,-0.030612244897959183,-0.030612244897959183,-0.030612244897959183,-0.030612244897959183,-0.030612244897959183,-0.030612244897959183,-0.030612244897959183,-0.030612244897959183,-0.030612244897959183,-0.030612244897959183,-0.030612244897959183,-0.030612244897959183,-0.030612244897959183,-0.030612244897959183,-0.030612244897959183,-0.030612244897959183,-0.030612244897959183,-0.030612244897959183,-0.030612244897959183,-0.030612244897959183,-0.030612244897959183,-0.030612244897959183,-0.030612244897959183,-0.030612244897959183,-0.030612244897959183,-0.030612244897959183,-0.030612244897959183,-0.030612244897959183,-0.030612244897959183,-0.030612244897959183,-0.030612244897959183,-0.030612244897959183,-0.030612244897959183,-0.030612244897959183,-0.030612244897959183,-0.017006802721088437,-0.006802721088435374,0,0.003401360544217687,0.006802721088435374,0.01020408163265306,0.01020408163265306,0.013605442176870748,0.013605442176870748,0.013605442176870748,0.013605442176870748,0.013605442176870748,0.013605442176870748,0.023809523809523808,0.027210884353741496,0.027210884353741496,0.034013605442176874,0.034013605442176874,0.03741496598639456,0.04081632653061224,0.04421768707482993,0.047619047619047616,0.047619047619047616,0.05102040816326531,0.05442176870748299,0.05442176870748299,0.05442176870748299,0.05442176870748299,0.05442176870748299,0.05782312925170068,0.05782312925170068,0.05782312925170068,0.061224489795918366,0.061224489795918366,0.061224489795918366,0.061224489795918366,0.061224489795918366,0.061224489795918366,0.061224489795918366,0.061224489795918366,0.061224489795918366,0.061224489795918366,0.061224489795918366,0.061224489795918366,0.061224489795918366,0.061224489795918366,0.061224489795918366,0.061224489795918366,0.061224489795918366,0.061224489795918366,0.061224489795918366,0.061224489795918366,0.061224489795918366,0.061224489795918366,0.061224489795918366,0.061224489795918366,0.061224489795918366,0.061224489795918366,0.061224489795918366,0.061224489795918366,0.061224489795918366,0.061224489795918366,0.061224489795918366,0.061224489795918366,0.061224489795918366,0.061224489795918366,0.061224489795918366,0.061224489795918366,0.061224489795918366,0.061224489795918366,0.061224489795918366,0.061224489795918366,0.061224489795918366,0.061224489795918366,0.061224489795918366,0.061224489795918366,0.061224489795918366,0.061224489795918366,0.061224489795918366,0.061224489795918366,0.061224489795918366,0.061224489795918366,0.061224489795918366,0.061224489795918366,0.061224489795918366,0.061224489795918366,0.061224489795918366,0.061224489795918366,0.061224489795918366,0.061224489795918366,0.061224489795918366,0.061224489795918366,0.061224489795918366,0.061224489795918366,0.061224489795918366,0.061224489795918366,0.061224489795918366,0.061224489795918366,0.061224489795918366,0.061224489795918366,0.061224489795918366,0.061224489795918366,0.061224489795918366,0.061224489795918366,0.061224489795918366,0.061224489795918366,0.061224489795918366,0.061224489795918366,0.061224489795918366,0.061224489795918366,0.061224489795918366,0.061224489795918366,0.061224489795918366,0.061224489795918366,0.061224489795918366,0.061224489795918366,0.061224489795918366,0.061224489795918366,0.061224489795918366,0.061224489795918366,0.061224489795918366,0.061224489795918366,0.061224489795918366,0.061224489795918366,0.061224489795918366,0.061224489795918366,0.061224489795918366,0.061224489795918366,0.061224489795918366,0.061224489795918366,0.061224489795918366,0.061224489795918366,0.061224489795918366,0.061224489795918366,0.061224489795918366,0.061224489795918366,0.061224489795918366,0.061224489795918366,0.061224489795918366,0.061224489795918366,0.061224489795918366,0.061224489795918366,0.061224489795918366,0.061224489795918366,0.061224489795918366,0.061224489795918366,0.061224489795918366,0.061224489795918366,0.061224489795918366,0.061224489795918366,0.061224489795918366,0.061224489795918366,0.061224489795918366,0.061224489795918366,0.061224489795918366,0.061224489795918366,0.061224489795918366,0.061224489795918366,0.061224489795918366,0.061224489795918366,0.061224489795918366,0.061224489795918366,0.061224489795918366,0.061224489795918366,0.061224489795918366,0.061224489795918366,0.061224489795918366,0.061224489795918366,0.061224489795918366,0.061224489795918366,0.061224489795918366,0.061224489795918366,0.061224489795918366,0.061224489795918366,0.061224489795918366,0.061224489795918366,0.061224489795918366,0.061224489795918366,0.061224489795918366,0.061224489795918366,0.061224489795918366,0.061224489795918366,0.061224489795918366,0.061224489795918366,0.061224489795918366,0.061224489795918366,0.061224489795918366,0.061224489795918366,0.061224489795918366,0.061224489795918366,0.061224489795918366,0.061224489795918366,0.061224489795918366,0.061224489795918366,0.061224489795918366,0.061224489795918366,0.061224489795918366,0.061224489795918366,0.061224489795918366,0.061224489795918366,0.061224489795918366,0.061224489795918366,0.061224489795918366,0.061224489795918366,0.061224489795918366,0.061224489795918366,0.061224489795918366,0.061224489795918366,0.061224489795918366,0.061224489795918366,0.061224489795918366,0.061224489795918366,0.061224489795918366,0.06462585034013606,0.07482993197278912,0.08163265306122448,0.08843537414965986,0.09863945578231292,0.10204081632653061,0.10884353741496598,0.11564625850340136,0.12244897959183673,0.1326530612244898,0.14285714285714285,0.14285714285714285,0.14965986394557823,0.1564625850340136,0.16326530612244897,0.16666666666666666,0.17006802721088435,0.17346938775510204,0.18027210884353742,0.1870748299319728,0.1870748299319728,0.19387755102040816,0.19727891156462585,0.20408163265306123,0.20748299319727892,0.2108843537414966,0.2108843537414966,0.2108843537414966,0.21428571428571427,0.21428571428571427,0.21428571428571427,0.21428571428571427,0.21768707482993196,0.21768707482993196,0.21768707482993196,0.21768707482993196,0.21768707482993196,0.21768707482993196,0.21768707482993196,0.21768707482993196,0.21768707482993196,0.21768707482993196,0.21768707482993196,0.21768707482993196,0.21768707482993196,0.21768707482993196,0.21768707482993196,0.21768707482993196,0.21768707482993196,0.21768707482993196,0.21768707482993196,0.21768707482993196,0.21768707482993196,0.21768707482993196,0.21768707482993196,0.21768707482993196,0.21768707482993196,0.21768707482993196,0.21768707482993196,0.21768707482993196,0.21768707482993196,0.21768707482993196,0.21768707482993196,0.21768707482993196,0.21768707482993196,0.21428571428571427,0.20408163265306123,0.20068027210884354,0.19727891156462585,0.19727891156462585,0.19387755102040816,0.19047619047619047,0.19047619047619047,0.1870748299319728,0.1870748299319728,0.1870748299319728,0.1870748299319728,0.1870748299319728,0.1870748299319728,0.1870748299319728,0.1870748299319728,0.1870748299319728,0.1870748299319728,0.1870748299319728,0.1870748299319728,0.1870748299319728,0.1870748299319728,0.1870748299319728,0.1870748299319728,0.1870748299319728,0.1870748299319728,0.1870748299319728,0.1870748299319728,0.1836734693877551,0.1836734693877551,0.1836734693877551,0.1836734693877551,0.1836734693877551,0.1836734693877551,0.1836734693877551,0.1870748299319728,0.1870748299319728,0.1870748299319728,0.1870748299319728,0.1870748299319728,0.1870748299319728,0.1870748299319728,0.1870748299319728,0.1870748299319728,0.1870748299319728,0.1870748299319728,0.1870748299319728,0.1870748299319728,0.1870748299319728,0.1870748299319728,0.1870748299319728,0.1870748299319728,0.1870748299319728,0.1870748299319728,0.1870748299319728,0.19047619047619047,0.19727891156462585,0.21428571428571427,0.21428571428571427,0.21428571428571427,0.21428571428571427,0.21428571428571427,0.21428571428571427,0.2108843537414966,0.2108843537414966,0.2108843537414966,0.2108843537414966,0.2108843537414966,0.2108843537414966,0.2108843537414966,0.2108843537414966,0.2108843537414966,0.2108843537414966,0.2108843537414966,0.20748299319727892,0.20748299319727892,0.20748299319727892,0.20408163265306123,0.20408163265306123,0.20408163265306123,0.20408163265306123,0.20408163265306123,0.20748299319727892,0.22448979591836735,0.24829931972789115,0.25510204081632654,0.2653061224489796,0.272108843537415,0.2755102040816326,0.2789115646258503,0.282312925170068,0.2891156462585034,0.2925170068027211,0.29591836734693877,0.30272108843537415,0.3129251700680272,0.3163265306122449,0.3231292517006803,0.32653061224489793,0.3333333333333333,0.336734693877551,0.3435374149659864,0.3469387755102041,0.35714285714285715,0.36394557823129253,0.3707482993197279,0.3707482993197279,0.3741496598639456,0.3741496598639456,0.37755102040816324,0.37755102040816324,0.37755102040816324,0.38095238095238093,0.38095238095238093,0.38095238095238093,0.391156462585034,0.5850340136054422,0.7721088435374149,0.782312925170068,0.7891156462585034,0.7925170068027211,0.7925170068027211,0.7925170068027211,0.7925170068027211,0.7925170068027211,0.7925170068027211,0.7925170068027211,0.7925170068027211,0.7925170068027211,0.7925170068027211,0.7925170068027211,0.7925170068027211,0.7925170068027211,0.7925170068027211,0.7925170068027211,0.7925170068027211,0.7925170068027211,0.7925170068027211,0.7925170068027211,0.7925170068027211,0.7925170068027211,0.7925170068027211,0.7993197278911565,0.8027210884353742,0.8231292517006803,0.9081632653061225,1.0136054421768708,1.034013605442177,1.0476190476190477,1.054421768707483,1.054421768707483,1.054421768707483,1.054421768707483,1.054421768707483,1.054421768707483,1.054421768707483,1.054421768707483,1.054421768707483,1.054421768707483,1.054421768707483,1.054421768707483,1.054421768707483,1.054421768707483,1.054421768707483,1.054421768707483,1.054421768707483,1.054421768707483,1.054421768707483,1.054421768707483,1.054421768707483,1.054421768707483,1.054421768707483,1.054421768707483,1.054421768707483,1.054421768707483,1.054421768707483,1.054421768707483,1.054421768707483,1.054421768707483,1.054421768707483,1.054421768707483,1.054421768707483,1.054421768707483,1.054421768707483,1.054421768707483,1.054421768707483,1.0408163265306123,1.0272108843537415,1.0204081632653061,1.0170068027210883,1.0136054421768708,1.0136054421768708,1.0136054421768708,1.010204081632653,1.010204081632653,1.010204081632653,1.010204081632653,1.010204081632653,1.010204081632653,1.010204081632653,1.010204081632653,1.010204081632653,1.010204081632653,1.010204081632653,1.010204081632653,1.010204081632653,1.010204081632653,1.010204081632653,1.010204081632653,1.010204081632653,1.010204081632653,1.010204081632653,1.010204081632653,1.010204081632653,1.010204081632653,1.010204081632653,1.010204081632653,1.010204081632653,1.010204081632653,1.010204081632653,1.010204081632653,1.010204081632653,1.010204081632653,1.010204081632653,1.010204081632653,0.9863945578231292,0.9727891156462585,0.95578231292517,0.9455782312925171,0.9387755102040817,0.9387755102040817,0.935374149659864,0.9319727891156463,0.9285714285714286,0.9285714285714286,0.9251700680272109,0.9251700680272109,0.9251700680272109,0.9217687074829932,0.9217687074829932,0.9217687074829932,0.9183673469387755,0.9183673469387755,0.9183673469387755,0.9149659863945578,0.9149659863945578,0.9149659863945578,0.9149659863945578,0.9149659863945578,0.9149659863945578,0.9149659863945578,0.9115646258503401,0.9115646258503401,0.9081632653061225,0.9047619047619048,0.9047619047619048,0.9047619047619048,0.9047619047619048,0.9047619047619048,0.9013605442176871,0.9013605442176871,0.9013605442176871,0.9013605442176871,0.9013605442176871,0.9013605442176871,0.9013605442176871,0.9013605442176871,0.9013605442176871,0.9013605442176871,0.9013605442176871,0.9013605442176871,0.9013605442176871,0.9013605442176871,0.9013605442176871,0.9013605442176871,0.9013605442176871,0.9013605442176871,0.9013605442176871,0.9013605442176871,0.9013605442176871,0.9013605442176871,0.9013605442176871,0.9013605442176871,0.8945578231292517,0.8503401360544217,0.7142857142857143,0.6054421768707483,0.5578231292517006,0.5374149659863946,0.5272108843537415,0.5068027210884354,0.4965986394557823,0.4931972789115646,0.48639455782312924,0.48299319727891155,0.47959183673469385,0.47959183673469385,0.47959183673469385,0.47619047619047616,0.47619047619047616,0.47619047619047616,0.47619047619047616,0.47619047619047616,0.47278911564625853,0.47278911564625853,0.47278911564625853,0.47278911564625853,0.47278911564625853,0.47278911564625853,0.46938775510204084,0.46598639455782315,0.46598639455782315,0.46258503401360546,0.46258503401360546,0.46258503401360546,0.46258503401360546,0.46258503401360546,0.46258503401360546,0.46258503401360546,0.46258503401360546,0.46258503401360546,0.46258503401360546,0.46258503401360546,0.46258503401360546,0.46258503401360546,0.46258503401360546,0.46258503401360546,0.46258503401360546,0.46258503401360546,0.46258503401360546,0.46258503401360546,0.46258503401360546,0.46258503401360546,0.46258503401360546,0.46258503401360546,0.46258503401360546,0.46258503401360546,0.46258503401360546,0.46258503401360546,0.46258503401360546,0.46258503401360546,0.46258503401360546,0.46258503401360546,0.46258503401360546,0.46258503401360546,0.46258503401360546,0.46258503401360546,0.46258503401360546,0.46258503401360546,0.46258503401360546,0.46258503401360546,0.46258503401360546,0.46258503401360546,0.46258503401360546,0.46258503401360546,0.46258503401360546,0.46258503401360546,0.45918367346938777,0.4557823129251701,0.4557823129251701,0.4557823129251701,0.4557823129251701,0.4557823129251701,0.4557823129251701,0.4557823129251701,0.4557823129251701,0.4557823129251701,0.4557823129251701,0.4557823129251701,0.4557823129251701,0.4557823129251701,0.4557823129251701,0.4557823129251701,0.4557823129251701,0.4557823129251701,0.4557823129251701,0.45918367346938777,0.45918367346938777,0.45918367346938777,0.45918367346938777,0.45918367346938777,0.45918367346938777,0.45918367346938777,0.45918367346938777,0.45918367346938777,0.45918367346938777,0.45918367346938777,0.45918367346938777,0.45918367346938777,0.45918367346938777,0.45918367346938777,0.45918367346938777,0.45918367346938777,0.45918367346938777,0.45918367346938777,0.45918367346938777,0.45918367346938777,0.45918367346938777,0.45918367346938777,0.45918367346938777,0.45918367346938777,0.45918367346938777,0.45918367346938777,0.45918367346938777,0.45918367346938777,0.45918367346938777,0.45918367346938777,0.45918367346938777,0.45918367346938777,0.45918367346938777,0.4557823129251701,0.4557823129251701,0.4489795918367347,0.445578231292517,0.4387755102040816,0.43197278911564624,0.4217687074829932,0.41496598639455784,0.41156462585034015,0.4013605442176871,0.391156462585034,0.38095238095238093,0.37755102040816324,0.3707482993197279,0.3673469387755102,0.3673469387755102,0.36394557823129253,0.36394557823129253,0.36394557823129253,0.36054421768707484,0.35714285714285715,0.35714285714285715,0.35714285714285715,0.35714285714285715,0.35714285714285715,0.35714285714285715,0.35714285714285715,0.35714285714285715,0.35714285714285715,0.35714285714285715,0.35714285714285715,0.35714285714285715,0.35714285714285715,0.35714285714285715,0.35714285714285715,0.35714285714285715,0.35714285714285715,0.35714285714285715,0.35714285714285715,0.35714285714285715,0.35714285714285715,0.35714285714285715,0.35714285714285715,0.35714285714285715,0.35714285714285715,0.35714285714285715,0.35714285714285715,0.35714285714285715,0.35714285714285715,0.35714285714285715,0.35714285714285715,0.35714285714285715,0.35714285714285715,0.35714285714285715,0.35714285714285715,0.35714285714285715,0.35714285714285715,0.35714285714285715,0.35714285714285715,0.35714285714285715,0.35714285714285715,0.35714285714285715,0.35374149659863946,0.35374149659863946,0.35374149659863946,0.35034013605442177,0.3469387755102041,0.336734693877551,0.32653061224489793,0.30612244897959184,0.2857142857142857,0.272108843537415,0.2108843537414966,0.12244897959183673,0.10884353741496598,0.09183673469387756,0.08503401360544217,0.0782312925170068,0.07482993197278912,0.07482993197278912,0.07142857142857142,0.07142857142857142,0.07142857142857142,0.06802721088435375,0.06802721088435375,0.06802721088435375,0.06802721088435375,0.06802721088435375,0.06802721088435375,0.06802721088435375,0.06802721088435375,0.06802721088435375,0.06802721088435375,0.06802721088435375,0.06802721088435375,0.07142857142857142,0.11224489795918367,0.17006802721088435,0.17687074829931973,0.19047619047619047,0.19727891156462585,0.20408163265306123,0.20748299319727892,0.2108843537414966,0.22108843537414966,0.23469387755102042,0.24489795918367346,0.25170068027210885,0.25510204081632654,0.2585034013605442,0.2619047619047619,0.2653061224489796,0.2653061224489796,0.2653061224489796,0.2653061224489796,0.2653061224489796,0.2687074829931973,0.2687074829931973,0.2687074829931973,0.2687074829931973,0.272108843537415,0.272108843537415,0.272108843537415,0.2755102040816326,0.2789115646258503,0.282312925170068,0.2857142857142857,0.2891156462585034,0.30272108843537415,0.30952380952380953,0.3163265306122449,0.3163265306122449,0.30612244897959184,0.282312925170068,0.2653061224489796,0.2585034013605442,0.25170068027210885,0.24489795918367346,0.24489795918367346,0.24149659863945577,0.23809523809523808,0.23809523809523808,0.23469387755102042,0.22789115646258504,0.22448979591836735,0.21768707482993196,0.2108843537414966,0.20068027210884354,0.19387755102040816,0.19047619047619047,0.19047619047619047,0.19047619047619047,0.19047619047619047,0.19047619047619047,0.19047619047619047,0.19047619047619047,0.19047619047619047,0.19047619047619047,0.19047619047619047,0.19047619047619047,0.19047619047619047,0.19047619047619047,0.19047619047619047,0.19047619047619047,0.19047619047619047,0.19047619047619047,0.19047619047619047,0.19047619047619047,0.19047619047619047,0.19047619047619047,0.19047619047619047,0.1870748299319728,0.1870748299319728,0.1870748299319728,0.1870748299319728,0.1870748299319728,0.1836734693877551,0.1836734693877551,0.1836734693877551,0.1836734693877551,0.1836734693877551,0.1836734693877551,0.1836734693877551,0.1836734693877551,0.1836734693877551,0.1836734693877551,0.1836734693877551,0.1836734693877551,0.1836734693877551,0.1836734693877551,0.1836734693877551,0.1836734693877551,0.1836734693877551,0.1836734693877551,0.1836734693877551,0.1836734693877551,0.1836734693877551,0.1870748299319728,0.19047619047619047,0.19047619047619047,0.19387755102040816,0.19387755102040816,0.19387755102040816,0.19387755102040816,0.19387755102040816,0.19387755102040816,0.19387755102040816,0.19387755102040816,0.19387755102040816,0.19387755102040816,0.19387755102040816,0.19387755102040816,0.19387755102040816,0.19387755102040816,0.19387755102040816,0.19387755102040816,0.19387755102040816,0.19387755102040816,0.19387755102040816,0.19387755102040816,0.19387755102040816,0.19387755102040816,0.19387755102040816,0.19387755102040816,0.19387755102040816,0.19387755102040816,0.19387755102040816,0.19387755102040816,0.19387755102040816,0.19387755102040816,0.19387755102040816,0.19387755102040816,0.19387755102040816,0.19387755102040816,0.19387755102040816,0.19387755102040816,0.19387755102040816,0.19387755102040816,0.19387755102040816,0.19387755102040816,0.19387755102040816,0.19387755102040816,0.19387755102040816,0.19387755102040816,0.19387755102040816,0.19387755102040816,0.19387755102040816,0.19387755102040816,0.19387755102040816,0.19387755102040816,0.19387755102040816,0.19387755102040816,0.19387755102040816,0.19387755102040816,0.19387755102040816,0.19387755102040816,0.19387755102040816,0.19387755102040816,0.19387755102040816,0.19387755102040816,0.19387755102040816,0.19387755102040816,0.19387755102040816,0.19387755102040816,0.19387755102040816,0.19387755102040816,0.19387755102040816,0.19387755102040816,0.19387755102040816,0.19387755102040816,0.19387755102040816,0.20068027210884354,0.20408163265306123,0.20408163265306123,0.1870748299319728,0.18027210884353742,0.17687074829931973,0.17346938775510204,0.16326530612244897,0.15306122448979592,0.14625850340136054,0.14285714285714285,0.13945578231292516,0.1360544217687075,0.1360544217687075,0.1326530612244898,0.1326530612244898,0.1326530612244898,0.1326530612244898,0.1326530612244898,0.1326530612244898,0.1326530612244898,0.1326530612244898,0.1326530612244898,0.1326530612244898,0.1326530612244898,0.1326530612244898,0.1326530612244898,0.1326530612244898,0.1326530612244898,0.1326530612244898,0.1326530612244898,0.1326530612244898,0.1326530612244898,0.13945578231292516,0.20068027210884354,0.2755102040816326,0.2857142857142857,0.29591836734693877,0.30272108843537415,0.30612244897959184,0.30952380952380953,0.3129251700680272,0.3129251700680272,0.3129251700680272,0.3129251700680272,0.3163265306122449,0.3163265306122449,0.3197278911564626,0.3197278911564626,0.3197278911564626,0.3231292517006803,0.32653061224489793,0.32653061224489793,0.32653061224489793,0.32653061224489793,0.32653061224489793,0.3299319727891156,0.3299319727891156,0.3299319727891156,0.3333333333333333,0.3401360544217687,0.36054421768707484,0.3741496598639456,0.3877551020408163,0.3979591836734694,0.4013605442176871,0.40476190476190477,0.41156462585034015,0.41496598639455784,0.41836734693877553,0.42517006802721086,0.42517006802721086,0.43197278911564624,0.43537414965986393,0.4387755102040816,0.445578231292517,0.4489795918367347,0.4557823129251701,0.46258503401360546,0.47619047619047616,0.47959183673469385,0.4897959183673469,0.5034013605442177,0.5102040816326531,0.5238095238095238,0.5272108843537415,0.5374149659863946,0.5408163265306123,0.5408163265306123,0.5476190476190477,0.5578231292517006,0.5612244897959183,0.5680272108843537,0.5680272108843537,0.5680272108843537,0.5680272108843537,0.5680272108843537,0.5680272108843537,0.5680272108843537,0.5680272108843537,0.5680272108843537,0.5680272108843537,0.5680272108843537,0.5680272108843537,0.5680272108843537,0.5680272108843537,0.5680272108843537,0.5680272108843537,0.5680272108843537,0.5680272108843537,0.5680272108843537,0.5680272108843537,0.5238095238095238,0.3673469387755102,0.2891156462585034,0.2789115646258503,0.2687074829931973,0.2585034013605442,0.25170068027210885,0.24829931972789115,0.24829931972789115,0.24829931972789115,0.24489795918367346,0.24489795918367346,0.24489795918367346,0.24489795918367346,0.24489795918367346,0.24489795918367346,0.24489795918367346,0.24489795918367346,0.24489795918367346,0.24489795918367346,0.24489795918367346,0.24489795918367346,0.24489795918367346,0.24489795918367346,0.24489795918367346,0.24489795918367346,0.24489795918367346,0.24489795918367346,0.24489795918367346,0.24489795918367346,0.24489795918367346,0.24489795918367346,0.24489795918367346,0.24489795918367346,0.24489795918367346,0.24489795918367346,0.24489795918367346,0.24489795918367346,0.24489795918367346,0.24489795918367346,0.24489795918367346,0.24489795918367346,0.24489795918367346,0.24489795918367346,0.24489795918367346,0.24489795918367346,0.24489795918367346,0.24489795918367346,0.24489795918367346,0.24489795918367346,0.24489795918367346,0.24489795918367346,0.24489795918367346,0.24489795918367346,0.24489795918367346,0.24489795918367346,0.24489795918367346,0.24489795918367346,0.24489795918367346,0.24489795918367346,0.24489795918367346,0.24489795918367346,0.24489795918367346,0.24489795918367346,0.24489795918367346,0.24489795918367346,0.24489795918367346,0.24489795918367346,0.24489795918367346,0.24489795918367346,0.24489795918367346,0.24489795918367346,0.24489795918367346,0.24489795918367346,0.24489795918367346,0.24489795918367346,0.24489795918367346,0.24489795918367346,0.24489795918367346,0.24489795918367346,0.24489795918367346,0.24489795918367346,0.24489795918367346,0.24489795918367346,0.24489795918367346,0.24489795918367346,0.24489795918367346,0.24489795918367346,0.24489795918367346,0.24489795918367346,0.24489795918367346,0.24489795918367346,0.24489795918367346,0.24489795918367346,0.24489795918367346,0.24489795918367346,0.24489795918367346,0.24489795918367346,0.24489795918367346,0.24489795918367346,0.24489795918367346,0.24489795918367346,0.24489795918367346,0.24489795918367346,0.24489795918367346,0.24489795918367346,0.24489795918367346,0.24489795918367346,0.24489795918367346,0.24489795918367346,0.24489795918367346,0.24489795918367346,0.24489795918367346,0.24489795918367346,0.24489795918367346,0.24489795918367346,0.24489795918367346,0.24489795918367346,0.24489795918367346,0.24489795918367346,0.24489795918367346,0.24489795918367346,0.24489795918367346,0.24489795918367346,0.24489795918367346,0.24489795918367346,0.24489795918367346,0.24489795918367346,0.24489795918367346,0.24489795918367346,0.24489795918367346,0.24489795918367346,0.24489795918367346,0.24489795918367346,0.24489795918367346,0.24489795918367346,0.24489795918367346,0.24489795918367346,0.24489795918367346,0.24489795918367346,0.24489795918367346,0.24489795918367346,0.24489795918367346,0.24489795918367346,0.24489795918367346,0.24489795918367346,0.24489795918367346,0.24489795918367346,0.24489795918367346,0.24489795918367346,0.24489795918367346,0.24489795918367346,0.24489795918367346,0.25510204081632654,0.2857142857142857,0.2925170068027211,0.29591836734693877,0.29591836734693877,0.30272108843537415,0.30272108843537415,0.30612244897959184,0.30612244897959184,0.30612244897959184,0.30612244897959184,0.30612244897959184,0.30612244897959184,0.3129251700680272,0.3163265306122449,0.3401360544217687,0.37755102040816324,0.391156462585034,0.3979591836734694,0.4013605442176871,0.40476190476190477,0.40816326530612246,0.40816326530612246,0.40816326530612246,0.41156462585034015,0.41156462585034015,0.41156462585034015,0.41156462585034015,0.41156462585034015,0.41496598639455784,0.41496598639455784,0.41496598639455784,0.41496598639455784,0.41496598639455784,0.41496598639455784,0.41496598639455784,0.41496598639455784,0.41496598639455784,0.41496598639455784,0.41496598639455784,0.41496598639455784,0.41496598639455784,0.41496598639455784,0.41496598639455784,0.41496598639455784,0.41496598639455784,0.41496598639455784,0.41496598639455784,0.41496598639455784,0.47619047619047616,0.7619047619047619,0.9285714285714286,0.9863945578231292,0.9931972789115646,1,1.0034013605442176,1.0034013605442176,1.0034013605442176,1.0034013605442176,1.0034013605442176,1.0034013605442176,1.0034013605442176,1.0034013605442176,1.0034013605442176,1.0034013605442176,1.0034013605442176,1.0034013605442176,1.0034013605442176,0.9965986394557823,0.7551020408163265,0.5918367346938775,0.3979591836734694,0.3231292517006803,0.30612244897959184,0.29591836734693877,0.2925170068027211,0.2891156462585034,0.2891156462585034,0.2857142857142857,0.2857142857142857,0.2857142857142857,0.2857142857142857,0.2857142857142857,0.2857142857142857,0.282312925170068,0.282312925170068,0.282312925170068,0.282312925170068,0.2789115646258503,0.2755102040816326,0.2687074829931973,0.2653061224489796,0.25170068027210885,0.24829931972789115,0.24149659863945577,0.24149659863945577,0.24149659863945577,0.23809523809523808,0.23809523809523808,0.23469387755102042,0.23469387755102042,0.23469387755102042,0.23469387755102042,0.23469387755102042,0.23469387755102042,0.23469387755102042,0.23469387755102042,0.23469387755102042,0.23469387755102042,0.23469387755102042,0.23469387755102042,0.23469387755102042,0.23469387755102042,0.23469387755102042,0.23129251700680273,0.22108843537414966,0.20748299319727892,0.1836734693877551,0.1836734693877551,0.1836734693877551,0.17346938775510204,0.17006802721088435,0.16666666666666666,0.16666666666666666,0.16666666666666666,0.16326530612244897,0.1598639455782313,0.1598639455782313,0.15306122448979592,0.14965986394557823,0.14285714285714285,0.14285714285714285,0.13945578231292516,0.1360544217687075,0.1360544217687075,0.1360544217687075,0.1326530612244898,0.1326530612244898,0.1326530612244898,0.1326530612244898,0.1292517006802721,0.1292517006802721,0.1292517006802721,0.1292517006802721,0.1292517006802721,0.1292517006802721,0.12585034013605442,0.12585034013605442,0.12585034013605442,0.12585034013605442,0.12585034013605442,0.12585034013605442,0.12585034013605442,0.12585034013605442,0.12585034013605442,0.12585034013605442,0.12585034013605442,0.12585034013605442,0.12585034013605442,0.12585034013605442,0.12585034013605442,0.12585034013605442,0.12585034013605442,0.12585034013605442,0.12585034013605442,0.12585034013605442,0.12585034013605442,0.12585034013605442,0.12585034013605442,0.12585034013605442,0.12585034013605442,0.12585034013605442,0.12585034013605442,0.12585034013605442,0.12585034013605442,0.12585034013605442,0.12585034013605442,0.12585034013605442,0.12585034013605442,0.12585034013605442,0.12585034013605442,0.12585034013605442,0.12585034013605442,0.12585034013605442,0.12585034013605442,0.12585034013605442,0.12585034013605442,0.12585034013605442,0.20408163265306123,0.3741496598639456,0.445578231292517,0.4557823129251701,0.47278911564625853,0.48639455782312924,0.5068027210884354,0.5136054421768708,0.5408163265306123,0.5578231292517006,0.5714285714285714,0.5816326530612245,0.5884353741496599,0.5986394557823129,0.6054421768707483,0.6054421768707483,0.6054421768707483,0.6054421768707483,0.6054421768707483,0.6054421768707483,0.6054421768707483,0.6054421768707483,0.6054421768707483,0.6054421768707483,0.6054421768707483,0.6054421768707483,0.6054421768707483,0.6054421768707483,0.6054421768707483,0.6054421768707483,0.6054421768707483,0.6054421768707483,0.6054421768707483,0.6054421768707483,0.6054421768707483,0.608843537414966,0.608843537414966,0.608843537414966,0.6122448979591837,0.6122448979591837,0.6122448979591837,0.6156462585034014,0.6156462585034014,0.5544217687074829,0.48299319727891155,0.45918367346938777,0.43197278911564624,0.43197278911564624,0.43197278911564624,0.43197278911564624,0.43197278911564624,0.43197278911564624,0.43197278911564624,0.43197278911564624,0.43197278911564624,0.43197278911564624,0.43197278911564624,0.43197278911564624,0.43197278911564624,0.43197278911564624,0.43197278911564624,0.43197278911564624,0.43197278911564624,0.43197278911564624,0.43197278911564624,0.43197278911564624,0.43197278911564624,0.41156462585034015,0.35714285714285715,0.3401360544217687,0.3299319727891156,0.32653061224489793,0.3163265306122449,0.3129251700680272,0.30612244897959184,0.30272108843537415,0.29931972789115646,0.29591836734693877,0.2891156462585034,0.2857142857142857,0.2789115646258503,0.272108843537415,0.2687074829931973,0.2687074829931973,0.2653061224489796,0.2653061224489796,0.2653061224489796,0.2619047619047619,0.2619047619047619,0.2619047619047619,0.2619047619047619,0.2619047619047619,0.2619047619047619,0.2619047619047619,0.2619047619047619,0.2619047619047619,0.2619047619047619,0.2619047619047619,0.2619047619047619,0.2619047619047619,0.2619047619047619,0.2619047619047619,0.2619047619047619,0.2619047619047619,0.2619047619047619,0.2619047619047619,0.2619047619047619,0.2619047619047619,0.2619047619047619,0.2619047619047619,0.2619047619047619,0.2619047619047619,0.2619047619047619,0.2619047619047619,0.2619047619047619,0.2619047619047619,0.2619047619047619,0.2619047619047619,0.2619047619047619,0.2619047619047619,0.2619047619047619,0.2619047619047619,0.2619047619047619,0.2619047619047619,0.2619047619047619,0.3945578231292517,0.5476190476190477,0.6564625850340136,0.6938775510204082,0.7687074829931972,0.7857142857142857,0.7959183673469388,0.7993197278911565,0.7993197278911565,0.7993197278911565,0.7993197278911565,0.7993197278911565,0.7993197278911565,0.7993197278911565,0.7993197278911565,0.7993197278911565,0.7993197278911565,0.7993197278911565,0.7993197278911565,0.8027210884353742,0.8061224489795918,0.8095238095238095,0.8129251700680272,0.8129251700680272,0.8163265306122449,0.8163265306122449,0.8197278911564626,0.8197278911564626,0.8197278911564626,0.8197278911564626,0.8197278911564626,0.8197278911564626,0.8197278911564626,0.8197278911564626,0.8197278911564626,0.8197278911564626,0.8197278911564626,0.8197278911564626,0.8197278911564626,0.8197278911564626,0.8197278911564626,0.7857142857142857,0.6768707482993197,0.5884353741496599,0.5612244897959183,0.5408163265306123,0.5340136054421769,0.5204081632653061,0.5034013605442177,0.4931972789115646,0.48639455782312924,0.47278911564625853,0.46258503401360546,0.4557823129251701,0.4523809523809524,0.4421768707482993,0.43537414965986393,0.42857142857142855,0.42517006802721086,0.41836734693877553,0.40476190476190477,0.3979591836734694,0.391156462585034,0.3877551020408163,0.3843537414965986,0.3843537414965986,0.3843537414965986,0.38095238095238093,0.38095238095238093,0.37755102040816324,0.3741496598639456,0.3741496598639456,0.3673469387755102,0.3673469387755102,0.3673469387755102,0.3673469387755102,0.3673469387755102,0.3673469387755102,0.3673469387755102,0.3673469387755102,0.3673469387755102,0.3673469387755102,0.3673469387755102,0.3673469387755102,0.3673469387755102,0.3673469387755102,0.3673469387755102,0.3673469387755102,0.3673469387755102,0.3673469387755102,0.3673469387755102,0.3673469387755102,0.5578231292517006,0.673469387755102,0.6938775510204082,0.7074829931972789,0.7108843537414966,0.7108843537414966,0.7142857142857143,0.7142857142857143,0.7142857142857143,0.7142857142857143,0.7142857142857143,0.7142857142857143,0.7142857142857143,0.7142857142857143,0.717687074829932,0.7244897959183674,0.7380952380952381,0.7517006802721088,0.782312925170068,0.8095238095238095,0.8231292517006803,0.8401360544217688,0.8435374149659864,0.8571428571428571,0.8639455782312925,0.8673469387755102,0.8673469387755102,0.8673469387755102,0.8673469387755102,0.8673469387755102,0.8673469387755102,0.8673469387755102,0.8673469387755102,0.8673469387755102,0.8673469387755102,0.8673469387755102,0.8673469387755102,0.8673469387755102,0.8673469387755102,0.8673469387755102,0.9047619047619048,0.9217687074829932,0.9251700680272109,0.9319727891156463,0.9319727891156463,0.935374149659864,0.9387755102040817,0.9387755102040817,0.9421768707482994,0.9421768707482994,0.9455782312925171,0.9455782312925171,0.9455782312925171,0.9489795918367347,0.9523809523809523,0.9523809523809523,0.9523809523809523,0.95578231292517,0.95578231292517,0.95578231292517,0.9625850340136054,0.9693877551020408,0.9897959183673469,1.0204081632653061,1.054421768707483,1.0782312925170068,1.0850340136054422,1.0918367346938775,1.0952380952380953,1.0952380952380953,1.098639455782313,1.098639455782313,1.1020408163265305,1.1054421768707483,1.1088435374149659,1.1122448979591837,1.1122448979591837,1.1122448979591837,1.1156462585034013,1.1156462585034013,1.1156462585034013,1.119047619047619,1.119047619047619,1.1224489795918366,1.1224489795918366,1.1224489795918366,1.1224489795918366,1.1224489795918366,1.1224489795918366,1.1224489795918366,1.1224489795918366,1.1224489795918366,1.1224489795918366,1.1224489795918366,1.1224489795918366,1.1224489795918366,1.1224489795918366,1.1224489795918366,1.1224489795918366,1.1224489795918366,1.1224489795918366,1.1224489795918366,1.1224489795918366,1.1224489795918366,1.1224489795918366,1.1224489795918366,1.1224489795918366,1.1224489795918366,1.1224489795918366,1.1224489795918366,1.1224489795918366,1.1224489795918366,1.1224489795918366,1.1224489795918366,1.1224489795918366,1.1224489795918366,1.1224489795918366,1.1224489795918366,1.1224489795918366,1.1224489795918366,1.1224489795918366,1.1224489795918366,1.1224489795918366,1.1224489795918366,1.1224489795918366,1.1224489795918366,1.1224489795918366,1.1224489795918366,1.1224489795918366,1.1224489795918366,1.1224489795918366,1.1224489795918366,1.1224489795918366,1.1224489795918366,1.1224489795918366,1.1224489795918366,1.1224489795918366,1.1224489795918366,1.1224489795918366,1.1224489795918366,1.1224489795918366,1.1224489795918366,1.1224489795918366,1.1224489795918366,1.1224489795918366,1.1224489795918366,1.1224489795918366,1.1224489795918366,1.1224489795918366,1.1224489795918366,1.1224489795918366,1.1224489795918366,1.1224489795918366,1.1224489795918366,1.1224489795918366,1.1224489795918366,1.1224489795918366,1.1224489795918366,1.1224489795918366,1.1224489795918366,1.1224489795918366,1.1224489795918366,1.1224489795918366,1.1224489795918366,1.1224489795918366,1.1224489795918366,1.1224489795918366,1.1224489795918366,1.1224489795918366,1.1224489795918366,1.1224489795918366,1.1224489795918366,1.1224489795918366,1.1224489795918366,1.1224489795918366,1.1224489795918366,1.1224489795918366,1.1224489795918366,1.1224489795918366,1.1224489795918366,1.1224489795918366,1.1224489795918366,1.1224489795918366,1.1224489795918366,1.1224489795918366,1.1224489795918366,1.1224489795918366,1.1224489795918366,1.1224489795918366,1.1224489795918366,1.1224489795918366,1.1224489795918366,1.1224489795918366,1.1224489795918366,1.1224489795918366,1.1224489795918366,1.1224489795918366,1.1224489795918366,1.1224489795918366,1.1224489795918366,1.1224489795918366,1.1224489795918366,1.1224489795918366,1.1224489795918366,1.1224489795918366,1.1224489795918366,1.1224489795918366,1.1224489795918366,1.1224489795918366,1.1224489795918366,1.1224489795918366,1.1224489795918366,1.1224489795918366,1.1224489795918366,1.1224489795918366,1.1224489795918366,1.1224489795918366,1.1224489795918366,1.1224489795918366,1.1224489795918366,1.1224489795918366,1.1224489795918366,1.1224489795918366,1.1224489795918366,1.1224489795918366,1.1224489795918366,1.1224489795918366,1.1224489795918366,1.1224489795918366,1.1224489795918366,1.1224489795918366,1.1224489795918366,1.1224489795918366,1.1224489795918366,1.1224489795918366,1.1224489795918366,1.1224489795918366,1.1224489795918366,1.1224489795918366,1.1224489795918366,1.1224489795918366,1.1224489795918366,1.1224489795918366,1.1224489795918366,1.1224489795918366,1.1224489795918366,1.1224489795918366,1.1224489795918366,1.1224489795918366,1.1224489795918366,1.1224489795918366,1.1224489795918366,1.1224489795918366,1.1224489795918366,1.1224489795918366,1.1224489795918366,1.1224489795918366,1.1224489795918366,1.1224489795918366,1.1224489795918366,1.1224489795918366,1.1224489795918366,1.1224489795918366,1.1224489795918366,1.1224489795918366,1.1224489795918366,1.1224489795918366,1.1224489795918366,1.1224489795918366,1.1224489795918366,1.1224489795918366,1.1224489795918366,1.1224489795918366,1.1224489795918366,1.1224489795918366,1.1224489795918366,1.1224489795918366,1.1224489795918366,1.1224489795918366,1.1224489795918366,1.1224489795918366,1.1224489795918366,1.1224489795918366,1.1224489795918366,1.1224489795918366,1.1224489795918366,1.1224489795918366,1.1224489795918366,1.1224489795918366,1.1224489795918366,1.1224489795918366,1.1224489795918366,1.1224489795918366,1.1224489795918366,1.1224489795918366,1.1224489795918366,1.1224489795918366,1.1224489795918366,1.1224489795918366,1.1224489795918366,1.1224489795918366,1.1224489795918366,1.1224489795918366,1.1224489795918366,1.1224489795918366,1.1224489795918366,1.1224489795918366,1.1224489795918366,1.1224489795918366,1.1224489795918366,1.1224489795918366,1.1224489795918366,1.1224489795918366,1.1224489795918366,1.1224489795918366,1.1224489795918366,1.1224489795918366,1.1224489795918366,1.1224489795918366,1.1224489795918366,1.1224489795918366,1.1224489795918366,1.1224489795918366,1.1224489795918366,1.1224489795918366,1.1224489795918366,1.1224489795918366,1.1224489795918366,1.1224489795918366,1.1224489795918366,1.1224489795918366,1.1224489795918366,1.1224489795918366,1.1224489795918366,1.1224489795918366,1.1224489795918366,1.1224489795918366,1.1224489795918366,1.1224489795918366,1.1224489795918366,1.1224489795918366,1.1224489795918366,1.1224489795918366,1.1224489795918366,1.1224489795918366,1.1224489795918366,1.1224489795918366,1.1224489795918366,1.1224489795918366,1.1224489795918366,1.1224489795918366,1.1224489795918366,1.1224489795918366,1.1224489795918366,1.1224489795918366,1.1224489795918366,1.1224489795918366,1.1224489795918366,1.1224489795918366,1