success,trial_type,trial_index,time_elapsed,internal_node_id,protocol_sum,subject_identifier,subject_sum,subject_pair,STUDY_ID,PROLIFIC_PID,SESSION_ID,practice_instructions,leaderboard_instructions,bonus,reveal_word,self_rating,confidence,view_history,rt,responses,question_order,correct,test_part,word,click_log,final_keyboard_state,num_clicks,points,cheat,response,position_RT,position,player,i_game,true_position,distance,last_word,stimulus,confidence_slider_self_response
1.0,fullscreen,0,4870,0.0-0.0,,519,"[124, 37, 42, 179, 52, 251, 143, 216, 142, 130, 66, 196, 151, 44, 33, 219, 156, 124, 224, 180, 124, 154, 204, 78, 191, 228, 12, 20, 97, 76, 183, 52]",259,66a3ed3c5d10d0e7d8a6b9da,66924bc95c72455b31b5c5ac,66a43fda3d240cbe9c57fc49,1,0,0,True,2,65,,,,,,,,,,,,,,,,,,,,,,
,instructions,1,15203,0.0-1.0,,519,"[124, 37, 42, 179, 52, 251, 143, 216, 142, 130, 66, 196, 151, 44, 33, 219, 156, 124, 224, 180, 124, 154, 204, 78, 191, 228, 12, 20, 97, 76, 183, 52]",259,66a3ed3c5d10d0e7d8a6b9da,66924bc95c72455b31b5c5ac,66a43fda3d240cbe9c57fc49,1,0,0,True,2,65,"[{""page_index"":0,""viewing_time"":10331}]",10331.0,,,,,,,,,,,,,,,,,,,,
,instructions,2,56289,0.0-2.0-0.0,,519,"[124, 37, 42, 179, 52, 251, 143, 216, 142, 130, 66, 196, 151, 44, 33, 219, 156, 124, 224, 180, 124, 154, 204, 78, 191, 228, 12, 20, 97, 76, 183, 52]",259,66a3ed3c5d10d0e7d8a6b9da,66924bc95c72455b31b5c5ac,66a43fda3d240cbe9c57fc49,1,0,0,True,2,65,"[{""page_index"":0,""viewing_time"":41086}]",41086.0,,,,,,,,,,,,,,,,,,,,
,survey-multi-choice,3,73724,0.0-2.0-1.0,,519,"[124, 37, 42, 179, 52, 251, 143, 216, 142, 130, 66, 196, 151, 44, 33, 219, 156, 124, 224, 180, 124, 154, 204, 78, 191, 228, 12, 20, 97, 76, 183, 52]",259,66a3ed3c5d10d0e7d8a6b9da,66924bc95c72455b31b5c5ac,66a43fda3d240cbe9c57fc49,1,0,0,True,2,65,,17346.0,"{""Q0"":""... reveal the word with as <b>few letter guesses</b> as possible""}",[0],1.0,multichoice_nonpretend,,,,,,,,,,,,,,,,
,instructions,4,77526,0.0-3.0,,519,"[124, 37, 42, 179, 52, 251, 143, 216, 142, 130, 66, 196, 151, 44, 33, 219, 156, 124, 224, 180, 124, 154, 204, 78, 191, 228, 12, 20, 97, 76, 183, 52]",259,66a3ed3c5d10d0e7d8a6b9da,66924bc95c72455b31b5c5ac,66a43fda3d240cbe9c57fc49,1,0,0,True,2,65,"[{""page_index"":0,""viewing_time"":3801}]",3801.0,,,,,,,,,,,,,,,,,,,,
,Hangman,5,167143,0.0-4.0,,519,"[124, 37, 42, 179, 52, 251, 143, 216, 142, 130, 66, 196, 151, 44, 33, 219, 156, 124, 224, 180, 124, 154, 204, 78, 191, 228, 12, 20, 97, 76, 183, 52]",259,66a3ed3c5d10d0e7d8a6b9da,66924bc95c72455b31b5c5ac,66a43fda3d240cbe9c57fc49,1,0,0,True,2,65,,,,,,,ZEBRA,"{'letter': ['', 'B', 'I', 'D', 'A', 'T', 'Z', 'E', 'R'], 't': [0, 28806, 34593, 59240, 63983, 66667, 79583, 82068, 87389], 'hit': [None, 1, 0, 0, 1, 0, 1, 1, 1], 'asked': ['', 'B', 'BI', 'BID', 'BIDA', 'BIDAT', 'BIDATZ', 'BIDATZE', 'BIDATZER'], 'word_state': ['_____', '__B__', '__B__', '__B__', '__B_A', '__B_A', 'Z_B_A', 'ZEB_A', 'ZEBRA']}","['B', 'I', 'D', 'A', 'T', 'Z', 'E', 'R']",8.0,12.0,0.0,,,,,,,,,,
,instructions,6,180937,0.0-5.0,,519,"[124, 37, 42, 179, 52, 251, 143, 216, 142, 130, 66, 196, 151, 44, 33, 219, 156, 124, 224, 180, 124, 154, 204, 78, 191, 228, 12, 20, 97, 76, 183, 52]",259,66a3ed3c5d10d0e7d8a6b9da,66924bc95c72455b31b5c5ac,66a43fda3d240cbe9c57fc49,1,0,0,True,2,65,"[{""page_index"":0,""viewing_time"":3616},{""page_index"":1,""viewing_time"":10177}]",13793.0,,,,,,,,,,,,,,,,,,,,
,survey-multi-choice,7,190607,0.0-6.0,,519,"[124, 37, 42, 179, 52, 251, 143, 216, 142, 130, 66, 196, 151, 44, 33, 219, 156, 124, 224, 180, 124, 154, 204, 78, 191, 228, 12, 20, 97, 76, 183, 52]",259,66a3ed3c5d10d0e7d8a6b9da,66924bc95c72455b31b5c5ac,66a43fda3d240cbe9c57fc49,1,0,0,True,2,65,,9668.0,"{""Q0"":""...from <b>a previous session</b> that is part of the upcoming tournament.""}",[0],0.0,multichoice_leaderboard,,,,,,,,,,,,,,,,
,instructions,8,192975,0.0-7.0-0.0,,519,"[124, 37, 42, 179, 52, 251, 143, 216, 142, 130, 66, 196, 151, 44, 33, 219, 156, 124, 224, 180, 124, 154, 204, 78, 191, 228, 12, 20, 97, 76, 183, 52]",259,66a3ed3c5d10d0e7d8a6b9da,66924bc95c72455b31b5c5ac,66a43fda3d240cbe9c57fc49,1,0,0,True,2,65,"[{""page_index"":0,""viewing_time"":2366}]",2366.0,,,,,,,,,,,,,,,,,,,,
,survey-multi-choice,9,198219,0.0-7.0-1.0,,519,"[124, 37, 42, 179, 52, 251, 143, 216, 142, 130, 66, 196, 151, 44, 33, 219, 156, 124, 224, 180, 124, 154, 204, 78, 191, 228, 12, 20, 97, 76, 183, 52]",259,66a3ed3c5d10d0e7d8a6b9da,66924bc95c72455b31b5c5ac,66a43fda3d240cbe9c57fc49,1,0,0,True,2,65,,5244.0,"{""Q0"":""...from the <b>upcoming tournament</b>.""}",[0],0.0,multichoice_leaderboard,,,,,,,,,,,,,,,,
,instructions,10,199803,0.0-7.1-0.1,,519,"[124, 37, 42, 179, 52, 251, 143, 216, 142, 130, 66, 196, 151, 44, 33, 219, 156, 124, 224, 180, 124, 154, 204, 78, 191, 228, 12, 20, 97, 76, 183, 52]",259,66a3ed3c5d10d0e7d8a6b9da,66924bc95c72455b31b5c5ac,66a43fda3d240cbe9c57fc49,1,0,0,True,2,65,"[{""page_index"":0,""viewing_time"":1584}]",1584.0,,,,,,,,,,,,,,,,,,,,
,survey-multi-choice,11,205302,0.0-7.1-1.1,,519,"[124, 37, 42, 179, 52, 251, 143, 216, 142, 130, 66, 196, 151, 44, 33, 219, 156, 124, 224, 180, 124, 154, 204, 78, 191, 228, 12, 20, 97, 76, 183, 52]",259,66a3ed3c5d10d0e7d8a6b9da,66924bc95c72455b31b5c5ac,66a43fda3d240cbe9c57fc49,1,0,0,True,2,65,,5497.0,"{""Q0"":""...from <b>a previous session</b> that is not part of the upcoming tournament.""}",[0],1.0,multichoice_leaderboard,,,,,,,,,,,,,,,,
,instructions,12,218628,0.0-8.0,,519,"[124, 37, 42, 179, 52, 251, 143, 216, 142, 130, 66, 196, 151, 44, 33, 219, 156, 124, 224, 180, 124, 154, 204, 78, 191, 228, 12, 20, 97, 76, 183, 52]",259,66a3ed3c5d10d0e7d8a6b9da,66924bc95c72455b31b5c5ac,66a43fda3d240cbe9c57fc49,1,0,0,True,2,65,"[{""page_index"":0,""viewing_time"":13325}]",13325.0,,,,,,,,,,,,,,,,,,,,
,survey-multi-choice,13,227253,0.0-9.0,,519,"[124, 37, 42, 179, 52, 251, 143, 216, 142, 130, 66, 196, 151, 44, 33, 219, 156, 124, 224, 180, 124, 154, 204, 78, 191, 228, 12, 20, 97, 76, 183, 52]",259,66a3ed3c5d10d0e7d8a6b9da,66924bc95c72455b31b5c5ac,66a43fda3d240cbe9c57fc49,1,0,0,True,2,65,,8625.0,"{""Q0"":""...players' leaderboard position (in terms of <b>points</b>) in an <b>upcoming tournament.</b>""}",[0],1.0,multichoice_tournament,,,,,,,,,,,,,,,,
,instructions,14,242068,0.0-11.0,,519,"[124, 37, 42, 179, 52, 251, 143, 216, 142, 130, 66, 196, 151, 44, 33, 219, 156, 124, 224, 180, 124, 154, 204, 78, 191, 228, 12, 20, 97, 76, 183, 52]",259,66a3ed3c5d10d0e7d8a6b9da,66924bc95c72455b31b5c5ac,66a43fda3d240cbe9c57fc49,1,0,0,True,2,65,"[{""page_index"":0,""viewing_time"":14813}]",14813.0,,,,,,,,,,,,,,,,,,,,
,instructions,15,262829,0.0-12.0-0.0,,519,"[124, 37, 42, 179, 52, 251, 143, 216, 142, 130, 66, 196, 151, 44, 33, 219, 156, 124, 224, 180, 124, 154, 204, 78, 191, 228, 12, 20, 97, 76, 183, 52]",259,66a3ed3c5d10d0e7d8a6b9da,66924bc95c72455b31b5c5ac,66a43fda3d240cbe9c57fc49,1,0,0,True,2,65,"[{""page_index"":0,""viewing_time"":20759}]",20759.0,,,,,,,,,,,,,,,,,,,,
,type-this,16,280203,0.0-12.0-1.0,,519,"[124, 37, 42, 179, 52, 251, 143, 216, 142, 130, 66, 196, 151, 44, 33, 219, 156, 124, 224, 180, 124, 154, 204, 78, 191, 228, 12, 20, 97, 76, 183, 52]",259,66a3ed3c5d10d0e7d8a6b9da,66924bc95c72455b31b5c5ac,66a43fda3d240cbe9c57fc49,1,0,0,True,2,65,,16766.0,['WRIST'],,,,,,,,,,WRIST,,,,,,,,,
,Hangman_replay,17,311852,0.0-12.0-2.0,,519,"[124, 37, 42, 179, 52, 251, 143, 216, 142, 130, 66, 196, 151, 44, 33, 219, 156, 124, 224, 180, 124, 154, 204, 78, 191, 228, 12, 20, 97, 76, 183, 52]",259,66a3ed3c5d10d0e7d8a6b9da,66924bc95c72455b31b5c5ac,66a43fda3d240cbe9c57fc49,1,0,0,True,2,65,,,,,,,WRIST,"{'letter': ['', 'E', 'A', 'I', 'S', 'W', 'R', 'T'], 't': [0, 6565, 9898, 12014, 20230, 25414, 27630, 29630], 'hit': [None, 0, 0, 1, 1, 1, 1, 1], 'asked': ['', 'E', 'EA', 'EAI', 'EAIS', 'EAISW', 'EAISWR', 'EAISWRT'], 'word_state': ['_____', '_____', '_____', '__I__', '__IS_', 'W_IS_', 'WRIS_', 'WRIST']}","['E', 'A', 'I', 'S', 'W', 'R', 'T']",7.0,13.0,0.0,,,,,,,,,,
,instructions,18,317027,0.0-12.0-3.0,,519,"[124, 37, 42, 179, 52, 251, 143, 216, 142, 130, 66, 196, 151, 44, 33, 219, 156, 124, 224, 180, 124, 154, 204, 78, 191, 228, 12, 20, 97, 76, 183, 52]",259,66a3ed3c5d10d0e7d8a6b9da,66924bc95c72455b31b5c5ac,66a43fda3d240cbe9c57fc49,1,0,0,True,2,65,"[{""page_index"":0,""viewing_time"":5175}]",5175.0,,,,,,,,,,,,,,,,,,,,
,Guess_leaderboard,19,328002,0.0-12.0-4.0,,519,"[124, 37, 42, 179, 52, 251, 143, 216, 142, 130, 66, 196, 151, 44, 33, 219, 156, 124, 224, 180, 124, 154, 204, 78, 191, 228, 12, 20, 97, 76, 183, 52]",259,66a3ed3c5d10d0e7d8a6b9da,66924bc95c72455b31b5c5ac,66a43fda3d240cbe9c57fc49,1,0,0,True,2,65,,,,,,,WRIST,,,,,,,10214.0,74.0,74.0,0.0,46.0,28.0,,,
,instructions,20,340578,0.0-12.0-0.1,,519,"[124, 37, 42, 179, 52, 251, 143, 216, 142, 130, 66, 196, 151, 44, 33, 219, 156, 124, 224, 180, 124, 154, 204, 78, 191, 228, 12, 20, 97, 76, 183, 52]",259,66a3ed3c5d10d0e7d8a6b9da,66924bc95c72455b31b5c5ac,66a43fda3d240cbe9c57fc49,1,0,0,True,2,65,"[{""page_index"":0,""viewing_time"":12575}]",12576.0,,,,,,,,,,,,,,,,,,,,
,type-this,21,350888,0.0-12.0-1.1,,519,"[124, 37, 42, 179, 52, 251, 143, 216, 142, 130, 66, 196, 151, 44, 33, 219, 156, 124, 224, 180, 124, 154, 204, 78, 191, 228, 12, 20, 97, 76, 183, 52]",259,66a3ed3c5d10d0e7d8a6b9da,66924bc95c72455b31b5c5ac,66a43fda3d240cbe9c57fc49,1,0,0,True,2,65,,9798.0,['HAWAII'],,,,,,,,,,HAWAII,,,,,,,,,
,Hangman_replay,22,406132,0.0-12.0-2.1,,519,"[124, 37, 42, 179, 52, 251, 143, 216, 142, 130, 66, 196, 151, 44, 33, 219, 156, 124, 224, 180, 124, 154, 204, 78, 191, 228, 12, 20, 97, 76, 183, 52]",259,66a3ed3c5d10d0e7d8a6b9da,66924bc95c72455b31b5c5ac,66a43fda3d240cbe9c57fc49,1,0,0,True,2,65,,,,,,,HAWAII,"{'letter': ['', 'A', 'K', 'H', 'W', 'I'], 't': [0, 20009, 34225, 46525, 50458, 53241], 'hit': [None, 2, 0, 1, 1, 2], 'asked': ['', 'A', 'AK', 'AKH', 'AKHW', 'AKHWI'], 'word_state': ['______', '_A_A__', '_A_A__', 'HA_A__', 'HAWA__', 'HAWAII']}","['A', 'K', 'H', 'W', 'I']",5.0,14.0,0.0,,,,,,,,,,
,instructions,23,411200,0.0-12.0-3.1,,519,"[124, 37, 42, 179, 52, 251, 143, 216, 142, 130, 66, 196, 151, 44, 33, 219, 156, 124, 224, 180, 124, 154, 204, 78, 191, 228, 12, 20, 97, 76, 183, 52]",259,66a3ed3c5d10d0e7d8a6b9da,66924bc95c72455b31b5c5ac,66a43fda3d240cbe9c57fc49,1,0,0,True,2,65,"[{""page_index"":0,""viewing_time"":5067}]",5067.0,,,,,,,,,,,,,,,,,,,,
,Guess_leaderboard,24,419765,0.0-12.0-4.1,,519,"[124, 37, 42, 179, 52, 251, 143, 216, 142, 130, 66, 196, 151, 44, 33, 219, 156, 124, 224, 180, 124, 154, 204, 78, 191, 228, 12, 20, 97, 76, 183, 52]",259,66a3ed3c5d10d0e7d8a6b9da,66924bc95c72455b31b5c5ac,66a43fda3d240cbe9c57fc49,1,0,0,True,2,65,,,,,,,HAWAII,,,,,,,7804.0,94.0,94.0,1.0,8.0,86.0,,,
,instructions,25,430703,0.0-12.0-0.2,,519,"[124, 37, 42, 179, 52, 251, 143, 216, 142, 130, 66, 196, 151, 44, 33, 219, 156, 124, 224, 180, 124, 154, 204, 78, 191, 228, 12, 20, 97, 76, 183, 52]",259,66a3ed3c5d10d0e7d8a6b9da,66924bc95c72455b31b5c5ac,66a43fda3d240cbe9c57fc49,1,0,0,True,2,65,"[{""page_index"":0,""viewing_time"":10938}]",10938.0,,,,,,,,,,,,,,,,,,,,
,type-this,26,443559,0.0-12.0-1.2,,519,"[124, 37, 42, 179, 52, 251, 143, 216, 142, 130, 66, 196, 151, 44, 33, 219, 156, 124, 224, 180, 124, 154, 204, 78, 191, 228, 12, 20, 97, 76, 183, 52]",259,66a3ed3c5d10d0e7d8a6b9da,66924bc95c72455b31b5c5ac,66a43fda3d240cbe9c57fc49,1,0,0,True,2,65,,12343.0,['THIRTY FOUR'],,,,,,,,,,THIRTY FOUR,,,,,,,,,
,Hangman_replay,27,465713,0.0-12.0-2.2,,519,"[124, 37, 42, 179, 52, 251, 143, 216, 142, 130, 66, 196, 151, 44, 33, 219, 156, 124, 224, 180, 124, 154, 204, 78, 191, 228, 12, 20, 97, 76, 183, 52]",259,66a3ed3c5d10d0e7d8a6b9da,66924bc95c72455b31b5c5ac,66a43fda3d240cbe9c57fc49,1,0,0,True,2,65,,,,,,,THIRTY FOUR,"{'letter': ['', 'T', 'W', 'H', 'I', 'Y', 'R', 'F', 'O', 'U'], 't': [0, 6703, 7686, 10753, 11820, 14853, 16836, 18852, 19419, 20152], 'hit': [None, 2, 0, 1, 1, 1, 2, 1, 1, 1], 'asked': ['', 'T', 'TW', 'TWH', 'TWHI', 'TWHIY', 'TWHIYR', 'TWHIYRF', 'TWHIYRFO', 'TWHIYRFOU'], 'word_state': ['______ ____', 'T___T_ ____', 'T___T_ ____', 'TH__T_ ____', 'THI_T_ ____', 'THI_TY ____', 'THIRTY ___R', 'THIRTY F__R', 'THIRTY FO_R', 'THIRTY FOUR']}","['T', 'W', 'H', 'I', 'Y', 'R', 'F', 'O', 'U']",9.0,14.0,0.0,,,,,,,,,,
,instructions,28,469928,0.0-12.0-3.2,,519,"[124, 37, 42, 179, 52, 251, 143, 216, 142, 130, 66, 196, 151, 44, 33, 219, 156, 124, 224, 180, 124, 154, 204, 78, 191, 228, 12, 20, 97, 76, 183, 52]",259,66a3ed3c5d10d0e7d8a6b9da,66924bc95c72455b31b5c5ac,66a43fda3d240cbe9c57fc49,1,0,0,True,2,65,"[{""page_index"":0,""viewing_time"":4213}]",4213.0,,,,,,,,,,,,,,,,,,,,
,Guess_leaderboard,29,475763,0.0-12.0-4.2,,519,"[124, 37, 42, 179, 52, 251, 143, 216, 142, 130, 66, 196, 151, 44, 33, 219, 156, 124, 224, 180, 124, 154, 204, 78, 191, 228, 12, 20, 97, 76, 183, 52]",259,66a3ed3c5d10d0e7d8a6b9da,66924bc95c72455b31b5c5ac,66a43fda3d240cbe9c57fc49,1,0,0,True,2,65,,,,,,,THIRTY FOUR,,,,,,,5074.0,42.0,42.0,2.0,86.0,44.0,,,
,instructions,30,481948,0.0-12.0-0.3,,519,"[124, 37, 42, 179, 52, 251, 143, 216, 142, 130, 66, 196, 151, 44, 33, 219, 156, 124, 224, 180, 124, 154, 204, 78, 191, 228, 12, 20, 97, 76, 183, 52]",259,66a3ed3c5d10d0e7d8a6b9da,66924bc95c72455b31b5c5ac,66a43fda3d240cbe9c57fc49,1,0,0,True,2,65,"[{""page_index"":0,""viewing_time"":6185}]",6185.0,,,,,,,,,,,,,,,,,,,,
,type-this,31,489798,0.0-12.0-1.3,,519,"[124, 37, 42, 179, 52, 251, 143, 216, 142, 130, 66, 196, 151, 44, 33, 219, 156, 124, 224, 180, 124, 154, 204, 78, 191, 228, 12, 20, 97, 76, 183, 52]",259,66a3ed3c5d10d0e7d8a6b9da,66924bc95c72455b31b5c5ac,66a43fda3d240cbe9c57fc49,1,0,0,True,2,65,,7345.0,['NECTARINE'],,,,,,,,,,NECTARINE,,,,,,,,,
,Hangman_replay,32,530896,0.0-12.0-2.3,,519,"[124, 37, 42, 179, 52, 251, 143, 216, 142, 130, 66, 196, 151, 44, 33, 219, 156, 124, 224, 180, 124, 154, 204, 78, 191, 228, 12, 20, 97, 76, 183, 52]",259,66a3ed3c5d10d0e7d8a6b9da,66924bc95c72455b31b5c5ac,66a43fda3d240cbe9c57fc49,1,0,0,True,2,65,,,,,,,NECTARINE,"{'letter': ['', 'A', 'E', 'R', 'O', 'S', 'T', 'N', 'C', 'I'], 't': [0, 3612, 5396, 12029, 22262, 25446, 27913, 37083, 38607, 39094], 'hit': [None, 1, 2, 1, 0, 0, 1, 2, 1, 1], 'asked': ['', 'A', 'AE', 'AER', 'AERO', 'AEROS', 'AEROST', 'AEROSTN', 'AEROSTNC', 'AEROSTNCI'], 'word_state': ['_________', '____A____', '_E__A___E', '_E__AR__E', '_E__AR__E', '_E__AR__E', '_E_TAR__E', 'NE_TAR_NE', 'NECTAR_NE', 'NECTARINE']}","['A', 'E', 'R', 'O', 'S', 'T', 'N', 'C', 'I']",9.0,13.0,0.0,,,,,,,,,,
,instructions,33,533392,0.0-12.0-3.3,,519,"[124, 37, 42, 179, 52, 251, 143, 216, 142, 130, 66, 196, 151, 44, 33, 219, 156, 124, 224, 180, 124, 154, 204, 78, 191, 228, 12, 20, 97, 76, 183, 52]",259,66a3ed3c5d10d0e7d8a6b9da,66924bc95c72455b31b5c5ac,66a43fda3d240cbe9c57fc49,1,0,0,True,2,65,"[{""page_index"":0,""viewing_time"":2495}]",2495.0,,,,,,,,,,,,,,,,,,,,
,Guess_leaderboard,34,538760,0.0-12.0-4.3,,519,"[124, 37, 42, 179, 52, 251, 143, 216, 142, 130, 66, 196, 151, 44, 33, 219, 156, 124, 224, 180, 124, 154, 204, 78, 191, 228, 12, 20, 97, 76, 183, 52]",259,66a3ed3c5d10d0e7d8a6b9da,66924bc95c72455b31b5c5ac,66a43fda3d240cbe9c57fc49,1,0,0,True,2,65,,,,,,,NECTARINE,,,,,,,4607.0,50.0,50.0,3.0,59.0,9.0,,,
,instructions,35,543715,0.0-12.0-0.4,,519,"[124, 37, 42, 179, 52, 251, 143, 216, 142, 130, 66, 196, 151, 44, 33, 219, 156, 124, 224, 180, 124, 154, 204, 78, 191, 228, 12, 20, 97, 76, 183, 52]",259,66a3ed3c5d10d0e7d8a6b9da,66924bc95c72455b31b5c5ac,66a43fda3d240cbe9c57fc49,1,0,0,True,2,65,"[{""page_index"":0,""viewing_time"":4954}]",4954.0,,,,,,,,,,,,,,,,,,,,
,type-this,36,549733,0.0-12.0-1.4,,519,"[124, 37, 42, 179, 52, 251, 143, 216, 142, 130, 66, 196, 151, 44, 33, 219, 156, 124, 224, 180, 124, 154, 204, 78, 191, 228, 12, 20, 97, 76, 183, 52]",259,66a3ed3c5d10d0e7d8a6b9da,66924bc95c72455b31b5c5ac,66a43fda3d240cbe9c57fc49,1,0,0,True,2,65,,5502.0,['SHAKIRA'],,,,,,,,,,SHAKIRA,,,,,,,,,
,Hangman_replay,37,602958,0.0-12.0-2.4,,519,"[124, 37, 42, 179, 52, 251, 143, 216, 142, 130, 66, 196, 151, 44, 33, 219, 156, 124, 224, 180, 124, 154, 204, 78, 191, 228, 12, 20, 97, 76, 183, 52]",259,66a3ed3c5d10d0e7d8a6b9da,66924bc95c72455b31b5c5ac,66a43fda3d240cbe9c57fc49,1,0,0,True,2,65,,,,,,,SHAKIRA,"{'letter': ['', 'I', 'S', 'T', 'O', 'A', 'E', 'H', 'K', 'R'], 't': [0, 11924, 21057, 25574, 28041, 30507, 44157, 47524, 49606, 51207], 'hit': [None, 1, 1, 0, 0, 2, 0, 1, 1, 1], 'asked': ['', 'I', 'IS', 'IST', 'ISTO', 'ISTOA', 'ISTOAE', 'ISTOAEH', 'ISTOAEHK', 'ISTOAEHKR'], 'word_state': ['_______', '____I__', 'S___I__', 'S___I__', 'S___I__', 'S_A_I_A', 'S_A_I_A', 'SHA_I_A', 'SHAKI_A', 'SHAKIRA']}","['I', 'S', 'T', 'O', 'A', 'E', 'H', 'K', 'R']",9.0,12.0,0.0,,,,,,,,,,
,instructions,38,604680,0.0-12.0-3.4,,519,"[124, 37, 42, 179, 52, 251, 143, 216, 142, 130, 66, 196, 151, 44, 33, 219, 156, 124, 224, 180, 124, 154, 204, 78, 191, 228, 12, 20, 97, 76, 183, 52]",259,66a3ed3c5d10d0e7d8a6b9da,66924bc95c72455b31b5c5ac,66a43fda3d240cbe9c57fc49,1,0,0,True,2,65,"[{""page_index"":0,""viewing_time"":1721}]",1721.0,,,,,,,,,,,,,,,,,,,,
,Guess_leaderboard,39,610774,0.0-12.0-4.4,,519,"[124, 37, 42, 179, 52, 251, 143, 216, 142, 130, 66, 196, 151, 44, 33, 219, 156, 124, 224, 180, 124, 154, 204, 78, 191, 228, 12, 20, 97, 76, 183, 52]",259,66a3ed3c5d10d0e7d8a6b9da,66924bc95c72455b31b5c5ac,66a43fda3d240cbe9c57fc49,1,0,0,True,2,65,,,,,,,SHAKIRA,,,,,,,5337.0,57.0,57.0,4.0,39.0,18.0,,,
,survey-text,40,621954,0.0-13.0,,519,"[124, 37, 42, 179, 52, 251, 143, 216, 142, 130, 66, 196, 151, 44, 33, 219, 156, 124, 224, 180, 124, 154, 204, 78, 191, 228, 12, 20, 97, 76, 183, 52]",259,66a3ed3c5d10d0e7d8a6b9da,66924bc95c72455b31b5c5ac,66a43fda3d240cbe9c57fc49,1,0,0,True,2,65,,11174.0,"{""Q0"":""SHAKIRA""}",,,,,,,,,,,,,,,,,shakira,,
,survey-multi-choice,41,636058,0.0-14.0,,519,"[124, 37, 42, 179, 52, 251, 143, 216, 142, 130, 66, 196, 151, 44, 33, 219, 156, 124, 224, 180, 124, 154, 204, 78, 191, 228, 12, 20, 97, 76, 183, 52]",259,66a3ed3c5d10d0e7d8a6b9da,66924bc95c72455b31b5c5ac,66a43fda3d240cbe9c57fc49,1,0,0,True,2,65,,14103.0,"{""Q0"":""2. I would be <b>second</b> out of the six of us.""}",[0],,self-rating,,,,,,,,,2.0,,,,,,,
,html-slider-response,42,642830,0.0-15.0,,519,"[124, 37, 42, 179, 52, 251, 143, 216, 142, 130, 66, 196, 151, 44, 33, 219, 156, 124, 224, 180, 124, 154, 204, 78, 191, 228, 12, 20, 97, 76, 183, 52]",259,66a3ed3c5d10d0e7d8a6b9da,66924bc95c72455b31b5c5ac,66a43fda3d240cbe9c57fc49,1,0,0,True,2,65,,6753.0,,,,,,,,,,,65,,,,,,,,"<p>Overall, how confident were you in your answer to this last question?</p>",65.0
,survey-text,43,672031,0.0-16.0,,519,"[124, 37, 42, 179, 52, 251, 143, 216, 142, 130, 66, 196, 151, 44, 33, 219, 156, 124, 224, 180, 124, 154, 204, 78, 191, 228, 12, 20, 97, 76, 183, 52]",259,66a3ed3c5d10d0e7d8a6b9da,66924bc95c72455b31b5c5ac,66a43fda3d240cbe9c57fc49,1,0,0,True,2,65,,28991.0,"{""Q0"":""TEST OUR MINDS HOW FAST""}",,,,,,,,,,,,,,,,,,,
,survey-text,44,683368,0.0-17.0,,519,"[124, 37, 42, 179, 52, 251, 143, 216, 142, 130, 66, 196, 151, 44, 33, 219, 156, 124, 224, 180, 124, 154, 204, 78, 191, 228, 12, 20, 97, 76, 183, 52]",259,66a3ed3c5d10d0e7d8a6b9da,66924bc95c72455b31b5c5ac,66a43fda3d240cbe9c57fc49,1,0,0,True,2,65,,11334.0,"{""Q0"":""NOT REALLY""}",,,,,,,,,,,,,,,,,,,
,instructions,45,706948,0.0-18.0,,519,"[124, 37, 42, 179, 52, 251, 143, 216, 142, 130, 66, 196, 151, 44, 33, 219, 156, 124, 224, 180, 124, 154, 204, 78, 191, 228, 12, 20, 97, 76, 183, 52]",259,66a3ed3c5d10d0e7d8a6b9da,66924bc95c72455b31b5c5ac,66a43fda3d240cbe9c57fc49,1,0,0,True,2,65,"[{""page_index"":0,""viewing_time"":23580}]",23580.0,,,,,,,,,,,,,,,,,,,,
