[{"success":true,"trial_type":"fullscreen","trial_index":0,"time_elapsed":3199,"internal_node_id":"0.0-0.0","protocol_sum":"","subject_identifier":512,"subject_sum":[81,232,234,40,11,68,225,105,52,212,214,17,144,31,61,58,252,65,120,152,64,172,223,248,25,66,194,246,80,9,205,82],"subject_pair":256,"STUDY_ID":"66a3ed3c5d10d0e7d8a6b9da","PROLIFIC_PID":"60ddfe929fff846f04cd2c95","SESSION_ID":"66a4267d573997c0bf761e13","practice_instructions":1,"leaderboard_instructions":1,"bonus":1,"reveal_word":false,"self_rating":"3","confidence":"78"},{"view_history":"[{\"page_index\":0,\"viewing_time\":9849}]","rt":9849,"trial_type":"instructions","trial_index":1,"time_elapsed":13048,"internal_node_id":"0.0-1.0","protocol_sum":"","subject_identifier":512,"subject_sum":[81,232,234,40,11,68,225,105,52,212,214,17,144,31,61,58,252,65,120,152,64,172,223,248,25,66,194,246,80,9,205,82],"subject_pair":256,"STUDY_ID":"66a3ed3c5d10d0e7d8a6b9da","PROLIFIC_PID":"60ddfe929fff846f04cd2c95","SESSION_ID":"66a4267d573997c0bf761e13","practice_instructions":1,"leaderboard_instructions":1,"bonus":1,"reveal_word":false,"self_rating":"3","confidence":"78"},{"view_history":"[{\"page_index\":0,\"viewing_time\":20853}]","rt":20853,"trial_type":"instructions","trial_index":2,"time_elapsed":33901,"internal_node_id":"0.0-2.0-0.0","protocol_sum":"","subject_identifier":512,"subject_sum":[81,232,234,40,11,68,225,105,52,212,214,17,144,31,61,58,252,65,120,152,64,172,223,248,25,66,194,246,80,9,205,82],"subject_pair":256,"STUDY_ID":"66a3ed3c5d10d0e7d8a6b9da","PROLIFIC_PID":"60ddfe929fff846f04cd2c95","SESSION_ID":"66a4267d573997c0bf761e13","practice_instructions":1,"leaderboard_instructions":1,"bonus":1,"reveal_word":false,"self_rating":"3","confidence":"78"},{"rt":12573,"responses":"{\"Q0\":\"... reveal the word with as <b>few letter guesses</b> as possible\"}","question_order":"[0]","trial_type":"survey-multi-choice","trial_index":3,"time_elapsed":46475,"internal_node_id":"0.0-2.0-1.0","protocol_sum":"","subject_identifier":512,"subject_sum":[81,232,234,40,11,68,225,105,52,212,214,17,144,31,61,58,252,65,120,152,64,172,223,248,25,66,194,246,80,9,205,82],"subject_pair":256,"correct":true,"test_part":"multichoice_nonpretend","STUDY_ID":"66a3ed3c5d10d0e7d8a6b9da","PROLIFIC_PID":"60ddfe929fff846f04cd2c95","SESSION_ID":"66a4267d573997c0bf761e13","practice_instructions":1,"leaderboard_instructions":1,"bonus":1,"reveal_word":false,"self_rating":"3","confidence":"78"},{"view_history":"[{\"page_index\":0,\"viewing_time\":2423}]","rt":2423,"trial_type":"instructions","trial_index":4,"time_elapsed":48899,"internal_node_id":"0.0-3.0","protocol_sum":"","subject_identifier":512,"subject_sum":[81,232,234,40,11,68,225,105,52,212,214,17,144,31,61,58,252,65,120,152,64,172,223,248,25,66,194,246,80,9,205,82],"subject_pair":256,"STUDY_ID":"66a3ed3c5d10d0e7d8a6b9da","PROLIFIC_PID":"60ddfe929fff846f04cd2c95","SESSION_ID":"66a4267d573997c0bf761e13","practice_instructions":1,"leaderboard_instructions":1,"bonus":1,"reveal_word":false,"self_rating":"3","confidence":"78"},{"word":"ZEBRA","click_log":{"letter":["","B","U","O","A","I","F","M","S","W","R","Z","E"],"t":[0,36022,40320,45435,47201,51904,53995,56413,58273,59916,65158,80931,82159],"hit":[null,1,0,0,1,0,0,0,0,0,1,1,1],"asked":["","B","BU","BUO","BUOA","BUOAI","BUOAIF","BUOAIFM","BUOAIFMS","BUOAIFMSW","BUOAIFMSWR","BUOAIFMSWRZ","BUOAIFMSWRZE"],"word_state":["_____","__B__","__B__","__B__","__B_A","__B_A","__B_A","__B_A","__B_A","__B_A","__BRA","Z_BRA","ZEBRA"]},"hover_log":{"letter":["?","?","?","?","?","?","?","?","?","?","?","?","?","?","U","V","W","?","?","?","?","?","?","?","?","?","?","?","?","?","?","?","?","?","?","?","?","?","?","?","?","?","?","?","?","?","?","?","?","?","?","?","?","?","?","?","?","?","?","?","?","?","?","?","?","?","?","?","?","?","?","?","?","?","?","?","?","?","?","?","?","?","?","?","?","?","?","?","?","?","?","?","?","?","?","?","?","?","?","?","?","?","?","?","?","?","?","?","?","?","?","?","?","?","?","?","?","?","?","?","?","?","?","?","?","?","?","?","?","?","?","?","?","?","?","?","?","?","?","?","?","?","?","?","?","?","?","?","?","?","?","?","?","?","?","?","?","?","?","?","?","?","?","?","?","?","?","?","?","?","?","?","I","H","?","?","?","?","?","?","?","?","?","?","?","?","?","?","?","?","?","?","?","?","?","?","?","?","?","?","?","?","?","?","?","?","?","?","?","?","?","?","?","?","?","?","?","?","?","?","?","?","?","?","?","?","?","?","?","?","?","?","?","?","?","?","?","?","?","?","?","?","?","?","?","?","?","?","?","?","?","?","?","?","?","?","?","?","?","?","?","?","?","?","?","?","?","?","?","?","?","?","?","?","?","?","?","?","?","?","?","?","?","?","?","?","?","?","?","?","?","?","?","?","?","?","?","?","?","?","?","?","?","?","?","?","?","?","?","?","?","?","?","?","?","?","?","?","?","?","?","?","?","?","?","?","?","?","?","?","?","?","?","?","?","?","?","?","?","?","?","?","?","?","?","?","?","?","?","?","?","?","?","?","?","?","?","?","?","?","?","?","?","?","?","?","?","?","?","?","?","?","?","?","?","?","?","?","?","?","?","?","?","?","?","?","?","?","?","?","?","?","?","?","?","?","?","?","?","?","?","?","?","?","?","?","?","?","?","?","?","?","?","?","?","?","?","?","?","?","?","?","?","?","?","?","?","?","?","?","?","?","?","?","?","?","?","?","?","?","?","?","?","?","?","?","?","?","?","?","?","?","?","?","?","?","?","?","?","?","?","?","?","?","?","?","?","?","?","?","?","?","?","?","?","?","?","?","?","?","?","?","?","?","?","?","?","?","?","?","?","?","?","?","?","?","?","?","?","?","?","?","?","?","?","?","?","?","?","?","?","?","?","?","?","?","?","?","?","?","?","?","?","?","?","?","?","?","?","?","?","?","?","?","?","?","?","?","?","?","?","?","?","?","?","?","?","?","?","?","?","?","?","?","?","?","?","?","?","?","?","?","?","?","?","?","?","?","?","?","?","?","?","?","?","?","?","?","?","?","?","?","?","?","?","?","?","?","?","?","?","?","?","?","?","?","?","?","?","?","?","?","?","?","?","?","?","?","?","?","?","?","?","?","?","?","?","?","?","?","?","?","?","?","?","?","?","?","?","?","?","?","?","?","?","?","?","?","?","?","?","?","?","?","?","?","?","?","?","?","?","?","?","?","?","?","?","?","?","?","?","?","?","?","?","?","?","?","?","?","?","?","?","?","?","?","?","?","?","?","?","?","?","?","?","?","?","?","?","?","?","?","?","?","?","?","?","?","?","?","?","?","?","?","?","?","?","?","?","?","?","?","?","?","?","?","?","?","?","?","?","?","?","?","?","?","?","?","?","?","?","?","?","?","?","?","?","?","?","?","?","?","?","?","?","?","?","?","?","?","?","?","?","?","?","?","?","?","?","?","?","?","?","?","?","?","?","?","?","?","?","?","?","?","?","?","?","?","?","?","?","?","?","?","?","?","?","?","?","?","?","?","?","?","?","?","?","?","?","?","?","?","?","?","?","?","?","?","?","?","?","?","?","?","?","?","?","?","?","?","?","?","?","?","?","?","?","?","?","?","?","?","?","?","?","?","?","?","?","?","?","?","?","?","?","?","?","?","?","?","?","?","?","?","?","?","?","?","?","?","?","?","?","?","?","?","?","?","?","?","?","?","?","?","?","?","?","?","?","?","?","?","?","?","?","?","?","?","?","?","?","?","?","?","?","?","?","?","?","?","?","?","?","?","?","?","?","?","?","?","?","?","?","?","?","?","?","?","?","?","?","?","?","?","?","?","?","?","?","?","?","?","?","?","?","?","?","?","?","?","?","?","?","?","?","?","?","?","?","?","?","?","?","?","?","?","?","?","?","?","?","?","?","?","?","?","?","?","?","?","?","?","?","?","?","?","?","?","?","?","?","?","?","?","?","?","?","?","?","?","?","?","?","?","?","?","?","?","?","?","?","?","?","?","?","?","?","?","?","?","?","?","?","?","?","?","?","?","?","?","?","?","?","?","?","?","?","?","?","?","?","?","?","?","?","?","?","?","?","?","?","?","?","?","?","?","?","?","?","?","?","?","?","?","?","?","?","?","?","?","?","?","?","?","?","?","?","?","?","?","?","?","?","?","?","?","?","?","?","?","?","?","?","?","?","?","?","?","?","?","?","?","?","?","?","?","?","?","?","?","?","?","?","?","?","?","?","?","?","?","?","?","?","?","?","?","?","?","?","?","?","?","?","?","?","?","?","?","?","?","?","?","?","?","?","?","?","?","?","?","?","?","?","?","?","?","?","?","?","?","?","?","?","?","?","?","?","?","?","?","?","?","?","?","?","?","?","?","?","?","?","?","?","?","?","?","?","?","?","?","?","?","?","?","?","?","?","?","?","?","?","?","?","?","?","?","?","?","?","?","?","?","?","?","?","?","?","?","?","?","?","?","?","?","?","?","?","?","?","?","?","?","?","?","?","?","?","?","?","?","?","?","?","?","?","?","?","?","?","?","?","?","?","?","?","?","?","?","?","?","?","?","?","?","?","?","?","?","?","?","?","?","?","?","?","?","?","?","?","?","?","?","?","?","?","?","?","?","?","?","?","?","?","?","?","?","?","?","?","?","?","?","?","?","?","?","?","?","?","?","?","?","?","?","?","?","?","?","?","?","?","?","?","?","?","?","?","?","?","?","?","?","?","?","?","?","?","?","?","?","?","?","?","?","?","?","?","D","D","?","?","?","?","?","?","?","?","?","?","?","?","?","E","E","E","E","E","?","?","F","F","F","F","F","F","F","F","F","F","F","F","F","F","F","F","F","F","F","F","F","F","F","F","F","F","F","F","F","F","?","?","G","G","G","G","G","G","G","G","G","G","G","G","G","G","G","G","G","G","G","G","G","G","G","G","G","G","G","G","G","G","G","G","G","G","G","G","G","G","G","G","G","G","G","G","G","G","G","G","G","G","G","G","G","G","G","G","G","G","G","G","G","G","G","G","G","G","G","G","G","G","G","G","G","G","G","G","G","G","G","G","G","G","G","G","G","G","G","G","G","G","G","G","G","G","G","G","G","G","G","G","G","G","G","G","G","G","G","G","G","G","G","G","G","G","G","G","G","G","G","G","G","G","G","G","G","G","G","G","G","G","G","G","G","G","G","G","G","G","G","G","G","G","G","G","G","G","G","G","G","G","G","G","G","G","G","G","G","G","G","G","G","G","G","G","G","G","G","G","G","G","G","G","G","G","G","G","G","G","G","G","G","G","G","G","G","G","G","G","G","G","G","G","G","G","G","G","G","G","G","G","G","G","G","G","G","G","G","G","G","G","G","G","G","G","G","G","G","G","G","G","G","G","G","G","G","G","G","G","G","G","G","G","G","G","G","G","G","G","G","G","G","G","G","G","G","G","G","G","G","G","G","G","G","G","G","G","G","G","G","G","G","G","G","G","G","G","G","G","G","G","G","G","G","G","G","G","G","G","G","G","G","G","G","G","G","G","G","G","G","G","G","G","G","G","G","G","G","G","G","G","G","G","G","?","?","?","?","?","?","?","?","?","?","?","?","?","?","?","?","?","?","?","?","?","?","?","?","?","?","?","?","?","?","?","?","?","R","R","R","R","R","R","R","R","R","R","R","R","R","R","R","R","R","R","R","R","R","R","R","R","R","R","R","R","R","R","R","R","R","R","R","R","R","R","R","R","R","R","R","R","R","R","R","R","R","R","R","R","R","R","R","R","R","R","R","R","R","R","R","R","R","R","R","R","R","R","R","R","R","R","R","R","R","R","R","?","?","?","?","?","?","?","?","?","?","?","?","?","?","?","?","?","?","?","?","?","?","?","?","?","?","?","?","?","?","?","?","?","?","?","?","?","?","?","?","?","?","?","?","?","?","?","?","?","?","?","?","?","?","?","?","?","?","?","?","?","?","?","?","?","?","?","?","?","?","?","?","?","?","?","?","?","?","?","?","?","?","?","?","?","?","?","?","?","?","?","?","?","?","?","?","?","?","?","?","?","?","?","?","?","?","?","?","?","?","?","?","?","?","?","?","?","?","?","?","?","?","?","?","?","?","?","?","?","?","?","?","?","?","?","?","?","?","?","?","?","?","?","?","?","?","?","?","?","?","?","?","?","?","?","?","?","?","?","?","?","?","?","?","?","?","?","?","?","?","?","?","?","?","?","?","?","?","?","?","?","?","?","?","?","?","?","?","?","?","?","?","?","?","?","?","?","?","?","?","?","?","?","?","?","?","?","?","?","?","?","?","?","?","?","?","?","?","?","?","?","?","?","?","?","?","P","P","P","?","?","?","?","X","X","X","X","?","?","?","?","?","?","G","G","G","G","G","G","G","G","G","G","G","G","G","G","G","G","G","G","G","G","?","?","?","?","?","?","?","?","?","?","?","?","?","F","F","F","F","?","E","E","E","E","?","?","D","D","D","D","D","D","D","D","D","D","D","D","D","D","D","D","D","D","?","?","?","?","?","?","?","?","?","?","?","C","C","C","C","C","C","?","?","?","?","?","?","?","B","B","B","B","B","B","B","B","B","B","B","B","B","B","B","B","B","B","B","B","B","B","B","B","B","B","B","B","B","B","B","B","B","B","B","B","B","B","B","B","B","B","B","B","B","B","B","B","B","B","B","B","B","B","B","B","B","B","B","B","B","B","B","B","B","B","B","B","B","B","B","B","B","B","B","B","B","B","B","B","B","B","B","B","B","B","B","B","B","B","B","B","B","B","B","B","B","B","B","B","B","?","?","?","?","?","?","?","?","?","?","?","?","?","?","?","?","?","?","?","?","?","?","?","?","?","?","?","?","?","?","?","?","?","?","?","?","?","?","?","?","?","?","?","?","?","?","?","?","?","?","?","?","?","?","?","?","?","?","?","?","?","?","?","?","?","?","?","?","?","?","?","?","?","?","?","?","?","?","?","?","?","?","?","?","?","?","?","?","?","?","?","?","?","?","?","?","?","?","?","?","?","?","?","?","D","D","D","D","D","D","?","C","C","C","C","C","C","C","C","C","C","C","C","C","C","C","?","?","?","?","?","?","?","?","?","?","?","?","?","?","?","?","?","?","?","?","?","L","L","L","L","?","?","?","?","?","?","?","U","U","U","U","U","U","U","U","U","U","U","U","U","U","U","U","U","U","U","U","U","U","U","U","U","U","U","U","U","U","U","U","U","U","U","U","U","U","U","U","U","U","U","U","U","U","U","U","U","U","U","U","U","?","V","V","?","W","W","X","X","?","Y","Y","Y","Y","Y","Y","Y","Y","Y","Y","Y","Y","Y","Y","Y","Y","Y","Y","Y","Y","Y","Y","Y","Y","Y","Y","Y","Y","Y","?","?","?","?","?","?","N","N","N","N","N","?","?","?","?","?","?","?","?","?","?","?","?","?","?","?","?","?","?","?","?","?","?","?","?","?","?","?","?","?","?","?","?","?","?","?","?","?","?","?","?","?","?","?","?","?","?","?","?","?","?","?","?","?","?","?","?","?","?","?","?","?","?","?","?","?","?","?","?","?","?","?","?","?","?","?","?","?","?","?","?","?","?","?","?","?","?","?","?","?","?","?","?","?","?","?","?","?","?","?","?","?","?","?","?","?","?","?","?","?","?","?","?","?","?","?","?","?","?","?","?","?","?","?","?","?","?","?","?","?","?","?","?","?","?","?","?","?","?","?","?","?","?","?","?","?","?","?","?","?","?","?","?","?","?","?","?","?","?","?","?","?","?","?","?","?","?","?","?","?","?","?","?","?","?","?","?","A","K","K","L","?","?","?","?","?","?","?","?","?","?","?","?","?","?","?","?","?","?","?","?","?","?","?","?","?","?","?","?","?","?","?","O","O","O","O","O","O","O","O","O","O","O","O","O","O","O","O","O","O","O","O","O","O","O","O","O","O","O","?","?","?","?","?","?","?","?","?","?","?","?","?","?","?","?","?","?","?","?","?","S","S","S","S","?","?","?","?","?","?","?","?","?","?","?","?","?","?","?","?","?","?","?","?","?","?","?","?","?","?","?","?","?","?","?","?","?","?","?","?","?","?","?","?","?","?","?","A","A","A","A","A","A","A","A","A","A","A","A","A","A","A","A","A","A","A","A","A","A","A","A","A","A","A","A","A","A","A","A","A","A","A","A","A","A","A","A","A","A","A","A","A","A","A","A","A","A","A","A","A","A","A","A","A","A","A","A","?","?","K","?","?","?","?","?","?","?","?","?","?","?","?","?","?","?","?","?","?","?","?","?","?","?","?","?","?","?","?","?","?","?","?","?","?","?","?","?","?","?","?","?","?","?","?","?","?","?","?","?","?","?","?","?","?","?","?","?","?","?","?","?","?","?","?","?","?","?","?","?","?","?","?","?","?","?","?","?","?","?","?","?","?","?","?","?","?","?","?","?","?","?","?","?","?","?","?","?","?","?","?","?","?","?","?","?","?","?","?","?","?","?","?","?","?","?","?","?","?","?","?","?","?","?","?","?","?","?","?","?","?","?","?","?","?","?","?","?","?","?","?","?","?","?","?","?","?","?","?","?","?","?","?","?","?","?","?","?","?","?","?","?","?","?","?","?","?","?","?","?","?","?","?","?","?","?","?","?","?","?","?","?","?","?","?","?","?","?","?","?","?","?","?","?","?","?","?","?","?","?","?","?","?","?","?","?","?","?","?","?","?","?","?","?","?","?","?","?","?","?","?","?","?","?","?","I","I","I","I","I","I","I","I","I","I","I","I","I","I","I","I","I","I","I","I","I","I","I","I","I","I","I","I","I","?","?","?","?","?","?","?","?","?","?","?","?","?","?","?","?","?","?","?","?","?","?","?","?","?","?","?","?","?","?","?","?","?","?","?","?","?","?","?","?","?","?","?","?","?","?","?","?","?","?","?","?","?","?","?","?","?","?","?","?","?","?","?","?","?","R","?","Q","?","?","?","H","H","H","H","?","G","G","G","G","G","G","G","G","G","G","G","G","G","G","G","G","G","G","G","?","?","?","?","F","F","F","F","F","F","F","F","F","F","F","F","F","F","F","F","F","F","F","F","F","F","F","F","F","F","F","?","?","?","O","?","?","?","?","?","?","?","?","?","?","?","?","?","?","?","?","?","?","?","?","?","?","?","?","?","?","?","?","?","?","?","?","?","?","?","?","?","?","?","?","?","O","O","O","O","O","O","?","?","?","?","?","?","?","?","?","?","?","?","?","?","?","?","?","?","M","M","M","M","M","?","?","?","?","?","?","?","?","?","?","?","?","?","?","?","?","?","?","?","M","M","M","M","M","M","?","?","?","?","?","?","?","?","?","?","?","?","?","?","?","?","?","?","?","?","?","M","M","M","M","M","M","M","M","M","M","M","M","M","M","M","M","M","M","M","M","M","M","M","M","M","M","M","M","M","M","M","M","M","M","M","M","M","M","M","M","M","M","M","M","M","M","M","M","?","?","V","?","?","?","?","?","?","?","?","?","?","?","?","?","?","?","?","?","?","?","?","?","?","?","?","?","?","?","S","S","S","S","S","S","S","S","S","S","S","S","S","S","S","?","?","?","?","J","J","J","J","J","J","J","J","J","J","J","?","?","?","?","S","S","S","S","S","S","S","S","S","S","S","S","S","S","S","S","S","S","S","S","S","S","S","S","S","S","S","S","S","S","S","S","S","S","S","S","S","S","S","S","S","S","S","S","S","S","S","S","S","S","S","S","S","S","S","S","S","S","S","S","S","S","S","S","T","T","T","?","U","?","?","?","?","?","?","?","?","?","?","?","?","?","?","?","?","?","?","?","?","?","?","X","X","X","X","X","?","W","W","W","W","W","W","W","W","W","W","W","W","W","W","W","W","W","W","W","W","W","W","W","W","W","W","W","?","?","?","?","?","?","?","?","?","?","?","?","?","?","?","?","?","?","?","?","?","?","?","?","?","?","?","?","?","?","?","?","?","?","?","?","?","?","?","?","?","?","?","?","?","?","?","?","?","?","?","?","?","?","?","?","?","?","?","?","?","?","?","?","?","?","?","?","?","?","?","?","?","?","?","?","?","?","?","?","?","?","?","?","?","?","?","?","?","?","?","?","?","?","?","?","?","?","?","?","?","?","?","?","?","?","?","?","?","?","?","?","?","?","?","?","?","?","?","?","?","?","?","?","?","?","?","?","?","?","?","?","?","?","?","?","?","?","?","?","?","?","?","?","?","?","?","?","?","?","?","?","?","?","?","?","?","?","?","?","?","?","?","?","?","?","?","?","?","?","?","?","?","?","?","?","?","?","?","?","?","?","?","?","?","?","X","X","?","?","?","?","?","O","O","O","O","O","O","O","O","O","O","?","?","?","?","?","?","?","?","?","?","?","?","?","?","P","P","P","P","P","P","P","P","P","P","P","P","P","P","P","P","P","P","P","P","P","P","P","P","P","P","P","P","P","P","P","P","?","Q","Q","Q","Q","Q","Q","Q","Q","Q","Q","Q","Q","Q","Q","Q","Q","Q","Q","Q","Q","Q","?","?","R","R","R","R","R","R","R","R","R","R","R","R","R","R","R","R","R","R","R","R","R","R","R","R","R","R","R","R","R","R","R","R","R","R","R","R","R","R","R","R","R","R","R","R","R","R","R","R","R","R","R","R","R","R","R","R","R","R","R","R","R","R","R","R","R","R","R","R","R","R","R","R","R","R","R","R","R","R","R","R","R","R","R","R","R","R","R","R","R","R","R","R","R","R","R","R","R","R","R","R","R","R","R","R","R","R","R","R","R","R","R","R","R","R","R","R","R","R","R","R","R","R","R","R","R","R","R","R","R","R","R","R","R","R","R","R","R","R","R","R","R","R","R","R","R","R","R","R","R","R","R","R","R","R","R","R","R","R","R","R","R","R","R","R","R","R","R","R","R","R","R","R","R","R","R","R","R","R","R","R","R","R","R","R","R","R","R","R","?","Q","P","O","O","?","?","?","?","?","?","O","P","Q","R","?","?","?","?","?","?","?","?","?","?","?","?","?","?","?","?","?","?","?","?","?","?","?","?","?","?","?","?","?","?","?","?","?","?","?","?","?","?","?","?","?","?","?","?","?","?","?","?","?","?","?","?","?","?","?","?","?","?","?","?","?","?","?","?","?","?","?","?","?","?","?","?","?","?","?","?","?","?","?","?","?","?","?","?","?","?","?","?","?","?","?","?","?","?","?","?","?","?","?","?","?","?","?","?","?","?","?","?","?","?","?","?","?","?","?","?","?","?","?","?","?","?","?","?","?","?","?","?","?","?","?","?","?","?","?","?","?","?","?","?","?","?","?","?","?","?","?","?","?","?","?","?","?","?","?","?","?","?","?","?","?","?","?","?","?","?","?","?","?","?","?","?","?","?","?","?","?","?","?","?","?","?","?","?","?","?","?","?","?","?","?","?","?","?","?","?","?","?","?","?","?","?","?","?","?","?","?","?","?","?","?","?","?","?","?","?","?","?","?","?","?","?","?","?","?","?","?","?","?","?","?","?","?","?","?","?","?","?","?","?","?","?","?","?","?","?","?","?","?","?","?","?","?","?","?","?","?","?","?","?","?","?","?","?","?","?","?","?","?","?","?","?","?","?","?","?","?","?","?","?","?","?","?","?","?","?","?","?","?","?","?","?","?","?","?","?","?","?","?","?","?","?","?","?","?","?","?","?","?","?","?","?","?","?","?","?","?","?","?","?","?","?","?","?","?","?","?","?","?","?","?","?","?","?","?","?","?","?","?","?","?","?","?","?","?","?","?","?","?","?","?","?","?","?","?","?","?","?","?","?","?","?","?","?","?","?","?","?","?","?","?","?","?","?","?","?","?","?","?","?","?","?","?","?","?","?","?","?","?","?","?","?","?","?","?","?","?","?","?","?","?","?","?","?","?","?","?","?","?","?","?","?","?","?","?","?","?","?","?","?","?","?","?","?","?","?","?","?","?","?","?","?","?","?","?","?","?","?","?","?","?","?","?","?","?","?","?","?","?","?","?","?","?","?","?","?","?","?","?","?","?","?","?","?","?","?","?","?","?","?","?","?","?","?","?","?","?","?","?","?","?","?","?","?","?","?","?","?","?","?","?","?","?","?","?","?","?","?","?","?","?","?","?","?","?","?","?","?","?","?","?","?","?","?","?","?","?","?","?","?","?","?","?","?","?","?","?","?","?","?","?","?","?","?","?","?","?","?","?","?","?","?","?","?","?","?","?","?","?","?","?","?","?","?","?","?","?","?","?","?","?","?","?","?","?","?","?","?","?","?","?","?","?","?","?","?","?","?","?","?","?","?","?","?","?","?","?","?","?","?","?","?","?","?","?","?","?","?","?","?","?","?","?","?","?","?","?","?","?","?","?","?","?","?","?","?","?","?","?","?","?","?","?","?","?","?","?","?","?","?","?","?","?","?","?","?","?","?","?","?","?","?","?","?","?","?","?","?","?","?","?","?","?","?","?","?","?","?","?","?","?","?","?","?","?","?","?","?","?","?","?","?","?","?","?","?","?","?","?","?","?","?","?","?","?","?","?","?","?","?","?","?","?","?","?","?","?","?","?","?","?","?","?","?","?","?","?","?","?","?","?","?","?","?","?","?","?","?","?","?","?","?","?","?","?","G","G","G","?","?","O","O","O","?","?","?","W","W","W","W","W","W","W","W","W","?","?","?","?","?","W","W","Y","?","Z","Z","Z","Z","Z","Z","Z","Z","Z","Z","Z","Z","Z","Z","Z","Z","Z","Z","Z","Z","Z","Z","Z","Z","Z","Z","Z","Z","Z","Z","Z","Z","Z","Z","Z","Z","Z","?","Y","?","X","?","?","N","N","N","N","N","?","?","?","?","?","?","?","?","?","D","D","D","D","D","D","D","D","D","D","D","E","E","E","E","E","E","E","E","E","E","E","E","E","E","E","E","E","E","E","E","E","E","E","E","E","E","E","E","E","E","E","E","E","E","E","E","E","N","?","?","?","?","?","?","?","?","?","?","?","?","?","?","?","?","?","?","?","?","?","?","?","?","?","?","?","?","?","?","?","?","?","?","?","?","?","?","?","?","?","?","?","?","?","?","?","?","?","?","?","?","?","?","?","?","?","?","?","?","?","?","?","?","?","?","?","?","?","?","?","?","?","?","?","?","?","?","?","?","?","?","?","?","?","?","?","?","?","?","?","?","?","?","?","?","?","?","?","?","?","?","?","?","?","?","?","?","?"],"t":[30,44,61,77,94,110,127,144,161,178,194,211,227,243,261,277,294,310,326,344,360,377,393,411,428,444,460,477,494,510,527,544,561,577,593,610,627,643,660,677,694,710,727,744,761,777,794,811,828,844,860,878,893,910,927,944,960,977,994,1011,1027,1043,1061,1077,1094,1110,1127,1144,1160,1178,1194,1211,1227,1243,1261,1277,1294,1311,1328,1344,1361,1377,1394,1411,1428,1444,1461,1478,1494,1511,1528,1545,1561,1578,1595,1611,1628,1644,1661,1678,1695,1711,1728,1745,1761,1778,1794,1812,1827,1844,1861,1877,1895,1911,1928,1944,1962,1978,1995,2012,2028,2045,2062,2078,2095,2112,2128,2144,2162,2178,2195,2211,2228,2245,2261,2279,2295,2312,2328,2345,2362,2378,2395,2412,2429,2445,2462,2479,2495,2512,2528,2545,2562,2579,2595,2612,2629,2645,2661,2679,2695,2711,2728,2745,2761,2778,2796,2812,2829,2846,2862,2879,2895,2912,2929,2946,2962,2978,2996,3013,3029,3045,3063,3079,3095,3113,3129,3146,3162,3179,3196,3213,3229,3245,3262,3279,3296,3312,3330,3346,3362,3379,3396,3412,3429,3446,3462,3479,3496,3512,3529,3546,3563,3579,3596,3613,3629,3646,3663,3680,3696,3713,3730,3746,3763,3780,3796,3812,3830,3846,3863,3880,3896,3913,3930,3947,3963,3980,3996,4013,4030,4046,4063,4079,4097,4113,4130,4147,4163,4179,4196,4214,4230,4247,4263,4280,4297,4313,4330,4346,4363,4380,4397,4414,4430,4446,4464,4479,4497,4514,4530,4547,4563,4581,4597,4613,4631,4647,4663,4680,4697,4713,4730,4747,4763,4780,4797,4813,4830,4847,4863,4880,4897,4914,4930,4948,4964,4981,4997,5014,5030,5047,5064,5081,5098,5114,5130,5147,5164,5181,5197,5214,5231,5247,5264,5280,5297,5314,5331,5347,5364,5381,5397,5415,5431,5447,5464,5481,5498,5515,5531,5548,5564,5581,5598,5615,5631,5647,5665,5681,5698,5715,5731,5748,5765,5781,5798,5815,5831,5847,5865,5881,5898,5914,5931,5948,5965,5982,5998,6014,6031,6049,6064,6082,6098,6114,6132,6148,6165,6181,6198,6214,6232,6248,6264,6281,6298,6315,6332,6348,6365,6381,6398,6415,6432,6448,6465,6482,6498,6515,6531,6549,6565,6582,6599,6615,6632,6649,6666,6681,6698,6715,6732,6749,6765,6782,6798,6816,6832,6848,6866,6882,6899,6915,6932,6948,6965,6982,6998,7016,7032,7049,7065,7083,7099,7116,7133,7149,7165,7182,7199,7215,7232,7249,7265,7283,7299,7316,7332,7349,7366,7382,7400,7416,7432,7449,7466,7483,7499,7516,7532,7549,7566,7583,7599,7616,7633,7650,7666,7683,7699,7717,7733,7750,7766,7783,7800,7816,7833,7850,7867,7883,7900,7916,7933,7950,7966,7984,8000,8016,8033,8050,8066,8083,8099,8117,8133,8150,8166,8183,8200,8216,8233,8250,8266,8283,8300,8317,8333,8350,8367,8383,8400,8417,8434,8450,8466,8484,8500,8517,8533,8550,8566,8584,8600,8617,8633,8651,8667,8684,8701,8716,8734,8750,8767,8784,8800,8817,8833,8851,8867,8884,8900,8917,8934,8951,8968,8984,9000,9017,9034,9050,9068,9084,9100,9118,9134,9150,9167,9184,9201,9217,9234,9251,9267,9284,9301,9318,9334,9351,9367,9384,9401,9418,9434,9451,9468,9484,9501,9518,9534,9551,9568,9584,9601,9618,9634,9651,9668,9684,9701,9718,9734,9751,9768,9785,9801,9819,9835,9851,9868,9885,9901,9918,9934,9951,9968,9984,10001,10017,10035,10051,10069,10085,10101,10118,10134,10152,10169,10185,10202,10218,10235,10251,10268,10284,10301,10318,10335,10351,10368,10385,10402,10418,10435,10451,10469,10485,10502,10518,10535,10552,10568,10585,10602,10619,10635,10652,10669,10685,10701,10719,10736,10752,10768,10785,10802,10819,10835,10853,10868,10885,10902,10919,10936,10952,10968,10985,11002,11019,11036,11053,11069,11086,11102,11119,11135,11152,11169,11186,11203,11219,11236,11252,11269,11286,11303,11319,11336,11353,11369,11386,11402,11420,11435,11452,11469,11486,11503,11519,11536,11553,11569,11586,11603,11620,11636,11653,11669,11685,11703,11719,11736,11753,11770,11786,11803,11820,11837,11853,11869,11887,11903,11920,11937,11953,11970,11986,12003,12020,12036,12053,12070,12087,12103,12120,12136,12153,12169,12186,12203,12220,12237,12253,12270,12287,12303,12319,12337,12354,12370,12386,12403,12420,12436,12453,12470,12487,12503,12520,12537,12553,12570,12586,12604,12621,12636,12653,12670,12687,12703,12720,12737,12754,12770,12787,12804,12821,12837,12854,12871,12887,12903,12920,12937,12954,12970,12988,13003,13020,13037,13054,13071,13087,13104,13121,13137,13154,13170,13188,13204,13220,13237,13254,13270,13287,13304,13321,13338,13354,13371,13388,13404,13421,13437,13455,13471,13488,13504,13520,13538,13554,13571,13588,13605,13621,13638,13655,13672,13688,13704,13722,13738,13754,13771,13788,13804,13821,13838,13855,13871,13887,13905,13921,13938,13955,13971,13989,14004,14021,14039,14055,14071,14088,14105,14121,14138,14155,14171,14188,14204,14221,14238,14255,14271,14292,14306,14322,14338,14355,14372,14388,14405,14421,14438,14456,14472,14488,14505,14522,14538,14555,14572,14589,14605,14621,14639,14655,14672,14688,14705,14722,14738,14756,14772,14789,14805,14822,14839,14855,14872,14888,14905,14922,14939,14955,14972,14989,15006,15022,15039,15056,15072,15089,15105,15123,15139,15156,15172,15189,15206,15222,15238,15256,15272,15289,15306,15323,15339,15356,15372,15389,15406,15423,15439,15456,15473,15489,15506,15523,15539,15556,15573,15590,15606,15623,15640,15656,15673,15690,15707,15723,15739,15756,15773,15790,15807,15823,15840,15857,15872,15889,15907,15923,15939,15956,15973,15989,16007,16023,16040,16057,16073,16089,16106,16123,16139,16157,16173,16190,16206,16224,16240,16256,16273,16289,16306,16323,16340,16356,16373,16390,16406,16424,16440,16457,16473,16490,16507,16523,16541,16556,16573,16590,16607,16623,16640,16657,16673,16690,16707,16725,16740,16757,16774,16790,16808,16824,16840,16857,16874,16891,16907,16924,16940,16957,16974,16991,17007,17024,17041,17057,17073,17091,17107,17124,17141,17158,17174,17190,17207,17224,17241,17259,17274,17291,17308,17324,17341,17358,17374,17390,17408,17424,17441,17458,17475,17491,17507,17525,17541,17558,17574,17591,17608,17625,17641,17658,17674,17691,17708,17724,17741,17758,17774,17791,17808,17825,17841,17858,17875,17891,17909,17924,17942,17958,17975,17991,18009,18025,18041,18059,18075,18091,18109,18124,18141,18158,18175,18191,18208,18225,18241,18259,18275,18292,18308,18325,18342,18359,18375,18391,18408,18425,18442,18459,18475,18492,18508,18525,18542,18559,18575,18592,18609,18625,18642,18659,18675,18692,18709,18725,18742,18759,18775,18792,18809,18826,18842,18859,18875,18892,18909,18926,18942,18959,18976,18992,19009,19026,19042,19059,19076,19092,19109,19126,19143,19159,19175,19192,19209,19226,19242,19260,19275,19292,19309,19325,19343,19359,19375,19393,19409,19426,19442,19459,19476,19493,19510,19527,19543,19559,19576,19592,19610,19626,19642,19659,19676,19693,19710,19726,19743,19760,19777,19792,19810,19826,19843,19860,19876,19893,19909,19926,19943,19960,19977,19993,20010,20027,20043,20060,20077,20093,20109,20127,20143,20159,20176,20194,20210,20227,20244,20260,20276,20293,20311,20327,20344,20360,20376,20393,20410,20427,20444,20460,20476,20493,20510,20527,20543,20559,20577,20593,20610,20627,20643,20660,20677,20694,20711,20727,20743,20760,20778,20794,20810,20826,20843,20860,20877,20894,20910,20927,20944,20961,20977,20994,21010,21027,21044,21061,21077,21093,21111,21127,21144,21161,21178,21194,21211,21227,21244,21261,21277,21294,21311,21328,21345,21360,21377,21394,21411,21428,21444,21461,21477,21494,21511,21528,21544,21561,21577,21595,21611,21628,21645,21661,21678,21695,21712,21728,21744,21761,21778,21795,21812,21828,21844,21861,21878,21895,21912,21928,21944,21962,21978,21995,22011,22028,22044,22062,22079,22095,22111,22128,22145,22161,22178,22195,22211,22228,22245,22262,22278,22295,22312,22328,22346,22362,22378,22395,22412,22428,22445,22462,22478,22495,22512,22529,22546,22562,22578,22595,22612,22629,22645,22662,22679,22695,22712,22729,22745,22762,22779,22796,22812,22829,22845,22862,22879,22896,22912,22928,22946,22962,22979,22996,23012,23029,23045,23063,23079,23096,23113,23129,23145,23162,23180,23196,23212,23229,23245,23263,23279,23297,23313,23330,23346,23362,23379,23396,23413,23429,23446,23462,23479,23496,23513,23529,23546,23563,23580,23596,23613,23629,23646,23663,23680,23696,23713,23729,23746,23763,23780,23796,23813,23830,23846,23863,23880,23896,23913,23929,23947,23963,23980,23997,24013,24030,24047,24064,24079,24096,24113,24129,24147,24163,24180,24196,24214,24230,24247,24264,24279,24296,24313,24330,24347,24363,24380,24397,24413,24430,24447,24464,24480,24496,24513,24530,24547,24563,24581,24597,24614,24630,24647,24664,24680,24697,24713,24731,24748,24764,24780,24797,24814,24830,24847,24864,24881,24897,24914,24931,24947,24964,24981,24998,25014,25030,25048,25064,25081,25097,25114,25131,25147,25164,25181,25198,25214,25231,25248,25264,25281,25297,25315,25331,25347,25364,25381,25398,25414,25431,25448,25464,25481,25498,25515,25531,25548,25564,25581,25598,25615,25631,25647,25665,25681,25698,25715,25731,25748,25764,25782,25798,25815,25832,25848,25865,25881,25898,25914,25931,25948,25964,25982,25998,26015,26031,26049,26065,26081,26098,26114,26131,26148,26165,26181,26198,26214,26231,26249,26265,26281,26298,26315,26331,26348,26365,26381,26398,26415,26432,26449,26465,26481,26499,26515,26532,26548,26566,26582,26598,26615,26632,26649,26665,26683,26699,26715,26732,26749,26766,26782,26799,26816,26833,26849,26865,26883,26899,26916,26932,26949,26966,26982,26999,27016,27032,27048,27066,27082,27099,27116,27132,27149,27166,27183,27199,27216,27232,27249,27266,27283,27299,27315,27332,27349,27366,27382,27399,27416,27433,27449,27466,27482,27499,27516,27533,27549,27566,27583,27599,27616,27632,27650,27666,27683,27700,27716,27732,27749,27766,27783,27799,27816,27832,27850,27866,27883,27900,27917,27933,27950,27967,27983,28000,28016,28034,28050,28067,28083,28099,28117,28133,28150,28167,28183,28200,28217,28234,28250,28266,28283,28300,28317,28333,28350,28367,28384,28400,28417,28434,28451,28467,28483,28500,28517,28533,28550,28567,28583,28600,28617,28634,28650,28667,28684,28700,28717,28733,28751,28767,28784,28800,28817,28834,28850,28867,28884,28901,28916,28934,28951,28968,28984,29000,29017,29034,29050,29067,29084,29101,29117,29134,29151,29168,29184,29200,29218,29234,29251,29267,29284,29301,29317,29334,29351,29368,29384,29401,29417,29434,29450,29468,29485,29500,29518,29534,29552,29567,29584,29601,29618,29635,29651,29668,29685,29701,29718,29735,29752,29768,29785,29801,29818,29834,29851,29869,29885,29901,29918,29934,29952,29968,29985,30001,30018,30034,30052,30068,30084,30101,30118,30136,30152,30168,30185,30202,30218,30235,30252,30269,30285,30301,30318,30335,30351,30368,30385,30402,30418,30435,30452,30469,30485,30502,30519,30535,30552,30568,30585,30602,30618,30635,30652,30669,30685,30702,30719,30736,30752,30769,30786,30802,30819,30835,30853,30869,30885,30901,30919,30936,30952,30969,30986,31003,31018,31036,31053,31069,31086,31102,31119,31136,31152,31169,31186,31203,31219,31235,31253,31269,31286,31303,31320,31335,31353,31369,31387,31402,31420,31436,31452,31469,31486,31503,31519,31536,31552,31569,31586,31602,31619,31636,31653,31670,31686,31703,31720,31736,31753,31769,31786,31803,31820,31837,31853,31870,31887,31902,31919,31936,31953,31969,31986,32003,32020,32036,32053,32070,32086,32104,32119,32136,32153,32170,32187,32204,32220,32236,32253,32270,32287,32303,32320,32337,32353,32371,32387,32404,32420,32437,32454,32470,32487,32503,32520,32537,32553,32570,32587,32603,32620,32637,32654,32670,32687,32703,32720,32737,32754,32770,32787,32804,32821,32837,32854,32870,32887,32904,32921,32937,32953,32971,32987,33004,33021,33037,33054,33071,33088,33104,33120,33138,33154,33171,33187,33204,33221,33237,33254,33270,33288,33304,33321,33337,33355,33371,33388,33404,33420,33437,33454,33471,33487,33504,33521,33537,33555,33571,33588,33604,33622,33638,33655,33671,33687,33704,33722,33738,33754,33771,33788,33804,33821,33838,33855,33871,33888,33905,33922,33939,33955,33971,33989,34005,34021,34039,34055,34071,34088,34105,34122,34138,34155,34171,34188,34205,34222,34238,34255,34271,34289,34305,34322,34338,34355,34372,34388,34405,34422,34439,34455,34472,34489,34505,34522,34538,34555,34572,34589,34605,34622,34640,34655,34672,34689,34705,34722,34739,34756,34772,34788,34805,34822,34839,34856,34872,34889,34906,34922,34938,34956,34973,34989,35005,35023,35040,35055,35072,35089,35105,35123,35139,35156,35172,35190,35206,35223,35240,35256,35272,35289,35306,35322,35339,35356,35372,35390,35406,35422,35439,35456,35473,35489,35506,35522,35539,35556,35573,35590,35606,35622,35639,35656,35673,35689,35706,35723,35739,35756,35774,35789,35806,35823,35840,35856,35873,35890,35907,35923,35939,35956,35973,35990,36007,36023,36040,36056,36074,36090,36107,36124,36140,36157,36174,36190,36206,36224,36240,36257,36274,36291,36307,36323,36341,36357,36374,36391,36406,36423,36440,36457,36474,36490,36507,36523,36541,36557,36574,36590,36608,36624,36640,36658,36673,36690,36708,36725,36740,36757,36774,36791,36807,36824,36841,36857,36874,36891,36907,36924,36941,36957,36975,36991,37008,37024,37041,37058,37074,37091,37108,37125,37141,37158,37175,37191,37208,37224,37240,37258,37274,37291,37308,37325,37341,37358,37375,37391,37408,37424,37441,37458,37474,37491,37508,37525,37541,37558,37575,37592,37608,37625,37642,37658,37675,37691,37708,37725,37741,37758,37776,37791,37808,37825,37841,37858,37875,37892,37908,37925,37941,37958,37975,37991,38008,38025,38041,38058,38075,38091,38109,38125,38141,38158,38175,38192,38208,38225,38241,38258,38275,38292,38308,38325,38342,38358,38375,38392,38408,38425,38443,38459,38475,38492,38508,38526,38542,38559,38575,38592,38609,38626,38642,38659,38676,38692,38709,38726,38743,38759,38775,38792,38809,38826,38843,38859,38876,38892,38909,38926,38943,38958,38975,38993,39009,39026,39043,39059,39077,39093,39109,39125,39143,39159,39176,39192,39209,39226,39243,39259,39276,39294,39309,39326,39343,39360,39376,39393,39410,39426,39442,39460,39476,39493,39509,39526,39543,39560,39576,39593,39610,39626,39643,39660,39676,39693,39709,39727,39743,39760,39776,39794,39810,39826,39843,39860,39877,39893,39910,39927,39943,39960,39977,39994,40010,40027,40043,40060,40077,40094,40109,40127,40143,40160,40176,40193,40210,40226,40244,40260,40277,40293,40310,40327,40344,40360,40377,40393,40410,40427,40444,40460,40477,40494,40510,40527,40544,40560,40577,40593,40610,40627,40644,40660,40677,40694,40710,40727,40744,40760,40777,40794,40811,40828,40844,40860,40877,40894,40911,40927,40943,40961,40977,40994,41011,41028,41044,41061,41078,41095,41111,41127,41144,41161,41177,41194,41211,41228,41244,41261,41278,41295,41310,41328,41345,41361,41377,41394,41411,41427,41445,41462,41478,41494,41510,41528,41545,41561,41578,41595,41611,41628,41645,41661,41678,41694,41711,41728,41745,41761,41778,41795,41812,41829,41845,41862,41879,41894,41911,41928,41945,41961,41978,41996,42012,42028,42044,42062,42078,42095,42112,42129,42145,42161,42178,42195,42212,42228,42245,42262,42279,42295,42312,42329,42345,42362,42379,42395,42412,42428,42445,42462,42479,42495,42512,42529,42545,42562,42579,42596,42612,42629,42646,42663,42679,42695,42712,42730,42746,42762,42779,42796,42812,42829,42846,42863,42879,42896,42913,42929,42946,42962,42979,42996,43012,43029,43045,43062,43079,43096,43113,43130,43146,43163,43179,43196,43212,43229,43246,43262,43279,43296,43313,43329,43346,43363,43379,43396,43412,43430,43447,43463,43479,43496,43513,43529,43546,43563,43580,43596,43613,43630,43646,43663,43679,43697,43713,43729,43746,43763,43780,43796,43813,43830,43847,43863,43879,43897,43913,43930,43946,43963,43981,43996,44013,44030,44047,44063,44080,44097,44114,44130,44147,44164,44180,44197,44214,44230,44247,44264,44280,44297,44314,44330,44347,44364,44380,44397,44413,44430,44447,44464,44480,44497,44514,44530,44548,44563,44582,44598,44614,44631,44647,44664,44680,44697,44714,44731,44747,44763,44781,44797,44814,44830,44848,44864,44881,44897,44915,44931,44947,44964,44981,44998,45014,45031,45048,45064,45081,45098,45115,45130,45147,45165,45181,45197,45214,45232,45248,45265,45281,45298,45315,45331,45348,45364,45382,45398,45415,45431,45448,45464,45482,45498,45515,45532,45548,45565,45582,45598,45614,45632,45649,45665,45681,45699,45715,45731,45748,45765,45782,45798,45815,45832,45849,45865,45881,45898,45915,45931,45948,45965,45982,45998,46015,46032,46048,46065,46082,46098,46115,46132,46149,46165,46183,46198,46215,46233,46248,46265,46282,46299,46315,46332,46349,46365,46382,46399,46416,46433,46449,46465,46482,46499,46515,46532,46549,46566,46582,46599,46616,46632,46649,46665,46683,46699,46715,46732,46749,46766,46782,46799,46815,46833,46849,46865,46883,46899,46916,46933,46949,46966,46982,47000,47016,47032,47049,47066,47083,47099,47116,47133,47150,47165,47182,47200,47217,47232,47249,47267,47283,47299,47316,47333,47350,47366,47383,47400,47417,47432,47449,47466,47483,47500,47516,47533,47550,47566,47583,47600,47616,47633,47650,47667,47683,47701,47716,47733,47750,47766,47783,47800,47817,47833,47850,47867,47883,47899,47917,47933,47950,47967,47984,48000,48017,48033,48050,48067,48084,48100,48117,48134,48150,48166,48184,48200,48217,48234,48250,48267,48284,48300,48317,48334,48351,48367,48384,48401,48416,48434,48450,48467,48484,48501,48517,48533,48551,48567,48584,48600,48617,48635,48650,48667,48684,48701,48717,48733,48751,48767,48784,48801,48818,48834,48850,48868,48884,48901,48917,48933,48951,48967,48984,49001,49018,49034,49051,49068,49084,49101,49117,49135,49151,49168,49184,49201,49218,49234,49251,49268,49285,49301,49318,49335,49351,49368,49384,49402,49418,49435,49451,49468,49485,49502,49518,49535,49551,49568,49585,49602,49618,49635,49652,49668,49685,49701,49718,49735,49751,49769,49785,49801,49818,49834,49852,49869,49886,49901,49919,49935,49951,49968,49985,50002,50018,50035,50052,50069,50085,50101,50119,50135,50152,50169,50185,50202,50218,50236,50252,50269,50285,50301,50319,50335,50352,50368,50385,50402,50418,50435,50452,50469,50485,50502,50519,50535,50552,50568,50586,50602,50619,50636,50653,50669,50685,50703,50719,50736,50752,50768,50786,50802,50819,50836,50853,50869,50886,50903,50919,50936,50952,50970,50986,51002,51019,51036,51053,51069,51086,51103,51120,51136,51153,51170,51187,51202,51219,51237,51253,51269,51286,51303,51319,51336,51353,51370,51387,51403,51419,51437,51453,51470,51486,51503,51520,51537,51554,51570,51586,51603,51620,51636,51653,51670,51687,51704,51720,51737,51754,51770,51786,51803,51820,51837,51853,51870,51887,51904,51920,51937,51953,51970,51987,52003,52020,52037,52053,52071,52087,52104,52120,52137,52154,52170,52187,52203,52220,52237,52253,52270,52287,52304,52320,52337,52354,52371,52387,52404,52421,52437,52454,52471,52487,52503,52521,52537,52554,52570,52587,52604,52621,52637,52654,52671,52687,52704,52721,52737,52754,52771,52787,52804,52820,52838,52855,52871,52887,52904,52922,52937,52954,52971,52988,53004,53021,53038,53054,53071,53087,53105,53121,53138,53154,53171,53188,53204,53221,53238,53254,53271,53287,53305,53321,53338,53354,53372,53388,53404,53422,53438,53454,53471,53489,53505,53521,53538,53555,53572,53588,53605,53622,53638,53655,53671,53688,53705,53721,53739,53755,53771,53789,53804,53821,53839,53855,53871,53888,53905,53921,53939,53955,53972,53988,54005,54022,54039,54055,54072,54089,54106,54123,54138,54155,54172,54188,54205,54222,54238,54255,54272,54289,54305,54322,54339,54355,54372,54389,54406,54422,54439,54455,54472,54489,54506,54522,54539,54555,54572,54590,54606,54622,54639,54656,54672,54689,54706,54722,54739,54756,54772,54789,54806,54822,54839,54855,54873,54889,54906,54922,54939,54956,54972,54989,55006,55023,55039,55056,55073,55089,55106,55122,55140,55156,55172,55189,55206,55223,55239,55256,55273,55289,55306,55323,55340,55356,55373,55390,55407,55422,55439,55456,55473,55489,55506,55523,55540,55556,55573,55590,55607,55623,55640,55656,55673,55690,55707,55723,55740,55756,55773,55790,55807,55823,55840,55857,55873,55890,55907,55923,55940,55957,55973,55990,56007,56024,56040,56057,56073,56090,56107,56123,56140,56158,56174,56190,56207,56224,56240,56257,56274,56290,56307,56324,56341,56357,56374,56390,56407,56424,56441,56457,56474,56491,56507,56524,56541,56557,56574,56591,56608,56624,56641,56657,56674,56691,56707,56724,56740,56758,56774,56791,56808,56824,56841,56857,56874,56891,56908,56925,56941,56958,56974,56991,57008,57024,57042,57058,57075,57091,57108,57125,57141,57158,57174,57191,57208,57225,57241,57258,57275,57291,57308,57325,57342,57358,57375,57392,57408,57426,57441,57458,57475,57492,57508,57525,57542,57558,57575,57592,57608,57625,57642,57658,57675,57692,57708,57725,57742,57759,57775,57791,57809,57824,57842,57859,57875,57892,57909,57925,57941,57959,57975,57992,58008,58025,58042,58058,58075,58091,58108,58125,58142,58159,58175,58192,58209,58225,58242,58258,58276,58292,58309,58325,58341,58358,58376,58392,58409,58426,58442,58459,58475,58492,58509,58525,58543,58559,58576,58592,58609,58625,58642,58659,58676,58692,58709,58726,58742,58759,58776,58792,58810,58826,58843,58859,58876,58892,58909,58926,58943,58959,58976,58992,59009,59026,59043,59060,59076,59093,59110,59126,59143,59160,59176,59193,59210,59226,59243,59260,59276,59293,59310,59326,59342,59360,59376,59392,59410,59427,59443,59459,59477,59493,59510,59527,59543,59560,59577,59594,59609,59626,59643,59660,59677,59693,59710,59726,59744,59760,59776,59793,59810,59827,59844,59861,59877,59894,59910,59926,59943,59960,59977,59994,60010,60027,60044,60060,60077,60093,60110,60127,60144,60160,60176,60193,60210,60227,60244,60261,60277,60294,60310,60328,60344,60360,60378,60394,60410,60427,60444,60460,60477,60494,60511,60527,60544,60561,60577,60594,60611,60627,60644,60661,60677,60694,60711,60727,60744,60761,60778,60794,60810,60828,60844,60860,60878,60894,60910,60927,60944,60961,60978,60994,61011,61028,61044,61060,61078,61094,61111,61128,61144,61161,61178,61195,61211,61228,61244,61261,61278,61295,61311,61327,61345,61361,61378,61395,61411,61428,61445,61462,61478,61495,61511,61528,61545,61561,61578,61594,61611,61628,61645,61662,61678,61694,61711,61729,61745,61762,61779,61794,61811,61828,61846,61861,61879,61895,61911,61929,61945,61961,61978,61995,62012,62029,62046,62061,62078,62095,62112,62129,62145,62161,62178,62196,62212,62229,62246,62262,62278,62295,62312,62328,62345,62362,62379,62396,62412,62428,62445,62462,62479,62495,62513,62529,62545,62562,62579,62596,62612,62630,62646,62662,62679,62696,62712,62729,62746,62763,62779,62796,62812,62829,62846,62863,62879,62896,62913,62929,62946,62963,62980,62995,63013,63030,63046,63063,63079,63095,63113,63129,63146,63163,63179,63196,63213,63230,63246,63262,63280,63297,63313,63330,63346,63363,63380,63396,63413,63429,63446,63463,63480,63497,63513,63530,63546,63563,63580,63597,63614,63630,63646,63663,63681,63696,63714,63730,63746,63763,63780,63797,63813,63830,63846,63863,63880,63896,63913,63930,63947,63964,63980,63997,64013,64030,64047,64063,64080,64097,64113,64130,64148,64164,64180,64197,64214,64231,64247,64263,64280,64297,64314,64330,64347,64364,64380,64397,64414,64431,64447,64464,64481,64497,64514,64531,64548,64564,64581,64598,64614,64631,64647,64663,64681,64697,64714,64731,64748,64764,64781,64798,64815,64830,64847,64864,64881,64897,64914,64930,64948,64964,64981,64998,65015,65031,65048,65065,65081,65097,65114,65132,65148,65164,65181,65197,65215,65231,65248,65264,65281,65298,65315,65331,65348,65365,65381,65398,65415,65432,65448,65464,65481,65498,65514,65531,65549,65565,65582,65598,65615,65631,65648,65665,65682,65699,65715,65732,65748,65766,65781,65798,65816,65832,65849,65865,65882,65898,65915,65931,65949,65965,65981,65999,66015,66032,66048,66065,66082,66099,66115,66132,66149,66165,66182,66199,66216,66233,66248,66265,66282,66299,66315,66332,66349,66366,66382,66399,66416,66433,66449,66466,66482,66499,66516,66532,66549,66565,66582,66599,66616,66632,66649,66666,66683,66699,66716,66733,66749,66765,66783,66799,66816,66832,66849,66866,66883,66900,66916,66932,66950,66966,66983,67000,67016,67032,67050,67066,67083,67100,67116,67133,67150,67167,67183,67200,67216,67232,67250,67267,67282,67299,67316,67333,67349,67366,67383,67400,67416,67433,67450,67467,67483,67500,67516,67534,67549,67566,67583,67600,67616,67633,67650,67667,67683,67699,67717,67733,67750,67766,67783,67800,67816,67833,67850,67867,67883,67900,67917,67934,67950,67966,67984,68000,68016,68034,68051,68067,68083,68100,68117,68134,68150,68167,68184,68200,68217,68234,68251,68267,68283,68301,68317,68333,68350,68368,68384,68400,68417,68434,68451,68468,68484,68500,68518,68534,68551,68567,68584,68600,68618,68634,68651,68668,68684,68701,68718,68735,68750,68767,68784,68801,68818,68835,68851,68867,68885,68901,68918,68935,68951,68968,68984,69002,69018,69035,69052,69067,69084,69101,69117,69134,69151,69168,69185,69201,69218,69235,69251,69268,69285,69301,69318,69334,69351,69368,69384,69401,69419,69435,69452,69468,69485,69501,69518,69535,69551,69569,69585,69602,69618,69635,69652,69669,69685,69701,69718,69735,69751,69768,69786,69802,69818,69835,69852,69869,69885,69902,69919,69936,69952,69969,69985,70001,70018,70035,70052,70069,70085,70102,70118,70135,70152,70169,70186,70202,70218,70235,70252,70269,70285,70302,70319,70336,70352,70369,70385,70402,70418,70436,70452,70468,70486,70502,70519,70536,70552,70569,70586,70603,70619,70636,70652,70668,70686,70703,70719,70736,70753,70769,70786,70803,70819,70836,70853,70870,70885,70903,70919,70936,70953,70969,70986,71002,71020,71036,71052,71070,71086,71103,71119,71136,71153,71170,71187,71203,71219,71236,71254,71269,71287,71303,71319,71337,71353,71369,71386,71403,71419,71436,71453,71469,71486,71503,71520,71536,71553,71570,71586,71604,71620,71637,71653,71670,71687,71704,71719,71736,71753,71770,71787,71803,71820,71836,71854,71870,71887,71904,71920,71937,71953,71970,71986,72004,72020,72036,72054,72071,72087,72103,72120,72137,72154,72171,72187,72204,72221,72237,72254,72271,72287,72304,72321,72337,72354,72370,72387,72404,72421,72438,72454,72471,72487,72504,72520,72537,72554,72570,72588,72604,72621,72638,72654,72670,72687,72705,72720,72738,72755,72770,72787,72804,72821,72837,72854,72871,72887,72905,72921,72937,72954,72971,72987,73004,73021,73037,73054,73071,73088,73104,73121,73138,73154,73171,73188,73204,73221,73238,73254,73272,73288,73304,73321,73338,73355,73372,73388,73404,73421,73438,73455,73471,73488,73505,73521,73538,73555,73571,73588,73605,73622,73639,73655,73672,73688,73705,73721,73738,73755,73771,73789,73805,73822,73838,73856,73872,73888,73905,73921,73938,73955,73972,73988,74005,74022,74038,74056,74072,74089,74105,74123,74139,74155,74172,74188,74205,74222,74239,74255,74272,74289,74305,74323,74339,74355,74372,74390,74406,74422,74439,74455,74472,74489,74506,74522,74539,74555,74572,74589,74606,74623,74639,74655,74673,74689,74706,74723,74739,74755,74773,74790,74806,74823,74839,74856,74873,74890,74906,74923,74939,74956,74973,74989,75006,75023,75040,75056,75072,75090,75107,75123,75139,75156,75172,75189,75206,75223,75240,75256,75273,75289,75307,75323,75340,75357,75373,75390,75406,75424,75439,75456,75473,75490,75506,75523,75540,75556,75573,75590,75607,75624,75640,75656,75674,75690,75707,75724,75740,75757,75773,75790,75808,75824,75840,75857,75873,75891,75907,75924,75940,75957,75974,75990,76007,76023,76040,76057,76074,76090,76107,76124,76140,76157,76174,76190,76206,76224,76241,76257,76274,76290,76307,76324,76341,76357,76374,76390,76407,76424,76441,76458,76473,76491,76507,76523,76541,76557,76574,76591,76608,76624,76641,76658,76674,76691,76708,76725,76740,76757,76774,76791,76808,76824,76841,76858,76875,76891,76908,76925,76941,76958,76975,76992,77007,77024,77041,77058,77075,77091,77108,77124,77143,77158,77175,77191,77208,77224,77241,77258,77274,77291,77308,77325,77341,77358,77375,77391,77408,77425,77442,77458,77475,77491,77508,77525,77541,77558,77575,77591,77608,77625,77642,77658,77674,77691,77709,77725,77742,77758,77774,77792,77808,77826,77842,77859,77875,77892,77908,77925,77942,77959,77975,77992,78008,78026,78042,78059,78076,78092,78108,78125,78142,78158,78175,78192,78209,78225,78242,78259,78275,78292,78309,78326,78342,78359,78375,78392,78409,78426,78442,78458,78476,78493,78509,78526,78542,78559,78576,78593,78609,78626,78642,78659,78676,78693,78709,78726,78743,78759,78776,78793,78810,78826,78843,78860,78876,78893,78909,78927,78943,78960,78976,78993,79011,79026,79043,79060,79077,79093,79110,79127,79143,79159,79177,79194,79209,79226,79243,79260,79276,79293,79310,79327,79343,79359,79377,79393,79409,79427,79443,79460,79476,79493,79510,79526,79543,79560,79577,79593,79610,79626,79643,79660,79676,79694,79710,79727,79743,79760,79777,79794,79810,79826,79844,79861,79877,79893,79911,79927,79943,79960,79977,79993,80010,80027,80044,80061,80077,80093,80110,80127,80144,80161,80176,80194,80211,80227,80244,80260,80277,80294,80311,80327,80344,80361,80378,80394,80411,80428,80444,80461,80477,80494,80511,80527,80544,80561,80578,80594,80611,80628,80645,80661,80678,80695,80711,80727,80744,80760,80778,80795,80811,80828,80845,80861,80878,80895,80911,80928,80945,80961,80978,80994,81011,81028,81044,81061,81078,81095,81111,81128,81145,81161,81178,81194,81211,81228,81244,81261,81278,81295,81311,81328,81345,81361,81378,81394,81412,81428,81445,81461,81478,81496,81511,81528,81545,81562,81578,81595,81612,81628,81645,81661,81679,81695,81712,81728,81745,81762,81778,81795,81812,81829,81845,81862,81879,81895,81912,81928,81946,81962,81979,81996,82012,82028,82045,82063,82079,82095,82112,82129,82146,82162,82179,82196,82212,82229,82246,82262,82279,82295,82312,82330,82346,82362,82379,82396,82413,82429,82446,82463,82480,82495,82513,82529,82546,82563,82580,82597,82613,82629,82646,82663,82680,82696,82712,82729,82746,82762,82779,82796,82813,82829,82846,82863,82879,82896,82913,82930,82946,82963,82980,82996,83013,83029,83046,83063,83080,83096,83113,83130,83146,83163,83180,83196,83213,83230,83246,83263,83280,83297,83313,83330,83347,83363,83380,83397,83413,83430,83446,83463,83480,83497,83513,83530,83546,83563,83580,83597,83614,83630,83647,83663,83680,83697,83714,83730,83746,83764,83780,83797,83814,83830,83847,83863,83881,83897,83913,83930,83947,83964,83980,83998,84013,84031,84047,84063,84080,84098,84114,84131,84147,84165],"hit":[null],"x":[0.06462585034013606,0.06462585034013606,0.06462585034013606,0.06462585034013606,0.07482993197278912,0.08163265306122448,0.08503401360544217,0.08503401360544217,0.08503401360544217,0.09183673469387756,0.10884353741496598,0.14285714285714285,0.1836734693877551,0.24489795918367346,0.30952380952380953,0.3945578231292517,0.5340136054421769,0.6360544217687075,0.7619047619047619,0.8877551020408163,1.034013605442177,1.1938775510204083,1.3537414965986394,1.5442176870748299,1.7346938775510203,1.9149659863945578,2.0510204081632653,2.1496598639455784,2.2653061224489797,2.326530612244898,2.3741496598639458,2.401360544217687,2.4115646258503403,2.4115646258503403,2.4115646258503403,2.4115646258503403,2.4115646258503403,2.4115646258503403,2.4115646258503403,2.4115646258503403,2.4115646258503403,2.4115646258503403,2.4115646258503403,2.4115646258503403,2.4115646258503403,2.4115646258503403,2.4149659863945576,2.4183673469387754,2.4183673469387754,2.421768707482993,2.421768707482993,2.421768707482993,2.421768707482993,2.421768707482993,2.421768707482993,2.421768707482993,2.421768707482993,2.421768707482993,2.421768707482993,2.421768707482993,2.421768707482993,2.421768707482993,2.421768707482993,2.421768707482993,2.421768707482993,2.421768707482993,2.421768707482993,2.421768707482993,2.425170068027211,2.425170068027211,2.4285714285714284,2.4285714285714284,2.435374149659864,2.438775510204082,2.438775510204082,2.435374149659864,2.4285714285714284,2.425170068027211,2.4149659863945576,2.401360544217687,2.3945578231292517,2.3877551020408165,2.3741496598639458,2.3503401360544216,2.336734693877551,2.3197278911564627,2.302721088435374,2.2891156462585034,2.272108843537415,2.248299319727891,2.2312925170068025,2.207482993197279,2.193877551020408,2.183673469387755,2.163265306122449,2.1530612244897958,2.142857142857143,2.1360544217687076,2.122448979591837,2.108843537414966,2.0884353741496597,2.0714285714285716,2.057823129251701,2.0408163265306123,2.0306122448979593,2.003401360544218,1.9761904761904763,1.9523809523809523,1.9217687074829932,1.8945578231292517,1.870748299319728,1.8537414965986394,1.846938775510204,1.8435374149659864,1.8435374149659864,1.8435374149659864,1.8435374149659864,1.8435374149659864,1.8435374149659864,1.8435374149659864,1.8435374149659864,1.8435374149659864,1.8435374149659864,1.8435374149659864,1.8435374149659864,1.8435374149659864,1.8435374149659864,1.8435374149659864,1.8435374149659864,1.8435374149659864,1.8435374149659864,1.8435374149659864,1.8435374149659864,1.8435374149659864,1.8435374149659864,1.8435374149659864,1.8435374149659864,1.8435374149659864,1.8435374149659864,1.8435374149659864,1.8435374149659864,1.8435374149659864,1.8435374149659864,1.8435374149659864,1.8435374149659864,1.8435374149659864,1.8435374149659864,1.8435374149659864,1.8435374149659864,1.8435374149659864,1.8435374149659864,1.8435374149659864,1.8435374149659864,1.8435374149659864,1.8435374149659864,1.836734693877551,1.836734693877551,1.836734693877551,1.8333333333333333,1.8333333333333333,1.8333333333333333,1.8333333333333333,1.8333333333333333,1.8333333333333333,1.8333333333333333,1.8333333333333333,1.8299319727891157,1.8265306122448979,1.8129251700680271,1.7687074829931972,1.6870748299319729,1.4285714285714286,1.1360544217687074,0.9931972789115646,0.5476190476190477,0.2619047619047619,-0.003401360544217687,-0.22789115646258504,-0.3945578231292517,-0.5068027210884354,-0.564625850340136,-0.5816326530612245,-0.5816326530612245,-0.5816326530612245,-0.5816326530612245,-0.5782312925170068,-0.5680272108843537,-0.5204081632653061,-0.42517006802721086,-0.25170068027210885,-0.017006802721088437,0.22108843537414966,0.47959183673469385,0.564625850340136,0.5952380952380952,0.5952380952380952,0.5952380952380952,0.5952380952380952,0.5952380952380952,0.5952380952380952,0.5952380952380952,0.5918367346938775,0.5918367346938775,0.5884353741496599,0.5884353741496599,0.5884353741496599,0.5884353741496599,0.5850340136054422,0.5850340136054422,0.5850340136054422,0.5850340136054422,0.5850340136054422,0.5850340136054422,0.5850340136054422,0.5850340136054422,0.5850340136054422,0.5850340136054422,0.5850340136054422,0.5850340136054422,0.5850340136054422,0.5850340136054422,0.5850340136054422,0.5850340136054422,0.5850340136054422,0.5850340136054422,0.5850340136054422,0.5850340136054422,0.5850340136054422,0.5850340136054422,0.5850340136054422,0.608843537414966,0.6632653061224489,0.7074829931972789,0.7346938775510204,0.7482993197278912,0.7482993197278912,0.7517006802721088,0.7517006802721088,0.7517006802721088,0.7517006802721088,0.7517006802721088,0.7517006802721088,0.7517006802721088,0.7517006802721088,0.7517006802721088,0.7517006802721088,0.7517006802721088,0.7517006802721088,0.7517006802721088,0.7517006802721088,0.7517006802721088,0.7721088435374149,0.9115646258503401,1.1360544217687074,1.3061224489795917,1.3639455782312926,1.3673469387755102,1.3673469387755102,1.3639455782312926,1.3571428571428572,1.3571428571428572,1.3571428571428572,1.3571428571428572,1.3571428571428572,1.3571428571428572,1.3571428571428572,1.3571428571428572,1.3571428571428572,1.3571428571428572,1.3571428571428572,1.346938775510204,1.2925170068027212,1.183673469387755,1.0068027210884354,0.7891156462585034,0.6054421768707483,0.46938775510204084,0.3741496598639456,0.336734693877551,0.3231292517006803,0.3231292517006803,0.3231292517006803,0.3231292517006803,0.3231292517006803,0.3231292517006803,0.3231292517006803,0.3231292517006803,0.3231292517006803,0.3231292517006803,0.3231292517006803,0.3231292517006803,0.3231292517006803,0.3231292517006803,0.32653061224489793,0.3299319727891156,0.3333333333333333,0.3333333333333333,0.3333333333333333,0.336734693877551,0.336734693877551,0.336734693877551,0.336734693877551,0.336734693877551,0.336734693877551,0.336734693877551,0.3401360544217687,0.3401360544217687,0.3401360544217687,0.3401360544217687,0.3401360544217687,0.3401360544217687,0.3401360544217687,0.3401360544217687,0.3401360544217687,0.3401360544217687,0.3401360544217687,0.3401360544217687,0.3401360544217687,0.3401360544217687,0.3401360544217687,0.3401360544217687,0.3401360544217687,0.3401360544217687,0.3401360544217687,0.3401360544217687,0.3401360544217687,0.3401360544217687,0.3401360544217687,0.3401360544217687,0.3401360544217687,0.3401360544217687,0.3401360544217687,0.3401360544217687,0.3401360544217687,0.3401360544217687,0.3401360544217687,0.3401360544217687,0.3401360544217687,0.3401360544217687,0.3401360544217687,0.3401360544217687,0.3401360544217687,0.3401360544217687,0.3401360544217687,0.3401360544217687,0.3401360544217687,0.3401360544217687,0.3401360544217687,0.3401360544217687,0.3401360544217687,0.3401360544217687,0.3401360544217687,0.3401360544217687,0.3401360544217687,0.3401360544217687,0.3401360544217687,0.3401360544217687,0.3401360544217687,0.3401360544217687,0.3401360544217687,0.3401360544217687,0.3401360544217687,0.3401360544217687,0.3401360544217687,0.3401360544217687,0.3401360544217687,0.3401360544217687,0.3401360544217687,0.3401360544217687,0.3401360544217687,0.3401360544217687,0.3401360544217687,0.3401360544217687,0.3401360544217687,0.3401360544217687,0.3401360544217687,0.3401360544217687,0.3401360544217687,0.3401360544217687,0.3401360544217687,0.3401360544217687,0.3401360544217687,0.3401360544217687,0.3401360544217687,0.3401360544217687,0.3401360544217687,0.3401360544217687,0.3401360544217687,0.3401360544217687,0.3401360544217687,0.3401360544217687,0.3401360544217687,0.3401360544217687,0.3401360544217687,0.3401360544217687,0.3401360544217687,0.3401360544217687,0.3401360544217687,0.3401360544217687,0.3401360544217687,0.3401360544217687,0.3401360544217687,0.3401360544217687,0.3401360544217687,0.3401360544217687,0.3401360544217687,0.3401360544217687,0.3401360544217687,0.3401360544217687,0.3401360544217687,0.3401360544217687,0.3401360544217687,0.3401360544217687,0.3401360544217687,0.3401360544217687,0.3401360544217687,0.3401360544217687,0.3401360544217687,0.3401360544217687,0.3401360544217687,0.3401360544217687,0.3401360544217687,0.3401360544217687,0.3401360544217687,0.3401360544217687,0.3401360544217687,0.3401360544217687,0.3401360544217687,0.3401360544217687,0.3401360544217687,0.3401360544217687,0.3401360544217687,0.3401360544217687,0.3401360544217687,0.3401360544217687,0.3401360544217687,0.3401360544217687,0.3401360544217687,0.3401360544217687,0.3401360544217687,0.3401360544217687,0.3401360544217687,0.3401360544217687,0.3401360544217687,0.3401360544217687,0.3401360544217687,0.3401360544217687,0.3401360544217687,0.3401360544217687,0.3401360544217687,0.3401360544217687,0.3401360544217687,0.3435374149659864,0.3435374149659864,0.3469387755102041,0.3469387755102041,0.35034013605442177,0.35374149659863946,0.36054421768707484,0.36394557823129253,0.3707482993197279,0.37755102040816324,0.3843537414965986,0.391156462585034,0.3945578231292517,0.3979591836734694,0.4013605442176871,0.40476190476190477,0.40816326530612246,0.40816326530612246,0.41836734693877553,0.43537414965986393,0.4387755102040816,0.4523809523809524,0.46258503401360546,0.48639455782312924,0.4965986394557823,0.5102040816326531,0.5204081632653061,0.5408163265306123,0.5578231292517006,0.5748299319727891,0.5918367346938775,0.6054421768707483,0.6190476190476191,0.6292517006802721,0.6326530612244898,0.6326530612244898,0.6360544217687075,0.6360544217687075,0.6360544217687075,0.6360544217687075,0.6360544217687075,0.6360544217687075,0.6360544217687075,0.6360544217687075,0.6360544217687075,0.6360544217687075,0.6360544217687075,0.6360544217687075,0.6360544217687075,0.6360544217687075,0.6394557823129252,0.6496598639455783,0.6598639455782312,0.6700680272108843,0.6768707482993197,0.6802721088435374,0.6802721088435374,0.6802721088435374,0.6802721088435374,0.6802721088435374,0.6802721088435374,0.6802721088435374,0.6802721088435374,0.6802721088435374,0.6802721088435374,0.6802721088435374,0.6802721088435374,0.6802721088435374,0.6802721088435374,0.6802721088435374,0.6802721088435374,0.6836734693877551,0.6870748299319728,0.6904761904761905,0.6972789115646258,0.6972789115646258,0.6972789115646258,0.6972789115646258,0.6972789115646258,0.6972789115646258,0.6972789115646258,0.6972789115646258,0.6972789115646258,0.6972789115646258,0.6972789115646258,0.6972789115646258,0.6972789115646258,0.6972789115646258,0.6972789115646258,0.6972789115646258,0.6972789115646258,0.6972789115646258,0.6972789115646258,0.6972789115646258,0.6972789115646258,0.6972789115646258,0.6972789115646258,0.6972789115646258,0.6972789115646258,0.6972789115646258,0.6972789115646258,0.6972789115646258,0.6972789115646258,0.6972789115646258,0.6972789115646258,0.6972789115646258,0.7074829931972789,0.7142857142857143,0.7142857142857143,0.717687074829932,0.717687074829932,0.717687074829932,0.717687074829932,0.717687074829932,0.717687074829932,0.717687074829932,0.717687074829932,0.717687074829932,0.717687074829932,0.7278911564625851,0.7380952380952381,0.7482993197278912,0.7551020408163265,0.7619047619047619,0.7619047619047619,0.7619047619047619,0.7619047619047619,0.7619047619047619,0.7619047619047619,0.7653061224489796,0.7687074829931972,0.7789115646258503,0.7891156462585034,0.7993197278911565,0.8129251700680272,0.8231292517006803,0.8299319727891157,0.8333333333333334,0.8333333333333334,0.8333333333333334,0.8333333333333334,0.8333333333333334,0.8333333333333334,0.8333333333333334,0.8333333333333334,0.8333333333333334,0.8333333333333334,0.8333333333333334,0.8333333333333334,0.8333333333333334,0.8333333333333334,0.8333333333333334,0.8333333333333334,0.8333333333333334,0.8367346938775511,0.8503401360544217,0.8673469387755102,0.8809523809523809,0.8945578231292517,0.8979591836734694,0.8979591836734694,0.8979591836734694,0.8979591836734694,0.8979591836734694,0.8979591836734694,0.8979591836734694,0.9047619047619048,0.9387755102040817,0.9829931972789115,1.0272108843537415,1.0612244897959184,1.0918367346938775,1.098639455782313,1.098639455782313,1.098639455782313,1.098639455782313,1.098639455782313,1.098639455782313,1.1020408163265305,1.1054421768707483,1.1088435374149659,1.1156462585034013,1.129251700680272,1.1462585034013606,1.163265306122449,1.1734693877551021,1.1938775510204083,1.2074829931972788,1.2108843537414966,1.217687074829932,1.2244897959183674,1.2380952380952381,1.2619047619047619,1.3061224489795917,1.3333333333333333,1.346938775510204,1.3571428571428572,1.3605442176870748,1.3605442176870748,1.3605442176870748,1.3673469387755102,1.3775510204081634,1.3945578231292517,1.4183673469387754,1.4625850340136055,1.5,1.5272108843537415,1.5578231292517006,1.5748299319727892,1.5850340136054422,1.58843537414966,1.58843537414966,1.58843537414966,1.5918367346938775,1.5918367346938775,1.5918367346938775,1.5918367346938775,1.5952380952380953,1.5952380952380953,1.5952380952380953,1.598639455782313,1.598639455782313,1.598639455782313,1.598639455782313,1.598639455782313,1.598639455782313,1.598639455782313,1.598639455782313,1.598639455782313,1.598639455782313,1.598639455782313,1.598639455782313,1.598639455782313,1.598639455782313,1.598639455782313,1.598639455782313,1.598639455782313,1.598639455782313,1.598639455782313,1.598639455782313,1.598639455782313,1.598639455782313,1.598639455782313,1.6020408163265305,1.6122448979591837,1.6224489795918366,1.6326530612244898,1.6428571428571428,1.6564625850340136,1.663265306122449,1.6700680272108843,1.6802721088435375,1.683673469387755,1.6870748299319729,1.6870748299319729,1.6904761904761905,1.6904761904761905,1.6938775510204083,1.6938775510204083,1.6938775510204083,1.6938775510204083,1.6938775510204083,1.6938775510204083,1.6938775510204083,1.6938775510204083,1.6938775510204083,1.6938775510204083,1.6938775510204083,1.6938775510204083,1.6938775510204083,1.6938775510204083,1.6938775510204083,1.6938775510204083,1.6938775510204083,1.6938775510204083,1.6938775510204083,1.6938775510204083,1.6938775510204083,1.6938775510204083,1.6938775510204083,1.6938775510204083,1.6938775510204083,1.6938775510204083,1.6938775510204083,1.6938775510204083,1.6938775510204083,1.6938775510204083,1.6938775510204083,1.6938775510204083,1.6938775510204083,1.6938775510204083,1.6938775510204083,1.6938775510204083,1.6938775510204083,1.6938775510204083,1.6938775510204083,1.6938775510204083,1.6938775510204083,1.6938775510204083,1.6938775510204083,1.6938775510204083,1.6938775510204083,1.6938775510204083,1.6938775510204083,1.6938775510204083,1.6938775510204083,1.6938775510204083,1.6938775510204083,1.6938775510204083,1.6938775510204083,1.6938775510204083,1.6938775510204083,1.6938775510204083,1.6938775510204083,1.6938775510204083,1.6938775510204083,1.6938775510204083,1.6938775510204083,1.6938775510204083,1.6938775510204083,1.6938775510204083,1.6938775510204083,1.6938775510204083,1.6938775510204083,1.6938775510204083,1.6938775510204083,1.6938775510204083,1.6938775510204083,1.6938775510204083,1.6938775510204083,1.6938775510204083,1.6938775510204083,1.6938775510204083,1.6938775510204083,1.6938775510204083,1.6938775510204083,1.6938775510204083,1.6938775510204083,1.6938775510204083,1.6938775510204083,1.6938775510204083,1.6938775510204083,1.6938775510204083,1.6938775510204083,1.6938775510204083,1.6938775510204083,1.6938775510204083,1.6938775510204083,1.6938775510204083,1.6938775510204083,1.6938775510204083,1.6938775510204083,1.6938775510204083,1.6938775510204083,1.6938775510204083,1.6938775510204083,1.6938775510204083,1.6938775510204083,1.6938775510204083,1.6938775510204083,1.6938775510204083,1.6938775510204083,1.6938775510204083,1.6938775510204083,1.6938775510204083,1.6938775510204083,1.6938775510204083,1.6938775510204083,1.6938775510204083,1.6938775510204083,1.6938775510204083,1.6938775510204083,1.6938775510204083,1.6938775510204083,1.6938775510204083,1.6938775510204083,1.6938775510204083,1.6938775510204083,1.7040816326530612,1.7210884353741496,1.7312925170068028,1.7312925170068028,1.7346938775510203,1.7346938775510203,1.7346938775510203,1.7346938775510203,1.7346938775510203,1.7346938775510203,1.7346938775510203,1.7346938775510203,1.7346938775510203,1.7346938775510203,1.7346938775510203,1.7346938775510203,1.7346938775510203,1.7346938775510203,1.7346938775510203,1.7346938775510203,1.7346938775510203,1.7346938775510203,1.7346938775510203,1.7346938775510203,1.7346938775510203,1.7346938775510203,1.7346938775510203,1.7346938775510203,1.7346938775510203,1.7346938775510203,1.7346938775510203,1.7346938775510203,1.7346938775510203,1.7346938775510203,1.7346938775510203,1.7346938775510203,1.7346938775510203,1.7346938775510203,1.7346938775510203,1.7346938775510203,1.7346938775510203,1.7346938775510203,1.7346938775510203,1.7346938775510203,1.7346938775510203,1.7346938775510203,1.7346938775510203,1.7346938775510203,1.7346938775510203,1.7346938775510203,1.7346938775510203,1.7346938775510203,1.7346938775510203,1.7346938775510203,1.7346938775510203,1.7346938775510203,1.7346938775510203,1.7346938775510203,1.7346938775510203,1.7346938775510203,1.7346938775510203,1.7346938775510203,1.7346938775510203,1.7346938775510203,1.7346938775510203,1.7346938775510203,1.7346938775510203,1.7346938775510203,1.7346938775510203,1.7346938775510203,1.7346938775510203,1.7346938775510203,1.7346938775510203,1.7346938775510203,1.7346938775510203,1.7346938775510203,1.7346938775510203,1.7346938775510203,1.7346938775510203,1.7346938775510203,1.7346938775510203,1.7346938775510203,1.7346938775510203,1.7346938775510203,1.7346938775510203,1.7346938775510203,1.7346938775510203,1.7346938775510203,1.7346938775510203,1.7346938775510203,1.7346938775510203,1.7346938775510203,1.7346938775510203,1.7346938775510203,1.7346938775510203,1.7346938775510203,1.7346938775510203,1.7346938775510203,1.7346938775510203,1.7346938775510203,1.7346938775510203,1.7346938775510203,1.7346938775510203,1.7346938775510203,1.7346938775510203,1.7346938775510203,1.7346938775510203,1.7346938775510203,1.7346938775510203,1.7346938775510203,1.7346938775510203,1.7346938775510203,1.7346938775510203,1.7346938775510203,1.7346938775510203,1.7346938775510203,1.7346938775510203,1.7346938775510203,1.7346938775510203,1.7346938775510203,1.7346938775510203,1.7346938775510203,1.7346938775510203,1.7346938775510203,1.7346938775510203,1.7346938775510203,1.7346938775510203,1.7346938775510203,1.7346938775510203,1.7346938775510203,1.7346938775510203,1.7346938775510203,1.7346938775510203,1.7346938775510203,1.7380952380952381,1.7448979591836735,1.751700680272109,1.751700680272109,1.751700680272109,1.751700680272109,1.751700680272109,1.751700680272109,1.751700680272109,1.751700680272109,1.751700680272109,1.751700680272109,1.751700680272109,1.751700680272109,1.751700680272109,1.751700680272109,1.751700680272109,1.751700680272109,1.751700680272109,1.751700680272109,1.751700680272109,1.751700680272109,1.751700680272109,1.751700680272109,1.751700680272109,1.751700680272109,1.751700680272109,1.751700680272109,1.751700680272109,1.751700680272109,1.751700680272109,1.751700680272109,1.751700680272109,1.751700680272109,1.751700680272109,1.751700680272109,1.751700680272109,1.751700680272109,1.751700680272109,1.751700680272109,1.751700680272109,1.751700680272109,1.751700680272109,1.751700680272109,1.751700680272109,1.751700680272109,1.7551020408163265,1.7551020408163265,1.7585034013605443,1.7585034013605443,1.7585034013605443,1.7585034013605443,1.7585034013605443,1.7585034013605443,1.7585034013605443,1.7585034013605443,1.7585034013605443,1.7585034013605443,1.7585034013605443,1.7585034013605443,1.7585034013605443,1.7585034013605443,1.7585034013605443,1.7585034013605443,1.7585034013605443,1.7585034013605443,1.7585034013605443,1.7585034013605443,1.7585034013605443,1.7585034013605443,1.7585034013605443,1.7585034013605443,1.7585034013605443,1.7585034013605443,1.7585034013605443,1.7585034013605443,1.7585034013605443,1.7585034013605443,1.7585034013605443,1.7585034013605443,1.7585034013605443,1.7585034013605443,1.7585034013605443,1.7585034013605443,1.7585034013605443,1.7585034013605443,1.7585034013605443,1.7585034013605443,1.7585034013605443,1.7585034013605443,1.7585034013605443,1.7585034013605443,1.7585034013605443,1.7585034013605443,1.7585034013605443,1.7585034013605443,1.7585034013605443,1.7585034013605443,1.7585034013605443,1.7585034013605443,1.7585034013605443,1.7619047619047619,1.7619047619047619,1.7619047619047619,1.7653061224489797,1.7653061224489797,1.7653061224489797,1.7653061224489797,1.7653061224489797,1.7653061224489797,1.7653061224489797,1.7653061224489797,1.7653061224489797,1.7653061224489797,1.7653061224489797,1.7653061224489797,1.7653061224489797,1.7653061224489797,1.7653061224489797,1.7653061224489797,1.7653061224489797,1.7653061224489797,1.7653061224489797,1.7653061224489797,1.7653061224489797,1.7653061224489797,1.7653061224489797,1.7653061224489797,1.7653061224489797,1.7653061224489797,1.7653061224489797,1.7653061224489797,1.7653061224489797,1.7653061224489797,1.7653061224489797,1.7653061224489797,1.7653061224489797,1.7653061224489797,1.7653061224489797,1.7653061224489797,1.7653061224489797,1.7653061224489797,1.7653061224489797,1.7653061224489797,1.7653061224489797,1.7653061224489797,1.7653061224489797,1.7653061224489797,1.7653061224489797,1.7653061224489797,1.7653061224489797,1.7653061224489797,1.7653061224489797,1.7653061224489797,1.7653061224489797,1.7653061224489797,1.7653061224489797,1.7653061224489797,1.7653061224489797,1.7653061224489797,1.7653061224489797,1.7653061224489797,1.7653061224489797,1.7653061224489797,1.7653061224489797,1.7653061224489797,1.7653061224489797,1.7653061224489797,1.7653061224489797,1.7653061224489797,1.7653061224489797,1.7653061224489797,1.7653061224489797,1.7653061224489797,1.7653061224489797,1.7653061224489797,1.7653061224489797,1.7653061224489797,1.7653061224489797,1.7653061224489797,1.7653061224489797,1.7653061224489797,1.7653061224489797,1.7653061224489797,1.7653061224489797,1.7653061224489797,1.7653061224489797,1.7653061224489797,1.7653061224489797,1.7653061224489797,1.7653061224489797,1.7653061224489797,1.7653061224489797,1.7653061224489797,1.7653061224489797,1.7653061224489797,1.7653061224489797,1.7653061224489797,1.7653061224489797,1.7653061224489797,1.7653061224489797,1.7653061224489797,1.7653061224489797,1.7653061224489797,1.7653061224489797,1.7653061224489797,1.7653061224489797,1.7653061224489797,1.7653061224489797,1.7653061224489797,1.7653061224489797,1.7653061224489797,1.7653061224489797,1.7653061224489797,1.7653061224489797,1.7653061224489797,1.7653061224489797,1.7653061224489797,1.7653061224489797,1.7653061224489797,1.7653061224489797,1.7653061224489797,1.7653061224489797,1.7653061224489797,1.7653061224489797,1.7653061224489797,1.7653061224489797,1.7653061224489797,1.7653061224489797,1.7653061224489797,1.7653061224489797,1.7653061224489797,1.7653061224489797,1.7653061224489797,1.7653061224489797,1.7653061224489797,1.7653061224489797,1.7653061224489797,1.7653061224489797,1.7653061224489797,1.7653061224489797,1.7653061224489797,1.7653061224489797,1.7653061224489797,1.7653061224489797,1.7653061224489797,1.7653061224489797,1.7653061224489797,1.7653061224489797,1.7653061224489797,1.7653061224489797,1.7653061224489797,1.7653061224489797,1.7653061224489797,1.7653061224489797,1.7653061224489797,1.7653061224489797,1.7653061224489797,1.7653061224489797,1.7653061224489797,1.7653061224489797,1.7653061224489797,1.7653061224489797,1.7653061224489797,1.7653061224489797,1.7653061224489797,1.7653061224489797,1.7653061224489797,1.7653061224489797,1.7653061224489797,1.7653061224489797,1.7653061224489797,1.7653061224489797,1.7653061224489797,1.7653061224489797,1.7653061224489797,1.7653061224489797,1.7653061224489797,1.7653061224489797,1.7653061224489797,1.7653061224489797,1.7653061224489797,1.7653061224489797,1.7653061224489797,1.7653061224489797,1.7653061224489797,1.7653061224489797,1.7653061224489797,1.7653061224489797,1.7653061224489797,1.7653061224489797,1.7653061224489797,1.7653061224489797,1.7653061224489797,1.7653061224489797,1.7653061224489797,1.7653061224489797,1.7687074829931972,1.8061224489795917,1.8333333333333333,1.8537414965986394,1.880952380952381,1.9217687074829932,1.9557823129251701,2,2.057823129251701,2.0884353741496597,2.1054421768707483,2.1156462585034013,2.1122448979591835,2.098639455782313,2.0918367346938775,2.0850340136054424,2.0816326530612246,2.074829931972789,2.0714285714285716,2.068027210884354,2.068027210884354,2.068027210884354,2.068027210884354,2.068027210884354,2.068027210884354,2.068027210884354,2.068027210884354,2.068027210884354,2.068027210884354,2.068027210884354,2.068027210884354,2.068027210884354,2.068027210884354,2.068027210884354,2.068027210884354,2.068027210884354,2.068027210884354,2.068027210884354,2.068027210884354,2.068027210884354,2.068027210884354,2.068027210884354,2.068027210884354,2.068027210884354,2.068027210884354,2.068027210884354,2.068027210884354,2.068027210884354,2.068027210884354,2.068027210884354,2.068027210884354,2.068027210884354,2.068027210884354,2.068027210884354,2.0408163265306123,1.9557823129251701,1.7959183673469388,1.4251700680272108,1.1394557823129252,0.8503401360544217,0.608843537414966,0.41496598639455784,0.3163265306122449,0.25510204081632654,0.22789115646258504,0.21768707482993196,0.2108843537414966,0.2108843537414966,0.2108843537414966,0.2108843537414966,0.21428571428571427,0.22789115646258504,0.25510204081632654,0.2925170068027211,0.3231292517006803,0.35714285714285715,0.391156462585034,0.41156462585034015,0.42857142857142855,0.4421768707482993,0.445578231292517,0.445578231292517,0.4523809523809524,0.4557823129251701,0.46938775510204084,0.47959183673469385,0.4897959183673469,0.4965986394557823,0.5068027210884354,0.5204081632653061,0.5306122448979592,0.5476190476190477,0.564625850340136,0.5748299319727891,0.5952380952380952,0.608843537414966,0.6326530612244898,0.6496598639455783,0.6632653061224489,0.6700680272108843,0.6700680272108843,0.6700680272108843,0.6700680272108843,0.6700680272108843,0.6700680272108843,0.6700680272108843,0.6700680272108843,0.673469387755102,0.6870748299319728,0.7108843537414966,0.7244897959183674,0.7414965986394558,0.7448979591836735,0.7448979591836735,0.7448979591836735,0.7448979591836735,0.7448979591836735,0.7448979591836735,0.7448979591836735,0.7448979591836735,0.7448979591836735,0.7448979591836735,0.7448979591836735,0.7448979591836735,0.7448979591836735,0.7448979591836735,0.7517006802721088,0.7585034013605442,0.7755102040816326,0.7891156462585034,0.8129251700680272,0.826530612244898,0.8367346938775511,0.8435374149659864,0.8503401360544217,0.8571428571428571,0.8605442176870748,0.8605442176870748,0.8605442176870748,0.8605442176870748,0.8605442176870748,0.8605442176870748,0.8605442176870748,0.8605442176870748,0.8605442176870748,0.8605442176870748,0.8605442176870748,0.8605442176870748,0.8605442176870748,0.8605442176870748,0.8605442176870748,0.8605442176870748,0.8605442176870748,0.8605442176870748,0.8605442176870748,0.8605442176870748,0.8571428571428571,0.8571428571428571,0.8571428571428571,0.8571428571428571,0.8537414965986394,0.8503401360544217,0.8469387755102041,0.8469387755102041,0.8435374149659864,0.8435374149659864,0.8435374149659864,0.8435374149659864,0.8435374149659864,0.8401360544217688,0.8401360544217688,0.8401360544217688,0.8401360544217688,0.8401360544217688,0.8333333333333334,0.8333333333333334,0.8333333333333334,0.8299319727891157,0.8231292517006803,0.8197278911564626,0.8163265306122449,0.8163265306122449,0.8163265306122449,0.8163265306122449,0.8163265306122449,0.8163265306122449,0.8163265306122449,0.8129251700680272,0.8129251700680272,0.8095238095238095,0.8095238095238095,0.8095238095238095,0.8095238095238095,0.8095238095238095,0.8095238095238095,0.8095238095238095,0.8095238095238095,0.8095238095238095,0.8095238095238095,0.8095238095238095,0.8095238095238095,0.8095238095238095,0.8095238095238095,0.8095238095238095,0.8095238095238095,0.8095238095238095,0.8163265306122449,0.8231292517006803,0.8299319727891157,0.8367346938775511,0.8435374149659864,0.8435374149659864,0.8435374149659864,0.8435374149659864,0.8435374149659864,0.8435374149659864,0.8435374149659864,0.8435374149659864,0.8435374149659864,0.8435374149659864,0.8435374149659864,0.8435374149659864,0.8435374149659864,0.8435374149659864,0.8435374149659864,0.8435374149659864,0.8435374149659864,0.8435374149659864,0.8435374149659864,0.8435374149659864,0.8435374149659864,0.8435374149659864,0.8435374149659864,0.8435374149659864,0.8435374149659864,0.8435374149659864,0.8435374149659864,0.8435374149659864,0.8435374149659864,0.8435374149659864,0.8435374149659864,0.8435374149659864,0.8435374149659864,0.8435374149659864,0.8435374149659864,0.8435374149659864,0.8435374149659864,0.8435374149659864,0.8435374149659864,0.8435374149659864,0.8435374149659864,0.8435374149659864,0.8435374149659864,0.8435374149659864,0.8435374149659864,0.8435374149659864,0.8435374149659864,0.8435374149659864,0.8435374149659864,0.8435374149659864,0.8435374149659864,0.8435374149659864,0.8435374149659864,0.8435374149659864,0.8435374149659864,0.8435374149659864,0.8435374149659864,0.8435374149659864,0.8435374149659864,0.8435374149659864,0.8435374149659864,0.8435374149659864,0.8435374149659864,0.8435374149659864,0.8435374149659864,0.8435374149659864,0.8435374149659864,0.8435374149659864,0.8435374149659864,0.8435374149659864,0.8435374149659864,0.8435374149659864,0.8435374149659864,0.8435374149659864,0.8435374149659864,0.8435374149659864,0.8435374149659864,0.8435374149659864,0.8435374149659864,0.8435374149659864,0.8435374149659864,0.8435374149659864,0.8435374149659864,0.8435374149659864,0.8435374149659864,0.8435374149659864,0.8435374149659864,0.8435374149659864,0.8435374149659864,0.8435374149659864,0.8469387755102041,0.8469387755102041,0.8469387755102041,0.8469387755102041,0.8469387755102041,0.8469387755102041,0.8469387755102041,0.8469387755102041,0.8469387755102041,0.8469387755102041,0.8469387755102041,0.8469387755102041,0.8469387755102041,0.8469387755102041,0.8469387755102041,0.8469387755102041,0.8469387755102041,0.8469387755102041,0.8469387755102041,0.8469387755102041,0.8469387755102041,0.8469387755102041,0.8469387755102041,0.8469387755102041,0.8469387755102041,0.8469387755102041,0.8469387755102041,0.8469387755102041,0.8469387755102041,0.8469387755102041,0.8469387755102041,0.8469387755102041,0.8469387755102041,0.8469387755102041,0.8469387755102041,0.8469387755102041,0.8469387755102041,0.8469387755102041,0.8469387755102041,0.8469387755102041,0.8469387755102041,0.8469387755102041,0.8469387755102041,0.8469387755102041,0.8469387755102041,0.8469387755102041,0.8469387755102041,0.8469387755102041,0.8469387755102041,0.8469387755102041,0.8469387755102041,0.8469387755102041,0.8469387755102041,0.8469387755102041,0.8469387755102041,0.8469387755102041,0.8469387755102041,0.8469387755102041,0.8469387755102041,0.8469387755102041,0.8469387755102041,0.8469387755102041,0.8469387755102041,0.8469387755102041,0.8469387755102041,0.8469387755102041,0.8469387755102041,0.8469387755102041,0.8469387755102041,0.8469387755102041,0.8469387755102041,0.8469387755102041,0.8469387755102041,0.8469387755102041,0.8469387755102041,0.8469387755102041,0.8469387755102041,0.8469387755102041,0.8469387755102041,0.8469387755102041,0.8469387755102041,0.8469387755102041,0.8469387755102041,0.8469387755102041,0.8469387755102041,0.8469387755102041,0.8469387755102041,0.8469387755102041,0.8469387755102041,0.8469387755102041,0.8469387755102041,0.8469387755102041,0.8469387755102041,0.8469387755102041,0.8469387755102041,0.8469387755102041,0.8469387755102041,0.8469387755102041,0.8469387755102041,0.8469387755102041,0.8469387755102041,0.8469387755102041,0.8469387755102041,0.8469387755102041,0.8469387755102041,0.8469387755102041,0.8469387755102041,0.8469387755102041,0.8469387755102041,0.8469387755102041,0.8503401360544217,0.8537414965986394,0.8571428571428571,0.8571428571428571,0.8571428571428571,0.8571428571428571,0.8571428571428571,0.8571428571428571,0.8571428571428571,0.8571428571428571,0.8605442176870748,0.8673469387755102,0.8707482993197279,0.8707482993197279,0.8741496598639455,0.8741496598639455,0.8809523809523809,0.8843537414965986,0.891156462585034,0.8945578231292517,0.8979591836734694,0.8979591836734694,0.9047619047619048,0.9115646258503401,0.9149659863945578,0.9149659863945578,0.9183673469387755,0.9251700680272109,0.9421768707482994,0.9591836734693877,0.9829931972789115,1,1.010204081632653,1.0204081632653061,1.034013605442177,1.0374149659863945,1.0408163265306123,1.0510204081632653,1.054421768707483,1.0612244897959184,1.0680272108843538,1.0680272108843538,1.0680272108843538,1.0680272108843538,1.0680272108843538,1.0714285714285714,1.0714285714285714,1.0714285714285714,1.0714285714285714,1.0714285714285714,1.0748299319727892,1.0748299319727892,1.0748299319727892,1.0816326530612246,1.0850340136054422,1.08843537414966,1.0918367346938775,1.0918367346938775,1.0918367346938775,1.0952380952380953,1.0952380952380953,1.098639455782313,1.098639455782313,1.1054421768707483,1.1054421768707483,1.1088435374149659,1.1088435374149659,1.1088435374149659,1.1088435374149659,1.1088435374149659,1.1088435374149659,1.1088435374149659,1.1088435374149659,1.1088435374149659,1.1088435374149659,1.1088435374149659,1.1088435374149659,1.1088435374149659,1.1088435374149659,1.1088435374149659,1.1088435374149659,1.1088435374149659,1.1088435374149659,1.1088435374149659,1.1088435374149659,1.1088435374149659,1.1088435374149659,1.1088435374149659,1.1088435374149659,1.1088435374149659,1.1088435374149659,1.1088435374149659,1.1088435374149659,1.1088435374149659,1.1088435374149659,1.1088435374149659,1.1088435374149659,1.1088435374149659,1.1088435374149659,1.1088435374149659,1.1088435374149659,1.1088435374149659,1.1088435374149659,1.1088435374149659,1.1088435374149659,1.1088435374149659,1.1088435374149659,1.1088435374149659,1.1088435374149659,1.1088435374149659,1.1088435374149659,1.1088435374149659,1.1088435374149659,1.1088435374149659,1.1088435374149659,1.1088435374149659,1.1088435374149659,1.1088435374149659,1.1088435374149659,1.1088435374149659,1.1088435374149659,1.1088435374149659,1.1088435374149659,1.1088435374149659,1.1088435374149659,1.1088435374149659,1.1088435374149659,1.1088435374149659,1.1088435374149659,1.1088435374149659,1.1088435374149659,1.1088435374149659,1.1088435374149659,1.1088435374149659,1.1088435374149659,1.1020408163265305,1.1020408163265305,1.1020408163265305,1.098639455782313,1.098639455782313,1.098639455782313,1.098639455782313,1.0952380952380953,1.0952380952380953,1.0952380952380953,1.0918367346938775,1.08843537414966,1.08843537414966,1.0850340136054422,1.0816326530612246,1.0816326530612246,1.0816326530612246,1.0782312925170068,1.0748299319727892,1.0748299319727892,1.0714285714285714,1.0680272108843538,1.0680272108843538,1.064625850340136,1.064625850340136,1.064625850340136,1.0612244897959184,1.0612244897959184,1.0612244897959184,1.0612244897959184,1.0612244897959184,1.0612244897959184,1.0578231292517006,1.0578231292517006,1.054421768707483,1.054421768707483,1.0510204081632653,1.0476190476190477,1.0476190476190477,1.0476190476190477,1.0476190476190477,1.0476190476190477,1.0476190476190477,1.0476190476190477,1.0476190476190477,1.0476190476190477,1.0476190476190477,1.0476190476190477,1.0476190476190477,1.0476190476190477,1.0476190476190477,1.0476190476190477,1.0476190476190477,1.0476190476190477,1.0476190476190477,1.0476190476190477,1.0476190476190477,1.0476190476190477,1.0476190476190477,1.0476190476190477,1.0476190476190477,1.0476190476190477,1.0476190476190477,1.0476190476190477,1.0476190476190477,1.0476190476190477,1.0476190476190477,1.0476190476190477,1.0476190476190477,1.0476190476190477,1.0476190476190477,1.0476190476190477,1.0476190476190477,1.0476190476190477,1.0476190476190477,1.0476190476190477,1.0476190476190477,1.0476190476190477,1.0476190476190477,1.0476190476190477,1.0476190476190477,1.0476190476190477,1.0476190476190477,1.0476190476190477,1.0476190476190477,1.0476190476190477,1.0476190476190477,1.0476190476190477,1.0476190476190477,1.0476190476190477,1.0476190476190477,1.0476190476190477,1.0476190476190477,1.0476190476190477,1.0476190476190477,1.0476190476190477,1.0476190476190477,1.0476190476190477,1.0476190476190477,1.0476190476190477,1.0476190476190477,1.0476190476190477,1.0476190476190477,1.0476190476190477,1.0476190476190477,1.0476190476190477,1.0476190476190477,1.0476190476190477,1.0476190476190477,1.0476190476190477,1.0476190476190477,1.0476190476190477,1.0476190476190477,1.0476190476190477,1.0476190476190477,1.0476190476190477,1.0476190476190477,1.0476190476190477,1.0476190476190477,1.0476190476190477,1.0476190476190477,1.0476190476190477,1.0476190476190477,1.0476190476190477,1.0476190476190477,1.0476190476190477,1.0476190476190477,1.0476190476190477,1.0476190476190477,1.0476190476190477,1.0476190476190477,1.0476190476190477,1.0476190476190477,1.0476190476190477,1.0476190476190477,1.0476190476190477,1.0476190476190477,1.0476190476190477,1.0476190476190477,1.0476190476190477,1.0476190476190477,1.0476190476190477,1.0476190476190477,1.0476190476190477,1.0476190476190477,1.0476190476190477,1.0476190476190477,1.0476190476190477,1.0476190476190477,1.0476190476190477,1.0476190476190477,1.0476190476190477,1.0476190476190477,1.0476190476190477,1.0476190476190477,1.0476190476190477,1.0476190476190477,1.0476190476190477,1.0476190476190477,1.0476190476190477,1.0476190476190477,1.0476190476190477,1.0476190476190477,1.0476190476190477,1.0476190476190477,1.0476190476190477,1.0476190476190477,1.0476190476190477,1.0476190476190477,1.0476190476190477,1.0476190476190477,1.0476190476190477,1.0476190476190477,1.0476190476190477,1.0476190476190477,1.0476190476190477,1.0476190476190477,1.0476190476190477,1.0476190476190477,1.0476190476190477,1.0476190476190477,1.0476190476190477,1.0476190476190477,1.0476190476190477,1.0476190476190477,1.0476190476190477,1.0476190476190477,1.0476190476190477,1.0476190476190477,1.0476190476190477,1.0476190476190477,1.0476190476190477,1.0476190476190477,1.0476190476190477,1.0476190476190477,1.0476190476190477,1.0476190476190477,1.0476190476190477,1.0476190476190477,1.0476190476190477,1.0476190476190477,1.0476190476190477,1.0476190476190477,1.0476190476190477,1.0476190476190477,1.0476190476190477,1.0476190476190477,1.0476190476190477,1.0476190476190477,1.0476190476190477,1.0476190476190477,1.0476190476190477,1.0476190476190477,1.0476190476190477,1.0476190476190477,1.0476190476190477,1.0476190476190477,1.0476190476190477,1.0476190476190477,1.0476190476190477,1.0476190476190477,1.0476190476190477,1.0476190476190477,1.0272108843537415,0.9897959183673469,0.935374149659864,0.8843537414965986,0.8469387755102041,0.8231292517006803,0.7857142857142857,0.7721088435374149,0.7551020408163265,0.7448979591836735,0.7414965986394558,0.7380952380952381,0.7380952380952381,0.7380952380952381,0.7482993197278912,0.7585034013605442,0.7789115646258503,0.8129251700680272,0.8231292517006803,0.826530612244898,0.8299319727891157,0.8299319727891157,0.8299319727891157,0.8299319727891157,0.8299319727891157,0.8299319727891157,0.8299319727891157,0.8299319727891157,0.8299319727891157,0.8299319727891157,0.8299319727891157,0.8299319727891157,0.8299319727891157,0.8299319727891157,0.8299319727891157,0.8299319727891157,0.8299319727891157,0.8299319727891157,0.8299319727891157,0.8299319727891157,0.8231292517006803,0.8163265306122449,0.7993197278911565,0.7925170068027211,0.7891156462585034,0.7857142857142857,0.7857142857142857,0.7857142857142857,0.782312925170068,0.7789115646258503,0.7653061224489796,0.7585034013605442,0.7517006802721088,0.7380952380952381,0.7244897959183674,0.7006802721088435,0.6700680272108843,0.6428571428571429,0.6054421768707483,0.5714285714285714,0.5476190476190477,0.5238095238095238,0.5102040816326531,0.4931972789115646,0.47278911564625853,0.4523809523809524,0.4387755102040816,0.42517006802721086,0.4217687074829932,0.4217687074829932,0.41496598639455784,0.41156462585034015,0.41156462585034015,0.40816326530612246,0.40816326530612246,0.40816326530612246,0.40816326530612246,0.40816326530612246,0.40816326530612246,0.40816326530612246,0.40476190476190477,0.40476190476190477,0.3979591836734694,0.3877551020408163,0.37755102040816324,0.36054421768707484,0.3469387755102041,0.3401360544217687,0.336734693877551,0.3299319727891156,0.32653061224489793,0.3197278911564626,0.30612244897959184,0.2857142857142857,0.2619047619047619,0.24829931972789115,0.23809523809523808,0.23469387755102042,0.23469387755102042,0.23129251700680273,0.23129251700680273,0.23129251700680273,0.23129251700680273,0.23129251700680273,0.21768707482993196,0.20068027210884354,0.1564625850340136,0.1292517006802721,0.11904761904761904,0.11904761904761904,0.11904761904761904,0.11904761904761904,0.11904761904761904,0.11904761904761904,0.11904761904761904,0.11904761904761904,0.11904761904761904,0.11904761904761904,0.11904761904761904,0.11564625850340136,0.11564625850340136,0.11564625850340136,0.11564625850340136,0.11564625850340136,0.11564625850340136,0.11564625850340136,0.11564625850340136,0.11564625850340136,0.11564625850340136,0.11564625850340136,0.11564625850340136,0.11904761904761904,0.11904761904761904,0.11904761904761904,0.11904761904761904,0.12244897959183673,0.12244897959183673,0.12244897959183673,0.12244897959183673,0.12244897959183673,0.12244897959183673,0.12244897959183673,0.12244897959183673,0.12244897959183673,0.12244897959183673,0.12244897959183673,0.12244897959183673,0.12244897959183673,0.12585034013605442,0.1326530612244898,0.1326530612244898,0.1326530612244898,0.1326530612244898,0.1326530612244898,0.1326530612244898,0.1326530612244898,0.1326530612244898,0.1326530612244898,0.1326530612244898,0.1326530612244898,0.1326530612244898,0.1326530612244898,0.1326530612244898,0.1326530612244898,0.1326530612244898,0.1326530612244898,0.1326530612244898,0.1326530612244898,0.1326530612244898,0.1326530612244898,0.1326530612244898,0.1326530612244898,0.1326530612244898,0.1326530612244898,0.1326530612244898,0.1326530612244898,0.1326530612244898,0.1326530612244898,0.1326530612244898,0.1326530612244898,0.1326530612244898,0.1326530612244898,0.1326530612244898,0.1326530612244898,0.1326530612244898,0.1326530612244898,0.1326530612244898,0.1326530612244898,0.1326530612244898,0.1326530612244898,0.1326530612244898,0.1326530612244898,0.1326530612244898,0.1326530612244898,0.1326530612244898,0.1326530612244898,0.1326530612244898,0.1326530612244898,0.13945578231292516,0.14625850340136054,0.14965986394557823,0.15306122448979592,0.1564625850340136,0.1564625850340136,0.1598639455782313,0.16666666666666666,0.1870748299319728,0.21768707482993196,0.2755102040816326,0.3401360544217687,0.4217687074829932,0.4931972789115646,0.5476190476190477,0.5850340136054422,0.6122448979591837,0.6428571428571429,0.6700680272108843,0.6904761904761905,0.6972789115646258,0.7006802721088435,0.7006802721088435,0.7006802721088435,0.7006802721088435,0.7006802721088435,0.7006802721088435,0.7006802721088435,0.7006802721088435,0.7006802721088435,0.7006802721088435,0.7006802721088435,0.7006802721088435,0.7006802721088435,0.6972789115646258,0.6870748299319728,0.673469387755102,0.6666666666666666,0.6496598639455783,0.6360544217687075,0.6190476190476191,0.6122448979591837,0.608843537414966,0.6054421768707483,0.6054421768707483,0.6054421768707483,0.6054421768707483,0.6054421768707483,0.6054421768707483,0.6054421768707483,0.6054421768707483,0.6054421768707483,0.6054421768707483,0.6054421768707483,0.6054421768707483,0.6054421768707483,0.6054421768707483,0.6054421768707483,0.6054421768707483,0.6054421768707483,0.6054421768707483,0.6054421768707483,0.6054421768707483,0.6054421768707483,0.6054421768707483,0.6054421768707483,0.6054421768707483,0.6054421768707483,0.6054421768707483,0.6054421768707483,0.6054421768707483,0.6020408163265306,0.6122448979591837,0.6258503401360545,0.6428571428571429,0.6530612244897959,0.6666666666666666,0.6700680272108843,0.6768707482993197,0.6802721088435374,0.6802721088435374,0.6802721088435374,0.6802721088435374,0.6802721088435374,0.6700680272108843,0.6632653061224489,0.6598639455782312,0.6564625850340136,0.6530612244897959,0.6530612244897959,0.6496598639455783,0.6462585034013606,0.6462585034013606,0.6394557823129252,0.6360544217687075,0.6292517006802721,0.6258503401360545,0.6224489795918368,0.6156462585034014,0.6122448979591837,0.6054421768707483,0.6020408163265306,0.5952380952380952,0.5952380952380952,0.5850340136054422,0.5714285714285714,0.5612244897959183,0.54421768707483,0.5306122448979592,0.5170068027210885,0.5068027210884354,0.5,0.4931972789115646,0.48299319727891155,0.46938775510204084,0.4557823129251701,0.42517006802721086,0.40476190476190477,0.38095238095238093,0.35374149659863946,0.3299319727891156,0.3129251700680272,0.29931972789115646,0.2857142857142857,0.282312925170068,0.2789115646258503,0.2789115646258503,0.2755102040816326,0.272108843537415,0.2687074829931973,0.2653061224489796,0.2619047619047619,0.25510204081632654,0.25510204081632654,0.24829931972789115,0.24829931972789115,0.24829931972789115,0.24829931972789115,0.24829931972789115,0.24489795918367346,0.24489795918367346,0.24489795918367346,0.24489795918367346,0.24149659863945577,0.24149659863945577,0.24149659863945577,0.23809523809523808,0.23809523809523808,0.23809523809523808,0.23809523809523808,0.23809523809523808,0.23809523809523808,0.23809523809523808,0.23809523809523808,0.23809523809523808,0.23809523809523808,0.23809523809523808,0.23469387755102042,0.23469387755102042,0.23469387755102042,0.22789115646258504,0.22789115646258504,0.22789115646258504,0.22789115646258504,0.22789115646258504,0.23129251700680273,0.23809523809523808,0.24149659863945577,0.24829931972789115,0.24829931972789115,0.24829931972789115,0.24829931972789115,0.24829931972789115,0.25170068027210885,0.25170068027210885,0.25170068027210885,0.25510204081632654,0.2585034013605442,0.2585034013605442,0.2891156462585034,0.2891156462585034,0.2925170068027211,0.2925170068027211,0.2925170068027211,0.2925170068027211,0.2925170068027211,0.2925170068027211,0.2925170068027211,0.2925170068027211,0.29591836734693877,0.29591836734693877,0.29591836734693877,0.29591836734693877,0.29591836734693877,0.29591836734693877,0.29591836734693877,0.29591836734693877,0.29591836734693877,0.29591836734693877,0.29931972789115646,0.29931972789115646,0.29931972789115646,0.29931972789115646,0.29931972789115646,0.29931972789115646,0.29931972789115646,0.29931972789115646,0.29931972789115646,0.29931972789115646,0.29931972789115646,0.29931972789115646,0.29931972789115646,0.29931972789115646,0.29931972789115646,0.29931972789115646,0.29931972789115646,0.29931972789115646,0.29931972789115646,0.29931972789115646,0.3231292517006803,0.36054421768707484,0.3979591836734694,0.4421768707482993,0.5,0.5510204081632653,0.6054421768707483,0.6938775510204082,0.7551020408163265,0.7925170068027211,0.8163265306122449,0.8197278911564626,0.8197278911564626,0.8197278911564626,0.819727891