[{"success":true,"trial_type":"fullscreen","trial_index":0,"time_elapsed":3595,"internal_node_id":"0.0-0.0","protocol_sum":"","subject_identifier":212,"subject_sum":[72,45,150,115,207,238,93,227,145,249,127,222,77,28,132,249,248,214,242,207,7,132,252,255,185,88,180,3,45,231,35,108],"subject_pair":106,"STUDY_ID":"669eec2e4270c76bc184a38e","PROLIFIC_PID":"66892120a16e7ba60de0c1a4","SESSION_ID":"669f9cb5e8e1cb2694bae538","practice_instructions":1,"leaderboard_instructions":0,"bonus":1,"reveal_word":false,"self_rating":"1","confidence":"87"},{"view_history":"[{\"page_index\":0,\"viewing_time\":17862}]","rt":17862.199999928474,"trial_type":"instructions","trial_index":1,"time_elapsed":21459,"internal_node_id":"0.0-1.0","protocol_sum":"","subject_identifier":212,"subject_sum":[72,45,150,115,207,238,93,227,145,249,127,222,77,28,132,249,248,214,242,207,7,132,252,255,185,88,180,3,45,231,35,108],"subject_pair":106,"STUDY_ID":"669eec2e4270c76bc184a38e","PROLIFIC_PID":"66892120a16e7ba60de0c1a4","SESSION_ID":"669f9cb5e8e1cb2694bae538","practice_instructions":1,"leaderboard_instructions":0,"bonus":1,"reveal_word":false,"self_rating":"1","confidence":"87"},{"view_history":"[{\"page_index\":0,\"viewing_time\":3092.5}]","rt":3092.7000000476837,"trial_type":"instructions","trial_index":2,"time_elapsed":24552,"internal_node_id":"0.0-2.0-0.0","protocol_sum":"","subject_identifier":212,"subject_sum":[72,45,150,115,207,238,93,227,145,249,127,222,77,28,132,249,248,214,242,207,7,132,252,255,185,88,180,3,45,231,35,108],"subject_pair":106,"STUDY_ID":"669eec2e4270c76bc184a38e","PROLIFIC_PID":"66892120a16e7ba60de0c1a4","SESSION_ID":"669f9cb5e8e1cb2694bae538","practice_instructions":1,"leaderboard_instructions":0,"bonus":1,"reveal_word":false,"self_rating":"1","confidence":"87"},{"rt":19481.799999952316,"responses":"{\"Q0\":\"... reveal the word with as <b>few letter guesses</b> as possible\"}","question_order":"[0]","trial_type":"survey-multi-choice","trial_index":3,"time_elapsed":44036,"internal_node_id":"0.0-2.0-1.0","protocol_sum":"","subject_identifier":212,"subject_sum":[72,45,150,115,207,238,93,227,145,249,127,222,77,28,132,249,248,214,242,207,7,132,252,255,185,88,180,3,45,231,35,108],"subject_pair":106,"correct":true,"test_part":"multichoice_nonpretend","STUDY_ID":"669eec2e4270c76bc184a38e","PROLIFIC_PID":"66892120a16e7ba60de0c1a4","SESSION_ID":"669f9cb5e8e1cb2694bae538","practice_instructions":1,"leaderboard_instructions":0,"bonus":1,"reveal_word":false,"self_rating":"1","confidence":"87"},{"view_history":"[{\"page_index\":0,\"viewing_time\":6126.600000023842}]","rt":6126.800000071526,"trial_type":"instructions","trial_index":4,"time_elapsed":50164,"internal_node_id":"0.0-3.0","protocol_sum":"","subject_identifier":212,"subject_sum":[72,45,150,115,207,238,93,227,145,249,127,222,77,28,132,249,248,214,242,207,7,132,252,255,185,88,180,3,45,231,35,108],"subject_pair":106,"STUDY_ID":"669eec2e4270c76bc184a38e","PROLIFIC_PID":"66892120a16e7ba60de0c1a4","SESSION_ID":"669f9cb5e8e1cb2694bae538","practice_instructions":1,"leaderboard_instructions":0,"bonus":1,"reveal_word":false,"self_rating":"1","confidence":"87"},{"word":"ZEBRA","click_log":{"letter":["","N","L","B","A","U","Z","E","R"],"t":[0,5033,8762,12440.399999976158,14606.300000071526,18085.800000071526,20395.800000071526,22125.399999976158,26333.5],"hit":[null,0,0,1,1,0,1,1,1],"asked":["","N","NL","NLB","NLBA","NLBAU","NLBAUZ","NLBAUZE","NLBAUZER"],"word_state":["_____","_____","_____","__B__","__B_A","__B_A","Z_B_A","ZEB_A","ZEBRA"]},"hover_log":{"letter":["?","?","?","?","?","?","?","?","?","?","?","?","?","?","?","?","?","?","?","?","?","?","?","?","?","?","?","?","?","?","?","?","?","?","?","?","?","?","?","?","?","?","?","?","?","?","?","?","?","?","?","?","?","?","?","?","?","?","?","?","?","?","?","?","?","?","?","?","?","?","?","?","?","?","?","?","?","?","?","?","?","?","?","?","?","?","?","?","?","?","?","?","?","?","?","?","?","?","?","?","?","?","?","?","?","?","?","?","?","?","?","?","?","?","?","?","?","?","?","?","?","?","?","?","?","?","?","?","?","?","?","?","?","?","?","?","?","?","?","?","?","?","?","?","?","?","?","?","?","?","?","?","?","?","?","?","?","?","?","?","?","?","?","?","?","?","?","?","?","?","?","?","?","?","?","?","?","?","N","N","N","N","?","?","?","?","?","?","?","?","?","?","?","?","?","?","?","?","?","?","?","?","?","?","?","?","?","?","?","?","?","?","?","?","?","?","?","?","?","?","?","?","?","?","?","?","?","?","N","N","N","N","N","N","N","N","N","N","N","N","N","N","N","N","N","N","N","N","N","N","N","N","N","N","N","N","N","N","N","N","N","N","N","N","N","N","N","N","N","N","N","N","N","N","N","N","N","N","N","N","N","N","N","N","N","N","N","N","N","N","N","N","N","N","N","N","N","N","N","N","N","N","N","N","N","N","N","N","N","N","N","N","N","N","N","N","N","N","N","N","N","N","N","N","N","N","N","N","N","N","N","N","N","N","N","N","N","N","N","N","N","N","N","N","N","N","N","N","N","N","N","N","N","N","N","N","N","N","N","N","N","N","N","N","N","N","N","N","N","N","N","N","N","N","N","N","N","N","N","N","N","N","N","N","N","N","N","N","N","N","N","N","N","N","N","N","N","N","N","N","N","N","N","N","N","N","N","N","N","N","N","N","N","N","N","N","N","N","N","N","N","N","N","N","N","N","N","N","N","N","N","N","N","N","N","N","N","N","N","N","N","N","N","N","N","N","N","N","N","N","N","N","N","N","N","N","N","N","N","N","N","N","N","N","N","N","?","M","M","?","L","L","L","L","L","L","L","L","L","L","L","L","L","L","L","L","L","L","L","L","L","L","L","L","L","L","L","L","L","L","L","L","L","L","L","L","L","L","L","L","L","L","L","L","L","L","L","L","L","L","L","L","L","L","L","L","L","L","L","L","L","L","L","L","L","L","L","L","L","L","L","L","L","L","L","L","L","L","L","L","L","L","L","L","L","L","L","L","L","L","L","L","L","L","L","L","L","L","L","L","L","L","L","L","L","L","L","L","L","L","L","L","L","L","L","L","L","L","L","L","L","L","L","L","L","L","L","L","L","L","L","L","L","L","L","L","L","L","L","L","L","L","L","L","L","L","L","L","L","L","L","L","L","L","L","L","L","L","L","L","L","L","L","L","L","L","L","L","L","L","?","?","?","?","?","?","?","?","?","?","?","?","?","?","?","?","?","?","L","L","?","K","?","?","?","?","?","?","?","?","?","?","?","?","?","?","?","?","?","?","?","?","?","?","?","?","?","?","?","?","?","?","?","?","?","?","?","?","?","?","?","?","?","B","B","B","B","B","B","B","B","B","B","B","B","B","B","B","B","B","B","B","B","B","B","B","B","B","B","B","B","B","B","B","B","B","B","B","B","B","B","B","B","B","B","B","B","B","B","B","B","B","B","B","B","B","B","B","B","B","B","B","B","B","B","B","B","B","B","B","B","B","B","B","B","B","B","B","B","B","B","B","B","B","B","B","B","B","B","B","B","B","B","B","B","B","B","B","B","B","B","B","B","B","B","B","B","B","B","B","B","B","B","B","B","B","B","B","B","?","A","A","A","A","A","A","A","A","A","A","A","A","A","A","A","A","A","A","A","A","A","A","A","A","A","A","A","A","A","A","A","A","A","A","A","A","A","A","A","A","A","A","A","A","A","A","A","A","A","A","A","A","A","A","A","A","A","A","A","A","A","A","A","A","A","A","A","A","A","A","A","A","A","A","A","A","A","A","A","A","A","A","A","A","A","A","A","A","A","A","A","A","A","A","A","A","A","A","A","A","A","A","A","A","A","A","A","A","A","A","A","A","A","A","A","A","A","A","A","A","A","A","A","A","A","A","A","A","A","?","?","?","?","?","L","L","L","L","L","L","L","L","L","L","L","L","L","L","L","L","L","L","L","L","L","L","L","L","L","L","L","L","L","L","L","?","?","?","?","?","U","U","U","U","U","U","U","U","U","U","U","U","U","U","U","U","U","U","U","U","U","U","U","U","U","U","U","U","U","U","U","U","U","U","U","U","U","U","U","U","U","U","U","U","U","U","U","U","U","U","U","U","U","U","U","U","U","U","U","U","U","U","U","U","U","U","U","U","U","U","U","U","U","U","U","U","U","U","U","U","U","U","U","U","U","U","U","U","U","U","U","U","U","U","U","U","U","U","U","U","U","U","U","U","U","U","U","U","U","U","U","U","U","U","U","U","U","U","U","U","U","U","U","U","U","U","U","U","U","U","U","U","U","U","U","U","U","U","U","U","U","U","U","U","U","U","U","U","?","?","?","X","X","X","X","?","?","?","?","Y","Y","Y","Y","Y","Y","Y","Y","Y","Y","Y","Y","Y","Y","Y","Y","Y","Y","?","?","?","Z","Z","Z","Z","Z","Z","Z","Z","Z","Z","Z","Z","Z","Z","Z","Z","Z","Z","Z","Z","Z","Z","Z","Z","Z","Z","Z","Z","Z","Z","Z","Z","Z","Z","Z","Z","Z","Z","Z","Z","Z","Z","Z","Z","Z","Z","Z","Z","Z","Z","Z","Z","Z","Z","Z","Z","Z","Z","Z","Z","Z","Z","Z","Z","Z","Z","Z","Z","Z","Z","Z","Z","Z","Z","Z","Z","Z","Z","Z","Z","Z","Z","Z","Z","Z","Z","Z","Z","?","?","?","O","N","?","?","?","?","?","?","?","?","?","?","?","?","?","?","?","?","?","?","D","?","E","E","E","E","E","E","E","E","E","E","E","E","E","E","E","E","E","E","E","E","E","E","E","E","E","E","E","E","E","E","E","E","E","E","E","E","E","E","E","E","E","E","E","E","E","E","E","E","E","E","E","E","E","E","E","E","E","E","E","E","E","E","E","E","E","E","E","E","E","E","E","E","E","E","E","E","E","E","E","E","E","E","E","E","E","E","E","E","E","E","E","E","E","E","E","E","E","E","E","E","E","E","E","E","E","E","E","E","E","E","E","E","E","E","E","E","E","E","E","E","E","E","E","E","E","E","E","E","E","E","E","D","D","C","C","?","?","B","B","B","B","B","B","B","B","B","B","?","?","?","?","?","?","?","?","K","K","K","K","K","K","K","K","K","?","?","?","?","?","?","?","?","?","?","K","?","L","?","?","?","?","E","E","E","E","E","E","E","E","?","?","F","F","F","F","F","F","F","F","F","F","F","F","F","F","F","F","F","F","E","E","E","E","E","E","E","E","E","?","O","O","?","?","?","?","?","?","?","?","?","?","?","?","?","Q","Q","Q","Q","Q","?","?","?","?","?","?","?","?","?","?","R","R","R","R","R","R","R","R","R","R","R","R","R","R","R","R","R","R","R","R","R","R","R","R","R","R","R","R","R","R","R","R","R","R","R","R","R","R","R","R","R","R","R","R","R","R","R","R","R","R","R","R","R","R","R","R","R","R","R","R","R","R","R","R","R","R","R","R","R","R","R","R","R","R","R","R","R","R","R","R","R","R","R","R","R","R","R","R","R","R","R","R","R","R","R","R","R","R","R","R","R","R","R","R","R","R","R","R","R","R","R","R","R","R","R","R","R","R","R","R","R","R","R","R","R","R","R","R","R","R","R","R","R","R","R","R","R","R","R","R","R","R","R","R","R","R","R","R","R","R","R","R","R","R","R","R","R","R","R","R","R","R","R","R","R","R","R","R","R"],"t":[25,33,49,65,82,99,123,131,149,166,183,200,216,234,251,267,285,301,317,335,349,365,382,400,416,433,449,466,483,500,517,532,550,567,582,598,615,632,649,665,683,699,716,733,749,765,782,799,816,833,849,866,883,900,917,932,949,966,983,999,1016,1033,1049,1065,1083,1099,1117,1131,1148,1164,1182,1199,1215,1233,1249,1266,1282,1299,1315,1332,1349,1366,1382,1399,1415,1433,1449,1466,1482,1499,1516,1533,1548,1564,1580,1597,1614,1630,1647,1665,1682,1698,1716,1732,1748,1766,1782,1799,1816,1832,1848,1865,1882,1898,1915,1933,1948,1965,1981,1998,2014,2031,2047,2065,2081,2096,2113,2130,2147,2166,2182,2198,2215,2232,2249,2265,2282,2298,2315,2331,2348,2365,2382,2399,2415,2431,2448,2464,2480,2498,2516,2532,2548,2565,2580,2598,2613,2630,2649,2664,2681,2700,2717,2733,2748,2766,2779,2796,2813,2830,2849,2865,2882,2896,2913,2930,2946,2964,2980,2997,3013,3029,3048,3064,3080,3097,3114,3131,3148,3163,3180,3198,3214,3230,3246,3262,3280,3296,3313,3329,3346,3363,3380,3397,3414,3430,3447,3464,3482,3497,3514,3530,3546,3563,3580,3596,3612,3630,3646,3665,3681,3696,3714,3732,3747,3763,3779,3796,3814,3830,3847,3864,3882,3896,3913,3931,3946,3962,3978,3996,4013,4030,4047,4065,4080,4097,4114,4129,4147,4164,4180,4197,4213,4230,4246,4264,4280,4297,4314,4329,4346,4364,4379,4396,4411,4428,4445,4462,4478,4496,4512,4529,4546,4563,4580,4597,4612,4629,4645,4662,4678,4696,4713,4729,4745,4764,4780,4796,4814,4830,4847,4864,4880,4897,4913,4930,4948,4964,4980,4997,5014,5031,5047,5064,5079,5098,5114,5130,5147,5164,5180,5196,5212,5229,5246,5263,5280,5297,5313,5330,5346,5364,5380,5397,5414,5430,5445,5462,5479,5496,5514,5531,5546,5563,5579,5597,5611,5627,5644,5661,5678,5695,5713,5730,5747,5763,5778,5794,5810,5828,5845,5863,5880,5897,5913,5930,5948,5961,5978,5995,6012,6029,6046,6063,6079,6095,6113,6129,6147,6161,6177,6194,6211,6228,6245,6262,6278,6297,6312,6328,6345,6363,6377,6393,6410,6427,6443,6460,6478,6494,6511,6529,6546,6561,6577,6595,6612,6628,6644,6660,6676,6693,6710,6727,6743,6759,6777,6794,6811,6828,6845,6862,6879,6895,6912,6928,6943,6960,6977,6995,7011,7028,7046,7061,7080,7094,7112,7129,7145,7160,7177,7194,7210,7231,7259,7277,7295,7311,7327,7344,7361,7377,7394,7410,7427,7446,7459,7477,7494,7510,7527,7543,7559,7577,7594,7610,7627,7642,7658,7675,7692,7708,7725,7743,7759,7777,7794,7811,7827,7843,7859,7876,7892,7908,7924,7942,7958,7975,7991,8008,8025,8042,8059,8075,8092,8109,8126,8143,8159,8176,8194,8209,8226,8243,8259,8276,8291,8308,8324,8340,8357,8374,8391,8409,8426,8443,8458,8475,8492,8509,8526,8542,8559,8575,8591,8608,8625,8641,8657,8674,8691,8708,8728,8741,8757,8775,8791,8808,8825,8841,8858,8875,8893,8909,8925,8943,8959,8975,8993,9009,9025,9042,9059,9076,9092,9109,9126,9142,9159,9175,9192,9209,9225,9242,9259,9275,9292,9309,9325,9341,9358,9375,9392,9408,9426,9442,9458,9475,9490,9506,9523,9540,9557,9574,9591,9608,9624,9641,9657,9673,9690,9707,9724,9741,9758,9774,9791,9808,9824,9841,9858,9875,9891,9908,9925,9941,9958,9974,9991,10008,10024,10041,10057,10074,10091,10108,10124,10141,10158,10174,10190,10206,10223,10240,10257,10274,10290,10307,10324,10341,10357,10374,10391,10407,10424,10440,10457,10473,10489,10505,10522,10539,10556,10573,10590,10607,10624,10641,10657,10673,10689,10706,10723,10739,10756,10772,10789,10805,10822,10839,10855,10872,10889,10906,10923,10940,10957,10974,10989,11006,11023,11039,11055,11072,11089,11105,11122,11139,11156,11172,11189,11206,11223,11241,11257,11274,11290,11305,11324,11340,11357,11374,11390,11406,11424,11440,11457,11473,11490,11507,11523,11540,11556,11574,11589,11606,11622,11638,11654,11671,11688,11706,11722,11741,11756,11773,11790,11807,11822,11839,11855,11871,11888,11906,11922,11940,11956,11973,11990,12006,12023,12040,12055,12073,12089,12106,12123,12139,12155,12171,12188,12206,12223,12239,12256,12273,12289,12306,12323,12339,12355,12371,12388,12405,12422,12439,12460,12471,12489,12505,12521,12538,12556,12572,12588,12605,12622,12639,12656,12672,12688,12704,12721,12738,12755,12773,12789,12805,12823,12839,12856,12873,12889,12906,12923,12939,12956,12972,12989,13005,13022,13039,13055,13071,13087,13104,13120,13137,13155,13172,13189,13205,13222,13238,13255,13272,13289,13305,13322,13339,13355,13372,13388,13405,13422,13439,13455,13472,13489,13505,13522,13538,13555,13572,13589,13605,13621,13639,13655,13671,13687,13703,13720,13736,13754,13770,13786,13803,13821,13836,13853,13870,13886,13903,13920,13937,13954,13971,13987,14005,14022,14038,14055,14070,14087,14104,14122,14139,14154,14170,14187,14204,14221,14237,14253,14269,14286,14303,14320,14336,14354,14369,14387,14404,14420,14436,14454,14470,14487,14503,14520,14537,14553,14570,14586,14603,14620,14637,14653,14670,14687,14704,14720,14737,14754,14770,14787,14803,14822,14837,14854,14870,14886,14904,14921,14937,14954,14970,14986,15003,15020,15037,15053,15069,15086,15103,15120,15136,15154,15171,15187,15204,15220,15237,15254,15270,15286,15304,15319,15336,15352,15369,15386,15403,15420,15437,15454,15470,15487,15503,15519,15536,15553,15569,15586,15602,15620,15636,15654,15670,15686,15703,15720,15734,15751,15768,15785,15801,15820,15837,15853,15869,15885,15901,15920,15935,15951,15969,15985,16001,16018,16035,16052,16070,16086,16103,16120,16137,16153,16170,16187,16203,16219,16237,16253,16269,16287,16303,16320,16337,16352,16369,16385,16403,16418,16436,16453,16469,16486,16503,16519,16535,16551,16567,16585,16602,16618,16634,16652,16669,16686,16702,16717,16734,16751,16767,16784,16801,16819,16835,16852,16868,16885,16902,16919,16935,16952,16969,16985,17002,17019,17035,17052,17069,17086,17102,17119,17135,17152,17169,17185,17203,17218,17234,17251,17268,17285,17302,17319,17336,17352,17369,17386,17403,17418,17434,17451,17468,17486,17501,17518,17534,17552,17568,17585,17602,17619,17635,17652,17668,17686,17702,17719,17734,17750,17767,17784,17800,17817,17835,17852,17868,17885,17901,17917,17934,17951,17968,17985,18002,18018,18035,18051,18067,18085,18102,18118,18134,18150,18167,18184,18201,18218,18234,18250,18266,18283,18300,18316,18333,18350,18367,18385,18401,18417,18435,18452,18468,18484,18501,18518,18534,18551,18567,18584,18600,18616,18633,18650,18668,18684,18701,18717,18734,18750,18766,18783,18800,18817,18834,18851,18867,18884,18900,18916,18933,18950,18968,18985,19001,19018,19033,19050,19066,19082,19098,19115,19133,19149,19166,19183,19199,19216,19233,19249,19266,19283,19298,19315,19332,19349,19365,19382,19399,19416,19432,19449,19465,19482,19500,19516,19533,19550,19566,19583,19600,19616,19633,19650,19667,19683,19700,19716,19734,19750,19765,19781,19798,19815,19832,19849,19866,19883,19900,19916,19933,19950,19967,19982,19998,20015,20032,20048,20066,20083,20100,20117,20132,20149,20166,20183,20200,20216,20233,20249,20266,20283,20299,20317,20332,20348,20366,20381,20398,20416,20431,20449,20464,20481,20499,20515,20531,20549,20565,20581,20598,20615,20631,20647,20665,20681,20699,20714,20732,20747,20764,20781,20799,20814,20831,20848,20864,20882,20897,20914,20930,20948,20963,20982,20997,21013,21031,21047,21065,21082,21097,21114,21131,21148,21164,21180,21197,21214,21231,21247,21264,21281,21297,21315,21332,21348,21365,21381,21397,21413,21431,21447,21464,21481,21498,21515,21533,21549,21565,21580,21597,21614,21630,21647,21664,21680,21698,21714,21732,21748,21764,21782,21797,21813,21830,21847,21864,21881,21898,21915,21932,21948,21965,21982,21998,22014,22031,22047,22064,22080,22097,22113,22131,22148,22164,22181,22198,22214,22231,22248,22264,22281,22298,22315,22331,22348,22364,22381,22398,22413,22429,22448,22463,22481,22497,22514,22530,22546,22564,22580,22596,22613,22631,22648,22667,22682,22699,22715,22732,22749,22765,22781,22798,22814,22830,22848,22864,22880,22897,22914,22930,22947,22963,22980,22997,23013,23030,23046,23064,23080,23096,23113,23129,23146,23163,23180,23197,23213,23230,23247,23263,23280,23296,23313,23330,23346,23363,23380,23396,23413,23430,23446,23463,23479,23496,23513,23529,23546,23563,23580,23596,23612,23629,23645,23661,23679,23695,23712,23728,23745,23762,23779,23795,23812,23829,23844,23861,23878,23895,23911,23929,23944,23962,23979,23995,24012,24029,24044,24061,24078,24095,24111,24127,24144,24161,24178,24195,24211,24228,24245,24262,24280,24296,24313,24329,24346,24361,24377,24394,24411,24429,24446,24462,24479,24496,24510,24527,24544,24561,24578,24594,24611,24627,24645,24662,24678,24695,24712,24729,24746,24762,24779,24796,24812,24827,24844,24861,24877,24894,24912,24927,24944,24961,24977,24994,25011,25027,25043,25061,25077,25094,25110,25127,25143,25160,25177,25195,25210,25227,25244,25261,25277,25295,25310,25328,25343,25361,25379,25395,25411,25428,25444,25462,25478,25495,25511,25528,25545,25561,25578,25594,25614,25628,25646,25662,25678,25695,25711,25729,25745,25762,25778,25795,25811,25827,25843,25860,25878,25894,25911,25928,25944,25961,25978,25995,26012,26028,26045,26061,26078,26095,26111,26128,26144,26161,26178,26195,26211,26228,26245,26261,26278,26295,26310,26327,26349,26361,26378,26395,26411,26428,26446,26461,26478,26494,26510,26527,26544,26561,26578,26594,26611,26629,26643,26660,26676,26694,26711,26727,26744,26761,26777,26794,26810,26827,26842,26859,26876,26893,26909,26927,26944,26960,26977,26994,27010,27027,27043,27060,27076,27094,27111,27127,27143,27160,27177,27194,27210,27227,27244,27261,27277,27293,27310,27327,27343,27361,27377,27393,27410,27427,27444,27460,27477,27494,27510,27527,27544,27560,27576,27593,27609,27627,27643,27660,27677,27694,27710,27727,27743,27760,27777,27793,27810,27827,27843,27858,27875,27891,27909,27925,27942,27960,27976,27993,28010,28027,28044,28061,28077,28094,28110,28127,28142,28160,28177,28193,28209,28227,28243,28259,28275,28293,28308,28326,28343],"hit":[null],"x":[-1.6054421768707483,-1.6054421768707483,-1.6054421768707483,-1.6054421768707483,-1.6054421768707483,-1.6054421768707483,-1.6054421768707483,-1.6054421768707483,-1.6054421768707483,-1.6054421768707483,-1.6054421768707483,-1.6054421768707483,-1.6054421768707483,-1.6054421768707483,-1.6054421768707483,-1.6054421768707483,-1.6054421768707483,-1.6054421768707483,-1.6054421768707483,-1.6054421768707483,-1.6054421768707483,-1.6054421768707483,-1.6054421768707483,-1.6054421768707483,-1.6054421768707483,-1.6054421768707483,-1.6054421768707483,-1.6054421768707483,-1.6054421768707483,-1.6054421768707483,-1.6054421768707483,-1.6054421768707483,-1.6054421768707483,-1.6054421768707483,-1.6054421768707483,-1.6054421768707483,-1.6054421768707483,-1.6054421768707483,-1.6054421768707483,-1.6054421768707483,-1.6054421768707483,-1.6054421768707483,-1.6054421768707483,-1.6054421768707483,-1.6054421768707483,-1.6054421768707483,-1.6054421768707483,-1.6054421768707483,-1.6054421768707483,-1.6054421768707483,-1.6054421768707483,-1.6054421768707483,-1.6054421768707483,-1.6054421768707483,-1.6054421768707483,-1.6054421768707483,-1.6054421768707483,-1.6054421768707483,-1.6054421768707483,-1.6054421768707483,-1.6054421768707483,-1.6054421768707483,-1.6054421768707483,-1.6054421768707483,-1.6054421768707483,-1.6054421768707483,-1.6054421768707483,-1.6054421768707483,-1.6054421768707483,-1.6054421768707483,-1.6054421768707483,-1.6054421768707483,-1.6054421768707483,-1.6054421768707483,-1.6054421768707483,-1.6054421768707483,-1.6054421768707483,-1.6054421768707483,-1.6054421768707483,-1.6054421768707483,-1.6054421768707483,-1.6054421768707483,-1.6054421768707483,-1.6054421768707483,-1.6054421768707483,-1.6054421768707483,-1.6054421768707483,-1.6054421768707483,-1.6054421768707483,-1.6054421768707483,-1.6054421768707483,-1.6054421768707483,-1.6054421768707483,-1.6054421768707483,-1.6054421768707483,-1.6054421768707483,-1.6054421768707483,-1.6054421768707483,-1.6054421768707483,-1.6054421768707483,-1.6054421768707483,-1.6054421768707483,-1.6054421768707483,-1.6054421768707483,-1.6054421768707483,-1.6054421768707483,-1.6054421768707483,-1.6054421768707483,-1.6054421768707483,-1.6054421768707483,-1.6054421768707483,-1.6054421768707483,-1.6054421768707483,-1.6054421768707483,-1.6054421768707483,-1.6054421768707483,-1.6054421768707483,-1.6054421768707483,-1.6054421768707483,-1.6054421768707483,-1.6054421768707483,-1.6054421768707483,-1.6054421768707483,-1.6054421768707483,-1.6054421768707483,-1.6054421768707483,-1.6054421768707483,-1.6054421768707483,-1.6054421768707483,2.2891156462585034,2.4183673469387754,2.7448979591836733,2.7448979591836733,2.7448979591836733,2.7448979591836733,2.7448979591836733,2.7448979591836733,2.7448979591836733,2.7448979591836733,2.7448979591836733,2.7448979591836733,2.727891156462585,2.697278911564626,2.6530612244897958,2.6054421768707483,2.557823129251701,2.493197278911565,2.3741496598639458,2.204081632653061,2.1258503401360542,2.054421768707483,1.989795918367347,1.9795918367346939,1.969387755102041,1.935374149659864,1.8843537414965987,1.8503401360544218,1.8503401360544218,1.8503401360544218,1.8503401360544218,1.8503401360544218,1.8503401360544218,1.8503401360544218,1.8503401360544218,1.8503401360544218,1.8503401360544218,1.8503401360544218,1.8503401360544218,1.8503401360544218,1.8503401360544218,1.8503401360544218,1.8503401360544218,1.7006802721088434,1.3265306122448979,1.0612244897959184,0.8605442176870748,0.7006802721088435,0.6496598639455783,0.6122448979591837,0.5918367346938775,0.5714285714285714,0.5544217687074829,0.5476190476190477,0.5476190476190477,0.5476190476190477,0.5476190476190477,0.5476190476190477,0.5476190476190477,0.5476190476190477,0.5476190476190477,0.5476190476190477,0.5476190476190477,0.5476190476190477,0.5476190476190477,0.5476190476190477,0.5476190476190477,0.5476190476190477,0.5476190476190477,0.5476190476190477,0.5476190476190477,0.5476190476190477,0.5476190476190477,0.5476190476190477,0.5476190476190477,0.5476190476190477,0.5476190476190477,0.5476190476190477,0.5476190476190477,0.5476190476190477,0.5476190476190477,0.5476190476190477,0.5476190476190477,0.5476190476190477,0.5476190476190477,0.5476190476190477,0.5476190476190477,0.5476190476190477,0.5476190476190477,0.5476190476190477,0.5476190476190477,0.5476190476190477,0.5476190476190477,0.5476190476190477,0.5510204081632653,0.5510204081632653,0.5510204081632653,0.5510204081632653,0.5510204081632653,0.564625850340136,0.5714285714285714,0.5714285714285714,0.5714285714285714,0.5714285714285714,0.5714285714285714,0.5714285714285714,0.5714285714285714,0.5714285714285714,0.5714285714285714,0.5714285714285714,0.5714285714285714,0.5714285714285714,0.5714285714285714,0.5714285714285714,0.5714285714285714,0.5714285714285714,0.5714285714285714,0.5748299319727891,0.5748299319727891,0.5748299319727891,0.5748299319727891,0.5748299319727891,0.5748299319727891,0.5748299319727891,0.5748299319727891,0.5748299319727891,0.5748299319727891,0.5748299319727891,0.5748299319727891,0.5748299319727891,0.5748299319727891,0.5748299319727891,0.5748299319727891,0.5748299319727891,0.5748299319727891,0.5748299319727891,0.5748299319727891,0.5748299319727891,0.5748299319727891,0.5748299319727891,0.5748299319727891,0.5748299319727891,0.5748299319727891,0.5748299319727891,0.5748299319727891,0.5748299319727891,0.5748299319727891,0.5748299319727891,0.5748299319727891,0.5748299319727891,0.5748299319727891,0.5748299319727891,0.5748299319727891,0.5748299319727891,0.5748299319727891,0.5748299319727891,0.5748299319727891,0.5748299319727891,0.5748299319727891,0.5748299319727891,0.5748299319727891,0.5748299319727891,0.5748299319727891,0.5748299319727891,0.5748299319727891,0.5748299319727891,0.5748299319727891,0.5748299319727891,0.5748299319727891,0.5748299319727891,0.5748299319727891,0.5748299319727891,0.5748299319727891,0.5748299319727891,0.5748299319727891,0.5748299319727891,0.5748299319727891,0.5748299319727891,0.5748299319727891,0.5748299319727891,0.5748299319727891,0.5748299319727891,0.5748299319727891,0.5748299319727891,0.5748299319727891,0.5748299319727891,0.5748299319727891,0.5748299319727891,0.5748299319727891,0.5748299319727891,0.5748299319727891,0.5748299319727891,0.5748299319727891,0.5748299319727891,0.5748299319727891,0.5748299319727891,0.5748299319727891,0.5748299319727891,0.5748299319727891,0.5748299319727891,0.5748299319727891,0.5748299319727891,0.5748299319727891,0.5748299319727891,0.5748299319727891,0.5748299319727891,0.5748299319727891,0.5748299319727891,0.5748299319727891,0.5748299319727891,0.5748299319727891,0.5748299319727891,0.5748299319727891,0.5748299319727891,0.5748299319727891,0.5748299319727891,0.5748299319727891,0.5748299319727891,0.5748299319727891,0.5748299319727891,0.5748299319727891,0.5748299319727891,0.5748299319727891,0.5748299319727891,0.5748299319727891,0.5748299319727891,0.5748299319727891,0.5748299319727891,0.5748299319727891,0.5748299319727891,0.5748299319727891,0.5748299319727891,0.5748299319727891,0.5748299319727891,0.5748299319727891,0.5748299319727891,0.5748299319727891,0.5748299319727891,0.5748299319727891,0.5748299319727891,0.5748299319727891,0.5748299319727891,0.5748299319727891,0.5748299319727891,0.5748299319727891,0.5748299319727891,0.5748299319727891,0.5748299319727891,0.5748299319727891,0.5748299319727891,0.5748299319727891,0.5748299319727891,0.5748299319727891,0.5748299319727891,0.5748299319727891,0.5748299319727891,0.5748299319727891,0.5748299319727891,0.5748299319727891,0.5748299319727891,0.5748299319727891,0.5748299319727891,0.5748299319727891,0.5748299319727891,0.5748299319727891,0.5748299319727891,0.5748299319727891,0.5748299319727891,0.5748299319727891,0.5748299319727891,0.5748299319727891,0.5748299319727891,0.5748299319727891,0.5748299319727891,0.5748299319727891,0.5748299319727891,0.5748299319727891,0.5748299319727891,0.5748299319727891,0.5748299319727891,0.5748299319727891,0.5748299319727891,0.5748299319727891,0.5748299319727891,0.5748299319727891,0.5748299319727891,0.5748299319727891,0.5748299319727891,0.5748299319727891,0.5748299319727891,0.5748299319727891,0.5748299319727891,0.5748299319727891,0.5748299319727891,0.5748299319727891,0.5748299319727891,0.5748299319727891,0.5748299319727891,0.5748299319727891,0.5748299319727891,0.5748299319727891,0.5748299319727891,0.5748299319727891,0.5748299319727891,0.5748299319727891,0.5748299319727891,0.5748299319727891,0.5748299319727891,0.5748299319727891,0.5748299319727891,0.5748299319727891,0.5748299319727891,0.5748299319727891,0.5748299319727891,0.5748299319727891,0.5748299319727891,0.5748299319727891,0.5748299319727891,0.5748299319727891,0.5748299319727891,0.5748299319727891,0.5748299319727891,0.5748299319727891,0.5748299319727891,0.5748299319727891,0.5748299319727891,0.5748299319727891,0.5748299319727891,0.5748299319727891,0.5748299319727891,0.5748299319727891,0.5748299319727891,0.5748299319727891,0.5748299319727891,0.5748299319727891,0.564625850340136,0.5272108843537415,0.4897959183673469,0.4217687074829932,0.3945578231292517,0.36394557823129253,0.3299319727891156,0.3129251700680272,0.30272108843537415,0.2925170068027211,0.2925170068027211,0.2891156462585034,0.2857142857142857,0.2857142857142857,0.2857142857142857,0.2857142857142857,0.2857142857142857,0.2857142857142857,0.2857142857142857,0.2857142857142857,0.2857142857142857,0.2857142857142857,0.2857142857142857,0.2857142857142857,0.2857142857142857,0.2857142857142857,0.2857142857142857,0.2857142857142857,0.2857142857142857,0.2857142857142857,0.282312925170068,0.2789115646258503,0.2789115646258503,0.2789115646258503,0.2789115646258503,0.2789115646258503,0.2789115646258503,0.2789115646258503,0.2789115646258503,0.2789115646258503,0.2789115646258503,0.2789115646258503,0.2789115646258503,0.2789115646258503,0.2789115646258503,0.2789115646258503,0.2789115646258503,0.2789115646258503,0.2789115646258503,0.2789115646258503,0.2789115646258503,0.2789115646258503,0.2789115646258503,0.2789115646258503,0.2789115646258503,0.2789115646258503,0.2789115646258503,0.2789115646258503,0.2789115646258503,0.2789115646258503,0.2789115646258503,0.2789115646258503,0.2789115646258503,0.2789115646258503,0.2789115646258503,0.2789115646258503,0.2789115646258503,0.2789115646258503,0.2789115646258503,0.2789115646258503,0.2789115646258503,0.2789115646258503,0.2789115646258503,0.2789115646258503,0.2789115646258503,0.2789115646258503,0.2789115646258503,0.2789115646258503,0.2789115646258503,0.2789115646258503,0.2789115646258503,0.2789115646258503,0.2789115646258503,0.2789115646258503,0.2789115646258503,0.2789115646258503,0.2789115646258503,0.2789115646258503,0.2789115646258503,0.2789115646258503,0.2789115646258503,0.2789115646258503,0.2789115646258503,0.2789115646258503,0.2789115646258503,0.2789115646258503,0.2789115646258503,0.2789115646258503,0.2789115646258503,0.2789115646258503,0.2789115646258503,0.2789115646258503,0.2789115646258503,0.2789115646258503,0.2789115646258503,0.2789115646258503,0.2789115646258503,0.2789115646258503,0.2789115646258503,0.2789115646258503,0.2789115646258503,0.2789115646258503,0.2789115646258503,0.2789115646258503,0.2789115646258503,0.2789115646258503,0.2789115646258503,0.2789115646258503,0.2789115646258503,0.2789115646258503,0.2789115646258503,0.2789115646258503,0.2789115646258503,0.2789115646258503,0.2789115646258503,0.2789115646258503,0.2789115646258503,0.2789115646258503,0.2789115646258503,0.2789115646258503,0.2789115646258503,0.2789115646258503,0.2789115646258503,0.2789115646258503,0.2789115646258503,0.2789115646258503,0.2789115646258503,0.2789115646258503,0.2789115646258503,0.2789115646258503,0.2789115646258503,0.2789115646258503,0.2789115646258503,0.2789115646258503,0.2789115646258503,0.2789115646258503,0.2789115646258503,0.2789115646258503,0.2789115646258503,0.2789115646258503,0.2789115646258503,0.2789115646258503,0.2789115646258503,0.2789115646258503,0.2789115646258503,0.2789115646258503,0.2789115646258503,0.2789115646258503,0.2789115646258503,0.2789115646258503,0.2789115646258503,0.2789115646258503,0.2789115646258503,0.2789115646258503,0.2789115646258503,0.2789115646258503,0.2789115646258503,0.2789115646258503,0.2789115646258503,0.2789115646258503,0.2789115646258503,0.2789115646258503,0.2857142857142857,0.30612244897959184,0.3231292517006803,0.3333333333333333,0.35374149659863946,0.35714285714285715,0.36054421768707484,0.36054421768707484,0.36394557823129253,0.36394557823129253,0.3673469387755102,0.3673469387755102,0.3673469387755102,0.3673469387755102,0.3673469387755102,0.3673469387755102,0.3673469387755102,0.3673469387755102,0.3673469387755102,0.3673469387755102,0.36054421768707484,0.35374149659863946,0.336734693877551,0.272108843537415,0.20408163265306123,0.1598639455782313,0.1054421768707483,0.08163265306122448,0.07482993197278912,0.07142857142857142,0.06802721088435375,0.061224489795918366,0.061224489795918366,0.061224489795918366,0.061224489795918366,0.061224489795918366,0.061224489795918366,0.061224489795918366,0.061224489795918366,0.06802721088435375,0.08503401360544217,0.10204081632653061,0.10204081632653061,0.1054421768707483,0.10884353741496598,0.11224489795918367,0.11224489795918367,0.11224489795918367,0.11564625850340136,0.11564625850340136,0.11564625850340136,0.11564625850340136,0.11564625850340136,0.11564625850340136,0.11564625850340136,0.11564625850340136,0.11564625850340136,0.11564625850340136,0.11564625850340136,0.11564625850340136,0.11564625850340136,0.11564625850340136,0.11564625850340136,0.11564625850340136,0.11564625850340136,0.11564625850340136,0.11564625850340136,0.12585034013605442,0.12585034013605442,0.1292517006802721,0.1292517006802721,0.1292517006802721,0.1292517006802721,0.1326530612244898,0.1326530612244898,0.1326530612244898,0.1326530612244898,0.1360544217687075,0.1360544217687075,0.1360544217687075,0.1360544217687075,0.1360544217687075,0.1360544217687075,0.1360544217687075,0.1360544217687075,0.1360544217687075,0.1360544217687075,0.1360544217687075,0.1360544217687075,0.1360544217687075,0.1360544217687075,0.1360544217687075,0.1360544217687075,0.1360544217687075,0.1360544217687075,0.1360544217687075,0.1360544217687075,0.1360544217687075,0.1360544217687075,0.1360544217687075,0.1360544217687075,0.1360544217687075,0.1360544217687075,0.1360544217687075,0.1360544217687075,0.1360544217687075,0.1360544217687075,0.1360544217687075,0.1360544217687075,0.1360544217687075,0.1360544217687075,0.1360544217687075,0.1360544217687075,0.1360544217687075,0.1360544217687075,0.1360544217687075,0.1360544217687075,0.1360544217687075,0.1360544217687075,0.1360544217687075,0.1360544217687075,0.1360544217687075,0.1360544217687075,0.1360544217687075,0.1360544217687075,0.1360544217687075,0.1360544217687075,0.1360544217687075,0.1360544217687075,0.1360544217687075,0.1360544217687075,0.1360544217687075,0.1360544217687075,0.1360544217687075,0.1360544217687075,0.1360544217687075,0.1360544217687075,0.1360544217687075,0.1360544217687075,0.1360544217687075,0.1360544217687075,0.1360544217687075,0.1360544217687075,0.1360544217687075,0.1360544217687075,0.1360544217687075,0.1360544217687075,0.1360544217687075,0.1360544217687075,0.1360544217687075,0.1360544217687075,0.1360544217687075,0.1360544217687075,0.1360544217687075,0.1360544217687075,0.1360544217687075,0.1360544217687075,0.1360544217687075,0.1360544217687075,0.1360544217687075,0.1360544217687075,0.1360544217687075,0.1360544217687075,0.1360544217687075,0.1360544217687075,0.1360544217687075,0.1360544217687075,0.1360544217687075,0.1360544217687075,0.1360544217687075,0.1360544217687075,0.1360544217687075,0.1360544217687075,0.1360544217687075,0.1360544217687075,0.1360544217687075,0.1360544217687075,0.1360544217687075,0.1360544217687075,0.1360544217687075,0.1360544217687075,0.1360544217687075,0.12244897959183673,0.09183673469387756,0.05102040816326531,0.03741496598639456,0.02040816326530612,0.006802721088435374,0,-0.006802721088435374,-0.013605442176870748,-0.02040816326530612,-0.027210884353741496,-0.030612244897959183,-0.034013605442176874,-0.03741496598639456,-0.03741496598639456,-0.03741496598639456,-0.03741496598639456,-0.03741496598639456,-0.03741496598639456,-0.03741496598639456,-0.03741496598639456,-0.03741496598639456,-0.03741496598639456,-0.034013605442176874,-0.027210884353741496,-0.027210884353741496,-0.027210884353741496,-0.027210884353741496,-0.023809523809523808,-0.02040816326530612,-0.02040816326530612,-0.02040816326530612,-0.02040816326530612,-0.02040816326530612,-0.02040816326530612,-0.02040816326530612,-0.02040816326530612,-0.02040816326530612,-0.02040816326530612,-0.02040816326530612,-0.02040816326530612,-0.02040816326530612,-0.02040816326530612,-0.02040816326530612,-0.02040816326530612,-0.02040816326530612,-0.02040816326530612,-0.02040816326530612,-0.02040816326530612,-0.02040816326530612,-0.02040816326530612,-0.02040816326530612,-0.02040816326530612,-0.02040816326530612,-0.02040816326530612,-0.02040816326530612,-0.02040816326530612,-0.02040816326530612,-0.02040816326530612,-0.02040816326530612,-0.02040816326530612,-0.02040816326530612,-0.02040816326530612,-0.02040816326530612,-0.02040816326530612,-0.02040816326530612,-0.02040816326530612,-0.02040816326530612,-0.02040816326530612,-0.02040816326530612,-0.02040816326530612,-0.02040816326530612,-0.02040816326530612,-0.02040816326530612,-0.02040816326530612,-0.02040816326530612,-0.02040816326530612,-0.02040816326530612,-0.02040816326530612,-0.02040816326530612,-0.02040816326530612,-0.02040816326530612,-0.02040816326530612,-0.02040816326530612,-0.02040816326530612,-0.02040816326530612,-0.02040816326530612,-0.02040816326530612,-0.02040816326530612,-0.02040816326530612,-0.02040816326530612,-0.02040816326530612,-0.02040816326530612,-0.02040816326530612,-0.02040816326530612,-0.02040816326530612,-0.02040816326530612,-0.02040816326530612,-0.02040816326530612,-0.02040816326530612,-0.02040816326530612,-0.02040816326530612,-0.02040816326530612,-0.02040816326530612,-0.02040816326530612,-0.02040816326530612,-0.02040816326530612,-0.02040816326530612,-0.02040816326530612,-0.02040816326530612,-0.02040816326530612,-0.02040816326530612,-0.02040816326530612,-0.02040816326530612,-0.02040816326530612,-0.02040816326530612,-0.02040816326530612,-0.02040816326530612,-0.02040816326530612,-0.02040816326530612,-0.02040816326530612,-0.02040816326530612,-0.02040816326530612,-0.02040816326530612,-0.02040816326530612,-0.02040816326530612,-0.02040816326530612,-0.02040816326530612,-0.02040816326530612,0.013605442176870748,0.027210884353741496,0.05442176870748299,0.08503401360544217,0.14285714285714285,0.19047619047619047,0.24489795918367346,0.2755102040816326,0.2925170068027211,0.30272108843537415,0.30952380952380953,0.3163265306122449,0.3163265306122449,0.3197278911564626,0.3197278911564626,0.3197278911564626,0.3231292517006803,0.3231292517006803,0.32653061224489793,0.32653061224489793,0.3299319727891156,0.3299319727891156,0.3299319727891156,0.3333333333333333,0.336734693877551,0.336734693877551,0.3401360544217687,0.3401360544217687,0.3401360544217687,0.3401360544217687,0.3401360544217687,0.3401360544217687,0.3401360544217687,0.3401360544217687,0.3401360544217687,0.3401360544217687,0.3401360544217687,0.3401360544217687,0.3401360544217687,0.3401360544217687,0.3401360544217687,0.3401360544217687,0.32653061224489793,0.30952380952380953,0.2925170068027211,0.2857142857142857,0.2789115646258503,0.2789115646258503,0.272108843537415,0.272108843537415,0.272108843537415,0.2687074829931973,0.2687074829931973,0.2653061224489796,0.2653061224489796,0.2653061224489796,0.2653061224489796,0.2653061224489796,0.2653061224489796,0.2653061224489796,0.2653061224489796,0.2653061224489796,0.2653061224489796,0.2653061224489796,0.2653061224489796,0.2653061224489796,0.2653061224489796,0.2653061224489796,0.2653061224489796,0.2653061224489796,0.2653061224489796,0.2653061224489796,0.2653061224489796,0.2653061224489796,0.2653061224489796,0.2653061224489796,0.2653061224489796,0.2653061224489796,0.2653061224489796,0.2653061224489796,0.2653061224489796,0.2653061224489796,0.2653061224489796,0.2653061224489796,0.2653061224489796,0.2653061224489796,0.2653061224489796,0.2653061224489796,0.2653061224489796,0.2653061224489796,0.2653061224489796,0.2653061224489796,0.2653061224489796,0.2653061224489796,0.2653061224489796,0.2653061224489796,0.2653061224489796,0.2653061224489796,0.2653061224489796,0.2653061224489796,0.2653061224489796,0.2653061224489796,0.2653061224489796,0.2653061224489796,0.2653061224489796,0.2653061224489796,0.2653061224489796,0.2653061224489796,0.2653061224489796,0.2653061224489796,0.2653061224489796,0.2653061224489796,0.2653061224489796,0.2653061224489796,0.2653061224489796,0.2653061224489796,0.2653061224489796,0.2653061224489796,0.2653061224489796,0.2653061224489796,0.2653061224489796,0.2653061224489796,0.2653061224489796,0.2653061224489796,0.2653061224489796,0.2653061224489796,0.2653061224489796,0.2653061224489796,0.2653061224489796,0.2653061224489796,0.2653061224489796,0.2653061224489796,0.2653061224489796,0.2653061224489796,0.2653061224489796,0.2653061224489796,0.2653061224489796,0.2653061224489796,0.2653061224489796,0.2653061224489796,0.2653061224489796,0.2653061224489796,0.2653061224489796,0.2653061224489796,0.2653061224489796,0.2653061224489796,0.2653061224489796,0.2653061224489796,0.2653061224489796,0.2653061224489796,0.2653061224489796,0.2653061224489796,0.2653061224489796,0.2653061224489796,0.2653061224489796,0.2653061224489796,0.2653061224489796,0.2653061224489796,0.2653061224489796,0.2653061224489796,0.2653061224489796,0.2653061224489796,0.2653061224489796,0.2653061224489796,0.2653061224489796,0.2653061224489796,0.2653061224489796,0.2653061224489796,0.2653061224489796,0.2653061224489796,0.2653061224489796,0.2653061224489796,0.2653061224489796,0.2653061224489796,0.2653061224489796,0.2653061224489796,0.2653061224489796,0.2653061224489796,0.2653061224489796,0.2653061224489796,0.2653061224489796,0.2653061224489796,0.2653061224489796,0.2653061224489796,0.2653061224489796,0.2653061224489796,0.2653061224489796,0.2653061224489796,0.2653061224489796,0.2653061224489796,0.2925170068027211,0.3979591836734694,0.4897959183673469,0.608843537414966,0.6768707482993197,0.7312925170068028,0.7482993197278912,0.7687074829931972,0.7789115646258503,0.7891156462585034,0.7925170068027211,0.7959183673469388,0.8061224489795918,0.8095238095238095,0.8095238095238095,0.8163265306122449,0.8231292517006803,0.826530612244898,0.8367346938775511,0.8435374149659864,0.8503401360544217,0.8571428571428571,0.8571428571428571,0.8605442176870748,0.8605442176870748,0.8741496598639455,0.8775510204081632,0.8809523809523809,0.891156462585034,0.9013605442176871,0.9183673469387755,0.9285714285714286,0.9455782312925171,0.9625850340136054,0.9727891156462585,0.9761904761904762,0.9761904761904762,0.9795918367346939,0.9829931972789115,0.9931972789115646,1.0068027210884354,1.0068027210884354,1.010204081632653,1.010204081632653,1.0136054421768708,1.0136054421768708,1.0136054421768708,1.0136054421768708,1.0136054421768708,1.0136054421768708,1.0136054421768708,1.0136054421768708,1.0136054421768708,1.0136054421768708,1.0136054421768708,1.0136054421768708,1.0136054421768708,1.0136054421768708,1.0136054421768708,1.0136054421768708,1.0136054421768708,1.0136054421768708,1.0136054421768708,1.0136054421768708,1.0136054421768708,1.0136054421768708,1.0136054421768708,1.0136054421768708,1.0136054421768708,1.0136054421768708,1.0136054421768708,1.0136054421768708,1.0136054421768708,1.0136054421768708,1.0136054421768708,1.0136054421768708,1.0136054421768708,1.0136054421768708,1.0136054421768708,1.0136054421768708,1.0136054421768708,1.0136054421768708,1.0136054421768708,1.0136054421768708,1.0136054421768708,1.0136054421768708,1.0136054421768708,1.0136054421768708,1.0136054421768708,1.0136054421768708,1.0136054421768708,1.0136054421768708,1.0136054421768708,1.0136054421768708,1.0136054421768708,1.0136054421768708,1.0136054421768708,1.0136054421768708,1.0136054421768708,1.0136054421768708,1.0136054421768708,1.0136054421768708,1.0136054421768708,1.0136054421768708,1.0136054421768708,1.0136054421768708,1.0136054421768708,1.0136054421768708,1.0136054421768708,1.0136054421768708,1.0136054421768708,1.0136054421768708,1.0136054421768708,1.0136054421768708,1.0136054421768708,1.0136054421768708,1.0136054421768708,1.0136054421768708,1.0136054421768708,1.0136054421768708,1.0136054421768708,0.9251700680272109,0.8503401360544217,0.7551020408163265,0.6666666666666666,0.6054421768707483,0.5272108843537415,0.4965986394557823,0.48299319727891155,0.46258503401360546,0.46258503401360546,0.4557823129251701,0.4523809523809524,0.4489795918367347,0.4489795918367347,0.4489795918367347,0.4421768707482993,0.4387755102040816,0.4387755102040816,0.4387755102040816,0.4387755102040816,0.4387755102040816,0.4387755102040816,0.4387755102040816,0.46938775510204084,0.5034013605442177,0.5204081632653061,0.5272108843537415,0.5340136054421769,0.5340136054421769,0.5374149659863946,0.5374149659863946,0.5374149659863946,0.5374149659863946,0.5408163265306123,0.54421768707483,0.5476190476190477,0.5510204081632653,0.5510204081632653,0.5544217687074829,0.5544217687074829,0.5544217687074829,0.5578231292517006,0.5578231292517006,0.564625850340136,0.564625850340136,0.564625850340136,0.564625850340136,0.564625850340136,0.564625850340136,0.564625850340136,0.564625850340136,0.564625850340136,0.564625850340136,0.564625850340136,0.564625850340136,0.564625850340136,0.564625850340136,0.564625850340136,0.564625850340136,0.564625850340136,0.564625850340136,0.564625850340136,0.564625850340136,0.564625850340136,0.564625850340136,0.564625850340136,0.564625850340136,0.564625850340136,0.564625850340136,0.564625850340136,0.564625850340136,0.564625850340136,0.564625850340136,0.564625850340136,0.564625850340136,0.564625850340136,0.564625850340136,0.564625850340136,0.564625850340136,0.564625850340136,0.564625850340136,0.564625850340136,0.564625850340136,0.564625850340136,0.564625850340136,0.564625850340136,0.564625850340136,0.564625850340136,0.564625850340136,0.564625850340136,0.564625850340136,0.564625850340136,0.564625850340136,0.564625850340136,0.564625850340136,0.564625850340136,0.564625850340136,0.564625850340136,0.564625850340136,0.564625850340136,0.564625850340136,0.564625850340136,0.564625850340136,0.564625850340136,0.564625850340136,0.564625850340136,0.564625850340136,0.564625850340136,0.564625850340136,0.564625850340136,0.564625850340136,0.564625850340136,0.564625850340136,0.564625850340136,0.564625850340136,0.564625850340136,0.564625850340136,0.564625850340136,0.564625850340136,0.564625850340136,0.564625850340136,0.564625850340136,0.564625850340136,0.564625850340136,0.564625850340136,0.564625850340136,0.564625850340136,0.564625850340136,0.564625850340136,0.564625850340136,0.564625850340136,0.564625850340136,0.564625850340136,0.564625850340136,0.564625850340136,0.564625850340136,0.564625850340136,0.564625850340136,0.564625850340136,0.564625850340136,0.564625850340136,0.564625850340136,0.564625850340136,0.564625850340136,0.564625850340136,0.564625850340136,0.564625850340136,0.564625850340136,0.564625850340136,0.564625850340136,0.564625850340136,0.5714285714285714,0.5714285714285714,0.5714285714285714,0.5714285714285714,0.5476190476190477,0.47619047619047616,0.38095238095238093,0.30612244897959184,0.24489795918367346,0.20408163265306123,0.19047619047619047,0.17687074829931973,0.17006802721088435,0.17006802721088435,0.17006802721088435,0.17006802721088435,0.1598639455782313,0.14965986394557823,0.14625850340136054,0.14625850340136054,0.1360544217687075,0.12585034013605442,0.12244897959183673,0.11904761904761904,0.11564625850340136,0.11564625850340136,0.11564625850340136,0.11564625850340136,0.11564625850340136,0.11564625850340136,0.11564625850340136,0.11564625850340136,0.11564625850340136,0.11564625850340136,0.11564625850340136,0.11904761904761904,0.12244897959183673,0.12244897959183673,0.12244897959183673,0.12244897959183673,0.12244897959183673,0.12244897959183673,0.12244897959183673,0.12244897959183673,0.12244897959183673,0.12244897959183673,0.12244897959183673,0.1360544217687075,0.17346938775510204,0.22448979591836735,0.2925170068027211,0.3401360544217687,0.4013605442176871,0.46938775510204084,0.5034013605442177,0.5340136054421769,0.5612244897959183,0.5714285714285714,0.5714285714285714,0.5816326530612245,0.5918367346938775,0.6020408163265306,0.6190476190476191,0.6326530612244898,0.6462585034013606,0.6700680272108843,0.6802721088435374,0.7006802721088435,0.7142857142857143,0.7210884353741497,0.7244897959183674,0.7278911564625851,0.7278911564625851,0.7278911564625851,0.7278911564625851,0.7278911564625851,0.7278911564625851,0.7278911564625851,0.7278911564625851,0.7278911564625851,0.717687074829932,0.6904761904761905,0.6666666666666666,0.6258503401360545,0.608843537414966,0.5952380952380952,0.5816326530612245,0.5782312925170068,0.5714285714285714,0.5714285714285714,0.5714285714285714,0.5850340136054422,0.6020408163265306,0.673469387755102,0.7244897959183674,0.7619047619047619,0.7891156462585034,0.8095238095238095,0.8299319727891157,0.8537414965986394,0.8639455782312925,0.8707482993197279,0.8877551020408163,0.9115646258503401,0.9251700680272109,0.9523809523809523,0.9727891156462585,0.9829931972789115,1.0068027210884354,1.0204081632653061,1.0272108843537415,1.034013605442177,1.0408163265306123,1.0442176870748299,1.054421768707483,1.0578231292517006,1.0612244897959184,1.0680272108843538,1.0748299319727892,1.0748299319727892,1.08843537414966,1.0952380952380953,1.098639455782313,1.1020408163265305,1.1088435374149659,1.1088435374149659,1.1122448979591837,1.1156462585034013,1.1156462585034013,1.1156462585034013,1.1156462585034013,1.1156462585034013,1.1224489795918366,1.1224489795918366,1.1258503401360545,1.1258503401360545,1.1258503401360545,1.1258503401360545,1.1258503401360545,1.1258503401360545,1.1258503401360545,1.1258503401360545,1.1258503401360545,1.129251700680272,1.129251700680272,1.129251700680272,1.129251700680272,1.129251700680272,1.129251700680272,1.129251700680272,1.129251700680272,1.129251700680272,1.129251700680272,1.129251700680272,1.129251700680272,1.129251700680272,1.129251700680272,1.129251700680272,1.129251700680272,1.129251700680272,1.129251700680272,1.129251700680272,1.129251700680272,1.129251700680272,1.129251700680272,1.129251700680272,1.129251700680272,1.129251700680272,1.129251700680272,1.129251700680272,1.129251700680272,1.129251700680272,1.129251700680272,1.129251700680272,1.129251700680272,1.129251700680272,1.129251700680272,1.129251700680272,1.129251700680272,1.129251700680272,1.129251700680272,1.129251700680272,1.129251700680272,1.129251700680272,1.129251700680272,1.129251700680272,1.129251700680272,1.129251700680272,1.129251700680272,1.129251700680272,1.129251700680272,1.129251700680272,1.129251700680272,1.129251700680272,1.129251700680272,1.129251700680272,1.129251700680272,1.129251700680272,1.129251700680272,1.129251700680272,1.129251700680272,1.129251700680272,1.129251700680272,1.129251700680272,1.129251700680272,1.129251700680272,1.129251700680272,1.129251700680272,1.129251700680272,1.129251700680272,1.129251700680272,1.129251700680272,1.129251700680272,1.129251700680272,1.129251700680272,1.129251700680272,1.129251700680272,1.129251700680272,1.129251700680272,1.129251700680272,1.129251700680272,1.129251700680272,1.129251700680272,1.129251700680272,1.129251700680272,1.129251700680272,1.129251700680272,1.129251700680272,1.129251700680272,1.129251700680272,1.129251700680272,1.129251700680272,1.129251700680272,1.129251700680272,1.129251700680272,1.129251700680272,1.129251700680272,1.129251700680272,1.129251700680272,1.129251700680272,1.129251700680272,1.129251700680272,1.129251700680272,1.129251700680272,1.129251700680272,1.129251700680272,1.129251700680272,1.129251700680272,1.129251700680272,1.129251700680272,1.129251700680272,1.129251700680272,1.129251700680272,1.129251700680272,1.129251700680272,1.129251700680272,1.129251700680272,1.129251700680272,1.129251700680272,1.129251700680272,1.129251700680272,1.129251700680272,1.129251700680272,1.129251700680272,1.129251700680272,1.129251700680272,1.129251700680272,1.129251700680272,1.129251700680272,1.129251700680272,1.129251700680272,1.129251700680272,1.129251700680272,1.129251700680272,1.129251700680272,1.129251700680272,1.129251700680272,1.129251700680272,1.129251700680272,1.129251700680272,1.129251700680272,1.129251700680272,1.129251700680272,1.129251700680272,1.129251700680272,1.129251700680272,1.129251700680272,1.129251700680272,1.129251700680272,1.129251700680272,1.129251700680272,1.129251700680272],"y":[-2.857142857142857,-2.857142857142857,-2.857142857142857,-2.857142857142857,-2.857142857142857,-2.857142857142857,-2.857142857142857,-2.857142857142857,-2.857142857142857,-2.857142857142857,-2.857142857142857,-2.857142857142857,-2.857142857142857,-2.857142857142857,-2.857142857142857,-2.857142857142857,-2.857142857142857,-2.857142857142857,-2.857142857142857,-2.857142857142857,-2.857142857142857,-2.857142857142857,-2.857142857142857,-2.857142857142857,-2.857142857142857,-2.857142857142857,-2.857142857142857,-2.857142857142857,-2.857142857142857,-2.857142857142857,-2.857142857142857,-2.857142857142857,-2.857142857142857,-2.857142857142857,-2.857142857142857,-2.857142857142857,-2.857142857142857,-2.857142857142857,-2.857142857142857,-2.857142857142857,-2.857142857142857,-2.857142857142857,-2.857142857142857,-2.857142857142857,-2.857142857142857,-2.857142857142857,-2.857142857142857,-2.857142857142857,-2.857142857142857,-2.857142857142857,-2.857142857142857,-2.857142857142857,-2.857142857142857,-2.857142857142857,-2.857142857142857,-2.857142857142857,-2.857142857142857,-2.857142857142857,-2.857142857142857,-2.857142857142857,-2.857142857142857,-2.857142857142857,-2.857142857142857,-2.857142857142857,-2.857142857142857,-2.857142857142857,-2.857142857142857,-2.857142857142857,-2.857142857142857,-2.857142857142857,-2.857142857142857,-2.857142857142857,-2.857142857142857,-2.857142857142857,-2.857142857142857,-2.857142857142857,-2.857142857142857,-2.857142857142857,-2.857142857142857,-2.857142857142857,-2.857142857142857,-2.857142857142857,-2.857142857142857,-2.857142857142857,-2.857142857142857,-2.857142857142857,-2.857142857142857,-2.857142857142857,-2.857142857142857,-2.857142857142857,-2.857142857142857,-2.857142857142857,-2.857142857142857,-2.857142857142857,-2.857142857142857,-2.857142857142857,-2.857142857142857,-2.857142857142857,-2.857142857142857,-2.857142857142857,-2.857142857142857,-2.857142857142857,-2.857142857142857,-2.857142857142857,-2.857142857142857,-2.857142857142857,-2.857142857142857,-2.857142857142857,-2.857142857142857,-2.857142857142857,-2.857142857142857,-2.857142857142857,-2.857142857142857,-2.857142857142857,-2.857142857142857,-2.857142857142857,-2.857142857142857,-2.857142857142857,-2.857142857142857,-2.857142857142857,-2.857142857142857,-2.857142857142857,-2.857142857142857,-2.857142857142857,-2.857142857142857,-2.857142857142857,-2.857142857142857,-2.857142857142857,-2.857142857142857,-3.2142857142857144,-3.4523809523809526,-3.6619047619047618,-3.6619047619047618,-3.6619047619047618,-3.6619047619047618,-3.6619047619047618,-3.6619047619047618,-3.6619047619047618,-3.6619047619047618,-3.6619047619047618,-3.6619047619047618,-3.585714285714286,-3.5095238095238095,-3.433333333333333,-3.3857142857142857,-3.357142857142857,-3.3095238095238093,-3.1952380952380954,-2.8523809523809525,-2.6333333333333333,-2.4238095238095236,-2.2714285714285714,-2.2333333333333334,-2.2142857142857144,-2.1,-1.9095238095238096,-1.7476190476190476,-1.7380952380952381,-1.7380952380952381,-1.7380952380952381,-1.7380952380952381,-1.7380952380952381,-1.7380952380952381,-1.7380952380952381,-1.7380952380952381,-1.7380952380952381,-1.7380952380952381,-1.7380952380952381,-1.7380952380952381,-1.7380952380952381,-1.7380952380952381,-1.7380952380952381,-1.661904761904762,-1.2047619047619047,-0.7095238095238096,-0.28095238095238095,0.18571428571428572,0.32857142857142857,0.44285714285714284,0.5095238095238095,0.5857142857142857,0.6428571428571429,0.680952380952381,0.680952380952381,0.680952380952381,0.680952380952381,0.680952380952381,0.680952380952381,0.680952380952381,0.680952380952381,0.680952380952381,0.680952380952381,0.680952380952381,0.680952380952381,0.680952380952381,0.680952380952381,0.680952380952381,0.680952380952381,0.680952380952381,0.680952380952381,0.680952380952381,0.680952380952381,0.680952380952381,0.680952380952381,0.680952380952381,0.680952380952381,0.680952380952381,0.680952380952381,0.680952380952381,0.680952380952381,0.680952380952381,0.680952380952381,0.680952380952381,0.680952380952381,0.680952380952381,0.680952380952381,0.680952380952381,0.680952380952381,0.680952380952381,0.680952380952381,0.6714285714285714,0.6714285714285714,0.6714285714285714,0.6714285714285714,0.6714285714285714,0.6619047619047619,0.6619047619047619,0.6619047619047619,0.5857142857142857,0.5380952380952381,0.5285714285714286,0.5285714285714286,0.5285714285714286,0.5285714285714286,0.5285714285714286,0.5285714285714286,0.5285714285714286,0.5285714285714286,0.5285714285714286,0.5285714285714286,0.5285714285714286,0.5285714285714286,0.5285714285714286,0.5285714285714286,0.5285714285714286,0.5285714285714286,0.5285714285714286,0.5285714285714286,0.5285714285714286,0.5285714285714286,0.5285714285714286,0.5285714285714286,0.5285714285714286,0.5285714285714286,0.5285714285714286,0.5285714285714286,0.5285714285714286,0.5285714285714286,0.5285714285714286,0.5285714285714286,0.5285714285714286,0.5285714285714286,0.5285714285714286,0.5285714285714286,0.5285714285714286,0.5285714285714286,0.5285714285714286,0.5285714285714286,0.5285714285714286,0.5285714285714286,0.5285714285714286,0.5285714285714286,0.5285714285714286,0.5285714285714286,0.5285714285714286,0.5285714285714286,0.5285714285714286,0.5285714285714286,0.5285714285714286,0.5285714285714286,0.5285714285714286,0.5285714285714286,0.5285714285714286,0.5285714285714286,0.5285714285714286,0.5285714285714286,0.5285714285714286,0.5285714285714286,0.5285714285714286,0.5285714285714286,0.5285714285714286,0.5285714285714286,0.5285714285714286,0.5285714285714286,0.5285714285714286,0.5285714285714286,0.5285714285714286,0.5285714285714286,0.5285714285714286,0.5285714285714286,0.5285714285714286,0.5285714285714286,0.5285714285714286,0.5285714285714286,0.5285714285714286,0.5285714285714286,0.5285714285714286,0.5285714285714286,0.5285714285714286,0.5285714285714286,0.5285714285714286,0.5285714285714286,0.5285714285714286,0.5285714285714286,0.5285714285714286,0.5285714285714286,0.5285714285714286,0.5285714285714286,0.5285714285714286,0.5285714285714286,0.5285714285714286,0.5285714285714286,0.5285714285714286,0.5285714285714286,0.5285714285714286,0.5285714285714286,0.5285714285714286,0.5285714285714286,0.5285714285714286,0.5285714285714286,0.5285714285714286,0.5285714285714286,0.5285714285714286,0.5285714285714286,0.5285714285714286,0.5285714285714286,0.5285714285714286,0.5285714285714286,0.5285714285714286,0.5285714285714286,0.5285714285714286,0.5285714285714286,0.5285714285714286,0.5285714285714286,0.5285714285714286,0.5285714285714286,0.5285714285714286,0.5285714285714286,0.5285714285714286,0.5285714285714286,0.5285714285714286,0.5285714285714286,0.5285714285714286,0.5285714285714286,0.5285714285714286,0.5285714285714286,0.5285714285714286,0.5285714285714286,0.5285714285714286,0.5285714285714286,0.5285714285714286,0.5285714285714286,0.5285714285714286,0.5285714285714286,0.5285714285714286,0.5285714285714286,0.5285714285714286,0.5285714285714286,0.5285714285714286,0.5285714285714286,0.5285714285714286,0.5285714285714286,0.5285714285714286,0.5285714285714286,0.5285714285714286,0.5285714285714286,0.5285714285714286,0.5285714285714286,0.5285714285714286,0.5285714285714286,0.5285714285714286,0.5285714285714286,0.5285714285714286,0.5285714285714286,0.5285714285714286,0.5285714285714286,0.5285714285714286,0.5285714285714286,0.5285714285714286,0.5285714285714286,0.5285714285714286,0.5285714285714286,0.5285714285714286,0.5285714285714286,0.5285714285714286,0.5285714285714286,0.5285714285714286,0.5285714285714286,0.5285714285714286,0.5285714285714286,0.5285714285714286,0.5285714285714286,0.5285714285714286,0.5285714285714286,0.5285714285714286,0.5285714285714286,0.5285714285714286,0.5285714285714286,0.5285714285714286,0.5285714285714286,0.5285714285714286,0.5285714285714286,0.5285714285714286,0.5285714285714286,0.5285714285714286,0.5285714285714286,0.5285714285714286,0.5285714285714286,0.5285714285714286,0.5285714285714286,0.5285714285714286,0.5285714285714286,0.5285714285714286,0.5285714285714286,0.5285714285714286,0.5285714285714286,0.5285714285714286,0.5285714285714286,0.5285714285714286,0.5285714285714286,0.5285714285714286,0.5285714285714286,0.5285714285714286,0.5285714285714286,0.5285714285714286,0.5285714285714286,0.5285714285714286,0.5285714285714286,0.5285714285714286,0.5285714285714286,0.5285714285714286,0.5285714285714286,0.5285714285714286,0.5285714285714286,0.5285714285714286,0.5285714285714286,0.5285714285714286,0.5285714285714286,0.5285714285714286,0.5285714285714286,0.5285714285714286,0.5285714285714286,0.5285714285714286,0.5285714285714286,0.5285714285714286,0.5285714285714286,0.5285714285714286,0.5285714285714286,0.5285714285714286,0.5285714285714286,0.5285714285714286,0.5285714285714286,0.5285714285714286,0.5285714285714286,0.5190476190476191,0.5,0.48095238095238096,0.46190476190476193,0.46190476190476193,0.4523809523809524,0.43333333333333335,0.43333333333333335,0.43333333333333335,0.43333333333333335,0.43333333333333335,0.43333333333333335,0.43333333333333335,0.43333333333333335,0.43333333333333335,0.43333333333333335,0.43333333333333335,0.43333333333333335,0.43333333333333335,0.43333333333333335,0.43333333333333335,0.44285714285714284,0.4523809523809524,0.4523809523809524,0.4523809523809524,0.4523809523809524,0.46190476190476193,0.46190476190476193,0.46190476190476193,0.46190476190476193,0.46190476190476193,0.4714285714285714,0.4714285714285714,0.4714285714285714,0.4714285714285714,0.4714285714285714,0.4714285714285714,0.4714285714285714,0.4714285714285714,0.4714285714285714,0.4714285714285714,0.4714285714285714,0.4714285714285714,0.4714285714285714,0.4714285714285714,0.4714285714285714,0.4714285714285714,0.4714285714285714,0.4714285714285714,0.4714285714285714,0.4714285714285714,0.4714285714285714,0.4714285714285714,0.4714285714285714,0.4714285714285714,0.4714285714285714,0.4714285714285714,0.4714285714285714,0.4714285714285714,0.4714285714285714,0.4714285714285714,0.4714285714285714,0.4714285714285714,0.4714285714285714,0.4714285714285714,0.4714285714285714,0.4714285714285714,0.4714285714285714,0.4714285714285714,0.4714285714285714,0.4714285714285714,0.4714285714285714,0.4714285714285714,0.4714285714285714,0.4714285714285714,0.4714285714285714,0.4714285714285714,0.4714285714285714,0.4714285714285714,0.4714285714285714,0.4714285714285714,0.4714285714285714,0.4714285714285714,0.4714285714285714,0.4714285714285714,0.4714285714285714,0.4714285714285714,0.4714285714285714,0.4714285714285714,0.4714285714285714,0.4714285714285714,0.4714285714285714,0.4714285714285714,0.4714285714285714,0.4714285714285714,0.4714285714285714,0.4714285714285714,0.4714285714285714,0.4714285714285714,0.4714285714285714,0.4714285714285714,0.4714285714285714,0.4714285714285714,0.4714285714285714,0.4714285714285714,0.4714285714285714,0.4714285714285714,0.4714285714285714,0.4714285714285714,0.4714285714285714,0.4714285714285714,0.4714285714285714,0.4714285714285714,0.4714285714285714,0.4714285714285714,0.4714285714285714,0.4714285714285714,0.4714285714285714,0.4714285714285714,0.4714285714285714,0.4714285714285714,0.4714285714285714,0.4714285714285714,0.4714285714285714,0.4714285714285714,0.4714285714285714,0.4714285714285714,0.4714285714285714,0.4714285714285714,0.4714285714285714,0.4714285714285714,0.4714285714285714,0.4714285714285714,0.4714285714285714,0.4714285714285714,0.4714285714285714,0.4714285714285714,0.4714285714285714,0.4714285714285714,0.4714285714285714,0.4714285714285714,0.4714285714285714,0.4714285714285714,0.4714285714285714,0.4714285714285714,0.4714285714285714,0.4714285714285714,0.4714285714285714,0.4714285714285714,0.4714285714285714,0.4714285714285714,0.4714285714285714,0.4714285714285714,0.4714285714285714,0.4714285714285714,0.4714285714285714,0.4714285714285714,0.4714285714285714,0.4714285714285714,0.4714285714285714,0.4714285714285714,0.4714285714285714,0.4714285714285714,0.4714285714285714,0.4714285714285714,0.4714285714285714,0.4714285714285714,0.4714285714285714,0.4714285714285714,0.4714285714285714,0.4714285714285714,0.4714285714285714,0.4714285714285714,0.4714285714285714,0.4714285714285714,0.4523809523809524,0.4523809523809524,0.4523809523809524,0.4523809523809524,0.4523809523809524,0.4523809523809524,0.4523809523809524,0.4523809523809524,0.4523809523809524,0.4523809523809524,0.4523809523809524,0.4523809523809524,0.4523809523809524,0.4523809523809524,0.4523809523809524,0.4523809523809524,0.4523809523809524,0.4523809523809524,0.4523809523809524,0.4523809523809524,0.43333333333333335,0.38571428571428573,0.35714285714285715,0.3,0.2714285714285714,0.2619047619047619,0.2523809523809524,0.2523809523809524,0.24285714285714285,0.23333333333333334,0.23333333333333334,0.22380952380952382,0.22380952380952382,0.22380952380952382,0.22380952380952382,0.22380952380952382,0.21428571428571427,0.20476190476190476,0.19523809523809524,0.18571428571428572,0.18571428571428572,0.18571428571428572,0.18571428571428572,0.18571428571428572,0.18571428571428572,0.18571428571428572,0.18571428571428572,0.18571428571428572,0.18571428571428572,0.18571428571428572,0.1761904761904762,0.1761904761904762,0.1761904761904762,0.1761904761904762,0.1761904761904762,0.1761904761904762,0.1761904761904762,0.16666666666666666,0.16666666666666666,0.16666666666666666,0.16666666666666666,0.16666666666666666,0.16666666666666666,0.16666666666666666,0.12857142857142856,0.12857142857142856,0.10952380952380952,0.10952380952380952,0.10952380952380952,0.10952380952380952,0.10952380952380952,0.10952380952380952,0.10952380952380952,0.10952380952380952,0.10952380952380952,0.10952380952380952,0.10952380952380952,0.10952380952380952,0.10952380952380952,0.10952380952380952,0.10952380952380952,0.10952380952380952,0.10952380952380952,0.10952380952380952,0.10952380952380952,0.10952380952380952,0.10952380952380952,0.10952380952380952,0.10952380952380952,0.10952380952380952,0.10952380952380952,0.10952380952380952,0.10952380952380952,0.10952380952380952,0.10952380952380952,0.10952380952380952,0.10952380952380952,0.10952380952380952,0.10952380952380952,0.10952380952380952,0.10952380952380952,0.10952380952380952,0.10952380952380952,0.10952380952380952,0.10952380952380952,0.10952380952380952,0.10952380952380952,0.10952380952380952,0.10952380952380952,0.10952380952380952,0.10952380952380952,0.10952380952380952,0.10952380952380952,0.10952380952380952,0.10952380952380952,0.10952380952380952,0.10952380952380952,0.10952380952380952,0.10952380952380952,0.10952380952380952,0.10952380952380952,0.10952380952380952,0.10952380952380952,0.10952380952380952,0.10952380952380952,0.10952380952380952,0.10952380952380952,0.10952380952380952,0.10952380952380952,0.10952380952380952,0.10952380952380952,0.10952380952380952,0.10952380952380952,0.10952380952380952,0.10952380952380952,0.10952380952380952,0.10952380952380952,0.10952380952380952,0.10952380952380952,0.10952380952380952,0.10952380952380952,0.10952380952380952,0.10952380952380952,0.10952380952380952,0.10952380952380952,0.10952380952380952,0.10952380952380952,0.10952380952380952,0.10952380952380952,0.10952380952380952,0.10952380952380952,0.10952380952380952,0.10952380952380952,0.10952380952380952,0.10952380952380952,0.10952380952380952,0.10952380952380952,0.10952380952380952,0.10952380952380952,0.10952380952380952,0.10952380952380952,0.10952380952380952,0.10952380952380952,0.10952380952380952,0.10952380952380952,0.10952380952380952,0.10952380952380952,0.10952380952380952,0.10952380952380952,0.10952380952380952,0.10952380952380952,0.10952380952380952,0.10952380952380952,0.10952380952380952,0.10952380952380952,0.10952380952380952,0.10952380952380952,0.10952380952380952,0.10952380952380952,0.10952380952380952,0.10952380952380952,0.08095238095238096,0.07142857142857142,0.06190476190476191,0.05238095238095238,0.05238095238095238,0.05238095238095238,0.03333333333333333,0.03333333333333333,0.03333333333333333,0.03333333333333333,0.03333333333333333,0.03333333333333333,0.03333333333333333,0.03333333333333333,0.03333333333333333,0.03333333333333333,0.03333333333333333,0.03333333333333333,0.03333333333333333,0.03333333333333333,0.03333333333333333,0.03333333333333333,0.023809523809523808,0.023809523809523808,0.023809523809523808,0.023809523809523808,0.023809523809523808,0.023809523809523808,0.023809523809523808,0.023809523809523808,0.023809523809523808,0.023809523809523808,0.023809523809523808,0.023809523809523808,0.023809523809523808,0.023809523809523808,0.023809523809523808,0.023809523809523808,0.023809523809523808,0.023809523809523808,0.023809523809523808,0.023809523809523808,0.023809523809523808,0.023809523809523808,0.023809523809523808,0.023809523809523808,0.023809523809523808,0.023809523809523808,0.023809523809523808,0.023809523809523808,0.023809523809523808,0.023809523809523808,0.023809523809523808,0.023809523809523808,0.023809523809523808,0.023809523809523808,0.023809523809523808,0.023809523809523808,0.023809523809523808,0.023809523809523808,0.023809523809523808,0.023809523809523808,0.023809523809523808,0.023809523809523808,0.023809523809523808,0.023809523809523808,0.023809523809523808,0.023809523809523808,0.023809523809523808,0.023809523809523808,0.023809523809523808,0.023809523809523808,0.023809523809523808,0.023809523809523808,0.023809523809523808,0.023809523809523808,0.023809523809523808,0.023809523809523808,0.023809523809523808,0.023809523809523808,0.023809523809523808,0.023809523809523808,0.023809523809523808,0.023809523809523808,0.023809523809523808,0.023809523809523808,0.023809523809523808,0.023809523809523808,0.023809523809523808,0.023809523809523808,0.023809523809523808,0.023809523809523808,0.023809523809523808,0.023809523809523808,0.023809523809523808,0.023809523809523808,0.023809523809523808,0.023809523809523808,0.023809523809523808,0.023809523809523808,0.023809523809523808,0.023809523809523808,0.023809523809523808,0.023809523809523808,0.023809523809523808,0.023809523809523808,0.023809523809523808,0.023809523809523808,0.023809523809523808,0.023809523809523808,0.023809523809523808,0.023809523809523808,0.023809523809523808,0.023809523809523808,0.023809523809523808,0.023809523809523808,0.023809523809523808,0.023809523809523808,0.023809523809523808,0.023809523809523808,0.023809523809523808,0.023809523809523808,0.023809523809523808,0.023809523809523808,0.023809523809523808,0.023809523809523808,0.023809523809523808,0.07142857142857142,0.10952380952380952,0.14761904761904762,0.19523809523809524,0.24285714285714285,0.3,0.3761904761904762,0.4142857142857143,0.43333333333333335,0.44285714285714284,0.44285714285714284,0.4523809523809524,0.4523809523809524,0.4523809523809524,0.4523809523809524,0.4523809523809524,0.4523809523809524,0.4523809523809524,0.4523809523809524,0.4523809523809524,0.46190476190476193,0.46190476190476193,0.46190476190476193,0.4714285714285714,0.4714285714285714,0.4714285714285714,0.49047619047619045,0.49047619047619045,0.49047619047619045,0.5095238095238095,0.5190476190476191,0.5285714285714286,0.5476190476190477,0.5476190476190477,0.5571428571428572,0.5571428571428572,0.5666666666666667,0.5666666666666667,0.5761904761904761,0.5857142857142857,0.6047619047619047,0.6619047619047619,0.7952380952380952,0.9666666666666667,1.1,1.1095238095238096,1.119047619047619,1.138095238095238,1.138095238095238,1.1476190476190475,1.1476190476190475,1.1476190476190475,1.1476190476190475,1.1476190476190475,1.1476190476190475,1.1476190476190475,1.1476190476190475,1.1476190476190475,1.1476190476190475,1.1476190476190475,1.1476190476190475,1.1476190476190475,1.1476190476190475,1.1476190476190475,1.1476190476190475,1.1476190476190475,1.1476190476190475,1.1476190476190475,1.1476190476190475,1.1476190476190475,1.1476190476190475,1.1476190476190475,1.1476190476190475,1.1476190476190475,1.1476190476190475,1.1476190476190475,1.1476190476190475,1.1476190476190475,1.1476190476190475,1.1476190476190475,1.1476190476190475,1.1476190476190475,1.1476190476190475,1.1476190476190475,1.1476190476190475,1.1476190476190475,1.1476190476190475,1.1476190476190475,1.1476190476190475,1.1476190476190475,1.1476190476190475,1.1476190476190475,1.1476190476190475,1.1476190476190475,1.1476190476190475,1.1476190476190475,1.1476190476190475,1.1476190476190475,1.1476190476190475,1.1476190476190475,1.1476190476190475,1.1476190476190475,1.1476190476190475,1.1476190476190475,1.1476190476190475,1.1476190476190475,1.1476190476190475,1.1476190476190475,1.1476190476190475,1.1476190476190475,1.1476190476190475,1.1476190476190475,1.1476190476190475,1.1476190476190475,1.1476190476190475,1.1476190476190475,1.1476190476190475,1.1476190476190475,1.1476190476190475,1.1476190476190475,1.1476190476190475,1.1476190476190475,1.1476190476190475,1.1476190476190475,1.1476190476190475,1.1476190476190475,1.1476190476190475,1.1476190476190475,1.1476190476190475,1.1476190476190475,1.1476190476190475,1.1476190476190475,1.1476190476190475,1.1476190476190475,1.1476190476190475,1.1476190476190475,1.1476190476190475,1.1476190476190475,1.1476190476190475,1.1476190476190475,1.1476190476190475,1.1476190476190475,1.1476190476190475,1.1476190476190475,1.1476190476190475,1.1476190476190475,1.1476190476190475,1.1476190476190475,1.1476190476190475,1.1476190476190475,1.1476190476190475,1.1476190476190475,1.1476190476190475,1.1476190476190475,1.1476190476190475,1.1476190476190475,1.1476190476190475,1.1476190476190475,1.1476190476190475,1.1476190476190475,1.1476190476190475,1.1476190476190475,1.1476190476190475,1.1476190476190475,1.1476190476190475,1.1476190476190475,1.1476190476190475,1.1476190476190475,1.1476190476190475,1.1476190476190475,1.1476190476190475,1.1476190476190475,1.1476190476190475,1.1476190476190475,1.1476190476190475,1.1476190476190475,1.1476190476190475,1.1476190476190475,1.1476190476190475,1.1476190476190475,1.1476190476190475,1.1476190476190475,1.1476190476190475,1.1476190476190475,1.1476190476190475,1.1476190476190475,1.1476190476190475,1.1476190476190475,1.1476190476190475,1.1476190476190475,1.1476190476190475,1.1571428571428573,1.1571428571428573,1.138095238095238,1.119047619047619,1.0904761904761904,1.061904761904762,1.0523809523809524,1.042857142857143,1.0238095238095237,1.0238095238095237,1.0238095238095237,1.0238095238095237,1.0238095238095237,1.0238095238095237,1.0238095238095237,1.0238095238095237,1.0238095238095237,1.0047619047619047,1.0047619047619047,1.0047619047619047,1.0047619047619047,1.0047619047619047,1.0047619047619047,1.0047619047619047,1.0333333333333334,1.042857142857143,1.042857142857143,1.0523809523809524,1.0714285714285714,1.0809523809523809,1.0809523809523809,1.0809523809523809,1.0809523809523809,1.0809523809523809,1.0809523809523809,1.0809523809523809,1.0809523809523809,1.0904761904761904,1.1095238095238096,1.119047619047619,1.119047619047619,1.119047619047619,1.119047619047619,1.119047619047619,1.119047619047619,1.119047619047619,1.119047619047619,1.119047619047619,1.119047619047619,1.119047619047619,1.119047619047619,1.119047619047619,1.119047619047619,1.119047619047619,1.119047619047619,1.061904761904762,1.061904761904762,1.061904761904762,1.061904761904762,1.061904761904762,1.061904761904762,1.061904761904762,1.061904761904762,1.061904761904762,1.061904761904762,1.061904761904762,1.061904761904762,1.061904761904762,1.061904761904762,1.061904761904762,1.061904761904762,1.061904761904762,1.061904761904762,1.061904761904762,1.061904761904762,1.061904761904762,1.061904761904762,1.061904761904762,1.061904761904762,1.061904761904762,1.061904761904762,1.061904761904762,1.061904761904762,1.061904761904762,1.061904761904762,1.061904761904762,1.061904761904762,1.061904761904762,1.061904761904762,1.061904761904762,1.061904761904762,1.061904761904762,1.061904761904762,1.061904761904762,1.061904761904762,1.061904761904762,1.061904761904762,1.061904761904762,1.061904761904762,1.061904761904762,1.061904761904762,1.061904761904762,1.061904761904762,1.061904761904762,1.061904761904762,1.061904761904762,1.061904761904762,1.061904761904762,1.061904761904762,1.061904761904762,1.061904761904762,1.061904761904762,1.061904761904762,1.061904761904762,1.061904761904762,1.061904761904762,1.061904761904762,1.061904761904762,1.061904761904762,1.061904761904762,0.919047619047619,0.8142857142857143,0.6619047619047619,0.5095238095238095,0.43333333333333335,0.3476190476190476,0.3,0.2904761904761905,0.28095238095238095,0.2714285714285714,0.2619047619047619,0.2619047619047619,0.2619047619047619,0.2619047619047619,0.2619047619047619,0.21428571428571427,0.20476190476190476,0.19523809523809524,0.18571428571428572,0.18571428571428572,0.1761904761904762,0.1761904761904762,0.16666666666666666,0.1,0.05238095238095238,0.014285714285714285,-0.004761904761904762,-0.004761904761904762,-0.004761904761904762,-0.004761904761904762,-0.004761904761904762,-0.004761904761904762,-0.004761904761904762,-0.004761904761904762,-0.004761904761904762,-0.004761904761904762,-0.004761904761904762,-0.004761904761904762,-0.004761904761904762,-0.004761904761904762,-0.004761904761904762,-0.004761904761904762,-0.004761904761904762,-0.004761904761904762,-0.004761904761904762,-0.004761904761904762,-0.004761904761904762,-0.004761904761904762,-0.004761904761904762,-0.004761904761904762,-0.004761904761904762,-0.004761904761904762,-0.004761904761904762,-0.004761904761904762,-0.004761904761904762,-0.004761904761904762,-0.004761904761904762,-0.004761904761904762,-0.004761904761904762,-0.004761904761904762,-0.004761904761904762,-0.004761904761904762,-0.004761904761904762,-0.004761904761904762,-0.004761904761904762,-0.004761904761904762,-0.004761904761904762,-0.004761904761904762,-0.004761904761904762,-0.004761904761904762,-0.004761904761904762,-0.004761904761904762,-0.004761904761904762,-0.004761904761904762,-0.004761904761904762,-0.004761904761904762,-0.004761904761904762,-0.004761904761904762,-0.004761904761904762,-0.004761904761904762,-0.004761904761904762,-0.004761904761904762,-0.004761904761904762,-0.004761904761904762,-0.004761904761904762,-0.004761904761904762,-0.004761904761904762,-0.004761904761904762,-0.004761904761904762,-0.004761904761904762,-0.004761904761904762,-0.004761904761904762,-0.004761904761904762,-0.004761904761904762,-0.004761904761904762,-0.004761904761904762,-0.004761904761904762,-0.004761904761904762,-0.004761904761904762,-0.004761904761904762,-0.004761904761904762,-0.004761904761904762,-0.004761904761904762,-0.004761904761904762,-0.004761904761904762,-0.004761904761904762,-0.004761904761904762,-0.004761904761904762,-0.004761904761904762,-0.004761904761904762,-0.004761904761904762,-0.004761904761904762,-0.004761904761904762,-0.004761904761904762,-0.004761904761904762,-0.004761904761904762,-0.004761904761904762,-0.004761904761904762,-0.004761904761904762,-0.004761904761904762,-0.004761904761904762,-0.004761904761904762,-0.004761904761904762,-0.004761904761904762,-0.004761904761904762,-0.004761904761904762,-0.004761904761904762,-0.004761904761904762,-0.004761904761904762,-0.004761904761904762,-0.004761904761904762,-0.004761904761904762,-0.004761904761904762,-0.004761904761904762,-0.004761904761904762,-0.004761904761904762,-0.004761904761904762,-0.004761904761904762,-0.004761904761904762,-0.004761904761904762,-0.004761904761904762,-0.004761904761904762,-0.004761904761904762,-0.004761904761904762,-0.004761904761904762,-0.004761904761904762,-0.004761904761904762,-0.004761904761904762,-0.004761904761904762,-0.004761904761904762,-0.004761904761904762,0.03333333333333333,0.06190476190476191,0.07142857142857142,0.09047619047619047,0.1,0.09047619047619047,0.05238095238095238,-0.023809523809523808,-0.08095238095238096,-0.10952380952380952,-0.11904761904761904,-0.11904761904761904,-0.11904761904761904,-0.11904761904761904,-0.11904761904761904,-0.11904761904761904,-0.1,-0.023809523809523808,0.023809523809523808,0.03333333333333333,0.09047619047619047,0.16666666666666666,0.20476190476190476,0.24285714285714285,0.2619047619047619,0.3,0.30952380952380953,0.319047619047619,0.3476190476190476,0.35714285714285715,0.36666666666666664,0.38571428571428573,0.4142857142857143,0.43333333333333335,0.46190476190476193,0.49047619047619045,0.5476190476190477,0.6238095238095238,0.6619047619047619,0.680952380952381,0.680952380952381,0.6904761904761905,0.7,0.7,0.7,0.7,0.7,0.680952380952381,0.5857142857142857,0.49047619047619045,0.38571428571428573,0.3,0.23333333333333334,0.14761904761904762,0.10952380952380952,0.08095238095238096,0.04285714285714286,0.03333333333333333,0.03333333333333333,0.03333333333333333,0.03333333333333333,0.023809523809523808,0.023809523809523808,0.014285714285714285,0.014285714285714285,-0.014285714285714285,-0.023809523809523808,-0.023809523809523808,-0.023809523809523808,-0.023809523809523808,-0.023809523809523808,-0.023809523809523808,-0.023809523809523808,-0.023809523809523808,-0.023809523809523808,-0.023809523809523808,-0.023809523809523808,-0.023809523809523808,-0.023809523809523808,-0.023809523809523808,-0.023809523809523808,-0.023809523809523808,-0.023809523809523808,-0.004761904761904762,0.004761904761904762,0.004761904761904762,0.004761904761904762,0.004761904761904762,0.014285714285714285,0.014285714285714285,0.023809523809523808,0.15714285714285714,0.24285714285714285,0.4238095238095238,0.5285714285714286,0.6047619047619047,0.6619047619047619,0.680952380952381,0.7,0.719047619047619,0.719047619047619,0.719047619047619,0.719047619047619,0.719047619047619,0.7,0.680952380952381,0.6714285714285714,0.6619047619047619,0.6333333333333333,0.6238095238095238,0.6238095238095238,0.6142857142857143,0.6142857142857143,0.6142857142857143,0.6142857142857143,0.6142857142857143,0.6142857142857143,0.6142857142857143,0.6142857142857143,0.6142857142857143,0.6142857142857143,0.6142857142857143,0.6142857142857143,0.6142857142857143,0.6142857142857143,0.6142857142857143,0.6142857142857143,0.6142857142857143,0.6142857142857143,0.6142857142857143,0.6142857142857143,0.6142857142857143,0.6142857142857143,0.6142857142857143,0.6047619047619047,0.5952380952380952,0.5952380952380952,0.5857142857142857,0.5857142857142857,0.5857142857142857,0.5857142857142857,0.5857142857142857,0.5761904761904761,0.5666666666666667,0.5666666666666667,0.5666666666666667,0.5666666666666667,0.5666666666666667,0.5666666666666667,0.5666666666666667,0.5666666666666667,0.5666666666666667,0.5666666666666667,0.5666666666666667,0.5666666666666667,0.5666666666666667,0.5666666666666667,0.5666666666666667,0.5666666666666667,0.5666666666666667,0.5666666666666667,0.5666666666666667,0.5666666666666667,0.5666666666666667,0.5666666666666667,0.5666666666666667,0.5666666666666667,0.5666666666666667,0.5666666666666667,0.5666666666666667,0.5666666666666667,0.5666666666666667,0.5666666666666667,0.5666666666666667,0.5666666666666667,0.5666666666666667,0.5666666666666667,0.5666666666666667,0.5666666666666667,0.5666666666666667,0.5666666666666667,0.5666666666666667,0.5666666666666667,0.5666666666666667,0.5666666666666667,0.5666666666666667,0.5666666666666667,0.5666666666666667,0.5666666666666667,0.5666666666666667,0.5666666666666667,0.5666666666666667,0.5666666666666667,0.5666666666666667,0.5666666666666667,0.5666666666666667,0.5666666666666667,0.5666666666666667,0.5666666666666667,0.5666666666666667,0.5666666666666667,0.5666666666666667,0.5666666666666667,0.5666666666666667,0.5666666666666667,0.5666666666666667,0.5666666666666667,0.5666666666666667,0.5666666666666667,0.5666666666666667,0.5666666666666667,0.5666666666666667,0.5666666666666667,0.5666666666666667,0.5666666666666667,0.5666666666666667,0.5666666666666667,0.5666666666666667,0.5666666666666667,0.5666666666666667,0.5666666666666667,0.5666666666666667,0.5666666666666667,0.5666666666666667,0.5666666666666667,0.5666666666666667,0.5666666666666667,0.5666666666666667,0.5666666666666667,0.5666666666666667,0.5666666666666667,0.5666666666666667,0.5666666666666667,0.5666666666666667,0.5666666666666667,0.5666666666666667,0.5666666666666667,0.5666666666666667,0.5666666666666667,0.5666666666666667,0.5666666666666667,0.5666666666666667,0.5666666666666667,0.5666666666666667,0.5666666666666667,0.5666666666666667,0.5666666666666667,0.5666666666666667,0.5666666666666667,0.5666666666666667,0.5666666666666667,0.5666666666666667,0.5666666666666667,0.5666666666666667,0.5666666666666667,0.5666666666666667,0.5666666666666667,0.5666666666666667,0.5666666666666667,0.5666666666666667,0.5666666666666667,0.5666666666666667,0.5666666666666667,0.5666666666666667,0.5666666666666667,0.5666666666666667,0.5666666666666667,0.5666666666666667,0.5666666666666667,0.5666666666666667,0.5666666666666667,0.5666666666666667,0.5666666666666667,0.5666666666666667,0.5666666666666667,0.5666666666666667,0.5666666666666667,0.5666666666666667,0.5666666666666667,0.5666666666666667,0.5666666666666667,0.5666666666666667,0.5666666666666667,0.5666666666666667,0.5666666666666667,0.5666666666666667,0.5666666666666667,0.5666666666666667,0.5666666666666667,0.5666666666666667,0.5666666666666667,0.5666666666666667]},"final_keyboard_state":["N","L","B","A","U","Z","E","R"],"num_clicks":8,"points":12,"cheat":false,"trial_type":"Hangman","trial_index":5,"time_elapsed":78510,"internal_node_id":"0.0-4.0","protocol_sum":"","subject_identifier":212,"subject_sum":[72,45,150,115,207,238,93,227,145,249,127,222,77,28,132,249,248,214,242,207,7,132,252,255,185,88,180,3,45,231,35,108],"subject_pair":106,"STUDY_ID":"669eec2e4270c76bc184a38e","PROLIFIC_PID":"66892120a16e7ba60de0c1a4","SESSION_ID":"669f9cb5e8e1cb2694bae538","practice_instructions":1,"leaderboard_instructions":0,"bonus":1,"reveal_word":false,"self_rating":"1","confidence":"87"},{"view_history":"[{\"page_index\":0,\"viewing_time\":5136.400000095367},{\"page_index\":1,\"viewing_time\":19140.099999904633}]","rt":24277.5,"trial_type":"instructions","trial_index":6,"time_elapsed":102788,"internal_node_id":"0.0-5.0","protocol_sum":"","subject_identifier":212,"subject_sum":[72,45,150,115,207,238,93,227,145,249,127,222,77,28,132,249,248,214,242,207,7,132,252,255,185,88,180,3,45,231,35,108],"subject_pair":106,"STUDY_ID":"669eec2e4270c76bc184a38e","PROLIFIC_PID":"66892120a16e7ba60de0c1a4","SESSION_ID":"669f9cb5e8e1cb2694bae538","practice_instructions":1,"leaderboard_instructions":0,"bonus":1,"reveal_word":false,"self_rating":"1","confidence":"87"},{"rt":21839.700000047684,"responses":"{\"Q0\":\"...from <b>a previous session</b> that is not part of the upcoming tournament.\"}","question_order":"[0]","trial_type":"survey-multi-choice","trial_index":7,"time_elapsed":124629,"internal_node_id":"0.0-6.0","protocol_sum":"","subject_identifier":212,"subject_sum":[72,45,150,115,207,238,93,227,145,249,127,222,77,28,132,249,248,214,242,207,7,132,252,255,185,88,180,3,45,231,35,108],"subject_pair":106,"correct":true,"test_part":"multichoice_leaderboard","STUDY_ID":"669eec2e4270c76bc184a38e","PROLIFIC_PID":"66892120a16e7ba60de0c1a4","SESSION_ID":"669f9cb5e8e1cb2694bae538","practice_instructions":1,"leaderboard_instructions":0,"bonus":1,"reveal_word":false,"self_rating":"1","confidence":"87"},{"view_history":"[{\"page_index\":0,\"viewing_time\":3502.3000000715256}]","rt":3502.7000000476837,"trial_type":"instructions","trial_index":8,"time_elapsed":128133,"internal_node_id":"0.0-8.0","protocol_sum":"","subject_identifier":212,"subject_sum":[72,45,150,115,207,238,93,227,145,249,127,222,77,28,132,249,248,214,242,207,7,132,252,255,185,88,180,3,45,231,35,108],"subject_pair":106,"STUDY_ID":"669eec2e4270c76bc184a38e","PROLIFIC_PID":"66892120a16e7ba60de0c1a4","SESSION_ID":"669f9cb5e8e1cb2694bae538","practice_instructions":1,"leaderboard_instructions":0,"bonus":1,"reveal_word":false,"self_rating":"1","confidence":"87"},{"rt":4033.7000000476837,"responses":"{\"Q0\":\"...players' leaderboard position (in terms of <b>points</b>) in an <b>upcoming tournament.</b>\"}","question_order":"[0]","trial_type":"survey-multi-choice","trial_index":9,"time_elapsed":132168,"internal_node_id":"0.0-9.0","protocol_sum":"","subject_identifier":212,"subject_sum":[72,45,150,115,207,238,93,227,145,249,127,222,77,28,132,249,248,214,242,207,7,132,252,255,185,88,180,3,45,231,35,108],"subject_pair":106,"correct":true,"test_part":"multichoice_tournament","STUDY_ID":"669eec2e4270c76bc184a38e","PROLIFIC_PID":"66892120a16e7ba60de0c1a4","SESSION_ID":"669f9cb5e8e1cb2694bae538","practice_instructions":1,"leaderboard_instructions":0,"bonus":1,"reveal_word":false,"self_rating":"1","confidence":"87"},{"view_history":"[{\"page_index\":0,\"viewing_time\":6282.200000047684}]","rt":6282.5,"trial_type":"instructions","trial_index":10,"time_elapsed":138452,"internal_node_id":"0.0-11.0","protocol_sum":"","subject_identifier":212,"subject_sum":[72,45,150,115,207,238,93,227,145,249,127,222,77,28,132,249,248,214,242,207,7,132,252,255,185,88,180,3,45,231,35,108],"subject_pair":106,"STUDY_ID":"669eec2e4270c76bc184a38e","PROLIFIC_PID":"66892120a16e7ba60de0c1a4","SESSION_ID":"669f9cb5e8e1cb2694bae538","practice_instructions":1,"leaderboard_instructions":0,"bonus":1,"reveal_word":false,"self_rating":"1","confidence":"87"},{"view_history":"[{\"page_index\":0,\"viewing_time\":2306.7000000476837}]","rt":2307.100000023842,"trial_type":"instructions","trial_index":11,"time_elapsed":140760,"internal_node_id":"0.0-12.0-0.0","protocol_sum":"","subject_identifier":212,"subject_sum":[72,45,150,115,207,238,93,227,145,249,127,222,77,28,132,249,248,214,242,207,7,132,252,255,185,88,180,3,45,231,35,108],"subject_pair":106,"STUDY_ID":"669eec2e4270c76bc184a38e","PROLIFIC_PID":"66892120a16e7ba60de0c1a4","SESSION_ID":"669f9cb5e8e1cb2694bae538","practice_instructions":1,"leaderboard_instructions":0,"bonus":1,"reveal_word":false,"self_rating":"1","confidence":"87"},{"word":"THIRTY FOUR","click_log":{"letter":["","R","F","O","U","T","Y","H","I"],"t":[0,5061.700000047684,9823.200000047684,11705.200000047684,13187.399999976158,14269.799999952316,16384.5,17183.799999952316,18316.700000047684],"hit":[null,2,1,1,1,2,1,1,1],"asked":["","R","RF","RFO","RFOU","RFOUT","RFOUTY","RFOUTYH","RFOUTYHI"],"word_state":["______ ____","___R__ ___R","___R__ F__R","___R__ FO_R","___R__ FOUR","T__RT_ FOUR","T__RTY FOUR","TH_RTY FOUR","THIRTY FOUR"]},"hover_log":{"letter":["?","?","?","?","?","?","?","?","?","?","?","?","?","?","?","?","?","?","?","?","?","?","?","?","?","?","?","?","?","?","?","?","?","?","?","?","?","?","?","?","?","?","?","?","?","?","?","?","?","?","?","?","?","?","?","?","?","?","?","?","?","?","?","?","?","?","?","?","?","?","?","?","?","?","?","?","?","?","?","?","?","?","?","?","?","?","?","?","?","?","?","?","?","?","?","?","?","?","?","?","?","?","?","?","?","?","?","?","?","?","?","?","?","?","?","?","?","?","?","?","?","?","?","?","?","?","?","?","?","?","?","?","?","?","?","?","?","?","?","?","?","?","?","?","?","?","?","?","?","?","?","?","?","?","?","?","?","?","?","?","?","?","?","?","?","?","?","?","?","?","?","?","?","?","?","?","?","?","?","?","?","?","?","?","?","?","?","?","?","?","?","?","?","?","?","?","?","?","?","?","?","?","?","?","?","?","?","?","?","?","?","?","?","?","?","?","?","?","?","?","?","?","?","?","?","?","?","?","?","?","?","?","?","?","?","?","?","?","?","?","?","?","?","?","?","?","?","?","?","?","?","?","?","?","?","?","?","?","?","?","?","?","?","?","?","?","?","?","?","?","?","?","?","?","?","?","?","?","?","?","?","?","?","?","?","?","?","?","?","?","?","?","?","?","?","?","?","?","?","?","?","?","?","?","?","?","?","?","?","?","?","?","?","?","?","?","?","?","?","?","?","?","?","?","?","?","?","?","?","?","?","?","?","?","?","?","?","?","?","?","?","?","?","?","?","?","?","?","?","?","?","?","?","?","?","?","?","?","?","?","?","?","?","?","?","?","?","?","?","?","?","?","?","?","?","?","?","?","?","?","?","?","?","?","?","?","?","?","?","?","?","?","?","?","?","?","?","?","?","?","?","?","?","?","?","?","?","?","?","?","?","?","?","?","?","?","?","?","?","?","?","?","?","?","?","?","?","?","?","?","?","?","?","?","?","?","?","?","?","?","?","?","?","?","?","?","?","?","?","?","?","?","?","?","?","?","?","?","?","?","?","?","?","?","?","?","?","?","?","?","?","?","?","?","?","?","?","?","?","?","?","?","?","?","?","?","?","?","?","?","?","?","?","?","?","?","?","?","?","?","?","?","?","?","?","?","?","?","?","?","?","?","?","?","?","?","?","?","?","?","?","?","?","?","?","?","?","?","?","?","?","?","?","?","?","?","?","?","?","?","?","?","?","?","?","?","?","?","?","?","?","?","?","?","?","?","?","?","?","?","?","?","?","?","?","?","?","?","?","?","?","?","?","?","?","?","?","?","?","?","?","?","?","?","?","?","?","?","?","?","?","?","?","?","?","?","?","?","?","?","?","?","?","?","?","?","?","?","?","?","?","?","?","?","?","?","?","?","?","?","?","?","?","?","?","?","?","?","?","?","?","?","?","?","?","?","?","?","?","?","?","?","?","?","?","?","?","?","?","?","?","?","?","?","?","?","?","?","?","?","?","?","?","?","?","?","?","?","?","?","?","?","?","?","?","?","?","?","?","?","?","?","?","?","?","?","?","?","?","?","?","?","?","?","?","?","?","?","?","?","?","?","?","?","?","?","?","?","?","?","?","?","?","?","?","?","?","?","?","?","?","?","?","?","?","?","?","?","?","?","?","?","?","?","?","?","?","?","?","?","?","?","?","?","?","?","?","?","?","?","?","?","?","?","?","?","?","?","?","?","?","?","?","?","?","?","?","?","?","?","?","?","?","?","?","?","?","?","?","?","?","?","?","?","?","?","?","?","?","?","?","?","?","?","?","?","?","?","?","?","?","?","?","?","?","?","?","?","?","?","?","?","?","?","?","?","?","?","?","?","?","?","?","?","?","?","?","?","?","?","?","?","?","?","?","?","?","?","?","?","?","?","?","?","?","?","?","?","?","?","?","?","?","?","?","?","?","?","?","?","?","?","?","?","?","?","?","?","?","?","?","?","?","?","?","?","?","?","?","?","?","?","?","?","?","?","?","?","?","?","?","?","?","?","?","?","?","?","?","?","?","?","?","?","?","?","?","?","?","?","?","?","?","?","?","?","?","?","?","?","?","?","?","?","?","?","?","?","?","?","?","?","?","?","?","?","?","?","?","?","?","?","?","?","?","?","?","?","?","?","?","?","?","?","?","?","?","?","?","?","?","?","?","?","?","?","?","?","?","?","?","?","?","?","?","?","?","?","?","?","?","?","?","?","?","?","?","?","?","?","?","?","?","?","?","?","?","?","?","?","?","?","?","?","?","?","?","?","?","?","?","?","?","?","?","?","?","?","?","?","?","?","?","?","?","?","?","?","?","?","?","?","?","?","?","?","?","?","?","?","?","?","?","?","?","?","?","?","?","?","?","?","?","?","?","?","?","?","?","?","?","?","?","?","?","?","?","?","?","?","?","?","?","?","?","?","?","?","?","?","?","?","?","?","?","?","?","?","?","?","?","?","?","?","?","?","?","?","?","?","?","?","?","?","?","?","?","?","?","?","?","?","?","?","?","?","?","?","?","?","?","?","?","?","?","?","?","?","?","?","?","?","?","?","?","?","?","?","?","?","?","?","?","?","?","?","?","?","?","?","?","?","?","?","?","?","?","?","?","?","?","?","?","?","?","?","?","?","?","?","?","?","?","?","?","?","?","?","?","?","?","?","?","?","?","?","?","?","?","?","?","?","?","?","?","?","?","?","?","?","?","?","?","?","?","?","?","?","?","?","?","?","?","?","?","?","?","?","?","?","?","?","?","?","?","?","?","?","?","?","?","?","?","?","?","?","?","?","?","?","?","?","?","?","?","?","?","?","?","?","?","?","?","?","?","?","?","?","?","?","?","?","?","?","?","?","?","?","?","?","?","?","?","?","?","?","?","?","?","?","?","?","?","?","?","?","?","?","?","?","?","?","?","?","?","?","?","?","?","?","?","?","?","?","?","?","?","?","?","?","?","?","?","?","?","?","?","?","?","?","?","?","?","?","?","?","?","?","?","?","?","?","?","?","?","?","?","?","?","?","?","?","?","?","?","?","?","?","?","?","?","?","?","?","?","?","?","?","?","?","?","?","?","?","?","?","?","?","?","?","?","?","?","?","?","?","?","?","?","?","?","?","?","?","?","?","?","?","?","?","?","?","?","?","?","?","?","?","?","?","?","?","?","?","?","?","?","?","?","?","?","?","?","?","?","?","?","?","?","?","?","?","?","?","?","?","?","?","?","?","?","?","?","?","?","?","?","?","?","?","?","?","?","?","?","?","?","?","?","?","?","?","?","?","?","?","?","?","?","?","?","?","?","?","?","?","?","?","?","?","?","?","?","?","?","?","?","?","?","?","?","?","?","?","?","?","?","?","?","?","?","?","?","?","?","?","?","?","?","?","?","?","?","?","?","?","?","?","?","?","?","?","?","?","?","?","?","?","?","?","?","?","?","?","?","?","?","?","?","?","?","?","?","?","?","?","?","?","?","?","?","?","?","?","?","?","?","?","?","?","?","?","?","?","?","?","?","?","?","?","?","?","?","?","?","?","?","?","?","?","?","?","?","?","?","?","?","?","?","?","?","?","?","?","?","?","?","?","?","?","?","?","?","?","?","?","?","?","?","?","?","?","?","?","?","?","?","?","?","?","?","?","?","?","?","?","?","?","?","?","?","?","?","?","?","?","?","?","?","?","?","?","?","?","?","?","?","?","?","?","?","?","?","?","?","?","?","?","?","?","?","?","?","?","?","?","?","?","?","?","?","?","?","?","?","?","?","?","?","?","?","?","?","?","?","?","?","?","?","?","?","?","?","?","?","?","?","?","?","?","?","?","?","?","?","?","?","?","?","?","?","?","?","?","?","?","?","?","?","?","?","?","?","?","?","?","?","?","?","?","?","?","?","?","?","?","?","?","?","?","?","?","?","?","?","?","?","?","?","?","?","?","?","?","?","?","?","?","?","?","?","?","?","?","?","?","?","?","?","?","?","?","?","?","?","?","?","?","?","?","?","?","?","?","?","?","?","?","?","?","?","?","?","?","?","?","?","?","?","?","?","?","?","?","?","?","?","?","?","?","?","?","?","?","?","?","?","?","?","?","?","?","?","?","?","?","?","?","?","?","?","?","?","?","?","?","?","?","?","?","?","?","?","?","?","?","?","?","?","?","?","?","?","?","?","?","?","?","?","?","?","?","?","?","?","?","?","?","?","?","?","?","?","?","?","?","?","?","?","?","?","?","?","?","?","?","?","?","?","?","?","?","?","?","?","?","?","?","?","?","?","?","?","?","?","?","?","?","?","?","?","?","?","?","?","?","?","?","?","?","?","?","?","?","?","?","?","?","?","?","?","?","?","?","?","?","?","?","?","?","?","?","?","?","?","?","?","?","?","?","?","?","?","?","?","?","?","?","?","?","?","?","?","?","?","?","?","?","?","?","?","?","?","?","?","?","?","?","?","?","?","?","?","?","?","?","?","?","?","?","?","?","?","?","?","?","?","?","?","?","?","?","?","?","?","?","?","?","?","?","?","?","?","?","?","?","?","?","?","?","?","?","?","?","?","?","?","?","?","?","?","?","?","?","?","?","?","?","?","?","?","?","?","?","?","?","?","?","?","?","?","?","?","?","?","?","?","?","?","?","?","?","?","?","?","?","?","?","?","?","?","?","?","?","?","?","?","?","?","?","?","?","?","?","?","?","?","?","?","?","?","?","?","?","?","?","?","?","?","?","?","?","?","?","?","?","?","?","?","?","?","?","?","?","?","?","?","?","?","?","?","?","?","?","?","?","?","?","?","?","?","?","?","?","?","?","?","?","?","?","?","?","?","?","?","?","?","?","?","?","?","?","?","?","?","?","?","?","?","?","?","?","?","?","?","?","?","?","?","?","?","?","?","?","?","?","?","?","?","?","?","?","?","?","?","?","?","?","?","?","?","?","?","?","?","?","?","?","?","?","?","?","?","?","?","?","?","?","?","?","?","?","?","?","?","?","?","?","?","?","?","?","?","?","?","?","?","?","?","?","?","?","?","?","?","?","?","?","?","?","?","?","?","?","?","?","?","?","?","?","?","?","?","?","?","?","?","?","?","?","?","?","?","?","?","?","?","?","?","?","?","?","?","?","?","?","?","?","?","?","?","?","?","?","?","?","?","?","?","?","?","?","?","?","?","?","?","?","?","?","?","?","?","?","?","?","?","?","?","?","?","?","?","?","?","?","?","?","?","?","?","?","?","?","?","?","?","?","?","?","?","?","?","?","?","?","?","?","?","?","?","?","?","?","?","?","?","?","?","?","?","?","?","?","?","?","?","?","?","?","?","?","?","?","?","?","?","?","?","?","?","?","?","?","?","?","?","?