[{"success":true,"trial_type":"fullscreen","trial_index":0,"time_elapsed":4162,"internal_node_id":"0.0-0.0","protocol_sum":"","subject_identifier":535,"subject_sum":[138,204,35,152,123,137,96,216,60,68,84,31,159,14,180,100,84,206,160,128,234,148,217,22,245,111,204,240,51,219,134,111],"subject_pair":267,"STUDY_ID":"66a3ed3c5d10d0e7d8a6b9da","PROLIFIC_PID":"66800683809f48e85f663f86","SESSION_ID":"66a47a652b50826ad8209618","practice_instructions":1,"leaderboard_instructions":2,"bonus":0,"reveal_word":true,"self_rating":"3","confidence":"75"},{"view_history":"[{\"page_index\":0,\"viewing_time\":12372.10000000894}]","rt":12372.20000000298,"trial_type":"instructions","trial_index":1,"time_elapsed":16535,"internal_node_id":"0.0-1.0","protocol_sum":"","subject_identifier":535,"subject_sum":[138,204,35,152,123,137,96,216,60,68,84,31,159,14,180,100,84,206,160,128,234,148,217,22,245,111,204,240,51,219,134,111],"subject_pair":267,"STUDY_ID":"66a3ed3c5d10d0e7d8a6b9da","PROLIFIC_PID":"66800683809f48e85f663f86","SESSION_ID":"66a47a652b50826ad8209618","practice_instructions":1,"leaderboard_instructions":2,"bonus":0,"reveal_word":true,"self_rating":"3","confidence":"75"},{"view_history":"[{\"page_index\":0,\"viewing_time\":2383.3999999910593}]","rt":2383.5,"trial_type":"instructions","trial_index":2,"time_elapsed":18919,"internal_node_id":"0.0-2.0-0.0","protocol_sum":"","subject_identifier":535,"subject_sum":[138,204,35,152,123,137,96,216,60,68,84,31,159,14,180,100,84,206,160,128,234,148,217,22,245,111,204,240,51,219,134,111],"subject_pair":267,"STUDY_ID":"66a3ed3c5d10d0e7d8a6b9da","PROLIFIC_PID":"66800683809f48e85f663f86","SESSION_ID":"66a47a652b50826ad8209618","practice_instructions":1,"leaderboard_instructions":2,"bonus":0,"reveal_word":true,"self_rating":"3","confidence":"75"},{"rt":4344.300000011921,"responses":"{\"Q0\":\"... reveal the word with as <b>few letter guesses</b> as possible\"}","question_order":"[0]","trial_type":"survey-multi-choice","trial_index":3,"time_elapsed":23264,"internal_node_id":"0.0-2.0-1.0","protocol_sum":"","subject_identifier":535,"subject_sum":[138,204,35,152,123,137,96,216,60,68,84,31,159,14,180,100,84,206,160,128,234,148,217,22,245,111,204,240,51,219,134,111],"subject_pair":267,"correct":true,"test_part":"multichoice_nonpretend","STUDY_ID":"66a3ed3c5d10d0e7d8a6b9da","PROLIFIC_PID":"66800683809f48e85f663f86","SESSION_ID":"66a47a652b50826ad8209618","practice_instructions":1,"leaderboard_instructions":2,"bonus":0,"reveal_word":true,"self_rating":"3","confidence":"75"},{"view_history":"[{\"page_index\":0,\"viewing_time\":1110.2000000029802}]","rt":1110.2000000029802,"trial_type":"instructions","trial_index":4,"time_elapsed":24375,"internal_node_id":"0.0-3.0","protocol_sum":"","subject_identifier":535,"subject_sum":[138,204,35,152,123,137,96,216,60,68,84,31,159,14,180,100,84,206,160,128,234,148,217,22,245,111,204,240,51,219,134,111],"subject_pair":267,"STUDY_ID":"66a3ed3c5d10d0e7d8a6b9da","PROLIFIC_PID":"66800683809f48e85f663f86","SESSION_ID":"66a47a652b50826ad8209618","practice_instructions":1,"leaderboard_instructions":2,"bonus":0,"reveal_word":true,"self_rating":"3","confidence":"75"},{"word":"ZEBRA","click_log":{"letter":["","E","A","H","L","U","T","C","F","R","N","I","S","Y","V","O","P","B","Z"],"t":[0,3005.3999999910593,5981.29999999702,8277.09999999404,76221.29999999702,77589.20000000298,78653.20000000298,81509.5,82789.09999999404,83789.20000000298,90413.89999999106,91973.79999999702,93245.20000000298,95741.20000000298,96637.09999999404,97704.59999999404,98485.20000000298,102277.5,104429.29999999702],"hit":[null,1,1,0,0,0,0,0,0,1,0,0,0,0,0,0,0,1,1],"asked":["","E","EA","EAH","EAHL","EAHLU","EAHLUT","EAHLUTC","EAHLUTCF","EAHLUTCFR","EAHLUTCFRN","EAHLUTCFRNI","EAHLUTCFRNIS","EAHLUTCFRNISY","EAHLUTCFRNISYV","EAHLUTCFRNISYVO","EAHLUTCFRNISYVOP","EAHLUTCFRNISYVOPB","EAHLUTCFRNISYVOPBZ"],"word_state":["_____","_E___","_E__A","_E__A","_E__A","_E__A","_E__A","_E__A","_E__A","_E_RA","_E_RA","_E_RA","_E_RA","_E_RA","_E_RA","_E_RA","_E_RA","_EBRA","ZEBRA"]},"hover_log":{"letter":["?","?","?","?","?","?","?","?","?","?","?","?","?","?","?","?","?","?","?","?","?","?","?","?","?","?","?","?","?","?","?","?","?","?","?","?","?","?","?","?","?","?","?","?","?","?","?","?","?","?","?","?","?","?","?","?","?","?","?","?","?","?","?","?","?","?","?","?","?","?","?","?","?","?","?","?","?","?","?","?","?","?","?","?","L","L","L","L","L","?","?","?","?","?","?","?","?","?","?","?","?","?","?","?","?","?","?","?","?","?","?","?","?","?","?","?","?","?","?","?","?","?","?","?","?","?","?","?","?","?","?","?","?","?","?","?","?","?","?","?","?","?","?","?","?","?","?","?","D","D","D","D","D","D","?","?","E","E","E","E","E","E","E","E","E","E","E","E","E","E","E","E","E","E","E","E","E","E","E","E","E","E","E","E","E","E","E","E","E","E","E","E","E","E","E","E","E","E","E","E","E","E","E","E","E","E","E","E","E","E","E","E","E","E","E","E","E","E","E","E","E","E","E","E","E","?","?","?","?","?","?","?","?","?","?","?","?","?","?","?","?","?","?","?","?","?","?","?","?","?","?","?","?","?","?","?","?","?","?","?","?","?","?","?","?","?","?","?","?","?","?","?","?","?","?","?","?","?","?","?","?","E","E","E","E","E","E","E","?","?","?","?","?","?","?","?","?","?","?","?","L","L","?","K","K","K","K","K","K","K","K","K","K","K","K","K","K","K","K","K","K","K","K","K","K","?","?","?","?","?","?","?","?","?","?","?","?","?","?","?","?","?","A","A","A","A","A","A","A","A","A","A","A","A","A","A","A","A","A","A","A","A","A","A","A","A","A","A","A","A","A","A","A","A","A","A","A","A","A","A","?","B","B","?","?","?","?","?","?","?","?","?","?","?","?","?","?","?","?","?","?","?","?","?","?","?","?","?","?","?","?","?","?","?","?","?","?","?","?","?","?","?","?","?","?","?","?","?","?","?","?","?","?","?","?","?","?","?","?","?","?","?","?","?","?","?","?","?","?","?","?","?","?","?","?","?","?","?","?","?","?","?","?","?","?","?","?","?","?","?","?","?","?","H","H","H","H","H","H","H","H","H","H","H","H","H","H","H","H","H","H","H","H","H","H","H","H","H","H","H","H","H","H","H","H","H","H","H","H","H","H","H","H","H","H","H","H","H","H","H","H","H","H","H","H","H","H","H","?","?","?","?","?","?","?","?","?","?","?","?","?","?","?","?","?","?","?","?","?","?","?","?","?","?","?","?","?","?","?","?","?","?","?","?","?","?","?","?","?","?","?","?","?","?","?","?","?","?","?","?","?","?","?","?","?","?","?","?","?","?","?","?","?","?","?","?","?","?","?","?","?","?","?","?","?","?","?","?","?","?","?","?","?","?","?","?","?","?","?","?","?","?","?","?","?","?","?","?","?","?","?","?","?","?","?","?","?","?","?","?","?","?","?","?","?","?","?","?","?","?","?","?","?","?","?","?","?","?","?","?","?","?","?","?","?","?","?","?","?","?","?","?","?","?","?","?","?","?","?","?","?","?","?","?","?","?","?","?","?","?","?","?","?","?","?","?","?","?","?","?","?","?","?","?","?","?","?","?","?","?","?","?","?","?","?","?","?","?","?","?","?","?","?","?","?","?","?","?","?","?","?","?","?","?","?","?","?","?","?","?","?","?","?","?","?","?","?","?","?","?","?","?","?","?","?","?","?","?","?","?","?","?","?","I","?","?","?","?","X","X","X","X","X","X","X","X","X","X","X","X","X","X","X","?","?","N","N","N","?","?","?","?","?","?","?","?","?","?","?","?","?","?","?","?","?","?","?","?","?","?","?","?","?","?","?","?","?","?","?","?","?","?","?","?","?","?","?","?","?","?","?","?","?","?","?","?","?","?","?","?","?","?","?","?","?","?","?","?","?","?","?","?","?","?","?","?","?","G","G","?","F","?","?","?","?","?","?","?","?","?","?","?","?","?","?","?","?","?","?","?","?","?","?","?","?","?","?","?","?","?","?","?","?","?","?","?","?","?","?","?","?","?","?","?","?","?","?","?","?","?","?","?","?","?","?","?","?","?","?","?","?","?","?","?","?","?","?","?","?","?","?","?","?","?","?","?","?","?","?","?","?","?","?","?","?","?","?","?","?","?","?","?","?","?","?","?","?","?","?","?","?","?","?","?","?","?","?","?","?","?","?","?","?","?","?","?","?","?","?","?","?","?","?","?","?","?","?","?","?","?","?","?","?","?","?","?","?","?","?","?","?","?","?","?","?","?","?","?","?","?","?","?","?","?","?","?","?","?","?","?","?","?","?","?","?","?","?","?","?","?","?","?","?","?","?","?","?","?","?","?","?","?","?","?","?","?","?","?","?","?","?","?","?","?","?","?","?","?","?","?","?","?","?","?","?","?","?","?","?","?","?","?","?","?","?","?","?","?","?","?","?","?","?","?","?","?","?","?","?","?","?","?","?","?","?","?","?","?","?","?","?","?","?","?","?","?","?","?","?","?","?","?","?","?","?","?","?","?","?","?","?","?","?","?","?","?","?","?","?","?","?","?","?","?","?","?","?","?","?","?","?","?","?","?","?","?","?","?","?","?","?","?","?","?","?","?","?","?","?","?","?","?","?","?","?","?","?","?","?","?","?","?","?","?","?","?","?","?","?","?","?","?","?","?","?","?","?","?","?","?","?","?","?","?","?","?","?","?","?","?","?","?","?","?","?","?","?","?","?","?","?","?","?","?","?","?","?","?","?","?","?","?","?","?","?","?","?","?","?","?","?","?","?","?","?","?","?","?","?","?","?","?","?","?","?","?","?","?","?","?","?","?","?","?","?","?","?","?","?","?","?","?","?","?","?","?","?","?","?","?","?","?","?","?","?","?","?","?","?","?","?","?","?","?","?","?","?","?","?","?","?","?","?","?","?","?","?","?","?","?","?","?","?","?","?","?","?","?","?","?","?","?","?","?","?","?","?","?","?","?","?","?","?","?","?","?","?","?","?","?","?","?","?","?","?","?","?","?","?","?","?","?","?","?","?","?","?","?","?","?","?","?","?","?","?","?","?","?","?","?","?","?","?","?","?","?","?","?","?","?","?","?","?","?","?","?","?","?","?","?","?","?","?","?","?","?","?","?","?","?","?","?","?","?","?","?","?","?","?","?","?","?","?","?","?","?","?","?","?","?","?","?","?","?","?","?","?","?","?","?","?","?","?","?","?","?","?","?","?","?","?","?","?","?","?","?","?","?","?","?","?","?","?","?","?","?","?","?","?","?","?","?","?","?","?","?","?","?","?","?","?","?","?","?","?","?","?","?","?","?","?","?","?","?","?","?","?","?","?","?","?","?","?","?","?","?","?","?","?","?","?","?","?","?","?","?","?","?","?","?","?","?","?","?","?","?","?","?","?","?","?","?","?","?","?","?","?","?","?","?","?","?","?","?","?","?","?","?","?","?","?","?","?","?","?","?","?","?","?","?","?","?","?","?","?","?","?","?","?","?","?","?","?","?","?","?","?","?","?","?","?","?","?","?","?","?","?","?","?","?","?","?","?","?","?","?","?","?","?","?","?","?","?","?","?","?","?","?","?","?","?","?","?","?","?","?","?","?","?","?","?","?","?","?","?","?","?","?","?","?","?","?","?","?","?","?","?","?","?","?","?","?","?","?","?","?","?","?","?","?","?","?","?","?","?","?","?","?","?","?","?","?","?","?","?","?","?","?","?","?","?","?","?","?","?","?","?","?","?","?","?","?","?","?","?","?","?","?","?","?","?","?","?","?","?","?","?","?","?","?","?","?","?","?","?","?","?","?","?","?","?","?","?","?","?","?","?","?","?","?","?","?","?","?","?","?","?","?","?","?","?","?","?","?","?","?","?","?","?","?","?","?","?","?","?","?","?","?","?","?","?","?","?","?","?","?","?","?","?","?","?","?","?","?","?","?","?","?","?","?","?","?","?","?","?","?","?","?","?","?","?","?","?","?","?","?","?","?","?","?","?","?","?","?","?","?","?","?","?","?","?","?","?","?","?","?","?","?","?","?","?","?","?","?","?","?","?","?","?","?","?","?","?","?","?","?","?","?","?","?","?","?","?","?","?","?","?","?","?","?","?","?","?","?","?","?","?","?","?","?","?","?","?","?","?","?","?","?","?","?","?","?","?","?","?","?","?","?","?","?","?","?","?","?","?","?","?","?","?","?","?","?","?","?","?","?","?","?","?","?","?","?","?","?","?","?","?","?","?","?","?","?","?","?","?","?","?","?","?","?","?","?","?","?","?","?","?","?","?","?","?","?","?","?","?","?","?","?","?","?","?","?","?","?","?","?","?","?","?","?","?","?","?","?","?","?","?","?","?","?","?","?","?","?","?","?","?","?","?","?","?","?","?","?","?","?","?","?","?","?","?","?","?","?","?","?","?","?","?","?","?","?","?","?","?","?","?","?","?","?","?","?","?","?","?","?","?","?","?","?","?","?","?","?","?","?","?","?","?","?","?","?","?","?","?","?","?","?","?","?","?","?","?","?","?","?","?","?","?","?","?","?","?","?","?","?","?","?","?","?","?","?","?","?","?","?","?","?","?","?","?","?","?","?","?","?","?","?","?","?","?","?","?","?","?","?","?","?","?","?","?","?","?","?","?","?","?","?","?","?","?","?","?","?","?","?","?","?","?","?","?","?","?","?","?","?","?","?","?","?","?","?","?","?","?","?","?","?","?","?","?","?","?","?","?","?","?","?","?","?","?","?","?","?","?","?","?","?","?","?","?","?","?","?","?","?","?","?","?","?","?","?","?","?","?","?","?","?","?","?","?","?","?","?","?","?","?","?","?","?","?","?","?","?","?","?","?","?","?","?","?","?","?","?","?","?","?","?","?","?","?","?","?","?","?","?","?","?","?","?","?","?","?","?","?","?","?","?","?","?","?","?","?","?","?","?","?","?","?","?","?","?","?","?","?","?","?","?","?","?","?","?","?","?","?","?","?","?","?","?","?","?","?","?","?","?","?","?","?","?","?","?","?","?","?","?","?","?","?","?","?","?","?","?","?","?","?","?","?","?","?","?","?","?","?","?","?","?","?","?","?","?","?","?","?","?","?","?","?","?","?","?","?","?","?","?","?","?","?","?","?","?","?","?","?","?","?","?","?","?","?","?","?","?","?","?","?","?","?","?","?","?","?","?","?","?","?","?","?","?","?","?","?","?","?","?","?","?","?","?","?","?","?","?","?","?","?","?","?","?","?","?","?","?","?","?","?","?","?","?","?","?","?","?","?","?","?","?","?","?","?","?","?","?","?","?","?","?","?","?","?","?","?","?","?","?","?","?","?","?","?","?","?","?","?","?","?","?","?","?","?","?","?","?","?","?","?","?","?","?","?","?","?","?","?","?","?","?","?","?","?","?","?","?","?","?","?","?","?","?","?","?","?","?","?","?","?","?","?","?","?","?","?","?","?","?","?","?","?","?","?","?","?","?","?","?","?","?","?","?","?","?","?","?","?","?","?","?","?","?","?","?","?","?","?","?","?","?","?","?","?","?","?","?","?","?","?","?","?","?","?","?","?","?","?","?","?","?","?","?","?","?","?","?","?","?","?","?","?","?","?","?","?","?","?","?","?","?","?","?","?","?","?","?","?","?","?","?","?","?","?","?","?","?","?","?","?","?","?","?","?","?","?","?","?","?","?","?","?","?","?","?","?","?","?","?","?","?","?","?","?","?","?","?","?","?","?","?","?","?","?","?","?","?","?","?","?","?","?","?","?","?","?","?","?","?","?","?","?","?","?","?","?","?","?","?","?","?","?","?","?","?","?","?","?","?","?","?","?","?","?","?","?","?","?","?","?","?","?","?","?","?","?","?","?","?","?","?","?","?","?","?","?","?","?","?","?","?","?","?","?","?","?","?","?","?","?","?","?","?","?","?","?","?","?","?","?","?","?","?","?","?","?","?","?","?","?","?","?","?","?","?","?","?","?","?","?","?","?","?","?","?","?","?","?","?","?","?","?","?","?","?","?","?","?","?","?","?","?","?","?","?","?","?","?","?","?","?","?","?","?","?","?","?","?","?","?","?","?","?","?","?","?","?","?","?","?","?","?","?","?","?","?","?","?","?","?","?","?","?","?","?","?","?","?","?","?","?","?","?","?","?","?","?","?","?","?","?","?","?","?","?","?","?","?","?","?","?","?","?","?","?","?","?","?","?","?","?","?","?","?","?","?","?","?","?","?","?","?","?","?","?","?","?","?","?","?","?","?","?","?","?","?","?","?","?","?","?","?","?","?","?","?","?","?","?","?","?","?","?","?","?","?","?","?","?","?","?","?","?","?","?","?","?","?","?","?","?","?","?","?","?","?","?","?","?","?","?","?","?","?","?","?","?","?","?","?","?","?","?","?","?","?","?","?","?","?","?","?","?","?","?","?","?","?","?","?","?","?","?","?","?","?","?","?","?","?","?","?","?","?","?","?","?","?","?","?","?","?","?","?","?","?","?","?","?","?","?","?","?","?","?","?","?","?","?","?","?","?","?","?","?","?","?","?","?","?","?","?","?","?","?","?","?","?","?","?","?","?","?","?","?","?","?","?","?","?","?","?","?","?","?","?","?","?","?","?","?","?","?","?","?","?","?","?","?","?","?","?","?","?","?","?","?","?","?","?","?","?","?","?","?","?","?","?","?","?","?","?","?","?","?","?","?","?","?","?","?","?","?","?","?","?","?","?","?","?","?","?","?","?","?","?","?","?","?","?","?","?","?","?","?","?","?","?","?","?","?","?","?","?","?","?","?","?","?","?","?","?","?","?","?","?","?","?","?","?","?","?","?","?","?","?","?","?","?","?","?","?","?","?","?","?","?","?","?","?","?","?","?","?","?","?","?","?","?","?","?","?","?","?","?","?","?","?","?","?","?","?","?","?","?","?","?","?","?","?","?","?","?","?","?","?","?","?","?","?","?","?","?","?","?","?","?","?","?","?","?","?","?","?","?","?","?","?","?","?","?","?","?","?","?","?","?","?","?","?","?","?","?","?","?","?","?","?","?","?","?","?","?","?","?","?","?","?","?","?","?","?","?","?","?","?","?","?","?","?","?","?","?","?","?","?","?","?","?","?","?","?","?","?","?","?","?","?","?","?","?","?","?","?","?","?","?","?","?","?","?","?","?","?","?","?","?","?","?","?","?","?","?","?","?","?","?","?","?","?","?","?","?","?","?","?","?","?","?","?","?","?","?","?","?","?","?","?","?","?","?","?","?","?","?","?","?","?","?","?","?","?","?","?","?","?","?","?","?","?","?","?","?","?","?","?","?","?","?","?","?","?","?","?","?","?","?","?","?","?","?","?","?","?","?","?","?","?","?","?","?","?","?","?","?","?","?","?","?","?","?","?","?","?","?","?","?","?","?","?","?","?","?","?","?","?","?","?","?","?","?","?","?","?","?","?","?","?","?","?","?","?","?","?","?","?","?","?","?","?","?","?","?","?","?","?","?","?","?","?","?","?","?","?","?","?","?","?","?","?","?","?","?","?","?","?","?","?","?","?","?","?","?","?","?","?","?","?","?","?","?","?","?","?","?","?","?","?","?","?","?","?","?","?","?","?","?","?","?","?","?","?","?","?","?","?","?","?","?","?","?","?","?","?","?","?","?","?","?","?","?","?","?","?","?","?","?","?","?","?","?","?","?","?","?","?","?","?","?","?","?","?","?","?","?","?","?","?","?","?","?","?","?","?","?","?","?","?","?","?","?","?","?","?","?","?","?","?","?","?","?","?","?","?","?","?","?","?","?","?","?","?","?","?","?","?","?","?","?","?","?","?","?","?","?","?","?","?","?","?","?","?","?","?","?","?","?","?","?","?","?","?","?","?","?","?","?","?","?","?","?","?","?","?","?","?","?","?","?","?","?","?","?","?","?","?","?","?","?","?","?","?","?","?","?","?","?","?","?","?","?","?","?","?","?","?","?","?","?","?","?","?","?","?","?","?","?","?","?","?","?","?","?","?","?","?","?","?","?","?","?","?","?","?","?","?","?","?","?","?","?","?","?","?","?","?","?","?","?","?","?","?","?","?","?","?","?","?","?","?","?","?","?","?","?","?","?","?","?","?","?","?","?","?","?","?","?","?","?","?","?","?","?","?","?","?","?","?","?","?","?","?","?","?","?","?","?","?","?","?","?","?","?","?","?","?","?","?","?","?","?","?","?","?","?","?","?","?","?","?","?","?","?","?","?","?","?","?","?","?","?","?","?","?","?","?","?","?","?","?","?","?","?","?","?","?","?","?","?","?","?","?","?","?","?","?","?","?","?","?","?","?","?","?","?","?","?","?","?","?","?","?","?","?","?","?","?","?","?","?","?","?","?","?","?","?","?","?","?","?","?","?","?","?","?","?","?","?","?","?","?","?","?","?","?","?","?","?","?","?","?","?","?","?","?","?","?","?","?","?","?","?","?","?","?","?","?","?","?","?","?","?","?","?","?","?","?","?","?","?","?","?","?","?","?","?","?","?","?","?","?","?","?","?","?","?","?","?","?","?","?","?","?","?","?","?","?","?","?","?","?","?","?","?","?","?","?","?","?","?","?","?","?","?","?","?","?","?","?","?","?","?","?","?","?","?","?","?","?","?","?","?","?","?","?","?","?","?","?","?","?","?","?","?","?","?","?","?","?","?","?","?","?","?","?","?","?","?","?","?","?","?","?","?","?","?","?","?","?","?","?","?","?","?","?","?","?","?","?","?","?","?","?","?","?","?","?","?","?","?","?","?","?","?","?","?","?","?","?","?","?","?","?","?","?","?","?","?","?","?","?","?","?","?","?","?","?","?","?","?","?","?","?","?","?","?","?","?","?","?","?","?","?","?","?","?","?","?","?","?","?","?","?","?","?","?","?","?","?","?","?","?","?","?","?","?","?","?","?","?","?","?","?","?","?","?","?","?","?","?","?","?","?","?","?","?","?","?","?","?","?","?","?","?","?","?","?","?","?","?","?","?","?","?","?","?","?","?","?","?","?","?","?","?","?","?","?","?","?","?","?","?","?","?","?","?","?","?","?","?","?","?","?","?","?","?","?","?","?","?","?","?","?","?","?","?","?","?","?","?","?","?","?","?","?","?","?","?","?","?","?","?","?","?","?","?","?","?","?","?","?","?","?","?","?","?","?","?","?","?","?","?","?","?","?","?","?","?","?","?","?","?","?","?","?","?","?","?","?","?","?","?","?","?","?","?","?","?","?","?","?","?","?","?","?","?","?","?","?","?","?","?","?","?","?","?","?","?","?","?","?","?","?","?","?","?","?","?","?","?","?","?","?","?","?","?","?","?","?","?","?","?","?","?","?","?","?","?","?","?","?","?","?","?","?","?","?","?","?","?","?","?","?","?","?","?","?","?","?","?","?","?","?","?","?","?","?","?","?","?","?","?","?","?","?","?","?","?","?","?","?","?","?","?","?","?","?","?","?","?","?","?","?","?","?","?","?","?","?","?","?","?","?","?","?","?","?","?","?","?","?","?","?","?","?","?","?","?","?","?","?","?","?","?","?","?","?","?","?","?","?","?","?","?","?","?","?","?","?","?","?","?","?","?","?","?","?","?","?","?","?","?","?","?","?","?","?","?","?","?","?","?","?","?","?","?","?","?","?","?","?","?","?","?","?","?","?","?","?","?","?","?","?","?","?","?","?","?","?","?","?","?","?","?","?","?","?","?","?","?","?","?","?","?","?","?","?","?","?","?","?","?","?","?","?","?","?","?","?","?","?","?","?","?","?","?","?","?","?","?","?","?","?","?","?","?","?","?","?","?","?","?","?","?","?","?","?","?","?","?","?","?","?","?","?","?","?","?","?","?","?","?","?","?","?","?","?","?","?","?","?","?","?","?","?","?","?","?","?","?","?","?","?","?","?","?","?","?","?","?","?","?","?","?","?","?","?","?","?","?","?","?","?","?","?","?","?","?","?","?","?","?","?","?","?","?","?","?","?","?","?","?","?","?","?","?","?","?","?","?","?","?","?","?","?","?","?","?","?","?","?","?","?","?","?","?","?","?","?","?","?","?","?","?","?","?","?","?","?","?","?","?","?","?","?","?","?","?","?","?","?","?","?","?","?","?","?","?","?","?","?","?","?","?","?","?","?","?","?","?","?","?","?","?","?","?","?","?","?","?","?","?","?","?","?","?","?","?","?","?","?","?","?","?","?","?","G","G","G","G","G","G","?","F","?","E","D","?","?","?","?","?","?","?","?","?","?","?","?","?","?","C","C","?","?","?","?","?","?","?","?","?","?","?","?","?","?","?","L","L","L","L","L","L","L","L","L","L","L","L","L","L","L","L","L","L","L","L","L","L","L","L","L","L","L","L","L","L","L","L","L","L","L","L","L","L","L","L","L","L","L","?","?","?","?","?","?","?","?","?","?","?","?","?","?","?","?","U","U","U","U","U","U","U","U","U","U","U","U","U","U","U","U","U","U","U","U","U","U","U","U","U","U","U","U","U","U","U","U","U","U","U","U","U","U","U","U","U","U","U","U","U","U","U","U","U","U","U","U","U","U","U","U","U","U","U","U","U","U","U","U","U","U","U","U","U","U","?","?","?","?","T","T","T","T","T","T","T","T","T","T","T","T","T","T","T","T","T","T","T","T","T","T","T","T","T","T","T","T","T","T","T","T","T","T","T","T","T","T","T","T","T","T","T","T","T","T","T","T","T","T","T","T","T","?","U","U","?","V","V","?","?","?","?","?","?","?","?","?","?","?","?","?","?","?","?","?","?","?","?","?","?","?","?","?","?","?","?","?","?","?","?","?","?","?","?","?","?","?","?","?","?","Z","Z","Z","Z","Z","Z","Z","Z","Z","Z","Z","Z","Z","Z","Z","Z","Z","Z","Z","Z","Z","Z","Z","Z","Z","Z","Z","Z","Z","Z","Z","Z","?","?","?","?","?","?","?","?","?","?","?","?","?","?","?","P","?","O","?","N","?","?","?","?","?","?","?","?","?","?","?","D","D","D","D","D","?","C","C","C","C","C","C","C","C","C","C","C","C","C","C","C","C","C","C","C","C","C","C","C","C","C","C","C","C","C","C","C","C","C","C","C","C","C","C","C","C","C","C","?","D","E","E","?","F","F","?","?","?","?","?","?","?","G","G","G","G","G","G","G","G","G","G","G","G","G","G","G","G","G","G","G","G","G","G","G","G","G","G","?","?","F","F","F","F","F","F","F","F","F","F","F","F","F","F","F","F","F","F","F","F","F","F","F","F","F","F","F","F","F","F","F","F","F","F","F","F","F","F","?","?","?","?","?","?","?","?","?","?","?","?","?","?","?","?","?","?","?","?","?","R","R","R","R","R","R","R","R","R","R","R","R","R","R","R","R","R","R","R","R","R","R","R","R","R","R","R","R","R","R","R","R","R","R","R","R","R","R","R","R","R","R","R","R","R","R","R","R","R","R","R","R","R","R","R","R","R","R","R","R","R","R","R","R","R","R","R","R","R","R","R","R","R","R","R","R","R","R","R","R","R","R","R","R","R","R","R","R","R","R","R","R","R","R","R","R","R","R","R","R","R","R","R","R","R","R","R","R","R","R","R","R","R","R","R","R","R","R","R","R","R","R","R","R","R","R","R","R","R","R","R","R","R","R","R","R","R","R","R","R","R","R","R","R","R","?","Q","Q","Q","Q","Q","Q","Q","Q","?","?","P","P","P","P","P","P","P","P","P","P","P","P","P","P","P","P","P","P","P","P","P","P","P","P","P","P","P","P","P","P","P","P","P","P","P","P","P","P","P","P","P","P","P","P","P","P","P","P","P","P","P","P","P","P","P","P","P","P","P","P","P","P","P","P","P","P","P","P","P","P","P","P","P","P","P","P","P","P","P","P","P","P","P","P","P","P","P","P","P","P","P","P","P","P","P","P","P","P","P","P","?","?","Q","Q","Q","Q","Q","Q","Q","Q","Q","Q","Q","Q","Q","Q","Q","Q","Q","Q","Q","Q","Q","Q","?","P","P","P","P","P","P","P","P","P","?","?","?","?","?","?","?","?","?","?","?","?","?","?","?","?","?","?","?","?","?","?","?","?","?","?","?","?","?","O","O","O","O","O","O","O","O","O","O","O","O","O","O","O","O","O","O","O","?","N","N","N","N","N","N","N","N","N","N","N","N","N","N","N","N","N","N","N","N","N","N","N","N","N","N","N","N","N","N","N","N","N","N","N","N","N","N","N","N","N","N","N","N","N","N","N","N","N","N","N","N","N","N","N","N","N","N","N","N","N","N","N","N","N","N","N","N","N","N","N","N","N","N","N","N","N","N","N","N","N","N","N","N","N","N","N","N","N","N","N","N","N","N","N","N","N","N","N","N","N","N","N","N","N","N","N","N","N","N","N","N","N","N","N","N","N","N","N","N","N","N","N","N","N","N","N","N","N","N","N","N","N","N","N","N","N","N","N","O","P","?","?","?","?","?","?","?","?","?","?","?","?","?","?","?","?","?","?","?","I","I","I","I","I","I","I","I","I","I","I","I","I","I","I","I","I","I","I","I","I","I","I","I","I","I","I","I","I","I","I","I","I","I","?","?","?","P","O","?","N","?","?","?","V","?","U","?","T","T","T","?","?","?","?","?","S","S","S","S","S","S","S","S","S","S","S","S","S","S","S","S","S","S","S","S","S","S","S","S","S","S","S","S","S","S","S","S","S","S","S","S","S","S","S","S","S","S","S","S","S","S","S","S","S","S","S","S","S","S","S","S","S","S","S","S","S","S","S","S","S","?","?","?","?","?","?","?","J","J","J","J","J","J","J","J","J","J","J","J","J","J","?","K","K","?","?","?","?","?","?","?","?","?","?","?","?","C","C","C","C","C","?","?","?","?","?","?","N","N","N","N","N","N","N","N","N","N","N","?","?","?","?","?","?","?","?","?","?","?","?","?","?","?","?","?","?","?","?","?","?","?","?","?","?","?","?","?","?","?","?","?","?","?","?","?","?","?","?","?","?","Y","Y","Y","Y","Y","Y","Y","Y","Y","Y","Y","Y","Y","Y","Y","Y","Y","Y","Y","Y","Y","Y","Y","Y","Y","Y","Y","Y","Y","Y","Y","Y","Y","Y","Y","Y","Y","Y","Y","Y","Y","?","X","X","?","W","W","W","W","W","W","W","?","?","V","V","V","V","V","V","V","V","V","V","V","V","V","V","V","V","V","V","V","V","V","V","V","V","V","V","V","V","V","V","V","V","V","V","V","V","V","V","V","V","V","V","W","W","?","?","?","?","?","?","?","?","?","?","?","?","?","?","?","?","?","?","?","O","O","O","O","O","O","O","O","O","O","O","O","O","O","O","O","O","O","O","O","O","O","O","O","O","O","O","O","O","O","O","O","O","O","O","?","?","?","?","?","?","?","?","P","P","P","P","P","P","P","P","P","P","P","P","P","P","P","P","P","P","P","P","P","P","P","P","P","P","P","P","P","P","P","P","P","P","P","P","P","P","P","P","P","P","P","P","P","P","P","P","P","P","P","P","P","P","P","P","P","?","?","?","?","?","?","Y","Y","Y","Y","Y","Y","?","?","?","?","?","X","X","X","X","X","X","X","X","X","X","X","X","X","X","X","X","X","X","X","X","X","X","X","X","X","X","X","X","X","W","W","?","V","?","U","?","?","?","?","?","?","?","K","K","K","K","K","?","?","?","?","?","?","?","?","?","?","?","A","A","A","A","A","A","A","A","A","A","A","A","A","A","A","A","A","A","A","A","A","A","A","A","A","A","A","A","A","A","A","A","A","A","A","A","A","A","A","A","A","A","A","A","A","A","A","A","A","?","?","?","?","?","?","?","?","?","?","?","?","?","?","J","J","J","J","J","J","J","J","?","?","?","?","?","?","?","?","?","B","B","B","B","B","B","B","B","B","B","B","B","B","B","B","B","B","B","B","B","B","B","B","B","B","B","B","B","B","B","B","B","B","B","B","B","B","B","B","B","B","B","B","B","B","B","B","B","B","B","B","B","B","B","B","B","B","B","B","B","B","B","B","C","C","D","D","E","E","E","E","?","?","?","?","?","?","?","?","?","?","?","F","F","F","F","?","?","?","G","G","?","?","?","?","?","O","O","?","?","N","N","?","?","?","?","?","?","?","?","?","?","?","?","?","?","K","K","K","K","K","?","?","?","?","?","?","?","?","?","?","?","?","?","?","?","?","?","?","?","?","?","?","?","?","?","?","?","?","?","?","?","Z","Z","Z","Z","Z","Z","Z","Z","Z","Z","Z","Z","Z","Z","Z","Z","Z","Z","Z","Z","Z","Z","Z","Z","Z","Z","Z","Z","Z","Z","Y","?","?","M","K","?","?","?","?","?","?","?","?","?","?","?","?","?","?","?","?","?","?","?","?","?","?","?","?","?","?","?","?","?","?","?","?","?","?","?","?","?","?","?","?","?","?","?","?","?","?","?","?","?","?","?","?","?","?","?","?","?","?","?","?","?","?","?","?","?","?","?","?","?","?","?","?","?","?","?","?","?","?","?","?","?","?","?","?","?","?","?","?","?","?","?","?","?","?","?","?","?","?","?","?","?"],"t":[26,35,55,69,85,102,120,135,152,169,185,201,218,235,251,268,285,302,318,336,351,368,384,401,418,435,451,468,485,501,519,535,551,568,585,601,618,635,652,669,685,702,719,739,752,768,785,801,818,835,852,870,885,902,918,936,951,969,985,1002,1018,1035,1052,1068,1085,1101,1119,1135,1151,1169,1185,1202,1218,1235,1251,1268,1284,1301,1318,1335,1351,1368,1385,1401,1420,1435,1452,1468,1485,1501,1518,1535,1552,1568,1586,1601,1618,1635,1652,1668,1685,1702,1718,1735,1754,1768,1785,1802,1818,1836,1851,1868,1885,1901,1918,1935,1951,1968,1985,2001,2018,2035,2052,2069,2085,2101,2118,2135,2151,2168,2185,2201,2219,2235,2252,2269,2285,2301,2318,2335,2351,2368,2385,2401,2419,2435,2452,2470,2485,2502,2518,2535,2552,2569,2585,2602,2619,2635,2652,2669,2685,2701,2719,2734,2752,2769,2785,2802,2819,2835,2852,2869,2885,2901,2919,2935,2952,2969,2985,3002,3019,3035,3051,3068,3085,3101,3118,3135,3152,3168,3185,3201,3218,3235,3251,3268,3285,3301,3319,3335,3352,3368,3385,3401,3418,3435,3454,3468,3485,3501,3518,3535,3552,3568,3585,3601,3618,3635,3652,3669,3685,3702,3718,3735,3752,3768,3785,3802,3818,3836,3851,3868,3885,3901,3918,3935,3952,3969,3985,4002,4019,4035,4052,4071,4085,4102,4119,4136,4153,4172,4185,4201,4218,4235,4252,4269,4285,4301,4318,4335,4352,4368,4385,4402,4419,4435,4453,4471,4485,4502,4518,4534,4551,4568,4585,4601,4619,4635,4651,4668,4685,4702,4718,4735,4752,4768,4785,4801,4818,4835,4852,4868,4885,4901,4918,4935,4951,4968,4985,5002,5018,5035,5052,5068,5085,5101,5118,5135,5151,5169,5186,5201,5218,5235,5251,5268,5285,5301,5318,5335,5352,5368,5385,5402,5418,5435,5452,5469,5485,5502,5518,5535,5552,5568,5585,5602,5619,5635,5652,5669,5685,5702,5719,5735,5752,5769,5785,5802,5819,5835,5852,5869,5885,5902,5919,5935,5952,5970,5985,6002,6019,6035,6052,6069,6085,6102,6119,6135,6152,6170,6185,6202,6218,6235,6252,6268,6285,6301,6319,6335,6352,6369,6385,6402,6419,6436,6453,6468,6486,6502,6519,6535,6552,6569,6585,6601,6618,6635,6652,6669,6685,6701,6718,6735,6751,6769,6785,6801,6818,6835,6852,6869,6886,6902,6919,6935,6954,6968,6985,7002,7019,7035,7052,7069,7085,7101,7119,7135,7152,7169,7186,7202,7219,7235,7252,7270,7285,7301,7319,7335,7353,7371,7386,7402,7419,7436,7452,7469,7486,7502,7519,7536,7552,7569,7586,7603,7619,7636,7652,7669,7686,7702,7719,7736,7752,7770,7786,7802,7820,7836,7852,7869,7886,7903,7919,7937,7952,7969,7985,8002,8019,8036,8052,8069,8086,8102,8119,8136,8152,8169,8186,8202,8219,8236,8252,8269,8287,8303,8319,8336,8352,8369,8386,8403,8419,8436,8452,8469,8486,8502,8519,8536,8552,8569,8586,8602,8619,8637,8652,8670,8686,8702,8719,8736,8753,8772,8786,8802,8819,8836,8852,8869,8886,8902,8919,8936,8952,8969,8986,9002,9019,9035,9052,9069,9086,9102,9119,9136,9152,9169,9186,9203,9220,9236,9252,9269,9286,9302,9319,9336,9352,9369,9386,9404,9419,9436,9452,9469,9487,9502,9520,9536,9551,9569,9586,9602,9620,9636,9652,9670,9686,9703,9720,9737,9753,9769,9786,9803,9819,9836,9852,9869,9886,9902,9920,9936,9952,9969,9986,10002,10019,10035,10053,10069,10086,10102,10119,10136,10152,10170,10186,10203,10219,10236,10253,10269,10286,10302,10319,10336,10353,10369,10386,10403,10420,10436,10452,10469,10486,10502,10519,10536,10552,10569,10586,10602,10618,10636,10652,10669,10686,10702,10719,10736,10752,10769,10786,10804,10822,10836,10852,10869,10886,10902,10919,10936,10953,10969,10986,11002,11019,11036,11052,11069,11086,11102,11120,11136,11152,11169,11186,11202,11220,11244,11271,11286,11303,11319,11336,11352,11369,11386,11402,11420,11436,11452,11469,11486,11502,11520,11536,11552,11570,11586,11602,11619,11636,11652,11669,11686,11702,11719,11736,11752,11769,11786,11802,11819,11836,11852,11870,11886,11902,11919,11936,11953,11969,11986,12002,12019,12036,12052,12069,12086,12102,12119,12136,12152,12169,12186,12202,12219,12236,12252,12269,12286,12302,12319,12336,12352,12369,12386,12402,12419,12436,12452,12469,12485,12502,12519,12536,12552,12569,12586,12602,12619,12636,12652,12669,12686,12702,12719,12736,12752,12769,12786,12802,12820,12836,12852,12869,12888,12904,12919,12936,12953,12969,12986,13002,13019,13036,13052,13069,13086,13102,13119,13136,13152,13170,13186,13202,13220,13236,13252,13269,13286,13302,13320,13337,13352,13369,13386,13402,13419,13436,13452,13469,13486,13503,13522,13536,13553,13569,13586,13602,13620,13636,13652,13669,13686,13702,13719,13736,13752,13769,13786,13802,13819,13836,13852,13870,13886,13902,13919,13937,13952,13969,13986,14002,14020,14036,14052,14069,14086,14102,14119,14136,14152,14169,14186,14203,14219,14236,14252,14269,14286,14302,14319,14337,14353,14370,14386,14403,14420,14436,14453,14470,14486,14502,14519,14536,14552,14569,14586,14603,14619,14636,14652,14670,14686,14705,14719,14736,14752,14770,14786,14803,14821,14838,14853,14869,14886,14904,14921,14937,14953,14970,14986,15003,15019,15036,15053,15080,15108,15129,15147,15160,15172,15184,15199,15211,15223,15235,15247,15259,15272,15284,15296,15309,15326,15342,15359,15376,15392,15409,15426,15443,15459,15476,15510,15526,15538,15550,15562,15576,15593,15610,15626,15643,15659,15683,15695,15709,15727,15763,15779,15796,15809,15822,15834,15851,15864,15876,15893,15910,15926,15943,15961,15994,16009,16021,16039,16050,16063,16076,16093,16110,16126,16143,16160,16176,16193,16210,16245,16258,16271,16284,16300,16312,16327,16344,16360,16377,16393,16410,16427,16444,16460,16496,16511,16524,16537,16554,16566,16579,16596,16610,16627,16644,16660,16677,16694,16728,16742,16754,16767,16779,16794,16810,16827,16844,16860,16877,16894,16911,16927,16964,16978,16992,17009,17020,17033,17045,17060,17078,17094,17111,17127,17144,17161,17195,17208,17221,17233,17246,17261,17278,17294,17311,17328,17344,17361,17377,17395,17431,17445,17457,17469,17481,17494,17511,17528,17544,17561,17578,17594,17611,17628,17645,17661,17678,17694,17711,17728,17764,17779,17791,17803,17821,17833,17846,17862,17878,17895,17911,17928,17945,17961,17997,18012,18030,18046,18064,18077,18094,18107,18125,18142,18155,18172,18185,18198,18212,18248,18263,18276,18289,18306,18319,18337,18349,18362,18378,18396,18412,18429,18445,18479,18493,18506,18518,18530,18545,18562,18579,18595,18612,18629,18645,18662,18679,18696,18730,18742,18754,18767,18779,18795,18812,18829,18845,18862,18879,18896,18912,18947,18962,18975,18991,19005,19023,19040,19053,19069,19083,19096,19113,19129,19146,19163,19197,19209,19221,19234,19246,19262,19279,19296,19313,19329,19346,19363,19379,19397,19431,19446,19458,19470,19483,19496,19513,19530,19546,19563,19580,19597,19613,19630,19647,19680,19695,19707,19719,19737,19749,19764,19780,19797,19813,19830,19847,19864,19880,19916,19931,19944,19956,19969,19986,20004,20017,20030,20047,20064,20080,20097,20113,20130,20164,20180,20194,20207,20219,20234,20247,20264,20280,20297,20314,20330,20347,20364,20401,20416,20429,20447,20459,20471,20483,20497,20514,20531,20547,20564,20581,20598,20614,20651,20665,20677,20688,20706,20719,20731,20747,20764,20781,20797,20814,20831,20848,20883,20897,20914,20926,20944,20956,20968,20981,20998,21014,21031,21048,21065,21081,21117,21132,21150,21162,21180,21191,21204,21218,21231,21248,21265,21282,21298,21315,21331,21348,21365,21381,21398,21415,21450,21465,21478,21490,21502,21515,21532,21548,21565,21581,21598,21615,21632,21648,21683,21699,21714,21727,21744,21757,21774,21787,21799,21815,21832,21849,21866,21882,21917,21932,21944,21956,21971,21986,21999,22015,22032,22049,22065,22082,22099,22115,22149,22162,22175,22187,22199,22216,22232,22249,22266,22282,22299,22316,22333,22349,22366,22402,22417,22429,22441,22453,22466,22482,22499,22516,22533,22550,22566,22583,22599,22634,22647,22659,22672,22684,22700,22716,22733,22749,22766,22783,22799,22816,22833,22850,22866,22883,22900,22916,22933,22968,22981,22993,23005,23017,23033,23050,23067,23079,23100,23117,23133,23150,23167,23201,23220,23232,23247,23259,23271,23284,23300,23317,23333,23350,23367,23384,23400,23437,23454,23466,23478,23490,23503,23517,23534,23550,23567,23584,23600,23617,23634,23650,23687,23702,23714,23727,23738,23751,23767,23784,23801,23817,23834,23851,23867,23884,23918,23933,23951,23963,23975,23987,24001,24017,24034,24051,24067,24084,24101,24117,24134,24174,24187,24202,24214,24226,24238,24251,24267,24284,24301,24318,24334,24351,24368,24403,24420,24432,24444,24456,24468,24484,24501,24518,24535,24551,24568,24585,24601,24636,24650,24662,24674,24687,24701,24718,24735,24751,24768,24785,24802,24818,24835,24852,24889,24905,24917,24929,24941,24954,24969,24985,25002,25018,25035,25052,25068,25085,25102,25118,25135,25152,25168,25203,25220,25232,25245,25256,25269,25285,25302,25318,25335,25352,25368,25385,25402,25419,25454,25469,25481,25493,25505,25519,25536,25552,25569,25586,25602,25619,25635,25652,25687,25699,25711,25723,25736,25752,25769,25786,25802,25819,25836,25852,25869,25886,25921,25936,25948,25960,25972,25986,26003,26019,26036,26053,26069,26086,26103,26119,26136,26172,26184,26196,26208,26220,26236,26253,26269,26287,26303,26320,26336,26353,26369,26404,26420,26433,26445,26457,26470,26487,26503,26520,26536,26554,26570,26587,26603,26620,26637,26653,26670,26687,26724,26736,26748,26760,26772,26787,26803,26820,26837,26853,26870,26887,26903,26920,26937,26974,26990,27003,27015,27027,27039,27054,27070,27087,27104,27120,27137,27154,27170,27206,27221,27233,27245,27257,27270,27287,27304,27320,27337,27354,27370,27387,27404,27421,27458,27475,27487,27500,27512,27524,27538,27554,27571,27587,27604,27621,27637,27654,27691,27706,27718,27730,27742,27754,27771,27788,27804,27821,27838,27854,27871,27888,27925,27942,27954,27966,27978,27990,28005,28021,28038,28054,28072,28088,28104,28121,28157,28172,28185,28197,28209,28222,28238,28255,28271,28288,28305,28321,28338,28355,28392,28409,28421,28433,28445,28457,28472,28488,28506,28522,28538,28555,28572,28589,28605,28640,28655,28668,28679,28692,28705,28722,28738,28755,28772,28788,28805,28822,28838,28855,28873,28889,28905,28922,28956,28970,28982,28995,29007,29022,29039,29055,29072,29089,29106,29122,29139,29156,29172,29207,29219,29232,29244,29256,29273,29289,29306,29322,29339,29356,29373,29389,29406,29440,29458,29472,29486,29503,29517,29535,29551,29565,29582,29600,29612,29627,29639,29656,29691,29705,29722,29734,29746,29758,29773,29790,29806,29823,29840,29856,29873,29890,29926,29941,29954,29970,29983,29996,30009,30023,30040,30057,30073,30090,30106,30123,30140,30175,30189,30201,30213,30227,30240,30257,30274,30290,30307,30323,30340,30357,30374,30411,30425,30437,30449,30461,30474,30490,30507,30524,30540,30557,30574,30590,30607,30641,30657,30673,30686,30698,30711,30724,30741,30757,30774,30791,30807,30825,30841,30877,30892,30910,30922,30934,30946,30959,30974,30991,31007,31024,31041,31057,31074,31091,31125,31140,31153,31168,31183,31196,31213,31226,31241,31258,31274,31291,31308,31325,31361,31376,31389,31408,31420,31432,31445,31458,31475,31491,31508,31525,31541,31558,31592,31608,31624,31638,31651,31664,31680,31697,31712,31725,31742,31758,31775,31791,31808,31825,31842,31904,31930,31946,31958,31970,31982,31994,32006,32018,32030,32043,32055,32067,32079,32092,32109,32125,32160,32176,32188,32200,32213,32225,32242,32259,32275,32292,32309,32326,32342,32359,32376,32413,32425,32437,32449,32461,32475,32492,32509,32525,32543,32559,32576,32592,32609,32644,32661,32673,32686,32697,32709,32726,32742,32759,32776,32792,32809,32826,32843,32860,32894,32909,32922,32934,32946,32959,32976,32993,33009,33026,33043,33059,33076,33093,33129,33146,33158,33170,33182,33195,33210,33226,33243,33260,33276,33293,33310,33327,33343,33360,33377,33393,33410,33444,33461,33473,33486,33498,33510,33526,33543,33560,33577,33593,33610,33627,33643,33683,33698,33710,33722,33734,33746,33760,33777,33794,33810,33827,33844,33860,33877,33894,33930,33946,33958,33970,33983,33995,34011,34027,34044,34060,34077,34094,34110,34127,34162,34177,34189,34201,34213,34227,34244,34261,34277,34294,34311,34327,34344,34361,34397,34413,34425,34437,34449,34461,34477,34494,34511,34528,34544,34561,34578,34594,34611,34645,34662,34674,34686,34698,34711,34728,34744,34761,34778,34795,34811,34828,34845,34881,34898,34910,34922,34934,34946,34961,34979,34995,35011,35028,35045,35062,35078,35113,35129,35141,35155,35171,35183,35195,35212,35228,35245,35262,35278,35295,35314,35335,35372,35386,35398,35410,35422,35434,35447,35462,35479,35495,35512,35529,35545,35562,35599,35616,35628,35640,35653,35665,35679,35696,35712,35729,35746,35762,35779,35796,35830,35847,35859,35871,35883,35896,35912,35929,35946,35963,35979,35996,36012,36029,36046,36080,36095,36107,36119,36131,36146,36163,36179,36196,36212,36229,36246,36263,36279,36296,36313,36330,36346,36363,36402,36416,36433,36446,36464,36483,36500,36513,36525,36543,36555,36567,36579,36597,36613,36648,36663,36682,36694,36706,36720,36736,36749,36763,36780,36796,36813,36830,36847,36881,36895,36913,36926,36944,36963,36978,36991,37004,37015,37030,37047,37064,37080,37116,37130,37143,37154,37168,37180,37197,37214,37230,37247,37264,37280,37297,37314,37330,37365,37379,37392,37403,37421,37435,37447,37464,37480,37497,37514,37531,37547,37564,37601,37616,37628,37640,37652,37664,37681,37697,37714,37731,37747,37765,37781,37798,37814,37849,37865,37876,37889,37915,37932,37949,37966,37978,37990,38002,38014,38031,38048,38083,38099,38111,38123,38135,38148,38164,38181,38198,38215,38231,38248,38264,38281,38316,38329,38341,38353,38370,38385,38399,38415,38431,38448,38465,38481,38498,38515,38531,38548,38565,38581,38598,38633,38645,38659,38676,38688,38700,38715,38732,38748,38765,38782,38798,38815,38833,38849,38885,38899,38912,38924,38941,38954,38966,38982,38999,39015,39032,39049,39066,39082,39099,39134,39153,39166,39181,39198,39210,39222,39234,39249,39266,39282,39299,39311,39332,39368,39385,39397,39410,39422,39434,39449,39466,39483,39499,39516,39533,39549,39566,39602,39614,39628,39641,39654,39666,39683,39699,39716,39733,39750,39766,39783,39799,39835,39849,39865,39879,39892,39907,39923,39935,39950,39966,39983,40000,40016,40033,40050,40094,40111,40123,40135,40147,40159,40171,40183,40200,40216,40233,40250,40267,40284,40318,40333,40347,40359,40373,40390,40402,40427,40442,40458,40470,40484,40500,40518,40551,40565,40578,40590,40606,40620,40634,40650,40667,40684,40700,40717,40734,40750,40767,40802,40816,40831,40844,40862,40875,40893,40911,40930,40945,40960,40973,40990,41002,41035,41048,41063,41079,41096,41108,41127,41145,41160,41174,41186,41201,41218,41234,41270,41284,41296,41314,41329,41341,41356,41368,41384,41401,41418,41434,41451,41468,41484,41519,41534,41546,41562,41580,41597,41612,41624,41641,41653,41668,41685,41701,41718,41753,41771,41789,41803,41819,41831,41843,41855,41868,41885,41901,41918,41935,41952,41968,42004,42017,42033,42051,42064,42090,42112,42126,42142,42157,42169,42187,42200,42212,42223,42236,42252,42268,42286,42320,42346,42364,42378,42393,42405,42431,42449,42473,42486,42499,42515,42528,42543,42555,42567,42579,42592,42609,42622,42636,42652,42669,42685,42702,42719,42736,42752,42769,42807,42822,42836,42849,42865,42882,42894,42906,42919,42936,42953,42969,42986,43003,43039,43052,43064,43076,43099,43112,43124,43136,43153,43169,43187,43203,43219,43236,43254,43289,43303,43315,43340,43355,43372,43386,43399,43415,43426,43438,43453,43470,43487,43522,43536,43552,43564,43583,43601,43613,43625,43637,43653,43670,43687,43704,43720,43758,43770,43782,43794,43806,43820,43837,43854,43870,43887,43904,43920,43937,43954,43970,44005,44018,44031,44043,44055,44070,44087,44104,44121,44137,44154,44170,44187,44204,44242,44255,44268,44287,44299,44317,44334,44348,44366,44383,44396,44414,44431,44445,44457,44471,44488,44504,44521,44560,44572,44585,44597,44613,44625,44638,44655,44671,44687,44704,44721,44738,44754,44789,44801,44813,44825,44838,44855,44871,44888,44905,44921,44938,44955,44971,44988,45005,45041,45056,45069,45086,45097,45109,45121,45138,45155,45171,45188,45205,45221,45238,45255,45290,45304,45316,45327,45341,45355,45371,45388,45405,45422,45438,45455,45471,45488,45526,45542,45558,45571,45586,45606,45617,45633,45646,45659,45672,45689,45705,45722,45739,45774,45791,45804,45821,45834,45845,45857,45872,45889,45905,45922,45939,45956,45972,45989,46005,46022,46040,46056,46094,46106,46118,46130,46144,46159,46173,46189,46206,46222,46239,46256,46272,46289,46324,46338,46357,46373,46385,46399,46419,46432,46450,46462,46474,46489,46506,46523,46539,46577,46591,46603,46615,46627,46640,46656,46673,46690,46706,46723,46739,46756,46774,46808,46821,46834,46851,46866,46881,46895,46906,46923,46940,46956,46973,46990,47007,47044,47059,47076,47094,47107,47124,47143,47156,47170,47196,47217,47231,47245,47261,47274,47286,47298,47311,47323,47340,47357,47374,47390,47408,47424,47440,47457,47474,47490,47526,47541,47555,47566,47583,47601,47616,47633,47645,47657,47674,47690,47707,47724,47740,47775,47790,47803,47815,47827,47841,47857,47874,47891,47908,47924,47941,47957,47994,48009,48021,48033,48046,48057,48074,48091,48107,48124,48141,48158,48175,48191,48208,48243,48257,48269,48281,48294,48308,48324,48342,48358,48374,48391,48408,48425,48441,48479,48495,48507,48519,48531,48544,48558,48575,48591,48608,48625,48642,48658,48675,48692,48727,48744,48756,48770,48786,48799,48810,48825,48842,48859,48875,48892,48908,48925,48942,48979,48993,49005,49022,49040,49053,49071,49083,49096,49109,49125,49145,49161,49195,49210,49222,49234,49246,49259,49275,49292,49309,49326,49342,49359,49375,49392,49409,49444,49458,49472,49483,49496,49509,49526,49543,49559,49576,49592,49609,49626,49642,49659,49696,49713,49725,49737,49750,49762,49776,49792,49809,49826,49843,49859,49876,49910,49926,49938,49950,49964,49976,49993,50009,50026,50045,50060,50077,50094,50110,50126,50162,50179,50196,50213,50225,50238,50255,50270,50286,50304,50317,50334,50352,50368,50395,50413,50429,50443,50454,50466,50484,50497,50510,50527,50543,50560,50577,50593,50610,50646,50664,50681,50697,50709,50721,50734,50747,50764,50777,50794,50810,50827,50845,50881,50895,50911,50924,50935,50948,50960,50977,50994,51010,51027,51044,51061,51077,51094,51129,51143,51155,51172,51186,51202,51216,51233,51245,51260,51273,51286,51300,51313,51327,51344,51380,51395,51411,51427,51444,51461,51478,51494,51511,51528,51545,51561,51600,51615,51627,51639,51651,51663,51678,51694,51711,51728,51745,51761,51778,51795,51811,51828,51845,51861,51878,51917,51932,51945,51957,51974,51986,51998,52011,52028,52045,52061,52079,52095,52112,52128,52166,52180,52192,52206,52217,52230,52245,52262,52278,52296,52312,52328,52345,52362,52396,52410,52423,52435,52448,52462,52478,52495,52512,52528,52545,52562,52579,52595,52612,52647,52665,52678,52695,52708,52720,52733,52745,52762,52779,52795,52812,52829,52846,52881,52896,52913,52927,52943,52959,52975,52987,53005,53017,53029,53046,53062,53079,53096,53131,53145,53163,53181,53193,53205,53223,53235,53248,53262,53279,53296,53313,53348,53363,53375,53393,53405,53416,53429,53446,53463,53479,53496,53513,53529,53546,53563,53598,53611,53629,53641,53659,53674,53689,53701,53713,53730,53746,53763,53780,53796,53833,53848,53865,53880,53896,53908,53926,53938,53950,53963,53980,53997,54013,54030,54047,54064,54080,54097,54114,54130,54165,54181,54193,54206,54223,54236,54248,54263,54281,54297,54314,54330,54347,54364,54398,54413,54431,54448,54461,54478,54490,54502,54514,54531,54547,54564,54580,54597,54614,54648,54666,54678,54690,54702,54714,54731,54747,54764,54781,54797,54814,54831,54847,54882,54898,54914,54926,54939,54951,54964,54981,54998,55015,55031,55048,55065,55081,55098,55135,55151,55163,55175,55187,55199,55214,55231,55248,55264,55281,55298,55315,55331,55366,55381,55393,55406,55418,55431,55448,55465,55481,55498,55515,55531,55548,55565,55599,55611,55624,55636,55648,55665,55682,55698,55715,55732,55748,55765,55782,55798,55815,55851,55866,55878,55890,55902,55915,55932,55948,55965,55982,55998,56015,56032,56049,56083,56097,56111,56128,56146,56158,56175,56188,56200,56215,56232,56249,56265,56282,56299,56336,56351,56363,56375,56387,56400,56416,56432,56449,56466,56482,56499,56516,56551,56566,56578,56594,56606,56618,56633,56649,56666,56683,56699,56716,56733,56749,56766,56802,56818,56830,56842,56855,56866,56883,56899,56917,56933,56949,56966,56983,57000,57016,57033,57050,57066,57083,57117,57134,57145,57157,57169,57184,57200,57217,57233,57250,57267,57283,57300,57317,57334,57368,57382,57394,57406,57418,57433,57450,57467,57483,57500,57517,57534,57550,57567,57604,57618,57631,57643,57656,57668,57684,57700,57717,57734,57751,57767,57784,57801,57835,57849,57861,57873,57886,57900,57917,57934,57951,57967,57984,58000,58017,58034,58051,58088,58104,58116,58128,58140,58152,58167,58184,58201,58217,58234,58251,58267,58284,58319,58334,58346,58358,58371,58384,58401,58417,58434,58451,58468,58485,58501,58517,58534,58551,58568,58585,58601,58618,58653,58668,58680,58692,58704,58718,58735,58751,58768,58785,58801,58818,58835,58851,58889,58904,58916,58928,58940,58952,58968,58985,59001,59018,59035,59051,59068,59085,59102,59137,59153,59165,59177,59189,59202,59218,59235,59252,59268,59285,59302,59318,59353,59371,59383,59395,59408,59424,59436,59452,59468,59485,59502,59519,59535,59552,59569,59605,59618,59631,59644,59662,59674,59686,59702,59719,59736,59753,59769,59786,59802,59838,59851,59863,59876,59887,59902,59919,59936,59953,59969,59986,60002,60019,60036,60052,60088,60105,60116,60130,60147,60159,60171,60186,60203,60219,60236,60253,60269,60287,60321,60336,60353,60366,60384,60401,60414,60427,60444,60456,60469,60487,60503,60519,60536,60571,60583,60595,60607,60620,60637,60653,60670,60686,60703,60720,60736,60754,60770,60786,60803,60820,60837,60853,60888,60902,60917,60929,60941,60954,60971,60987,61003,61020,61037,61053,61070,61087,61122,61137,61153,61166,61178,61191,61204,61220,61238,61254,61270,61287,61304,61320,61337,61374,61390,61402,61414,61426,61438,61454,61470,61487,61504,61521,61537,61554,61571,61606,61620,61633,61650,61662,61675,61687,61704,61721,61737,61754,61771,61787,61804,61841,61855,61870,61888,61904,61919,61936,61948,61960,61977,61990,62005,62021,62038,62055,62092,62106,62118,62136,62148,62160,62173,62188,62205,62221,62238,62255,62271,62288,62305,62322,62338,62355,62372,62407,62426,62442,62454,62470,62487,62504,62517,62535,62547,62565,62577,62589,62605,62641,62655,62668,62680,62692,62705,62722,62739,62755,62772,62789,62805,62822,62839,62874,62886,62898,62910,62922,62939,62955,62972,62989,63006,63022,63039,63056,63072,63107,63123,63135,63147,63160,63172,63189,63205,63222,63239,63256,63272,63289,63306,63322,63357,63371,63383,63395,63408,63423,63439,63456,63473,63489,63506,63523,63539,63556,63573,63608,63625,63638,63650,63662,63674,63689,63706,63723,63739,63756,63773,63790,63806,63841,63856,63868,63880,63892,63906,63923,63940,63956,63973,63990,64006,64024,64040,64056,64092,64105,64123,64140,64154,64172,64190,64208,64220,64235,64250,64265,64277,64308,64325,64337,64349,64361,64374,64390,64407,64423,64440,64457,64473,64490,64507,64524,64540,64557,64574,64590,64607,64642,64659,64671,64683,64695,64707,64724,64741,64757,64774,64790,64807,64824,64841,64875,64889,64901,64913,64925,64940,64957,64974,64990,65007,65024,65041,65057,65074,65091,65127,65144,65156,65168,65180,65192,65208,65224,65241,65257,65274,65291,65308,65325,65359,65374,65386,65398,65410,65424,65441,65458,65475,65491,65508,65524,65541,65558,65594,65610,65623,65634,65647,65659,65675,65692,65708,65725,65741,65758,65775,65791,65808,65824,65844,65858,65874,65891,65908,65924,65941,65958,65976,65991,66009,66025,66041,66059,66075,66091,66109,66126,66143,66159,66174,66192,66208,66224,66242,66257,66274,66291,66308,66324,66341,66358,66375,66394,66409,66427,66443,66460,66475,66492,66511,66525,66542,66559,66574,66591,66609,66627,66641,66659,66675,66692,66709,66725,66742,66760,66775,66793,66810,66825,66842,66859,66877,66893,66907,66920,66938,66953,66976,66992,67009,67026,67043,67059,67076,67093,67130,67147,67159,67172,67184,67196,67210,67226,67243,67259,67276,67293,67309,67326,67361,67375,67387,67399,67411,67426,67443,67460,67477,67494,67510,67527,67543,67560,67576,67611,67624,67641,67654,67667,67678,67693,67710,67727,67743,67760,67776,67793,67810,67846,67860,67872,67886,67898,67910,67927,67944,67960,67977,67994,68010,68027,68044,68079,68091,68104,68121,68133,68146,68160,68177,68194,68210,68227,68244,68261,68277,68294,68331,68346,68358,68376,68389,68406,68418,68431,68444,68461,68477,68494,68511,68528,68562,68576,68590,68602,68615,68627,68644,68661,68677,68695,68711,68727,68744,68761,68797,68813,68826,68843,68857,68874,68886,68903,68916,68928,68945,68961,68978,68995,69011,69028,69045,69061,69078,69113,69127,69140,69152,69165,69178,69195,69211,69228,69245,69261,69278,69295,69311,69328,69363,69377,69395,69406,69419,69431,69445,69462,69478,69495,69511,69528,69545,69562,69599,69615,69631,69644,69656,69668,69681,69695,69712,69729,69745,69762,69779,69796,69830,69843,69855,69868,69881,69895,69912,69929,69945,69962,69979,69996,70012,70029,70046,70082,70097,70110,70124,70141,70153,70170,70183,70196,70213,70229,70246,70262,70279,70296,70332,70348,70365,70379,70397,70414,70426,70438,70455,70468,70486,70499,70513,70529,70564,70586,70602,70619,70632,70649,70661,70673,70685,70697,70713,70730,70746,70763,70780,70814,70831,70843,70855,70867,70880,70896,70913,70930,70947,70963,70980,70997,71034,71049,71061,71073,71085,71098,71113,71130,71147,71163,71180,71197,71214,71231,71247,71264,71280,71297,71313,71348,71365,71377,71390,71402,71414,71430,71447,71464,71480,71497,71514,71530,71547,71564,71598,71614,71626,71638,71650,71664,71681,71697,71714,71731,71747,71764,71780,71797,71815,71849,71861,71873,71886,71903,71917,71931,71947,71964,71981,71998,72014,72031,72048,72082,72097,72111,72123,72139,72151,72164,72181,72198,72215,72231,72248,72265,72281,72298,72332,72348,72360,72376,72394,72406,72418,72431,72448,72465,72481,72498,72515,72531,72566,72580,72593,72606,72619,72631,72648,72665,72681,72698,72715,72732,72748,72765,72782,72798,72815,72832,72848,72883,72896,72908,72921,72933,72948,72963,72978,72997,73013,73029,73045,73062,73080,73095,73112,73130,73149,73162,73179,73196,73216,73229,73246,73262,73279,73295,73313,73330,73349,73362,73379,73396,73412,73429,73445,73462,73480,73498,73512,73529,73545,73562,73579,73599,73612,73629,73645,73662,73679,73695,73712,73729,73746,73762,73779,73795,73816,73829,73845,73862,73879,73895,73912,73929,73946,73962,73979,73996,74012,74029,74046,74067,74079,74095,74115,74129,74146,74162,74179,74196,74212,74229,74245,74262,74279,74295,74319,74346,74363,74379,74395,74412,74429,74446,74462,74479,74495,74512,74529,74545,74562,74579,74596,74612,74629,74646,74662,74679,74695,74712,74730,74746,74762,74779,74795,74812,74829,74845,74862,74878,74895,74912,74929,74945,74962,74979,74995,75012,75029,75045,75063,75080,75097,75112,75129,75145,75162,75179,75196,75213,75229,75246,75262,75279,75295,75312,75329,75346,75362,75379,75396,75412,75431,75446,75462,75479,75495,75512,75529,75545,75562,75581,75595,75613,75629,75645,75662,75679,75695,75712,75729,75746,75762,75779,75796,75812,75829,75846,75862,75879,75896,75913,75929,75946,75962,75979,75995,76012,76029,76046,76062,76079,76096,76113,76129,76146,76163,76179,76196,76212,76229,76246,76262,76280,76296,76313,76331,76347,76363,76380,76396,76412,76429,76446,76462,76479,76496,76512,76529,76545,76563,76579,76596,76613,76631,76646,76662,76679,76696,76715,76730,76746,76762,76779,76796,76813,76830,76846,76863,76879,76896,76912,76929,76945,76962,76979,76996,77013,77029,77045,77062,77079,77096,77112,77129,77145,77162,77179,77196,77213,77229,77246,77262,77279,77296,77312,77329,77346,77362,77379,77395,77412,77429,77445,77462,77479,77495,77512,77529,77545,77562,77579,77596,77613,77629,77645,77662,77679,77695,77712,77729,77745,77762,77779,77796,77812,77829,77845,77862,77879,77896,77912,77929,77945,77962,77979,77995,78012,78029,78046,78062,78079,78095,78112,78129,78145,78162,78179,78195,78212,78229,78245,78262,78280,78295,78312,78329,78346,78363,78379,78395,78412,78429,78446,78462,78479,78496,78512,78529,78545,78562,78579,78595,78612,78629,78645,78663,78681,78696,78711,78729,78746,78762,78779,78796,78813,78829,78846,78862,78880,78896,78912,78929,78946,78962,78980,78996,79012,79030,79046,79063,79079,79096,79113,79130,79147,79163,79179,79196,79213,79229,79246,79262,79279,79296,79313,79330,79347,79363,79380,79397,79414,79430,79446,79462,79480,79496,79513,79530,79546,79563,79579,79596,79613,79629,79646,79663,79680,79696,79713,79730,79746,79763,79780,79796,79812,79830,79846,79862,79880,79896,79913,79930,79946,79962,79980,79996,80012,80029,80046,80062,80080,80096,80113,80131,80146,80162,80180,80196,80212,80229,80246,80263,80280,80296,80312,80330,80346,80361,80379,80396,80414,80433,80447,80464,80480,80497,80513,80530,80546,80562,80580,80596,80614,80632,80647,80663,80679,80697,80713,80730,80746,80763,80780,80796,80813,80830,80846,80863,80880,80896,80914,80932,80946,80963,80980,80997,81013,81030,81046,81063,81080,81096,81113,81129,81145,81163,81180,81196,81212,81230,81246,81262,81280,81296,81312,81330,81346,81363,81380,81396,81412,81430,81446,81463,81481,81497,81514,81531,81546,81563,81580,81596,81612,81629,81646,81662,81680,81697,81712,81729,81747,81763,81782,81796,81812,81829,81846,81862,81881,81897,81912,81930,81947,81963,81980,81996,82012,82030,82046,82063,82079,82096,82112,82130,82146,82162,82179,82196,82213,82232,82246,82263,82279,82296,82312,82329,82347,82362,82380,82396,82413,82429,82446,82462,82480,82496,82512,82530,82546,82563,82579,82596,82613,82630,82646,82662,82679,82696,82712,82729,82746,82763,82780,82796,82813,82833,82846,82862,82879,82895,82912,82930,82946,82963,82979,82997,83013,83030,83046,83063,83080,83096,83113,83130,83147,83163,83180,83197,83212,83230,83246,83262,83279,83297,83312,83329,83346,83363,83380,83396,83413,83430,83446,83462,83480,83496,83513,83530,83546,83563,83581,83596,83613,83630,83647,83664,83681,83697,83713,83730,83746,83763,83780,83796,83812,83829,83846,83862,83879,83896,83913,83929,83946,83962,83979,83996,84012,84029,84046,84063,84079,84096,84113,84130,84147,84163,84180,84197,84212,84229,84246,84262,84279,84296,84313,84330,84346,84363,84379,84396,84413,84430,84447,84463,84480,84496,84513,84530,84546,84563,84580,84597,84613,84630,84647,84663,84679,84696,84714,84730,84747,84763,84780,84796,84813,84830,84846,84863,84880,84896,84913,84930,84946,84963,84979,84996,85013,85030,85046,85063,85080,85096,85113,85130,85146,85163,85180,85197,85213,85230,85246,85263,85280,85296,85313,85330,85346,85363,85380,85397,85413,85430,85447,85463,85480,85497,85513,85530,85547,85563,85580,85597,85613,85630,85649,85663,85680,85697,85713,85730,85747,85763,85780,85797,85814,85830,85847,85864,85880,85897,85913,85930,85947,85964,85980,85997,86013,86031,86049,86063,86080,86097,86114,86131,86147,86163,86180,86197,86213,86230,86247,86263,86280,86297,86314,86330,86347,86363,86380,86397,86414,86431,86447,86463,86480,86497,86513,86530,86547,86564,86580,86597,86613,86630,86647,86664,86680,86697,86714,86730,86748,86763,86780,86797,86814,86831,86848,86865,86881,86897,86914,86930,86949,86964,86981,86997,87014,87030,87047,87064,87081,87097,87114,87131,87148,87164,87181,87198,87214,87231,87247,87264,87280,87298,87314,87331,87348,87363,87381,87398,87414,87431,87448,87464,87480,87497,87514,87531,87547,87564,87582,87598,87614,87631,87647,87664,87681,87698,87714,87734,87748,87764,87781,87797,87814,87831,87848,87864,87881,87898,87915,87931,87948,87965,87981,87998,88014,88032,88049,88063,88081,88098,88114,88131,88148,88164,88181,88198,88214,88231,88248,88264,88281,88298,88314,88331,88349,88364,88381,88397,88415,88431,88448,88464,88481,88498,88514,88531,88547,88564,88581,88598,88614,88632,88647,88664,88681,88697,88714,88731,88748,88764,88781,88798,88814,88830,88848,88866,88881,88898,88914,88932,88947,88964,88981,88998,89015,89032,89048,89064,89082,89098,89114,89131,89148,89164,89181,89199,89214,89231,89248,89264,89281,89298,89314,89331,89350,89364,89381,89398,89414,89431,89447,89464,89481,89497,89515,89531,89548,89564,89581,89600,89613,89631,89648,89664,89681,89698,89714,89731,89748,89764,89781,89798,89814,89831,89848,89865,89881,89900,89914,89931,89948,89964,89981,89998,90014,90031,90048,90065,90082,90099,90115,90131,90150,90164,90181,90198,90214,90231,90248,90263,90282,90298,90315,90332,90348,90364,90383,90398,90415,90431,90448,90465,90481,90498,90514,90531,90548,90565,90581,90598,90617,90631,90648,90665,90682,90698,90714,90732,90748,90764,90781,90798,90814,90831,90849,90868,90882,90898,90915,90932,90948,90965,90982,90998,91015,91031,91049,91065,91082,91101,91115,91132,91149,91166,91182,91198,91215,91231,91248,91264,91281,91298,91314,91332,91348,91365,91381,91399,91415,91434,91448,91465,91482,91499,91515,91535,91549,91565,91582,91599,91615,91632,91649,91667,91682,91697,91715,91731,91748,91764,91782,91799,91815,91834,91848,91865,91882,91902,91916,91931,91948,91965,91982,91998,92015,92031,92049,92065,92082,92098,92114,92131,92151,92165,92181,92198,92216,92233,92249,92265,92283,92299,92315,92334,92349,92364,92385,92399,92415,92430,92448,92465,92482,92499,92515,92545,92564,92575,92588,92615,92632,92649,92665,92683,92699,92716,92732,92749,92765,92782,92799,92817,92832,92849,92865,92882,92899,92915,92933,92949,92965,92982,92999,93015,93032,93049,93065,93082,93099,93115,93133,93149,93165,93182,93198,93215,93232,93249,93266,93282,93299,93316,93332,93349,93365,93382,93399,93415,93432,93449,93465,93482,93499,93516,93532,93548,93565,93582,93599,93615,93632,93649,93665,93683,93699,93716,93733,93750,93764,93782,93799,93815,93832,93849,93865,93882,93899,93916,93933,93949,93965,93982,93999,94016,94033,94049,94066,94083,94099,94116,94135,94149,94166,94183,94200,94216,94233,94249,94266,94283,94299,94316,94333,94349,94366,94383,94400,94416,94433,94450,94466,94484,94499,94516,94532,94549,94565,94582,94600,94617,94632,94649,94667,94683,94700,94716,94732,94749,94766,94782,94799,94816,94832,94849,94865,94882,94899,94916,94933,94949,94966,94982,94999,95015,95031,95050,95066,95083,95099,95116,95133,95149,95166,95182,95199,95216,95232,95249,95266,95282,95299,95316,95333,95349,95366,95383,95399,95416,95432,95451,95466,95483,95500,95516,95532,95549,95566,95583,95599,95616,95632,95650,95666,95682,95699,95716,95732,95749,95766,95782,95799,95815,95832,95849,95866,95883,95900,95916,95933,95950,95966,95982,95999,96016,96033,96050,96066,96083,96100,96116,96135,96149,96166,96183,96199,96216,96233,96249,96266,96283,96299,96316,96333,96349,96366,96383,96399,96416,96435,96449,96466,96482,96499,96516,96535,96549,96566,96582,96599,96615,96632,96649,96665,96682,96699,96715,96732,96748,96765,96782,96798,96816,96832,96849,96865,96882,96899,96915,96932,96949,96965,96982,96999,97015,97031,97049,97065,97082,97099,97116,97132,97149,97165,97183,97200,97215,97232,97249,97265,97282,97299,97315,97333,97350,97365,97382,97399,97416,97434,97450,97466,97483,97499,97516,97533,97549,97565,97583,97599,97616,97632,97650,97665,97682,97699,97716,97732,97749,97765,97782,97800,97816,97832,97849,97865,97882,97900,97915,97932,97949,97967,97983,97999,98017,98035,98049,98066,98081,98099,98115,98132,98149,98166,98182,98199,98215,98232,98249,98265,98282,98299,98315,98335,98349,98365,98382,98399,98415,98432,98449,98465,98482,98499,98515,98532,98549,98565,98582,98599,98615,98635,98649,98666,98683,98699,98715,98731,98749,98765,98782,98799,98816,98834,98849,98865,98882,98899,98915,98932,98949,98965,98982,98999,99016,99032,99049,99066,99083,99099,99116,99133,99149,99165,99182,99200,99215,99232,99249,99266,99283,99299,99315,99333,99349,99365,99382,99399,99415,99432,99449,99465,99482,99499,99515,99532,99549,99565,99581,99599,99615,99632,99649,99666,99682,99699,99717,99734,99751,99766,99783,99799,99816,99833,99850,99866,99882,99900,99916,99933,99949,99966,99983,99999,100016,100033,100049,100066,100083,100100,100116,100133,100149,100166,100183,100200,100216,100233,100250,100266,100283,100300,100316,100332,100349,100366,100382,100399,100416,100433,100450,100466,100483,100499,100516,100532,100550,100567,100582,100599,100617,100632,100649,100665,100683,100699,100715,100733,100749,100766,100783,100800,100816,100833,100849,100865,100882,100898,100915,100934,100949,100966,100981,101000,101016,101033,101049,101066,101083,101100,101116,101132,101149,101165,101183,101200,101216,101233,101249,101266,101283,101300,101316,101333,101350,101366,101382,101400,101416,101433,101449,101466,101483,101500,101516,101534,101550,101566,101583,101599,101617,101633,101650,101666,101683,101699,101716,101734,101750,101767,101784,101800,101817,101833,101850,101868,101884,101902,101916,101933,101950,101967,101983,102000,102016,102032,102050,102066,102084,102099,102115,102133,102150,102167,102183,102199,102215,102234,102250,102266,102283,102300,102316,102334,102349,102367,102383,102399,102416,102433,102449,102465,102482,102501,102516,102533,102550,102567,102583,102601,102617,102633,102650,102667,102684,102700,102716,102733,102750,102767,102783,102799,102817,102833,102850,102866,102883,102900,102916,102936,102951,102968,102984,103000,103017,103035,103051,103067,103083,103101,103116,103133,103150,103166,103184,103200,103216,103233,103250,103266,103283,103300,103316,103333,103350,103366,103383,103399,103417,103433,103450,103466,103484,103500,103516,103533,103549,103566,103583,103600,103617,103633,103650,103666,103683,103699,103716,103736,103749,103766,103782,103800,103816,103832,103849,103866,103882,103900,103916,103932,103949,103966,103983,103999,104017,104034,104052,104066,104082,104099,104115,104135,104149,104166,104182,104200,104215,104236,104252,104266,104283,104299,104316,104333,104349,104365,104382,104400,104416,104434,104450,104465,104482,104499,104516,104533,104550,104566,104582,104599,104616,104633,104651,104667,104683,104700,104716,104735,104750,104767,104784,104800,104817,104833,104850,104867,104883,104900,104917,104933,104950,104966,104983,105000,105017,105033,105051,105067,105084,105101,105118,105137,105151,105167,105184,105200,105217,105233,105250,105266,105284,105300,105317,105334,105353,105366,105384,105400,105417,105434,105450,105466,105484,105500,105516,105533,105550,105566,105587,105604,105616,105633,105650,105666,105683,105700,105716,105733,105750,105766,105783,105800,105816,105833,105850,105867,105884,105900,105917,105933,105950,105966,105983,106000,106016,106033,106050,106067,106083,106100,106116,106133,106150,106167,106185,106200,106217,106233,106250,106266,106283,106300,106317,106334,106352,106367,106384,106400,106417,106435],"hit":[null],"x":[-0.15476190476190477,-0.15476190476190477,-0.15476190476190477,-0.15476190476190477,-0.15476190476190477,-0.15476190476190477,-0.15476190476190477,-0.15476190476190477,-0.15476190476190477,-0.15476190476190477,-0.15476190476190477,-0.15476190476190477,-0.15476190476190477,-0.15476190476190477,-0.15476190476190477,-0.15476190476190477,-0.15476190476190477,-0.15476190476190477,-0.15476190476190477,-0.15476190476190477,-0.15476190476190477,-0.15476190476190477,-0.15476190476190477,-0.15476190476190477,-0.15476190476190477,-0.15476190476190477,-0.15476190476190477,-0.15476190476190477,-0.15136054421768708,-0.15136054421768708,-0.15136054421768708,-0.15136054421768708,-0.15136054421768708,-0.15136054421768708,-0.15136054421768708,-0.15136054421768708,-0.14795918367346939,-0.13435374149659865,-0.0935374149659864,-0.04251700680272109,0.02891156462585034,0.12074829931972789,0.17517006802721088,0.17857142857142858,0.17857142857142858,0.17857142857142858,0.17857142857142858,0.17857142857142858,0.17857142857142858,0.17857142857142858,0.17857142857142858,0.17857142857142858,0.195578231292517,0.22959183673469388,0.23979591836734693,0.24319727891156462,0.2465986394557823,0.2465986394557823,0.2465986394557823,0.25,0.2534013605442177,0.2534013605442177,0.2534013605442177,0.2534013605442177,0.2568027210884354,0.2568027210884354,0.2568027210884354,0.2568027210884354,0.2568027210884354,0.2568027210884354,0.2568027210884354,0.2568027210884354,0.2568027210884354,0.2568027210884354,0.2568027210884354,0.2568027210884354,0.2568027210884354,0.2568027210884354,0.2568027210884354,0.2568027210884354,0.2568027210884354,0.2568027210884354,0.2568027210884354,0.2568027210884354,0.2602040816326531,0.2602040816326531,0.27040816326530615,0.28401360544217685,0.304421768707483,0.32482993197278914,0.34183673469387754,0.358843537414966,0.3656462585034014,0.36904761904761907,0.3758503401360544,0.3758503401360544,0.3792517006802721,0.3826530612244898,0.3826530612244898,0.3826530612244898,0.3826530612244898,0.3826530612244898,0.3826530612244898,0.3826530612244898,0.3826530612244898,0.3826530612244898,0.3826530612244898,0.3826530612244898,0.3826530612244898,0.3826530612244898,0.3826530612244898,0.3826530612244898,0.3826530612244898,0.3826530612244898,0.3826530612244898,0.3826530612244898,0.3826530612244898,0.3826530612244898,0.3826530612244898,0.3826530612244898,0.3826530612244898,0.3826530612244898,0.3826530612244898,0.3826530612244898,0.3826530612244898,0.3826530612244898,0.3826530612244898,0.3826530612244898,0.3826530612244898,0.3826530612244898,0.3826530612244898,0.3826530612244898,0.3826530612244898,0.3826530612244898,0.3826530612244898,0.3826530612244898,0.3826530612244898,0.3826530612244898,0.3826530612244898,0.3826530612244898,0.3826530612244898,0.3826530612244898,0.3826530612244898,0.3826530612244898,0.3826530612244898,0.38605442176870747,0.38945578231292516,0.39965986394557823,0.4030612244897959,0.4098639455782313,0.4302721088435374,0.45068027210884354,0.467687074829932,0.4846938775510204,0.49829931972789115,0.5085034013605442,0.5153061224489796,0.5221088435374149,0.5255102040816326,0.5289115646258503,0.5289115646258503,0.5289115646258503,0.532312925170068,0.532312925170068,0.5357142857142857,0.5357142857142857,0.5391156462585034,0.5425170068027211,0.5459183673469388,0.5459183673469388,0.5493197278911565,0.5493197278911565,0.5493197278911565,0.5493197278911565,0.5493197278911565,0.5493197278911565,0.5493197278911565,0.5493197278911565,0.5493197278911565,0.5493197278911565,0.5493197278911565,0.5493197278911565,0.5493197278911565,0.5493197278911565,0.5493197278911565,0.5493197278911565,0.5493197278911565,0.5493197278911565,0.5493197278911565,0.5493197278911565,0.5493197278911565,0.5493197278911565,0.5493197278911565,0.5493197278911565,0.5493197278911565,0.5493197278911565,0.5493197278911565,0.5493197278911565,0.5493197278911565,0.5493197278911565,0.5493197278911565,0.5493197278911565,0.5493197278911565,0.5493197278911565,0.5493197278911565,0.5493197278911565,0.5493197278911565,0.5493197278911565,0.5493197278911565,0.5493197278911565,0.5493197278911565,0.5493197278911565,0.5493197278911565,0.5527210884353742,0.5561224489795918,0.5663265306122449,0.5731292517006803,0.576530612244898,0.5867346938775511,0.5901360544217688,0.6003401360544217,0.6037414965986394,0.6173469387755102,0.6241496598639455,0.6275510204081632,0.6343537414965986,0.641156462585034,0.6445578231292517,0.6445578231292517,0.6479591836734694,0.6479591836734694,0.6479591836734694,0.6479591836734694,0.6479591836734694,0.6479591836734694,0.6479591836734694,0.6479591836734694,0.6479591836734694,0.6479591836734694,0.6479591836734694,0.6479591836734694,0.6479591836734694,0.6479591836734694,0.6479591836734694,0.6479591836734694,0.6479591836734694,0.6479591836734694,0.6479591836734694,0.6479591836734694,0.6479591836734694,0.6479591836734694,0.6479591836734694,0.6479591836734694,0.6479591836734694,0.6479591836734694,0.6479591836734694,0.6479591836734694,0.6479591836734694,0.6479591836734694,0.6479591836734694,0.6479591836734694,0.6479591836734694,0.6479591836734694,0.6479591836734694,0.6479591836734694,0.6479591836734694,0.6479591836734694,0.6479591836734694,0.6479591836734694,0.6479591836734694,0.6479591836734694,0.6479591836734694,0.6479591836734694,0.6479591836734694,0.6479591836734694,0.6445578231292517,0.641156462585034,0.6377551020408163,0.6309523809523809,0.6275510204081632,0.6241496598639455,0.6173469387755102,0.6105442176870748,0.6037414965986394,0.5969387755102041,0.5799319727891157,0.5663265306122449,0.5493197278911565,0.532312925170068,0.5221088435374149,0.5119047619047619,0.5085034013605442,0.49829931972789115,0.4846938775510204,0.4642857142857143,0.44387755102040816,0.413265306122449,0.3792517006802721,0.3486394557823129,0.31802721088435376,0.28401360544217685,0.24319727891156462,0.20238095238095238,0.1683673469387755,0.15136054421768708,0.14795918367346939,0.1445578231292517,0.1445578231292517,0.1445578231292517,0.1445578231292517,0.1445578231292517,0.1445578231292517,0.1445578231292517,0.1445578231292517,0.1445578231292517,0.1445578231292517,0.1445578231292517,0.1445578231292517,0.1445578231292517,0.1445578231292517,0.1445578231292517,0.1445578231292517,0.1445578231292517,0.1445578231292517,0.141156462585034,0.13095238095238096,0.12414965986394558,0.12074829931972789,0.11734693877551021,0.11394557823129252,0.10374149659863946,0.0935374149659864,0.08673469387755102,0.08333333333333333,0.07653061224489796,0.06972789115646258,0.0663265306122449,0.0663265306122449,0.0663265306122449,0.06292517006802721,0.05952380952380952,0.05952380952380952,0.04931972789115646,0.04591836734693878,0.04251700680272109,0.0391156462585034,0.03231292517006803,0.03231292517006803,0.03231292517006803,0.03231292517006803,0.03231292517006803,0.03231292517006803,0.03231292517006803,0.03231292517006803,0.03231292517006803,0.03231292517006803,0.03231292517006803,0.03231292517006803,0.03231292517006803,0.03231292517006803,0.03231292517006803,0.03231292517006803,0.03231292517006803,0.03231292517006803,0.03231292517006803,0.03231292517006803,0.03231292517006803,0.03231292517006803,0.03231292517006803,0.03231292517006803,0.03231292517006803,0.03231292517006803,0.03231292517006803,0.03231292517006803,0.03231292517006803,0.03231292517006803,0.03231292517006803,0.03231292517006803,0.03231292517006803,0.03231292517006803,0.0663265306122449,0.10714285714285714,0.15816326530612246,0.21598639455782312,0.27040816326530615,0.31802721088435376,0.3520408163265306,0.37244897959183676,0.3792517006802721,0.3792517006802721,0.3792517006802721,0.3792517006802721,0.3792517006802721,0.3792517006802721,0.3792517006802721,0.3792517006802721,0.3792517006802721,0.3792517006802721,0.3792517006802721,0.3792517006802721,0.3792517006802721,0.3792517006802721,0.3792517006802721,0.3792517006802721,0.3792517006802721,0.3792517006802721,0.3792517006802721,0.3792517006802721,0.3792517006802721,0.3792517006802721,0.3792517006802721,0.3792517006802721,0.3792517006802721,0.3792517006802721,0.3792517006802721,0.3792517006802721,0.3792517006802721,0.3792517006802721,0.3792517006802721,0.3792517006802721,0.3792517006802721,0.3792517006802721,0.3792517006802721,0.3792517006802721,0.3792517006802721,0.3792517006802721,0.3792517006802721,0.3792517006802721,0.3792517006802721,0.38605442176870747,0.39625850340136054,0.4166666666666667,0.44387755102040816,0.467687074829932,0.4914965986394558,0.5187074829931972,0.5391156462585034,0.5561224489795918,0.5901360544217688,0.6105442176870748,0.6275510204081632,0.6445578231292517,0.6615646258503401,0.6717687074829932,0.6819727891156463,0.685374149659864,0.685374149659864,0.6887755102040817,0.6887755102040817,0.6887755102040817,0.6887755102040817,0.6921768707482994,0.6955782312925171,0.70578231292517,0.7159863945578231,0.7227891156462585,0.7295918367346939,0.7329931972789115,0.7329931972789115,0.7397959183673469,0.7465986394557823,0.7568027210884354,0.7840136054421769,0.8010204081632653,0.8214285714285714,0.8486394557823129,0.8690476190476191,0.8894557823129252,0.9098639455782312,0.9268707482993197,0.9438775510204082,0.9540816326530612,0.967687074829932,0.9778911564625851,0.9880952380952381,0.9948979591836735,0.9948979591836735,0.9948979591836735,0.9948979591836735,0.9948979591836735,0.9948979591836735,0.9948979591836735,0.9948979591836735,0.9948979591836735,0.9948979591836735,0.9948979591836735,0.9948979591836735,0.9948979591836735,0.9948979591836735,0.9948979591836735,0.9948979591836735,0.9948979591836735,0.9948979591836735,0.9948979591836735,0.9948979591836735,0.9948979591836735,0.9948979591836735,0.9948979591836735,0.9948979591836735,0.9948979591836735,0.9948979591836735,0.9948979591836735,0.9948979591836735,0.9948979591836735,0.9948979591836735,0.9948979591836735,0.9948979591836735,0.9948979591836735,0.9948979591836735,0.9948979591836735,0.9948979591836735,0.9948979591836735,0.9948979591836735,0.9948979591836735,0.9948979591836735,0.9948979591836735,0.9948979591836735,0.9948979591836735,0.9948979591836735,0.9948979591836735,0.9948979591836735,0.9948979591836735,0.9948979591836735,0.9982993197278912,1.001700680272109,1.0085034013605443,1.0187074829931972,1.0425170068027212,1.066326530612245,1.0697278911564625,1.0697278911564625,1.0697278911564625,1.0697278911564625,1.0697278911564625,1.0697278911564625,1.0697278911564625,1.0697278911564625,1.0697278911564625,1.0697278911564625,1.0697278911564625,1.0697278911564625,1.0697278911564625,1.0697278911564625,1.0697278911564625,1.0697278911564625,1.0697278911564625,1.0697278911564625,1.0697278911564625,1.0697278911564625,1.0697278911564625,1.0697278911564625,1.0697278911564625,1.0697278911564625,1.0697278911564625,1.0697278911564625,1.0697278911564625,1.0697278911564625,1.0697278911564625,1.0697278911564625,1.0697278911564625,1.0697278911564625,1.0697278911564625,1.0697278911564625,1.0697278911564625,1.0697278911564625,1.0697278911564625,1.0697278911564625,1.0697278911564625,1.0697278911564625,1.0697278911564625,1.0697278911564625,1.0697278911564625,1.0697278911564625,1.0697278911564625,1.0697278911564625,1.0697278911564625,1.0697278911564625,1.0697278911564625,1.0697278911564625,1.0697278911564625,1.0697278911564625,1.0697278911564625,1.0697278911564625,1.0697278911564625,1.0697278911564625,1.0697278911564625,1.0697278911564625,1.0697278911564625,1.0697278911564625,1.0697278911564625,1.0697278911564625,1.0697278911564625,1.0697278911564625,1.0697278911564625,1.0697278911564625,1.0697278911564625,1.0697278911564625,1.0697278911564625,1.0697278911564625,1.0697278911564625,1.0697278911564625,1.0697278911564625,1.0697278911564625,1.0697278911564625,1.0697278911564625,1.0697278911564625,1.0697278911564625,1.0697278911564625,1.0697278911564625,1.0697278911564625,1.0697278911564625,1.0697278911564625,1.0697278911564625,1.0697278911564625,1.0697278911564625,1.0697278911564625,1.0697278911564625,1.0697278911564625,1.0697278911564625,1.0697278911564625,1.0697278911564625,1.0697278911564625,1.0697278911564625,1.0697278911564625,1.0697278911564625,1.0697278911564625,1.0697278911564625,1.0697278911564625,1.0697278911564625,1.0697278911564625,1.0697278911564625,1.0697278911564625,1.0697278911564625,1.0697278911564625,1.0697278911564625,1.0697278911564625,1.0697278911564625,1.0697278911564625,1.0697278911564625,1.0697278911564625,1.0697278911564625,1.0697278911564625,1.0697278911564625,1.0697278911564625,1.0697278911564625,1.0697278911564625,1.0697278911564625,1.0697278911564625,1.0697278911564625,1.0697278911564625,1.0697278911564625,1.0697278911564625,1.0697278911564625,1.0697278911564625,1.0697278911564625,1.0697278911564625,1.0697278911564625,1.0697278911564625,1.0697278911564625,1.0697278911564625,1.0697278911564625,1.0697278911564625,1.0697278911564625,1.0697278911564625,1.0697278911564625,1.0697278911564625,1.2363945578231292,1.369047619047619,1.3758503401360545,1.304421768707483,1.2227891156462585,1.1989795918367347,1.195578231292517,1.195578231292517,1.195578231292517,1.195578231292517,1.195578231292517,1.195578231292517,1.195578231292517,1.195578231292517,1.195578231292517,1.195578231292517,1.195578231292517,1.195578231292517,1.195578231292517,1.195578231292517,1.195578231292517,1.195578231292517,1.195578231292517,1.195578231292517,1.195578231292517,1.195578231292517,1.195578231292517,1.195578231292517,1.195578231292517,1.195578231292517,1.195578231292517,1.195578231292517,1.195578231292517,1.195578231292517,1.195578231292517,1.195578231292517,1.195578231292517,1.195578231292517,1.195578231292517,1.195578231292517,1.195578231292517,1.195578231292517,1.195578231292517,1.195578231292517,1.195578231292517,1.195578231292517,1.195578231292517,1.195578231292517,1.195578231292517,1.195578231292517,1.195578231292517,1.195578231292517,1.195578231292517,1.195578231292517,1.195578231292517,1.195578231292517,1.195578231292517,1.195578231292517,1.195578231292517,1.195578231292517,1.195578231292517,1.195578231292517,1.195578231292517,1.195578231292517,1.195578231292517,1.195578231292517,1.195578231292517,1.195578231292517,1.195578231292517,1.195578231292517,1.195578231292517,1.195578231292517,1.195578231292517,1.195578231292517,1.195578231292517,1.195578231292517,1.195578231292517,1.195578231292517,1.195578231292517,1.195578231292517,1.195578231292517,1.195578231292517,1.195578231292517,1.195578231292517,1.195578231292517,1.195578231292517,1.195578231292517,1.195578231292517,1.195578231292517,1.195578231292517,1.195578231292517,1.195578231292517,1.195578231292517,1.195578231292517,1.195578231292517,1.195578231292517,1.195578231292517,1.1649659863945578,1.0629251700680271,0.9098639455782312,0.8044217687074829,0.7363945578231292,0.7159863945578231,0.7091836734693877,0.7091836734693877,0.7091836734693877,0.7091836734693877,0.7091836734693877,0.7091836734693877,0.7091836734693877,0.7091836734693877,0.7091836734693877,0.7091836734693877,0.7091836734693877,0.7159863945578231,0.7397959183673469,0.7329931972789115,0.7023809523809523,0.6445578231292517,0.6173469387755102,0.6173469387755102,0.6071428571428571,0.5493197278911565,0.38945578231292516,0.21258503401360543,0.12414965986394558,0.10714285714285714,0.10374149659863946,0.10374149659863946,0.12074829931972789,0.20918367346938777,0.28061224489795916,0.33163265306122447,0.37244897959183676,0.4268707482993197,0.45068027210884354,0.45068027210884354,0.45068027210884354,0.4098639455782313,0.304421768707483,0.1649659863945578,0.022108843537414966,-0.11054421768707483,-0.3112244897959184,-0.4098639455782313,-0.467687074829932,-0.4914965986394558,-0.49489795918367346,-0.45068027210884354,-0.3078231292517007,-0.11054421768707483,0.12074829931972789,0.28741496598639454,0.33843537414965985,0.33843537414965985,0.29081632653061223,0.25,0.2261904761904762,0.2227891156462585,0.2568027210884354,0.38605442176870747,0.5697278911564626,0.6615646258503401,0.6717687074829932,0.6751700680272109,0.6751700680272109,0.6751700680272109,0.6751700680272109,0.6751700680272109,0.6751700680272109,0.6751700680272109,0.6751700680272109,0.6751700680272109,0.6751700680272109,0.6751700680272109,0.6751700680272109,0.6785714285714286,0.7431972789115646,0.8282312925170068,0.9064625850340136,0.923469387755102,0.923469387755102,0.923469387755102,0.923469387755102,0.923469387755102,0.923469387755102,0.9268707482993197,0.9302721088435374,0.9336734693877551,0.9370748299319728,0.9336734693877551,0.8962585034013606,0.8554421768707483,0.8010204081632653,0.7261904761904762,0.5663265306122449,0.3010204081632653,-0.04931972789115646,-0.44727891156462585,-0.8078231292517006,-1.1479591836734695,-1.4880952380952381,-1.9948979591836735,-2.2908163265306123,-2.4676870748299318,-2.511904761904762,-2.508503401360544,-2.4710884353741496,-2.4608843537414966,-2.4608843537414966,-2.4608843537414966,-2.4608843537414966,-2.4608843537414966,-2.4608843537414966,-2.454081632653061,-2.4506802721088436,-2.5255102040816326,-2.6241496598639458,-2.6241496598639458,-2.6241496598639458,-2.6241496598639458,-2.6241496598639458,-2.6241496598639458,-2.6241496598639458,-2.6241496598639458,-2.6241496598639458,-2.6241496598639458,-2.6241496598639458,-2.6241496598639458,-2.6241496598639458,-2.6241496598639458,-2.6241496598639458,-2.6241496598639458,-2.6241496598639458,-2.6241496598639458,-2.6241496598639458,-2.6241496598639458,-2.6241496598639458,-2.6241496598639458,-2.6241496598639458,-2.6241496598639458,-2.6241496598639458,-2.6241496598639458,-2.6241496598639458,-2.6241496598639458,-2.6241496598639458,-2.6241496598639458,-2.6241496598639458,-2.6241496598639458,-2.6241496598639458,-2.6241496598639458,-2.6241496598639458,-2.6241496598639458,-2.6241496598639458,-2.6241496598639458,-2.6241496598639458,-2.6241496598639458,-2.6241496598639458,-2.6241496598639458,-2.6241496598639458,-2.6241496598639458,-2.6241496598639458,-2.6241496598639458,-2.6241496598639458,-2.6241496598639458,-2.6241496598639458,-2.6241496598639458,-2.6241496598639458,-2.6241496598639458,-2.6241496598639458,-2.6241496598639458,-2.6241496598639458,-2.6241496598639458,-2.6241496598639458,-2.6241496598639458,-2.6241496598639458,-2.6241496598639458,-2.6241496598639458,-2.6241496598639458,-2.6241496598639458,-2.6241496598639458,-2.6241496598639458,-2.6241496598639458,-2.6241496598639458,-2.6241496598639458,-2.6241496598639458,-2.6241496598639458,-2.6241496598639458,-2.6241496598639458,-2.6241496598639458,-2.6241496598639458,-2.6241496598639458,-2.6241496598639458,-2.6241496598639458,-2.6241496598639458,-2.6241496598639458,-2.6241496598639458,-2.6241496598639458,-2.6241496598639458,-2.6241496598639458,-2.6241496598639458,-2.6241496598639458,-2.6241496598639458,-2.6241496598639458,-2.6241496598639458,-2.6241496598639458,-2.6241496598639458,-2.6241496598639458,-2.6241496598639458,-2.6241496598639458,-2.6241496598639458,-2.6241496598639458,-2.6241496598639458,-2.6241496598639458,-2.6241496598639458,-2.6241496598639458,-2.6241496598639458,-2.6241496598639458,-2.6241496598639458,-2.6241496598639458,-2.6241496598639458,-2.6241496598639458,-2.6241496598639458,-2.6241496598639458,-2.6241496598639458,-2.6241496598639458,-2.6241496598639458,-2.6241496598639458,-2.6241496598639458,-2.6241496598639458,-2.6241496598639458,-2.6241496598639458,-2.6241496598639458,-2.6241496598639458,-2.6241496598639458,-2.6241496598639458,-2.6241496598639458,-2.6241496598639458,-2.6241496598639458,-2.6241496598639458,-2.6241496598639458,-2.6241496598639458,-2.6241496598639458,-2.6241496598639458,-2.6241496598639458,-2.6241496598639458,-2.6241496598639458,-2.6241496598639458,-2.6241496598639458,-2.6241496598639458,-2.6241496598639458,-2.6241496598639458,-2.6241496598639458,-2.6241496598639458,-2.6241496598639458,-2.6241496598639458,-2.6241496598639458,-2.6241496598639458,-2.6241496598639458,-2.6241496598639458,-2.6241496598639458,-2.6241496598639458,-2.6241496598639458,-2.6241496598639458,-2.6241496598639458,-2.6241496598639458,-2.6241496598639458,-2.6241496598639458,-2.6241496598639458,-2.6241496598639458,-2.6241496598639458,-2.6241496598639458,-2.6241496598639458,-2.6241496598639458,-2.6241496598639458,-2.6241496598639458,-2.6241496598639458,-2.6241496598639458,-2.6241496598639458,-2.6241496598639458,-2.6241496598639458,-2.6241496598639458,-2.6241496598639458,-2.6241496598639458,-2.6241496598639458,-2.6241496598639458,-2.6241496598639458,-2.6241496598639458,-2.6241496598639458,-2.6241496598639458,-2.6241496598639458,-2.6241496598639458,-2.6241496598639458,-2.6241496598639458,-2.6241496598639458,-2.6241496598639458,-2.6241496598639458,-2.6241496598639458,-2.6241496598639458,-2.6241496598639458,-2.6241496598639458,-2.6241496598639458,-2.6241496598639458,-2.6241496598639458,-2.6241496598639458,-2.6241496598639458,-2.6241496598639458,-2.6241496598639458,-2.6241496598639458,-2.6241496598639458,-2.6241496598639458,-2.6241496598639458,-2.6241496598639458,-2.6241496598639458,-2.6241496598639458,-2.6241496598639458,-2.6241496598639458,-2.6241496598639458,-2.6241496598639458,-2.6241496598639458,-2.6241496598639458,-2.6241496598639458,-2.6241496598639458,-2.6241496598639458,-2.6241496598639458,-2.6241496598639458,-2.6241496598639458,-2.6241496598639458,-2.6241496598639458,-2.6241496598639458,-2.6241496598639458,-2.6241496598639458,-2.6241496598639458,-2.6241496598639458,-2.6241496598639458,-2.6241496598639458,-2.6241496598639458,-2.6241496598639458,-2.6241496598639458,-2.6241496598639458,-2.6241496598639458,-2.6241496598639458,-2.6241496598639458,-2.6241496598639458,-2.6241496598639458,-2.6241496598639458,-2.6241496598639458,-2.6241496598639458,-2.6241496598639458,-2.6241496598639458,-2.6241496598639458,-2.6241496598639458,-2.6241496598639458,-2.6241496598639458,-2.6241496598639458,-2.6241496598639458,-2.6241496598639458,-2.6241496598639458,-2.6241496598639458,-2.6241496598639458,-2.6241496598639458,-2.6241496598639458,-2.6241496598639458,-2.6241496598639458,-2.6241496598639458,-2.6241496598639458,-2.6241496598639458,-2.6241496598639458,-2.6241496598639458,-2.6241496598639458,-2.6241496598639458,-2.6241496598639458,-2.6241496598639458,-2.6241496598639458,-2.6241496598639458,-2.6241496598639458,-2.6241496598639458,-2.6241496598639458,-2.6241496598639458,-2.6241496598639458,-2.6241496598639458,-2.6241496598639458,-2.6241496598639458,-2.6241496598639458,-2.6241496598639458,-2.6241496598639458,-2.6241496598639458,-2.6241496598639458,-2.6241496598639458,-2.6241496598639458,-2.6241496598639458,-2.6241496598639458,-2.6241496598639458,-2.6241496598639458,-2.6241496598639458,-2.6241496598639458,-2.6241496598639458,-2.6241496598639458,-2.6241496598639458,-2.6241496598639458,-2.6241496598639458,-2.6241496598639458,-2.6241496598639458,-2.6241496598639458,-2.6241496598639458,-2.6241496598639458,-2.6241496598639458,-2.6241496598639458,-2.6241496598639458,-2.6241496598639458,-2.6241496598639458,-2.6241496598639458,-2.6241496598639458,-2.6241496598639458,-2.6241496598639458,-2.6241496598639458,-2.6241496598639458,-2.6241496598639458,-2.6241496598639458,-2.6241496598639458,-2.6241496598639458,-2.6241496598639458,-2.6241496598639458,-2.6241496598639458,-2.6241496598639458,-2.6241496598639458,-2.6241496598639458,-2.6241496598639458,-2.6241496598639458,-2.6241496598639458,-2.6241496598639458,-2.6241496598639458,-2.6241496598639458,-2.6241496598639458,-2.6241496598639458,-2.6241496598639458,-2.6241496598639458,-2.6241496598639458,-2.6241496598639458,-2.6241496598639458,-2.6241496598639458,-2.6241496598639458,-2.6241496598639458,-2.6241496598639458,-2.6241496598639458,-2.6241496598639458,-2.6241496598639458,-2.6241496598639458,-2.6241496598639458,-2.6241496598639458,-2.6241496598639458,-2.6241496598639458,-2.6241496598639458,-2.6241496598639458,-2.6241496598639458,-2.6241496598639458,-2.6241496598639458,-2.6241496598639458,-2.6241496598639458,-2.6241496598639458,-2.6241496598639458,-2.6241496598639458,-2.6241496598639458,-2.6241496598639458,-2.6241496598639458,-2.6241496598639458,-2.6241496598639458,-2.6241496598639458,-2.6241496598639458,-2.6241496598639458,-2.6241496598639458,-2.6241496598639458,-2.6241496598639458,-2.6241496598639458,-2.6241496598639458,-2.6241496598639458,-2.6241496598639458,-2.6241496598639458,-2.6241496598639458,-2.6241496598639458,-2.6241496598639458,-2.6241496598639458,-2.6241496598639458,-2.6241496598639458,-2.6241496598639458,-2.6241496598639458,-2.6241496598639458,-2.6241496598639458,-2.6241496598639458,-2.6241496598639458,-2.6241496598639458,-2.6241496598639458,-2.6241496598639458,-2.6241496598639458,-2.6241496598639458,-2.6241496598639458,-2.6241496598639458,-2.6241496598639458,-2.6241496598639458,-2.6241496598639458,-2.6241496598639458,-2.6241496598639458,-2.6241496598639458,-2.6241496598639458,-2.6241496598639458,-2.6241496598639458,-2.6241496598639458,-2.6241496598639458,-2.6241496598639458,-2.6241496598639458,-2.6241496598639458,-2.6241496598639458,-2.6241496598639458,-2.6241496598639458,-2.6241496598639458,-2.6241496598639458,-2.6241496598639458,-2.6241496598639458,-2.6241496598639458,-2.6241496598639458,-2.6241496598639458,-2.6241496598639458,-2.6241496598639458,-2.6241496598639458,-2.6241496598639458,-2.6241496598639458,-2.6241496598639458,-2.6241496598639458,-2.6241496598639458,-2.6241496598639458,-2.6241496598639458,-2.6241496598639458,-2.6241496598639458,-2.6241496598639458,-2.6241496598639458,-2.6241496598639458,-2.6241496598639458,-2.6241496598639458,-2.6241496598639458,-2.6241496598639458,-2.6241496598639458,-2.6241496598639458,-2.6241496598639458,-2.6241496598639458,-2.6241496598639458,-2.6241496598639458,-2.6241496598639458,-2.6241496598639458,-2.6241496598639458,-2.6241496598639458,-2.6241496598639458,-2.6241496598639458,-2.6241496598639458,-2.6241496598639458,-2.6241496598639458,-2.6241496598639458,-2.6241496598639458,-2.6241496598639458,-2.6241496598639458,-2.6241496598639458,-2.6241496598639458,-2.6241496598639458,-2.6241496598639458,-2.6241496598639458,-2.6241496598639458,-2.6241496598639458,-2.6241496598639458,-2.6241496598639458,-2.6241496598639458,-2.6241496598639458,-2.6241496598639458,-2.6241496598639458,-2.6241496598639458,-2.6241496598639458,-2.6241496598639458,-2.6241496598639458,-2.6241496598639458,-2.6241496598639458,-2.6241496598639458,-2.6241496598639458,-2.6241496598639458,-2.6241496598639458,-2.6241496598639458,-2.6241496598639458,-2.6241496598639458,-2.6241496598639458,-2.6241496598639458,-2.6241496598639458,-2.6241496598639458,-2.6241496598639458,-2.6241496598639458,-2.6241496598639458,-2.6241496598639458,-2.6241496598639458,-2.6241496598639458,-2.6241496598639458,-2.6241496598639458,-2.6241496598639458,-2.6241496598639458,-2.6241496598639458,-2.6241496598639458,-2.6241496598639458,-2.6241496598639458,-2.6241496598639458,-2.6241496598639458,-2.6241496598639458,-2.6241496598639458,-2.6241496598639458,-2.6241496598639458,-2.6241496598639458,-2.6241496598639458,-2.6241496598639458,-2.6241496598639458,-2.6241496598639458,-2.6241496598639458,-2.6241496598639458,-2.6241496598639458,-2.6241496598639458,-2.6241496598639458,-2.6241496598639458,-2.6241496598639458,-2.6241496598639458,-2.6241496598639458,-2.6241496598639458,-2.6241496598639458,-2.6241496598639458,-2.6241496598639458,-2.6241496598639458,-2.6241496598639458,-2.6241496598639458,-2.6241496598639458,-2.6241496598639458,-2.6241496598639458,-2.6241496598639458,-2.6241496598639458,-2.6241496598639458,-2.6241496598639458,-2.6241496598639458,-2.6241496598639458,-2.6241496598639458,-2.6241496598639458,-2.6241496598639458,-2.6241496598639458,-2.6241496598639458,-2.6241496598639458,-2.6241496598639458,-2.6241496598639458,-2.6241496598639458,-2.6241496598639458,-2.6241496598639458,-2.6241496598639458,-2.6241496598639458,-2.6241496598639458,-2.6241496598639458,-2.6241496598639458,-2.6241496598639458,-2.6241496598639458,-2.6241496598639458,-2.6241496598639458,-2.6241496598639458,-2.6241496598639458,-2.6241496598639458,-2.6241496598639458,-2.6241496598639458,-2.6241496598639458,-2.6241496598639458,-2.6241496598639458,-2.6241496598639458,-2.6241496598639458,-2.6241496598639458,-2.6241496598639458,-2.6241496598639458,-2.6241496598639458,-2.6241496598639458,-2.6241496598639458,-2.6241496598639458,-2.6241496598639458,-2.6241496598639458,-2.6241496598639458,-2.6241496598639458,-2.6241496598639458,-2.6241496598639458,-2.6241496598639458,-2.6241496598639458,-2.6241496598639458,-2.6241496598639458,-2.6241496598639458,-2.6241496598639458,-2.6241496598639458,-2.6241496598639458,-2.6241496598639458,-2.6241496598639458,-2.6241496598639458,-2.6241496598639458,-2.6241496598639458,-2.6241496598639458,-2.6241496598639458,-2.6241496598639458,-2.6241496598639458,-2.6241496598639458,-2.6241496598639458,-2.6241496598639458,-2.6241496598639458,-2.6241496598639458,-2.6241496598639458,-2.6241496598639458,-2.6241496598639458,-2.6241496598639458,-2.6241496598639458,-2.6241496598639458,-2.6241496598639458,-2.6241496598639458,-2.6241496598639458,-2.6241496598639458,-2.6241496598639458,-2.6241496598639458,-2.6241496598639458,-2.6241496598639458,-2.6241496598639458,-2.6241496598639458,-2.6241496598639458,-2.6241496598639458,-2.6241496598639458,-2.6241496598639458,-2.6241496598639458,-2.6241496598639458,-2.6241496598639458,-2.6241496598639458,-2.6241496598639458,-2.6241496598639458,-2.6241496598639458,-2.6241496598639458,-2.6241496598639458,-2.6241496598639458,-2.6241496598639458,-2.6241496598639458,-2.6241496598639458,-2.6241496598639458,-2.6241496598639458,-2.6241496598639458,-2.6241496598639458,-2.6241496598639458,-2.6241496598639458,-2.6241496598639458,-2.6241496598639458,-2.6241496598639458,-2.6241496598639458,-2.6241496598639458,-2.6241496598639458,-2.6241496598639458,-2.6241496598639458,-2.6241496598639458,-2.6241496598639458,-2.6241496598639458,-2.6241496598639458,-2.6241496598639458,-2.6241496598639458,-2.6241496598639458,-2.6241496598639458,-2.6241496598639458,-2.6241496598639458,-2.6241496598639458,-2.6241496598639458,-2.6241496598639458,-2.6241496598639458,-2.6241496598639458,-2.6241496598639458,-2.6241496598639458,-2.6241496598639458,-2.6241496598639458,-2.6241496598639458,-2.6241496598639458,-2.6241496598639458,-2.6241496598639458,-2.6241496598639458,-2.6241496598639458,-2.6241496598639458,-2.6241496598639458,-2.6241496598639458,-2.6241496598639458,-2.6241496598639458,-2.6241496598639458,-2.6241496598639458,-2.6241496598639458,-2.6241496598639458,-2.6241496598639458,-2.6241496598639458,-2.6241496598639458,-2.6241496598639458,-2.6241496598639458,-2.6241496598639458,-2.6241496598639458,-2.6241496598639458,-2.6241496598639458,-2.6241496598639458,-2.6241496598639458,-2.6241496598639458,-2.6241496598639458,-2.6241496598639458,-2.6241496598639458,-2.6241496598639458,-2.6241496598639458,-2.6241496598639458,-2.6241496598639458,-2.6241496598639458,-2.6241496598639458,-2.6241496598639458,-2.6241496598639458,-2.6241496598639458,-2.6241496598639458,-2.6241496598639458,-2.6241496598639458,-2.6241496598639458,-2.6241496598639458,-2.6241496598639458,-2.6241496598639458,-2.6241496598639458,-2.6241496598639458,-2.6241496598639458,-2.6241496598639458,-2.6241496598639458,-2.6241496598639458,-2.6241496598639458,-2.6241496598639458,-2.6241496598639458,-2.6241496598639458,-2.6241496598639458,-2.6241496598639458,-2.6241496598639458,-2.6241496598639458,-2.6241496598639458,-2.6241496598639458,-2.6241496598639458,-2.6241496598639458,-2.6241496598639458,-2.6241496598639458,-2.6241496598639458,-2.6241496598639458,-2.6241496598639458,-2.6241496598639458,-2.6241496598639458,-2.6241496598639458,-2.6241496598639458,-2.6241496598639458,-2.6241496598639458,-2.6241496598639458,-2.6241496598639458,-2.6241496598639458,-2.6241496598639458,-2.6241496598639458,-2.6241496598639458,-2.6241496598639458,-2.6241496598639458,-2.6241496598639458,-2.6241496598639458,-2.6241496598639458,-2.6241496598639458,-2.6241496598639458,-2.6241496598639458,-2.6241496598639458,-2.6241496598639458,-2.6241496598639458,-2.6241496598639458,-2.6241496598639458,-2.6241496598639458,-2.6241496598639458,-2.6241496598639458,-2.6241496598639458,-2.6241496598639458,-2.6241496598639458,-2.6241496598639458,-2.6241496598639458,-2.6241496598639458,-2.6241496598639458,-2.6241496598639458,-2.6241496598639458,-2.6241496598639458,-2.6241496598639458,-2.6241496598639458,-2.6241496598639458,-2.6241496598639458,-2.6241496598639458,-2.6241496598639458,-2.6241496598639458,-2.6241496598639458,-2.6241496598639458,-2.6241496598639458,-2.6241496598639458,-2.6241496598639458,-2.6241496598639458,-2.6241496598639458,-2.6241496598639458,-2.6241496598639458,-2.6