success,trial_type,trial_index,time_elapsed,internal_node_id,protocol_sum,subject_identifier,subject_sum,subject_pair,STUDY_ID,PROLIFIC_PID,SESSION_ID,practice_instructions,leaderboard_instructions,bonus,reveal_word,self_rating,confidence,view_history,rt,responses,question_order,correct,test_part,word,click_log,final_keyboard_state,num_clicks,points,cheat,response,position_RT,position,player,i_game,true_position,distance,last_word,stimulus,confidence_slider_self_response
1.0,fullscreen,0,8114,0.0-0.0,,433,"[15, 65, 33, 208, 239, 29, 244, 200, 104, 84, 199, 235, 180, 122, 225, 201, 61, 232, 174, 200, 249, 68, 3, 94, 234, 166, 73, 93, 215, 26, 6, 120]",216,66a22c0758a3d5c9d26873c6,6681e42776233b2b8b2510e0,66a2d8a45e2547e5cd1df220,1,1,0,True,3,78,,,,,,,,,,,,,,,,,,,,,,
,instructions,1,17212,0.0-1.0,,433,"[15, 65, 33, 208, 239, 29, 244, 200, 104, 84, 199, 235, 180, 122, 225, 201, 61, 232, 174, 200, 249, 68, 3, 94, 234, 166, 73, 93, 215, 26, 6, 120]",216,66a22c0758a3d5c9d26873c6,6681e42776233b2b8b2510e0,66a2d8a45e2547e5cd1df220,1,1,0,True,3,78,"[{""page_index"":0,""viewing_time"":9096.399999976158}]",9096.700000047684,,,,,,,,,,,,,,,,,,,,
,instructions,2,35945,0.0-2.0-0.0,,433,"[15, 65, 33, 208, 239, 29, 244, 200, 104, 84, 199, 235, 180, 122, 225, 201, 61, 232, 174, 200, 249, 68, 3, 94, 234, 166, 73, 93, 215, 26, 6, 120]",216,66a22c0758a3d5c9d26873c6,6681e42776233b2b8b2510e0,66a2d8a45e2547e5cd1df220,1,1,0,True,3,78,"[{""page_index"":0,""viewing_time"":18732.100000023842}]",18732.399999976158,,,,,,,,,,,,,,,,,,,,
,survey-multi-choice,3,53784,0.0-2.0-1.0,,433,"[15, 65, 33, 208, 239, 29, 244, 200, 104, 84, 199, 235, 180, 122, 225, 201, 61, 232, 174, 200, 249, 68, 3, 94, 234, 166, 73, 93, 215, 26, 6, 120]",216,66a22c0758a3d5c9d26873c6,6681e42776233b2b8b2510e0,66a2d8a45e2547e5cd1df220,1,1,0,True,3,78,,17837.300000071526,"{""Q0"":""... reveal the word with as <b>few letter guesses</b> as possible""}",[0],1.0,multichoice_nonpretend,,,,,,,,,,,,,,,,
,instructions,4,56483,0.0-3.0,,433,"[15, 65, 33, 208, 239, 29, 244, 200, 104, 84, 199, 235, 180, 122, 225, 201, 61, 232, 174, 200, 249, 68, 3, 94, 234, 166, 73, 93, 215, 26, 6, 120]",216,66a22c0758a3d5c9d26873c6,6681e42776233b2b8b2510e0,66a2d8a45e2547e5cd1df220,1,1,0,True,3,78,"[{""page_index"":0,""viewing_time"":2697.8000000715256}]",2698.100000023842,,,,,,,,,,,,,,,,,,,,
,Hangman,5,98063,0.0-4.0,,433,"[15, 65, 33, 208, 239, 29, 244, 200, 104, 84, 199, 235, 180, 122, 225, 201, 61, 232, 174, 200, 249, 68, 3, 94, 234, 166, 73, 93, 215, 26, 6, 120]",216,66a22c0758a3d5c9d26873c6,6681e42776233b2b8b2510e0,66a2d8a45e2547e5cd1df220,1,1,0,True,3,78,,,,,,,ZEBRA,"{'letter': ['', 'B', 'M', 'T', 'A', 'E', 'Z', 'R'], 't': [0, 6966.599999904633, 16199.299999952316, 20987.299999952316, 23598.299999952316, 28683.399999976158, 35605.299999952316, 39563.699999928474], 'hit': [None, 1, 0, 0, 1, 1, 1, 1], 'asked': ['', 'B', 'BM', 'BMT', 'BMTA', 'BMTAE', 'BMTAEZ', 'BMTAEZR'], 'word_state': ['_____', '__B__', '__B__', '__B__', '__B_A', '_EB_A', 'ZEB_A', 'ZEBRA']}","['B', 'M', 'T', 'A', 'E', 'Z', 'R']",7.0,13.0,0.0,,,,,,,,,,
,instructions,6,120878,0.0-5.0,,433,"[15, 65, 33, 208, 239, 29, 244, 200, 104, 84, 199, 235, 180, 122, 225, 201, 61, 232, 174, 200, 249, 68, 3, 94, 234, 166, 73, 93, 215, 26, 6, 120]",216,66a22c0758a3d5c9d26873c6,6681e42776233b2b8b2510e0,66a2d8a45e2547e5cd1df220,1,1,0,True,3,78,"[{""page_index"":0,""viewing_time"":4323.800000071526},{""page_index"":1,""viewing_time"":18487.799999952316}]",22812.800000071526,,,,,,,,,,,,,,,,,,,,
,survey-multi-choice,7,140546,0.0-6.0,,433,"[15, 65, 33, 208, 239, 29, 244, 200, 104, 84, 199, 235, 180, 122, 225, 201, 61, 232, 174, 200, 249, 68, 3, 94, 234, 166, 73, 93, 215, 26, 6, 120]",216,66a22c0758a3d5c9d26873c6,6681e42776233b2b8b2510e0,66a2d8a45e2547e5cd1df220,1,1,0,True,3,78,,19666.100000023842,"{""Q0"":""...from <b>a previous session</b> that is part of the upcoming tournament.""}",[0],0.0,multichoice_leaderboard,,,,,,,,,,,,,,,,
,instructions,8,145131,0.0-7.0-0.0,,433,"[15, 65, 33, 208, 239, 29, 244, 200, 104, 84, 199, 235, 180, 122, 225, 201, 61, 232, 174, 200, 249, 68, 3, 94, 234, 166, 73, 93, 215, 26, 6, 120]",216,66a22c0758a3d5c9d26873c6,6681e42776233b2b8b2510e0,66a2d8a45e2547e5cd1df220,1,1,0,True,3,78,"[{""page_index"":0,""viewing_time"":4583.900000095367}]",4584.200000047684,,,,,,,,,,,,,,,,,,,,
,survey-multi-choice,9,150444,0.0-7.0-1.0,,433,"[15, 65, 33, 208, 239, 29, 244, 200, 104, 84, 199, 235, 180, 122, 225, 201, 61, 232, 174, 200, 249, 68, 3, 94, 234, 166, 73, 93, 215, 26, 6, 120]",216,66a22c0758a3d5c9d26873c6,6681e42776233b2b8b2510e0,66a2d8a45e2547e5cd1df220,1,1,0,True,3,78,,5310.899999976158,"{""Q0"":""...from <b>a previous session</b> that is not part of the upcoming tournament.""}",[0],1.0,multichoice_leaderboard,,,,,,,,,,,,,,,,
,instructions,10,170095,0.0-8.0,,433,"[15, 65, 33, 208, 239, 29, 244, 200, 104, 84, 199, 235, 180, 122, 225, 201, 61, 232, 174, 200, 249, 68, 3, 94, 234, 166, 73, 93, 215, 26, 6, 120]",216,66a22c0758a3d5c9d26873c6,6681e42776233b2b8b2510e0,66a2d8a45e2547e5cd1df220,1,1,0,True,3,78,"[{""page_index"":0,""viewing_time"":19650.100000023842}]",19650.399999976158,,,,,,,,,,,,,,,,,,,,
,survey-multi-choice,11,192184,0.0-9.0,,433,"[15, 65, 33, 208, 239, 29, 244, 200, 104, 84, 199, 235, 180, 122, 225, 201, 61, 232, 174, 200, 249, 68, 3, 94, 234, 166, 73, 93, 215, 26, 6, 120]",216,66a22c0758a3d5c9d26873c6,6681e42776233b2b8b2510e0,66a2d8a45e2547e5cd1df220,1,1,0,True,3,78,,22086.899999976158,"{""Q0"":""...how well players did (in terms of <b>points</b>) in <b>previous games.</b>""}",[0],0.0,multichoice_tournament,,,,,,,,,,,,,,,,
,instructions,12,200817,0.0-10.0-0.0,,433,"[15, 65, 33, 208, 239, 29, 244, 200, 104, 84, 199, 235, 180, 122, 225, 201, 61, 232, 174, 200, 249, 68, 3, 94, 234, 166, 73, 93, 215, 26, 6, 120]",216,66a22c0758a3d5c9d26873c6,6681e42776233b2b8b2510e0,66a2d8a45e2547e5cd1df220,1,1,0,True,3,78,"[{""page_index"":0,""viewing_time"":8631.299999952316}]",8631.5,,,,,,,,,,,,,,,,,,,,
,survey-multi-choice,13,209685,0.0-10.0-1.0,,433,"[15, 65, 33, 208, 239, 29, 244, 200, 104, 84, 199, 235, 180, 122, 225, 201, 61, 232, 174, 200, 249, 68, 3, 94, 234, 166, 73, 93, 215, 26, 6, 120]",216,66a22c0758a3d5c9d26873c6,6681e42776233b2b8b2510e0,66a2d8a45e2547e5cd1df220,1,1,0,True,3,78,,8866.800000071526,"{""Q0"":""...players' leaderboard position (in terms of <b>points</b>) in an <b>upcoming tournament.</b>""}",[0],1.0,multichoice_tournament,,,,,,,,,,,,,,,,
,instructions,14,236373,0.0-11.0,,433,"[15, 65, 33, 208, 239, 29, 244, 200, 104, 84, 199, 235, 180, 122, 225, 201, 61, 232, 174, 200, 249, 68, 3, 94, 234, 166, 73, 93, 215, 26, 6, 120]",216,66a22c0758a3d5c9d26873c6,6681e42776233b2b8b2510e0,66a2d8a45e2547e5cd1df220,1,1,0,True,3,78,"[{""page_index"":0,""viewing_time"":26686.200000047684}]",26686.600000023842,,,,,,,,,,,,,,,,,,,,
,instructions,15,257387,0.0-12.0-0.0,,433,"[15, 65, 33, 208, 239, 29, 244, 200, 104, 84, 199, 235, 180, 122, 225, 201, 61, 232, 174, 200, 249, 68, 3, 94, 234, 166, 73, 93, 215, 26, 6, 120]",216,66a22c0758a3d5c9d26873c6,6681e42776233b2b8b2510e0,66a2d8a45e2547e5cd1df220,1,1,0,True,3,78,"[{""page_index"":0,""viewing_time"":21012.5}]",21012.899999976158,,,,,,,,,,,,,,,,,,,,
,type-this,16,277635,0.0-12.0-1.0,,433,"[15, 65, 33, 208, 239, 29, 244, 200, 104, 84, 199, 235, 180, 122, 225, 201, 61, 232, 174, 200, 249, 68, 3, 94, 234, 166, 73, 93, 215, 26, 6, 120]",216,66a22c0758a3d5c9d26873c6,6681e42776233b2b8b2510e0,66a2d8a45e2547e5cd1df220,1,1,0,True,3,78,,19744.0,['WRIST'],,,,,,,,,,WRIST,,,,,,,,,
,Hangman_replay,17,307373,0.0-12.0-2.0,,433,"[15, 65, 33, 208, 239, 29, 244, 200, 104, 84, 199, 235, 180, 122, 225, 201, 61, 232, 174, 200, 249, 68, 3, 94, 234, 166, 73, 93, 215, 26, 6, 120]",216,66a22c0758a3d5c9d26873c6,6681e42776233b2b8b2510e0,66a2d8a45e2547e5cd1df220,1,1,0,True,3,78,,,,,,,WRIST,"{'letter': ['', 'A', 'E', 'I', 'N', 'T', 'S', 'F', 'R', 'W'], 't': [0, 2420.3000000715256, 3669, 4752.800000071526, 10486.600000023842, 11636.300000071526, 18020.200000047684, 24421.100000023842, 25722, 27705.5], 'hit': [None, 0, 0, 1, 0, 1, 1, 0, 1, 1], 'asked': ['', 'A', 'AE', 'AEI', 'AEIN', 'AEINT', 'AEINTS', 'AEINTSF', 'AEINTSFR', 'AEINTSFRW'], 'word_state': ['_____', '_____', '_____', '__I__', '__I__', '__I_T', '__IST', '__IST', '_RIST', 'WRIST']}","['A', 'E', 'I', 'N', 'T', 'S', 'F', 'R', 'W']",9.0,11.0,0.0,,,,,,,,,,
,instructions,18,316028,0.0-12.0-3.0,,433,"[15, 65, 33, 208, 239, 29, 244, 200, 104, 84, 199, 235, 180, 122, 225, 201, 61, 232, 174, 200, 249, 68, 3, 94, 234, 166, 73, 93, 215, 26, 6, 120]",216,66a22c0758a3d5c9d26873c6,6681e42776233b2b8b2510e0,66a2d8a45e2547e5cd1df220,1,1,0,True,3,78,"[{""page_index"":0,""viewing_time"":8652.700000047684}]",8653.399999976158,,,,,,,,,,,,,,,,,,,,
,Guess_leaderboard,19,325317,0.0-12.0-4.0,,433,"[15, 65, 33, 208, 239, 29, 244, 200, 104, 84, 199, 235, 180, 122, 225, 201, 61, 232, 174, 200, 249, 68, 3, 94, 234, 166, 73, 93, 215, 26, 6, 120]",216,66a22c0758a3d5c9d26873c6,6681e42776233b2b8b2510e0,66a2d8a45e2547e5cd1df220,1,1,0,True,3,78,,,,,,,WRIST,,,,,,,8513.200000047684,75.0,7.0,0.0,31.0,44.0,,,
,instructions,20,378835,0.0-12.0-0.1,,433,"[15, 65, 33, 208, 239, 29, 244, 200, 104, 84, 199, 235, 180, 122, 225, 201, 61, 232, 174, 200, 249, 68, 3, 94, 234, 166, 73, 93, 215, 26, 6, 120]",216,66a22c0758a3d5c9d26873c6,6681e42776233b2b8b2510e0,66a2d8a45e2547e5cd1df220,1,1,0,True,3,78,"[{""page_index"":0,""viewing_time"":53515.90000009537}]",53516.200000047684,,,,,,,,,,,,,,,,,,,,
,type-this,21,391644,0.0-12.0-1.1,,433,"[15, 65, 33, 208, 239, 29, 244, 200, 104, 84, 199, 235, 180, 122, 225, 201, 61, 232, 174, 200, 249, 68, 3, 94, 234, 166, 73, 93, 215, 26, 6, 120]",216,66a22c0758a3d5c9d26873c6,6681e42776233b2b8b2510e0,66a2d8a45e2547e5cd1df220,1,1,0,True,3,78,,12304.5,['FIG'],,,,,,,,,,FIG,,,,,,,,,
,Hangman_replay,22,415849,0.0-12.0-2.1,,433,"[15, 65, 33, 208, 239, 29, 244, 200, 104, 84, 199, 235, 180, 122, 225, 201, 61, 232, 174, 200, 249, 68, 3, 94, 234, 166, 73, 93, 215, 26, 6, 120]",216,66a22c0758a3d5c9d26873c6,6681e42776233b2b8b2510e0,66a2d8a45e2547e5cd1df220,1,1,0,True,3,78,,,,,,,FIG,"{'letter': ['', 'I', 'F', 'G'], 't': [0, 20929.399999976158, 21779.199999928474, 22195.699999928474], 'hit': [None, 1, 1, 1], 'asked': ['', 'I', 'IF', 'IFG'], 'word_state': ['___', '_I_', 'FI_', 'FIG']}","['I', 'F', 'G']",3.0,15.0,0.0,,,,,,,,,,
,instructions,23,419578,0.0-12.0-3.1,,433,"[15, 65, 33, 208, 239, 29, 244, 200, 104, 84, 199, 235, 180, 122, 225, 201, 61, 232, 174, 200, 249, 68, 3, 94, 234, 166, 73, 93, 215, 26, 6, 120]",216,66a22c0758a3d5c9d26873c6,6681e42776233b2b8b2510e0,66a2d8a45e2547e5cd1df220,1,1,0,True,3,78,"[{""page_index"":0,""viewing_time"":3727}]",3727.7999999523163,,,,,,,,,,,,,,,,,,,,
,Guess_leaderboard,24,421177,0.0-12.0-4.1,,433,"[15, 65, 33, 208, 239, 29, 244, 200, 104, 84, 199, 235, 180, 122, 225, 201, 61, 232, 174, 200, 249, 68, 3, 94, 234, 166, 73, 93, 215, 26, 6, 120]",216,66a22c0758a3d5c9d26873c6,6681e42776233b2b8b2510e0,66a2d8a45e2547e5cd1df220,1,1,0,True,3,78,,,,,,,FIG,,,,,,,806.2000000476837,61.0,89.0,1.0,69.0,8.0,,,
,instructions,25,426289,0.0-12.0-0.2,,433,"[15, 65, 33, 208, 239, 29, 244, 200, 104, 84, 199, 235, 180, 122, 225, 201, 61, 232, 174, 200, 249, 68, 3, 94, 234, 166, 73, 93, 215, 26, 6, 120]",216,66a22c0758a3d5c9d26873c6,6681e42776233b2b8b2510e0,66a2d8a45e2547e5cd1df220,1,1,0,True,3,78,"[{""page_index"":0,""viewing_time"":5109.800000071526}]",5110.300000071526,,,,,,,,,,,,,,,,,,,,
,type-this,26,450775,0.0-12.0-1.2,,433,"[15, 65, 33, 208, 239, 29, 244, 200, 104, 84, 199, 235, 180, 122, 225, 201, 61, 232, 174, 200, 249, 68, 3, 94, 234, 166, 73, 93, 215, 26, 6, 120]",216,66a22c0758a3d5c9d26873c6,6681e42776233b2b8b2510e0,66a2d8a45e2547e5cd1df220,1,1,0,True,3,78,,23983.100000023842,['THIRTY FOUR'],,,,,,,,,,THIRTY FOUR,,,,,,,,,
,Hangman_replay,27,502306,0.0-12.0-2.2,,433,"[15, 65, 33, 208, 239, 29, 244, 200, 104, 84, 199, 235, 180, 122, 225, 201, 61, 232, 174, 200, 249, 68, 3, 94, 234, 166, 73, 93, 215, 26, 6, 120]",216,66a22c0758a3d5c9d26873c6,6681e42776233b2b8b2510e0,66a2d8a45e2547e5cd1df220,1,1,0,True,3,78,,,,,,,THIRTY FOUR,"{'letter': ['', 'A', 'E', 'T', 'H', 'I', 'R', 'Y', 'F', 'O', 'U'], 't': [0, 12369.399999976158, 17786.899999976158, 29204.399999976158, 34421.5, 35688.299999952316, 41172.39999997616, 43940.10000002384, 47022.60000002384, 48173.700000047684, 49523.200000047684], 'hit': [None, 0, 0, 2, 1, 1, 2, 1, 1, 1, 1], 'asked': ['', 'A', 'AE', 'AET', 'AETH', 'AETHI', 'AETHIR', 'AETHIRY', 'AETHIRYF', 'AETHIRYFO', 'AETHIRYFOU'], 'word_state': ['______ ____', '______ ____', '______ ____', 'T___T_ ____', 'TH__T_ ____', 'THI_T_ ____', 'THIRT_ ___R', 'THIRTY ___R', 'THIRTY F__R', 'THIRTY FO_R', 'THIRTY FOUR']}","['A', 'E', 'T', 'H', 'I', 'R', 'Y', 'F', 'O', 'U']",10.0,13.0,0.0,,,,,,,,,,
,instructions,28,505517,0.0-12.0-3.2,,433,"[15, 65, 33, 208, 239, 29, 244, 200, 104, 84, 199, 235, 180, 122, 225, 201, 61, 232, 174, 200, 249, 68, 3, 94, 234, 166, 73, 93, 215, 26, 6, 120]",216,66a22c0758a3d5c9d26873c6,6681e42776233b2b8b2510e0,66a2d8a45e2547e5cd1df220,1,1,0,True,3,78,"[{""page_index"":0,""viewing_time"":3209.2000000476837}]",3209.899999976158,,,,,,,,,,,,,,,,,,,,
,Guess_leaderboard,29,508935,0.0-12.0-4.2,,433,"[15, 65, 33, 208, 239, 29, 244, 200, 104, 84, 199, 235, 180, 122, 225, 201, 61, 232, 174, 200, 249, 68, 3, 94, 234, 166, 73, 93, 215, 26, 6, 120]",216,66a22c0758a3d5c9d26873c6,6681e42776233b2b8b2510e0,66a2d8a45e2547e5cd1df220,1,1,0,True,3,78,,,,,,,THIRTY FOUR,,,,,,,2641.899999976158,16.0,44.0,2.0,23.0,7.0,,,
,instructions,30,511323,0.0-12.0-0.3,,433,"[15, 65, 33, 208, 239, 29, 244, 200, 104, 84, 199, 235, 180, 122, 225, 201, 61, 232, 174, 200, 249, 68, 3, 94, 234, 166, 73, 93, 215, 26, 6, 120]",216,66a22c0758a3d5c9d26873c6,6681e42776233b2b8b2510e0,66a2d8a45e2547e5cd1df220,1,1,0,True,3,78,"[{""page_index"":0,""viewing_time"":2386}]",2386.0999999046326,,,,,,,,,,,,,,,,,,,,
,type-this,31,528000,0.0-12.0-1.3,,433,"[15, 65, 33, 208, 239, 29, 244, 200, 104, 84, 199, 235, 180, 122, 225, 201, 61, 232, 174, 200, 249, 68, 3, 94, 234, 166, 73, 93, 215, 26, 6, 120]",216,66a22c0758a3d5c9d26873c6,6681e42776233b2b8b2510e0,66a2d8a45e2547e5cd1df220,1,1,0,True,3,78,,16176.100000023842,['SHAKIRA'],,,,,,,,,,SHAKIRA,,,,,,,,,
,Hangman_replay,32,584730,0.0-12.0-2.3,,433,"[15, 65, 33, 208, 239, 29, 244, 200, 104, 84, 199, 235, 180, 122, 225, 201, 61, 232, 174, 200, 249, 68, 3, 94, 234, 166, 73, 93, 215, 26, 6, 120]",216,66a22c0758a3d5c9d26873c6,6681e42776233b2b8b2510e0,66a2d8a45e2547e5cd1df220,1,1,0,True,3,78,,,,,,,SHAKIRA,"{'letter': ['', 'G', 'A', 'M', 'N', 'Z', 'D', 'E', 'I', 'H', 'L', 'T', 'S', 'O', 'U', 'X', 'V', 'W', 'R', 'K'], 't': [0, 4180.700000047684, 5230, 13580.799999952316, 18481.200000047684, 19981.299999952316, 21648.299999952316, 22515.700000047684, 23181.600000023842, 29133.200000047684, 31149.200000047684, 34167, 35116.10000002384, 44700.299999952316, 47717.299999952316, 49067.60000002384, 49700.799999952316, 50434.5, 52917.89999997616, 54702.299999952316], 'hit': [None, 0, 2, 0, 0, 0, 0, 0, 1, 1, 0, 0, 1, 0, 0, 0, 0, 0, 1, 1], 'asked': ['', 'G', 'GA', 'GAM', 'GAMN', 'GAMNZ', 'GAMNZD', 'GAMNZDE', 'GAMNZDEI', 'GAMNZDEIH', 'GAMNZDEIHL', 'GAMNZDEIHLT', 'GAMNZDEIHLTS', 'GAMNZDEIHLTSO', 'GAMNZDEIHLTSOU', 'GAMNZDEIHLTSOUX', 'GAMNZDEIHLTSOUXV', 'GAMNZDEIHLTSOUXVW', 'GAMNZDEIHLTSOUXVWR', 'GAMNZDEIHLTSOUXVWRK'], 'word_state': ['_______', '_______', '__A___A', '__A___A', '__A___A', '__A___A', '__A___A', '__A___A', '__A_I_A', '_HA_I_A', '_HA_I_A', '_HA_I_A', 'SHA_I_A', 'SHA_I_A', 'SHA_I_A', 'SHA_I_A', 'SHA_I_A', 'SHA_I_A', 'SHA_IRA', 'SHAKIRA']}","['G', 'A', 'M', 'N', 'Z', 'D', 'E', 'I', 'H', 'L', 'T', 'S', 'O', 'U', 'X', 'V', 'W', 'R', 'K']",19.0,2.0,0.0,,,,,,,,,,
,instructions,33,588972,0.0-12.0-3.3,,433,"[15, 65, 33, 208, 239, 29, 244, 200, 104, 84, 199, 235, 180, 122, 225, 201, 61, 232, 174, 200, 249, 68, 3, 94, 234, 166, 73, 93, 215, 26, 6, 120]",216,66a22c0758a3d5c9d26873c6,6681e42776233b2b8b2510e0,66a2d8a45e2547e5cd1df220,1,1,0,True,3,78,"[{""page_index"":0,""viewing_time"":4239.799999952316}]",4240.600000023842,,,,,,,,,,,,,,,,,,,,
,Guess_leaderboard,34,591610,0.0-12.0-4.3,,433,"[15, 65, 33, 208, 239, 29, 244, 200, 104, 84, 199, 235, 180, 122, 225, 201, 61, 232, 174, 200, 249, 68, 3, 94, 234, 166, 73, 93, 215, 26, 6, 120]",216,66a22c0758a3d5c9d26873c6,6681e42776233b2b8b2510e0,66a2d8a45e2547e5cd1df220,1,1,0,True,3,78,,,,,,,SHAKIRA,,,,,,,1854.7000000476837,97.0,30.0,3.0,60.0,37.0,,,
,instructions,35,595854,0.0-12.0-0.4,,433,"[15, 65, 33, 208, 239, 29, 244, 200, 104, 84, 199, 235, 180, 122, 225, 201, 61, 232, 174, 200, 249, 68, 3, 94, 234, 166, 73, 93, 215, 26, 6, 120]",216,66a22c0758a3d5c9d26873c6,6681e42776233b2b8b2510e0,66a2d8a45e2547e5cd1df220,1,1,0,True,3,78,"[{""page_index"":0,""viewing_time"":4242.800000071526}]",4243.200000047684,,,,,,,,,,,,,,,,,,,,
,type-this,36,609244,0.0-12.0-1.4,,433,"[15, 65, 33, 208, 239, 29, 244, 200, 104, 84, 199, 235, 180, 122, 225, 201, 61, 232, 174, 200, 249, 68, 3, 94, 234, 166, 73, 93, 215, 26, 6, 120]",216,66a22c0758a3d5c9d26873c6,6681e42776233b2b8b2510e0,66a2d8a45e2547e5cd1df220,1,1,0,True,3,78,,12886.399999976158,['HAWAII'],,,,,,,,,,HAWAII,,,,,,,,,
,Hangman_replay,37,653205,0.0-12.0-2.4,,433,"[15, 65, 33, 208, 239, 29, 244, 200, 104, 84, 199, 235, 180, 122, 225, 201, 61, 232, 174, 200, 249, 68, 3, 94, 234, 166, 73, 93, 215, 26, 6, 120]",216,66a22c0758a3d5c9d26873c6,6681e42776233b2b8b2510e0,66a2d8a45e2547e5cd1df220,1,1,0,True,3,78,,,,,,,HAWAII,"{'letter': ['', 'A', 'K', 'H', 'W', 'I'], 't': [0, 4810.700000047684, 32947.300000071526, 39098, 40831.700000047684, 41948.300000071526], 'hit': [None, 2, 0, 1, 1, 2], 'asked': ['', 'A', 'AK', 'AKH', 'AKHW', 'AKHWI'], 'word_state': ['______', '_A_A__', '_A_A__', 'HA_A__', 'HAWA__', 'HAWAII']}","['A', 'K', 'H', 'W', 'I']",5.0,14.0,0.0,,,,,,,,,,
,instructions,38,656776,0.0-12.0-3.4,,433,"[15, 65, 33, 208, 239, 29, 244, 200, 104, 84, 199, 235, 180, 122, 225, 201, 61, 232, 174, 200, 249, 68, 3, 94, 234, 166, 73, 93, 215, 26, 6, 120]",216,66a22c0758a3d5c9d26873c6,6681e42776233b2b8b2510e0,66a2d8a45e2547e5cd1df220,1,1,0,True,3,78,"[{""page_index"":0,""viewing_time"":3570.100000023842}]",3570.3000000715256,,,,,,,,,,,,,,,,,,,,
,Guess_leaderboard,39,660600,0.0-12.0-4.4,,433,"[15, 65, 33, 208, 239, 29, 244, 200, 104, 84, 199, 235, 180, 122, 225, 201, 61, 232, 174, 200, 249, 68, 3, 94, 234, 166, 73, 93, 215, 26, 6, 120]",216,66a22c0758a3d5c9d26873c6,6681e42776233b2b8b2510e0,66a2d8a45e2547e5cd1df220,1,1,0,True,3,78,,,,,,,HAWAII,,,,,,,3047.6999999284744,19.0,79.0,4.0,51.0,32.0,,,
,survey-text,40,680124,0.0-13.0,,433,"[15, 65, 33, 208, 239, 29, 244, 200, 104, 84, 199, 235, 180, 122, 225, 201, 61, 232, 174, 200, 249, 68, 3, 94, 234, 166, 73, 93, 215, 26, 6, 120]",216,66a22c0758a3d5c9d26873c6,6681e42776233b2b8b2510e0,66a2d8a45e2547e5cd1df220,1,1,0,True,3,78,,19518.700000047684,"{""Q0"":""HAWAII""}",,,,,,,,,,,,,,,,,hawaii,,
,survey-multi-choice,41,698068,0.0-14.0,,433,"[15, 65, 33, 208, 239, 29, 244, 200, 104, 84, 199, 235, 180, 122, 225, 201, 61, 232, 174, 200, 249, 68, 3, 94, 234, 166, 73, 93, 215, 26, 6, 120]",216,66a22c0758a3d5c9d26873c6,6681e42776233b2b8b2510e0,66a2d8a45e2547e5cd1df220,1,1,0,True,3,78,,17942.599999904633,"{""Q0"":""3. I would be <b>third</b> out of the six of us.""}",[0],,self-rating,,,,,,,,,3.0,,,,,,,
,html-slider-response,42,708086,0.0-15.0,,433,"[15, 65, 33, 208, 239, 29, 244, 200, 104, 84, 199, 235, 180, 122, 225, 201, 61, 232, 174, 200, 249, 68, 3, 94, 234, 166, 73, 93, 215, 26, 6, 120]",216,66a22c0758a3d5c9d26873c6,6681e42776233b2b8b2510e0,66a2d8a45e2547e5cd1df220,1,1,0,True,3,78,,10014.600000023842,,,,,,,,,,,78,,,,,,,,"<p>Overall, how confident were you in your answer to this last question?</p>",78.0
,survey-text,43,749493,0.0-16.0,,433,"[15, 65, 33, 208, 239, 29, 244, 200, 104, 84, 199, 235, 180, 122, 225, 201, 61, 232, 174, 200, 249, 68, 3, 94, 234, 166, 73, 93, 215, 26, 6, 120]",216,66a22c0758a3d5c9d26873c6,6681e42776233b2b8b2510e0,66a2d8a45e2547e5cd1df220,1,1,0,True,3,78,,41405.10000002384,"{""Q0"":""how strategic you are ""}",,,,,,,,,,,,,,,,,,,
,survey-text,44,757460,0.0-17.0,,433,"[15, 65, 33, 208, 239, 29, 244, 200, 104, 84, 199, 235, 180, 122, 225, 201, 61, 232, 174, 200, 249, 68, 3, 94, 234, 166, 73, 93, 215, 26, 6, 120]",216,66a22c0758a3d5c9d26873c6,6681e42776233b2b8b2510e0,66a2d8a45e2547e5cd1df220,1,1,0,True,3,78,,7964.800000071526,"{""Q0"":""no""}",,,,,,,,,,,,,,,,,,,
,instructions,45,770155,0.0-18.0,,433,"[15, 65, 33, 208, 239, 29, 244, 200, 104, 84, 199, 235, 180, 122, 225, 201, 61, 232, 174, 200, 249, 68, 3, 94, 234, 166, 73, 93, 215, 26, 6, 120]",216,66a22c0758a3d5c9d26873c6,6681e42776233b2b8b2510e0,66a2d8a45e2547e5cd1df220,1,1,0,True,3,78,"[{""page_index"":0,""viewing_time"":12695.199999928474}]",12695.5,,,,,,,,,,,,,,,,,,,,
