[{"success":true,"trial_type":"fullscreen","trial_index":0,"time_elapsed":8114,"internal_node_id":"0.0-0.0","protocol_sum":"","subject_identifier":433,"subject_sum":[15,65,33,208,239,29,244,200,104,84,199,235,180,122,225,201,61,232,174,200,249,68,3,94,234,166,73,93,215,26,6,120],"subject_pair":216,"STUDY_ID":"66a22c0758a3d5c9d26873c6","PROLIFIC_PID":"6681e42776233b2b8b2510e0","SESSION_ID":"66a2d8a45e2547e5cd1df220","practice_instructions":1,"leaderboard_instructions":1,"bonus":0,"reveal_word":true,"self_rating":"3","confidence":"78"},{"view_history":"[{\"page_index\":0,\"viewing_time\":9096.399999976158}]","rt":9096.700000047684,"trial_type":"instructions","trial_index":1,"time_elapsed":17212,"internal_node_id":"0.0-1.0","protocol_sum":"","subject_identifier":433,"subject_sum":[15,65,33,208,239,29,244,200,104,84,199,235,180,122,225,201,61,232,174,200,249,68,3,94,234,166,73,93,215,26,6,120],"subject_pair":216,"STUDY_ID":"66a22c0758a3d5c9d26873c6","PROLIFIC_PID":"6681e42776233b2b8b2510e0","SESSION_ID":"66a2d8a45e2547e5cd1df220","practice_instructions":1,"leaderboard_instructions":1,"bonus":0,"reveal_word":true,"self_rating":"3","confidence":"78"},{"view_history":"[{\"page_index\":0,\"viewing_time\":18732.100000023842}]","rt":18732.399999976158,"trial_type":"instructions","trial_index":2,"time_elapsed":35945,"internal_node_id":"0.0-2.0-0.0","protocol_sum":"","subject_identifier":433,"subject_sum":[15,65,33,208,239,29,244,200,104,84,199,235,180,122,225,201,61,232,174,200,249,68,3,94,234,166,73,93,215,26,6,120],"subject_pair":216,"STUDY_ID":"66a22c0758a3d5c9d26873c6","PROLIFIC_PID":"6681e42776233b2b8b2510e0","SESSION_ID":"66a2d8a45e2547e5cd1df220","practice_instructions":1,"leaderboard_instructions":1,"bonus":0,"reveal_word":true,"self_rating":"3","confidence":"78"},{"rt":17837.300000071526,"responses":"{\"Q0\":\"... reveal the word with as <b>few letter guesses</b> as possible\"}","question_order":"[0]","trial_type":"survey-multi-choice","trial_index":3,"time_elapsed":53784,"internal_node_id":"0.0-2.0-1.0","protocol_sum":"","subject_identifier":433,"subject_sum":[15,65,33,208,239,29,244,200,104,84,199,235,180,122,225,201,61,232,174,200,249,68,3,94,234,166,73,93,215,26,6,120],"subject_pair":216,"correct":true,"test_part":"multichoice_nonpretend","STUDY_ID":"66a22c0758a3d5c9d26873c6","PROLIFIC_PID":"6681e42776233b2b8b2510e0","SESSION_ID":"66a2d8a45e2547e5cd1df220","practice_instructions":1,"leaderboard_instructions":1,"bonus":0,"reveal_word":true,"self_rating":"3","confidence":"78"},{"view_history":"[{\"page_index\":0,\"viewing_time\":2697.8000000715256}]","rt":2698.100000023842,"trial_type":"instructions","trial_index":4,"time_elapsed":56483,"internal_node_id":"0.0-3.0","protocol_sum":"","subject_identifier":433,"subject_sum":[15,65,33,208,239,29,244,200,104,84,199,235,180,122,225,201,61,232,174,200,249,68,3,94,234,166,73,93,215,26,6,120],"subject_pair":216,"STUDY_ID":"66a22c0758a3d5c9d26873c6","PROLIFIC_PID":"6681e42776233b2b8b2510e0","SESSION_ID":"66a2d8a45e2547e5cd1df220","practice_instructions":1,"leaderboard_instructions":1,"bonus":0,"reveal_word":true,"self_rating":"3","confidence":"78"},{"word":"ZEBRA","click_log":{"letter":["","B","M","T","A","E","Z","R"],"t":[0,6966.599999904633,16199.299999952316,20987.299999952316,23598.299999952316,28683.399999976158,35605.299999952316,39563.699999928474],"hit":[null,1,0,0,1,1,1,1],"asked":["","B","BM","BMT","BMTA","BMTAE","BMTAEZ","BMTAEZR"],"word_state":["_____","__B__","__B__","__B__","__B_A","_EB_A","ZEB_A","ZEBRA"]},"hover_log":{"letter":["?","?","?","?","?","?","?","?","?","?","?","?","J","J","J","J","J","J","J","J","J","J","J","J","J","J","J","J","J","J","?","?","?","?","?","?","?","?","?","?","?","?","?","?","?","?","?","?","?","?","?","?","?","?","?","?","?","?","?","?","?","?","?","?","?","?","?","?","?","?","?","?","?","?","?","?","J","J","J","J","J","J","J","J","J","J","J","J","J","J","J","J","J","J","J","J","J","J","J","J","J","J","J","J","J","J","J","J","J","?","?","?","?","?","?","?","J","J","J","J","?","?","?","?","?","?","?","?","?","?","?","?","?","?","?","?","?","?","?","?","?","?","?","?","?","?","?","?","?","?","?","?","?","?","?","?","?","?","?","?","?","?","?","?","?","?","?","?","?","?","?","?","?","?","?","?","?","?","?","?","?","?","?","?","?","?","?","?","?","?","?","?","?","?","?","?","?","?","?","?","?","?","?","?","?","?","?","?","?","?","?","?","?","?","?","?","?","?","?","?","?","?","?","?","?","?","?","?","?","?","?","?","?","?","?","?","?","?","?","?","?","?","?","?","?","?","?","?","?","?","?","?","?","?","?","?","?","?","?","?","?","?","?","?","?","?","?","?","?","?","?","?","?","?","?","?","?","?","?","?","?","?","?","?","?","?","?","?","?","?","?","?","?","?","?","?","?","?","?","?","?","?","?","?","?","?","?","?","?","?","?","?","?","?","?","?","?","?","?","?","?","?","?","?","?","?","?","?","?","?","?","?","?","?","?","?","?","?","?","?","?","?","?","?","?","?","?","?","?","?","?","?","?","?","?","?","?","?","?","?","?","?","?","?","?","?","?","?","?","A","A","A","A","A","?","?","?","B","B","B","B","B","B","B","B","B","B","B","B","B","B","B","B","B","B","B","B","B","B","B","B","B","B","B","B","B","B","B","B","B","B","B","B","B","B","B","B","B","B","B","B","B","B","B","B","B","B","B","B","B","B","B","B","B","B","B","?","?","?","A","A","A","A","A","A","A","?","?","?","?","?","?","?","?","?","?","?","?","?","?","?","?","?","?","?","?","?","?","?","?","?","?","?","?","?","?","?","?","?","?","?","?","?","?","?","?","?","?","?","?","?","?","?","?","?","?","?","?","?","?","?","?","?","?","?","?","?","?","?","?","?","?","?","?","?","?","?","?","?","?","?","?","?","?","?","?","?","?","?","?","?","?","?","?","?","?","?","?","?","?","?","?","?","?","?","?","?","?","?","?","?","?","?","?","?","?","?","?","?","?","?","?","?","?","?","?","?","?","?","?","?","?","?","?","?","?","?","?","?","?","?","?","?","?","?","?","?","?","?","?","?","?","?","?","?","?","?","?","?","?","?","?","?","?","?","?","?","?","?","?","?","?","?","?","?","?","?","?","?","?","?","?","?","?","?","?","?","?","?","?","?","?","?","?","?","?","?","?","?","?","?","?","?","?","?","?","?","?","?","?","?","?","?","?","?","?","?","?","?","?","?","?","?","?","?","?","?","?","?","?","?","?","?","?","?","?","?","?","?","?","?","?","?","?","?","?","?","?","?","?","?","?","?","?","?","?","?","?","?","?","?","?","?","?","?","?","?","?","?","?","?","?","?","?","?","?","?","?","?","?","?","?","?","?","?","?","?","?","?","?","?","?","?","?","?","?","?","?","?","?","?","?","?","?","?","?","?","?","?","?","?","?","?","?","?","?","?","?","?","?","?","?","?","?","?","?","?","?","?","?","?","?","?","?","?","?","?","?","?","?","?","?","?","?","?","?","?","?","?","?","?","?","?","?","?","?","?","?","?","?","?","?","?","?","?","?","?","?","?","?","?","?","?","?","?","?","?","?","?","?","?","?","?","?","?","?","?","?","?","?","?","?","?","?","?","?","?","?","?","?","?","?","?","?","?","?","?","?","?","?","?","?","?","?","?","?","?","?","?","?","?","?","?","?","?","?","?","?","?","?","?","?","?","?","?","?","?","?","?","?","?","?","?","?","?","?","?","?","?","?","J","J","J","?","K","?","?","?","?","?","?","?","?","?","?","?","?","?","?","?","?","?","?","L","L","L","L","L","L","L","L","L","L","L","L","L","L","M","M","M","M","M","M","M","M","M","M","M","M","M","M","M","M","M","M","M","M","M","M","M","M","M","M","M","M","M","M","M","M","M","M","M","M","M","M","M","M","M","M","M","M","M","M","M","M","M","M","M","M","M","M","M","M","M","M","M","M","?","?","L","L","L","L","L","?","?","?","?","?","?","?","?","?","?","?","?","?","?","?","?","?","?","?","?","?","?","?","A","A","A","A","?","?","?","?","?","?","?","?","?","?","?","?","?","?","?","?","?","?","?","?","?","?","?","?","?","?","?","?","?","?","?","?","?","?","?","?","?","?","?","?","?","?","?","?","?","?","?","?","?","?","?","?","?","?","?","?","?","?","?","?","?","?","?","?","?","?","?","?","?","?","?","?","?","?","?","?","?","?","?","?","?","?","?","?","?","?","?","?","?","?","?","?","?","?","?","?","?","?","?","?","?","?","?","?","?","?","?","?","?","?","?","?","?","?","?","?","?","?","?","?","?","?","J","J","?","K","K","K","K","?","?","?","?","?","?","?","?","?","U","U","U","U","U","U","U","U","U","U","U","U","U","U","U","U","U","U","U","U","U","U","U","U","U","U","U","U","U","?","?","?","?","?","T","T","T","?","?","?","?","?","?","?","?","?","?","?","?","?","?","?","?","?","T","T","T","T","T","T","T","T","T","T","T","T","T","T","T","T","T","T","T","T","T","T","T","T","T","T","T","T","T","T","T","T","T","T","T","T","T","T","T","T","T","T","T","T","T","T","T","T","T","T","T","T","T","T","T","T","T","T","T","T","T","T","T","T","T","T","T","T","T","T","T","T","T","T","T","T","T","T","T","T","T","T","T","T","T","T","?","?","?","?","?","?","J","?","?","?","?","?","?","?","?","?","?","?","?","?","?","?","?","?","?","?","?","?","?","?","?","?","?","?","?","?","?","?","?","?","?","?","?","?","?","?","?","?","?","?","?","?","?","?","?","?","?","?","?","?","?","?","?","?","?","?","?","?","?","A","A","A","A","A","A","A","A","A","A","A","A","A","A","A","A","A","A","A","A","A","A","A","A","A","A","A","A","A","A","A","A","A","A","A","A","A","A","A","A","A","A","A","A","A","A","A","A","A","A","A","A","A","A","A","A","A","?","?","?","?","?","?","?","?","?","?","?","?","?","?","?","?","?","?","?","?","?","?","?","?","?","?","?","?","?","?","?","?","?","?","?","?","?","?","?","?","?","?","?","?","?","?","?","?","?","?","?","?","?","?","?","?","?","?","?","?","?","?","?","?","?","?","?","?","?","?","?","?","?","?","?","?","?","?","?","?","?","?","?","?","?","?","?","?","?","?","?","?","?","?","?","?","?","?","?","?","?","?","?","?","?","?","?","?","?","?","?","?","?","?","?","?","?","?","?","?","?","?","?","?","?","?","?","?","?","?","?","?","?","?","?","?","?","?","?","?","?","?","?","?","?","?","?","?","?","?","?","?","?","?","?","?","?","?","?","?","?","?","?","?","?","?","?","?","?","?","?","?","?","?","?","?","?","?","?","?","?","?","?","J","K","L","M","M","N","O","P","P","P","P","P","P","P","P","P","P","P","P","P","P","P","?","?","?","?","?","?","?","?","?","?","?","?","?","?","?","?","?","?","?","F","F","F","F","?","?","?","?","?","?","?","?","?","?","?","?","?","?","?","?","?","?","?","?","E","E","E","E","E","E","E","E","E","E","E","E","E","E","E","E","E","E","E","E","E","E","E","E","E","E","E","E","E","E","E","E","E","E","E","E","E","E","E","E","E","E","E","E","E","E","E","E","E","E","E","E","E","E","E","E","E","E","E","E","E","E","E","E","E","E","E","E","E","E","E","?","?","?","?","?","?","?","?","?","?","?","?","?","?","?","?","?","?","?","?","?","?","?","?","?","?","?","?","?","?","?","?","?","?","?","?","?","?","?","?","?","?","?","?","?","?","?","?","?","?","?","?","?","?","?","?","?","?","?","?","?","?","?","?","?","?","?","?","?","?","?","?","?","?","?","?","?","?","?","?","?","?","?","?","?","?","?","?","?","?","?","?","?","?","?","?","?","?","?","?","?","?","?","?","?","?","?","?","?","?","?","?","?","?","?","?","?","?","?","?","?","?","?","?","?","?","?","?","?","?","?","?","?","?","?","?","?","?","?","?","?","?","?","?","?","?","?","?","?","?","?","?","?","?","?","?","?","?","?","?","?","?","?","?","?","?","?","?","?","?","?","?","?","?","?","?","?","?","?","?","?","?","?","?","?","?","?","?","?","?","?","?","?","?","?","?","?","?","?","?","?","?","?","?","?","?","?","?","?","?","?","?","?","?","?","?","?","?","?","?","?","?","?","?","?","?","?","?","?","?","?","?","?","?","?","?","?","?","?","?","?","?","?","?","?","?","?","?","?","?","?","?","?","?","?","?","?","?","?","?","?","?","?","?","?","?","?","?","?","?","?","?","?","?","?","?","?","?","?","?","?","?","?","?","?","?","?","?","?","?","?","?","?","?","?","?","?","?","?","?","?","?","?","?","?","?","?","?","?","?","?","?","?","?","?","?","?","?","?","?","?","?","?","?","?","?","?","?","?","?","?","?","?","?","?","?","?","?","?","?","F","?","?","P","P","?","?","?","?","?","Z","Z","Z","Z","Z","Z","Z","Z","Z","Z","Z","Z","Z","Z","Z","Z","Z","Z","Z","Z","Z","Z","Z","Z","Z","Z","Z","Z","Z","Z","Z","Z","Z","Z","Z","Z","Z","Z","Z","Z","Z","Z","Z","Z","Z","Z","Z","Z","Z","Z","Z","Z","Z","Z","Z","Z","Z","Z","Z","Z","?","?","?","?","?","?","?","?","?","?","?","?","?","?","?","W","W","W","W","?","?","?","?","?","V","V","V","V","V","V","V","V","V","V","?","?","?","?","?","?","?","?","?","?","?","?","V","?","?","?","?","?","?","?","?","?","?","?","?","?","V","?","?","?","N","N","N","N","?","?","?","?","?","?","?","?","?","?","?","O","O","O","O","O","O","O","O","O","O","O","O","?","P","P","P","P","P","P","P","?","?","?","?","?","?","?","?","?","?","Z","Z","Z","Z","Z","Z","Z","?","?","?","Y","Y","Y","Y","Y","Y","Y","Y","Y","?","?","X","X","X","X","X","X","X","X","X","X","X","X","X","X","X","Y","Y","?","?","?","?","?","?","?","?","?","?","?","?","?","?","?","?","?","?","?","?","?","?","R","R","R","R","R","R","R","R","R","R","R","R","R","R","R","R","R","R","R","R","R","R","R","R","R","R","R","R","R","R","R","R","R","R","R","R","R","R","R","R","R","R","R","R","R","R","R","R","R","R","R","R","R","R","R","R","R","R","R","R","R","R","R","R","R","R","R","R","R","R","R","R","R","R","R","R","R","R","R","R","R","R","R","R","R","R","R","R","R","R","R","R","R","R","R","R","R","R","R","R","R","R","R","R","R","R","R","R","R","R","R","R","R","R","R","R","R","R","R","R","R","R","R","R","R","R","R","R","R","R","R","R","R","R","R","R","R","R","R","R","R","R","R","R","R","R","R","R","R","R","R","R","R","R","R","R","R","R","R","R","R","R","R","R","R","R","R","R"],"t":[40,50,67,85,102,119,135,153,170,186,202,220,240,252,267,286,302,320,334,353,369,386,402,418,435,453,468,486,502,519,533,550,567,584,601,618,634,651,667,685,702,719,736,751,768,784,802,818,834,850,867,883,901,918,934,951,968,985,1000,1017,1035,1051,1068,1084,1102,1118,1135,1151,1169,1184,1202,1217,1234,1252,1267,1284,1302,1319,1336,1352,1369,1386,1403,1421,1435,1451,1467,1484,1502,1517,1535,1551,1569,1584,1602,1619,1635,1651,1669,1686,1702,1719,1734,1751,1768,1785,1802,1817,1834,1852,1869,1885,1900,1918,1935,1952,1968,1983,2000,2017,2034,2051,2069,2084,2102,2117,2135,2152,2168,2184,2203,2218,2236,2252,2269,2284,2302,2318,2336,2352,2368,2385,2402,2419,2434,2453,2468,2485,2501,2519,2535,2550,2568,2586,2602,2620,2636,2652,2669,2686,2702,2718,2735,2751,2768,2786,2801,2818,2836,2853,2867,2883,2901,2919,2936,2951,2969,2987,3002,3019,3035,3053,3068,3085,3102,3118,3134,3150,3168,3185,3200,3218,3235,3251,3267,3284,3300,3318,3334,3353,3367,3384,3401,3419,3436,3453,3469,3485,3502,3518,3535,3551,3568,3586,3600,3617,3634,3652,3668,3685,3702,3719,3736,3751,3769,3784,3801,3818,3834,3850,3868,3885,3901,3919,3936,3951,3969,3985,4003,4018,4035,4052,4069,4085,4102,4117,4135,4152,4169,4185,4202,4218,4235,4252,4269,4285,4301,4318,4335,4352,4368,4385,4402,4418,4435,4453,4467,4485,4503,4519,4535,4552,4569,4585,4602,4619,4636,4653,4668,4686,4702,4719,4735,4751,4769,4785,4803,4818,4834,4852,4869,4886,4901,4922,4934,4952,4968,4985,5002,5019,5035,5051,5067,5085,5102,5119,5135,5151,5167,5184,5201,5219,5236,5253,5270,5286,5302,5319,5334,5352,5371,5384,5402,5418,5434,5451,5468,5485,5502,5518,5535,5550,5568,5583,5601,5619,5635,5650,5669,5685,5703,5719,5735,5752,5769,5785,5801,5819,5835,5852,5868,5885,5902,5918,5935,5952,5969,5986,6001,6018,6036,6052,6068,6084,6100,6118,6135,6151,6169,6189,6201,6219,6236,6252,6270,6286,6303,6320,6335,6353,6369,6387,6403,6419,6435,6452,6470,6487,6501,6518,6534,6551,6568,6584,6600,6618,6635,6652,6669,6685,6701,6719,6736,6752,6770,6785,6802,6819,6834,6850,6867,6885,6901,6918,6939,6957,6969,6985,7003,7019,7036,7053,7070,7087,7103,7119,7136,7152,7169,7186,7202,7219,7234,7251,7267,7286,7301,7317,7336,7351,7368,7384,7401,7418,7434,7452,7469,7486,7501,7519,7535,7552,7568,7586,7601,7618,7636,7653,7669,7685,7703,7720,7736,7753,7769,7784,7802,7818,7834,7852,7870,7884,7902,7919,7935,7952,7968,7986,8002,8019,8035,8051,8069,8085,8102,8118,8136,8152,8169,8187,8204,8219,8235,8251,8268,8285,8302,8319,8336,8353,8369,8386,8401,8419,8434,8452,8468,8486,8502,8520,8536,8552,8569,8586,8602,8619,8636,8651,8668,8684,8702,8719,8735,8751,8767,8784,8801,8818,8835,8851,8867,8888,8901,8919,8936,8953,8970,8986,9003,9020,9035,9053,9069,9086,9102,9119,9135,9152,9170,9187,9202,9219,9235,9252,9268,9286,9303,9318,9335,9353,9368,9385,9401,9419,9435,9452,9467,9486,9503,9518,9534,9553,9569,9586,9602,9619,9635,9651,9670,9685,9700,9718,9735,9752,9769,9786,9802,9818,9836,9852,9869,9886,9901,9919,9936,9953,9969,9986,10003,10019,10036,10052,10069,10086,10102,10119,10135,10151,10167,10184,10201,10218,10235,10252,10268,10285,10302,10319,10336,10352,10369,10384,10402,10419,10436,10453,10471,10486,10503,10519,10536,10552,10570,10586,10603,10620,10636,10651,10670,10685,10703,10719,10736,10753,10768,10786,10802,10819,10837,10854,10868,10885,10903,10918,10936,10953,10969,10988,11002,11019,11036,11053,11068,11086,11103,11119,11135,11153,11169,11186,11201,11219,11236,11252,11270,11285,11303,11319,11336,11353,11369,11386,11403,11420,11436,11452,11469,11486,11503,11520,11536,11551,11569,11586,11602,11618,11635,11651,11669,11686,11703,11719,11736,11753,11769,11787,11803,11819,11836,11852,11869,11886,11903,11919,11937,11953,11968,11986,12002,12020,12036,12052,12071,12086,12102,12119,12136,12153,12169,12186,12203,12220,12235,12253,12269,12287,12302,12319,12336,12353,12370,12387,12403,12419,12436,12454,12469,12487,12501,12519,12535,12551,12569,12585,12602,12619,12637,12652,12668,12686,12704,12720,12736,12752,12769,12786,12803,12819,12837,12851,12869,12886,12901,12919,12936,12952,12970,12986,13001,13018,13035,13052,13069,13085,13103,13119,13136,13153,13171,13185,13203,13220,13236,13253,13271,13286,13303,13319,13336,13353,13370,13385,13403,13419,13436,13454,13469,13486,13503,13519,13535,13553,13568,13587,13602,13619,13635,13652,13669,13685,13703,13720,13737,13753,13770,13786,13803,13820,13836,13852,13869,13886,13903,13920,13936,13953,13970,13986,14003,14020,14036,14053,14070,14087,14104,14121,14136,14153,14170,14186,14208,14235,14253,14269,14285,14303,14320,14336,14354,14370,14387,14402,14420,14435,14454,14470,14486,14502,14519,14535,14552,14569,14587,14603,14618,14636,14653,14669,14685,14701,14719,14736,14754,14770,14787,14804,14821,14835,14855,14871,14888,14903,14918,14937,14953,14970,14986,15003,15022,15035,15051,15069,15085,15101,15118,15134,15152,15168,15185,15201,15218,15235,15251,15269,15285,15301,15318,15335,15351,15368,15384,15401,15418,15434,15452,15469,15485,15502,15519,15535,15551,15568,15584,15601,15618,15635,15651,15668,15685,15701,15718,15734,15751,15768,15785,15801,15818,15836,15853,15869,15887,15903,15920,15935,15951,15968,15985,16002,16018,16035,16052,16069,16086,16102,16119,16136,16153,16170,16186,16203,16220,16235,16252,16269,16286,16304,16321,16335,16352,16371,16386,16403,16419,16436,16452,16469,16485,16502,16520,16537,16554,16572,16585,16602,16619,16635,16652,16669,16687,16702,16719,16736,16754,16771,16787,16804,16821,16838,16853,16870,16886,16903,16920,16937,16953,16970,16986,17003,17021,17036,17053,17070,17086,17103,17121,17136,17154,17170,17188,17206,17220,17236,17253,17270,17286,17302,17319,17336,17353,17370,17386,17403,17420,17437,17455,17470,17487,17504,17520,17537,17552,17570,17587,17602,17619,17636,17652,17669,17687,17703,17721,17737,17753,17771,17787,17803,17819,17837,17852,17869,17885,17903,17920,17936,17954,17970,17987,18002,18020,18036,18052,18069,18087,18103,18120,18136,18153,18170,18186,18202,18218,18235,18251,18269,18287,18303,18319,18335,18352,18369,18386,18404,18420,18436,18454,18471,18486,18504,18519,18536,18554,18570,18586,18603,18619,18636,18653,18670,18686,18702,18719,18735,18751,18768,18785,18802,18818,18836,18852,18868,18886,18903,18920,18937,18953,18970,18988,19004,19021,19036,19055,19069,19085,19103,19120,19137,19154,19171,19186,19204,19219,19236,19253,19271,19285,19305,19319,19337,19353,19371,19387,19403,19421,19438,19453,19470,19486,19504,19521,19536,19554,19570,19587,19603,19619,19637,19653,19670,19686,19704,19719,19737,19754,19770,19786,19804,19821,19837,19853,19869,19887,19904,19920,19937,19954,19969,19988,20004,20021,20036,20052,20069,20087,20102,20120,20136,20154,20171,20188,20202,20221,20235,20252,20269,20285,20302,20319,20336,20352,20369,20386,20403,20421,20436,20454,20470,20486,20503,20522,20535,20553,20570,20587,20603,20621,20637,20654,20670,20687,20703,20721,20737,20754,20773,20787,20803,20821,20838,20853,20871,20886,20903,20920,20937,20955,20971,20986,21003,21020,21037,21053,21070,21087,21104,21119,21137,21153,21169,21186,21203,21219,21237,21253,21271,21287,21303,21320,21338,21354,21370,21387,21404,21422,21438,21452,21471,21487,21504,21520,21537,21554,21570,21587,21604,21621,21637,21654,21670,21686,21703,21719,21736,21753,21770,21786,21802,21819,21835,21852,21868,21886,21902,21919,21935,21952,21969,21986,22002,22019,22036,22052,22069,22085,22102,22118,22135,22152,22169,22185,22202,22221,22235,22252,22269,22286,22302,22319,22335,22352,22369,22385,22402,22418,22435,22452,22469,22486,22502,22519,22535,22552,22569,22585,22602,22619,22636,22658,22671,22685,22702,22719,22735,22752,22769,22786,22803,22819,22836,22853,22869,22885,22903,22919,22935,22952,22968,22986,23002,23019,23035,23052,23069,23086,23102,23119,23135,23152,23169,23185,23202,23219,23235,23252,23269,23285,23302,23318,23335,23352,23368,23386,23402,23419,23435,23452,23469,23485,23502,23519,23536,23552,23569,23586,23602,23619,23635,23652,23669,23685,23706,23719,23736,23752,23769,23786,23802,23819,23837,23852,23869,23886,23902,23919,23936,23953,23969,23986,24002,24019,24035,24052,24069,24086,24102,24119,24136,24153,24169,24186,24202,24219,24235,24252,24269,24285,24302,24319,24336,24353,24369,24385,24402,24419,24436,24452,24469,24485,24502,24519,24535,24552,24569,24586,24602,24619,24636,24652,24670,24686,24703,24721,24737,24754,24770,24785,24804,24820,24837,24853,24869,24886,24902,24919,24936,24952,24969,24986,25003,25019,25038,25054,25069,25086,25102,25119,25136,25152,25169,25185,25202,25219,25235,25252,25269,25286,25302,25319,25335,25353,25369,25385,25402,25419,25435,25452,25470,25487,25502,25519,25536,25554,25570,25587,25604,25620,25637,25655,25670,25688,25703,25719,25736,25752,25770,25787,25805,25823,25838,25853,25871,25886,25904,25920,25936,25953,25970,25987,26005,26021,26039,26054,26072,26086,26104,26120,26137,26153,26171,26187,26204,26221,26236,26253,26269,26287,26303,26319,26336,26353,26370,26386,26402,26419,26436,26453,26470,26486,26503,26519,26536,26553,26570,26586,26603,26620,26636,26653,26669,26686,26702,26719,26736,26753,26769,26786,26803,26819,26836,26853,26870,26886,26903,26919,26936,26953,26969,26986,27003,27019,27036,27053,27070,27088,27105,27122,27138,27155,27172,27190,27205,27222,27237,27254,27271,27287,27303,27319,27336,27353,27370,27387,27404,27421,27437,27455,27471,27487,27503,27522,27539,27554,27571,27587,27603,27619,27636,27652,27670,27686,27704,27719,27737,27753,27769,27786,27803,27819,27836,27853,27869,27886,27903,27919,27936,27953,27970,27986,28003,28019,28036,28052,28069,28086,28103,28119,28136,28152,28169,28187,28205,28222,28237,28254,28272,28287,28304,28321,28338,28355,28372,28388,28404,28419,28436,28453,28469,28487,28504,28521,28537,28554,28570,28589,28604,28620,28637,28654,28672,28686,28703,28719,28737,28755,28771,28788,28805,28820,28837,28852,28869,28886,28903,28919,28936,28953,28971,28988,29003,29019,29036,29053,29070,29086,29103,29120,29136,29153,29170,29186,29203,29220,29236,29253,29270,29287,29303,29320,29336,29353,29369,29386,29403,29420,29436,29453,29469,29487,29505,29522,29537,29554,29569,29587,29603,29620,29638,29653,29669,29687,29704,29720,29736,29753,29769,29786,29802,29819,29836,29853,29870,29887,29904,29919,29936,29953,29969,29986,30003,30019,30036,30053,30069,30086,30103,30119,30137,30153,30169,30186,30202,30219,30236,30253,30269,30286,30303,30320,30337,30354,30371,30388,30404,30421,30438,30453,30470,30486,30503,30520,30537,30554,30571,30588,30604,30622,30638,30654,30671,30687,30705,30727,30738,30754,30770,30788,30805,30820,30837,30854,30872,30888,30905,30921,30936,30954,30971,30988,31004,31021,31038,31056,31071,31088,31105,31122,31138,31155,31171,31188,31205,31220,31238,31254,31271,31289,31305,31322,31339,31355,31372,31389,31405,31422,31438,31454,31470,31487,31503,31520,31537,31553,31571,31586,31604,31621,31637,31653,31670,31686,31703,31719,31736,31753,31769,31786,31803,31819,31836,31853,31870,31886,31903,31919,31936,31953,31969,31986,32003,32019,32036,32053,32070,32087,32105,32119,32137,32153,32169,32186,32204,32221,32237,32253,32271,32287,32303,32320,32336,32354,32370,32386,32403,32420,32437,32454,32472,32489,32505,32522,32538,32555,32572,32589,32604,32622,32638,32655,32671,32689,32705,32721,32739,32755,32771,32788,32804,32820,32839,32856,32871,32888,32905,32922,32939,32955,32971,32988,33005,33022,33038,33055,33071,33087,33105,33123,33139,33155,33172,33187,33205,33222,33238,33255,33271,33288,33306,33322,33338,33357,33372,33388,33403,33421,33438,33455,33472,33488,33505,33522,33539,33555,33573,33589,33604,33621,33639,33655,33671,33688,33705,33722,33738,33755,33771,33789,33804,33821,33839,33856,33872,33888,33905,33920,33938,33955,33970,33988,34004,34021,34037,34054,34071,34086,34103,34121,34137,34155,34172,34190,34206,34222,34239,34254,34272,34289,34306,34322,34337,34354,34371,34388,34404,34420,34437,34454,34472,34488,34506,34521,34538,34555,34570,34587,34603,34620,34638,34653,34672,34687,34706,34723,34740,34755,34773,34789,34806,34822,34839,34855,34872,34890,34904,34923,34937,34954,34971,34989,35005,35022,35037,35053,35071,35088,35103,35121,35138,35154,35170,35187,35203,35221,35238,35254,35271,35288,35304,35321,35338,35354,35371,35389,35405,35422,35439,35455,35472,35488,35505,35521,35539,35554,35572,35589,35604,35621,35637,35654,35671,35689,35705,35722,35738,35754,35772,35787,35804,35821,35838,35855,35873,35887,35905,35923,35939,35954,35971,35988,36005,36021,36037,36056,36071,36089,36105,36121,36138,36155,36172,36189,36206,36221,36239,36257,36274,36288,36306,36321,36339,36357,36372,36389,36406,36421,36437,36455,36471,36489,36505,36523,36538,36554,36572,36589,36605,36622,36639,36655,36672,36690,36704,36722,36738,36758,36771,36787,36805,36822,36839,36855,36871,36889,36906,36922,36940,36956,36972,36988,37006,37023,37039,37055,37073,37090,37105,37122,37139,37155,37170,37187,37205,37223,37240,37257,37272,37287,37304,37321,37338,37354,37372,37388,37405,37422,37439,37454,37473,37488,37505,37521,37540,37557,37572,37587,37604,37623,37638,37654,37671,37688,37706,37723,37740,37764,37777,37804,37822,37837,37854,37871,37888,37905,37921,37938,37956,37971,37988,38005,38022,38039,38056,38072,38089,38106,38123,38139,38156,38174,38189,38206,38223,38239,38255,38273,38289,38304,38322,38339,38355,38372,38388,38405,38422,38438,38455,38473,38488,38504,38522,38540,38556,38572,38589,38607,38621,38637,38654,38670,38688,38704,38721,38738,38756,38773,38789,38804,38820,38837,38855,38872,38887,38906,38921,38939,38955,38973,38989,39004,39025,39037,39055,39072,39088,39105,39123,39140,39156,39172,39189,39206,39222,39239,39254,39272,39288,39306,39322,39337,39354,39371,39388,39405,39422,39438,39455,39471,39488,39505,39522,39539,39555,39574,39587,39605,39621,39639,39656,39672,39689,39706,39725,39740,39755,39772,39789,39805,39823,39839,39855,39873,39889,39904,39921,39938,39955,39971,39989,40005,40022,40040,40056,40072,40090,40106,40123,40138,40157,40172,40189,40205,40222,40238,40256,40273,40289,40307,40323,40340,40356,40372,40390,40407,40423,40440,40456,40472,40488,40506,40522,40539,40556,40572,40589,40609,40622,40640,40655,40673,40689,40704,40721,40739,40755,40771,40789,40805,40821,40840,40855,40871,40887,40905,40921,40938,40955,40972,40989,41006,41023,41039,41057,41072,41089,41106,41123,41138,41154,41172,41190,41204,41222,41239,41255,41271,41289,41306,41323,41338,41355,41371,41388,41406,41422,41439,41456,41473,41489,41505,41524,41540,41557,41577],"hit":[null],"x":[0.052500387438300516,0.052500387438300516,0.052500387438300516,0.052500387438300516,0.052500387438300516,0.052500387438300516,0.052500387438300516,0.052500387438300516,0.04569766634986514,0.04229630580564745,0.04229630580564745,0.03889494526142977,0.03209222417299439,0.021888142540341333,0.021888142540341333,0.015085421451905957,0.011684060907688271,0.0014799792750352094,0.0014799792750352094,0.0014799792750352094,-0.0019213812691824777,-0.0019213812691824777,-0.0019213812691824777,-0.0019213812691824777,-0.0019213812691824777,-0.0019213812691824777,-0.0019213812691824777,-0.0019213812691824777,-0.0019213812691824777,-0.0019213812691824777,0.0014799792750352094,0.0014799792750352094,0.0014799792750352094,0.0014799792750352094,-0.0019213812691824777,-0.0019213812691824777,-0.0019213812691824777,-0.0019213812691824777,-0.0019213812691824777,-0.008724102357617851,-0.008724102357617851,-0.015526823446053226,-0.0223295445344886,-0.029132265622923974,-0.029132265622923974,-0.03593498671135935,-0.03933634725557703,-0.04273770779979472,-0.04613906834401241,-0.04613906834401241,-0.0495404288882301,-0.0495404288882301,-0.0495404288882301,-0.0495404288882301,-0.05634314997666547,-0.05974451052088316,-0.06314587106510085,-0.06994859215353622,-0.06994859215353622,-0.08015267378618927,-0.08355403433040696,-0.09035675541884235,-0.09035675541884235,-0.09035675541884235,-0.09035675541884235,-0.09035675541884235,-0.09035675541884235,-0.09035675541884235,-0.09035675541884235,-0.09035675541884235,-0.08355403433040696,-0.08355403433040696,-0.0733499526977539,-0.06654723160931854,-0.05974451052088316,-0.05974451052088316,-0.0495404288882301,-0.04613906834401241,-0.04613906834401241,-0.04273770779979472,-0.04273770779979472,-0.03933634725557703,-0.03933634725557703,-0.03593498671135935,-0.03593498671135935,-0.03593498671135935,-0.03593498671135935,-0.03593498671135935,-0.032533626167141665,-0.032533626167141665,-0.032533626167141665,-0.032533626167141665,-0.032533626167141665,-0.032533626167141665,-0.029132265622923974,-0.029132265622923974,-0.029132265622923974,-0.029132265622923974,-0.025730905078706286,-0.01892818399027091,-0.015526823446053226,-0.008724102357617851,-0.008724102357617851,-0.0019213812691824777,0.008282700363470584,0.015085421451905957,0.015085421451905957,0.021888142540341333,0.028690863628776705,0.03889494526142977,0.03889494526142977,0.04229630580564745,0.04569766634986514,0.049099026894082826,0.04569766634986514,0.04569766634986514,0.03549358471721208,0.03549358471721208,0.03549358471721208,0.03549358471721208,-0.06314587106510085,-0.11076491868414846,-0.14137716358210764,-0.16518668739163145,-0.16518668739163145,-0.16858804793584914,-0.17198940848006683,-0.17198940848006683,-0.17198940848006683,-0.16858804793584914,-0.16518668739163145,-0.16518668739163145,-0.16518668739163145,-0.16518668739163145,-0.16518668739163145,-0.16518668739163145,-0.16518668739163145,-0.16518668739163145,-0.16518668739163145,-0.16518668739163145,-0.16178532684741376,-0.16178532684741376,-0.16178532684741376,-0.1515812452147607,-0.1515812452147607,-0.1515812452147607,-0.1515812452147607,-0.1515812452147607,-0.1515812452147607,-0.1515812452147607,-0.1515812452147607,-0.1515812452147607,-0.1515812452147607,-0.1515812452147607,-0.1515812452147607,-0.1515812452147607,-0.1515812452147607,-0.14477852412632533,-0.14477852412632533,-0.14137716358210764,-0.14137716358210764,-0.14137716358210764,-0.14137716358210764,-0.14137716358210764,-0.14137716358210764,-0.14137716358210764,-0.14137716358210764,-0.14137716358210764,-0.14137716358210764,-0.14137716358210764,-0.14137716358210764,-0.14137716358210764,-0.14137716358210764,-0.14137716358210764,-0.14137716358210764,-0.14137716358210764,-0.14137716358210764,-0.14137716358210764,-0.14137716358210764,-0.13797580303788995,-0.13797580303788995,-0.13797580303788995,-0.13797580303788995,-0.13797580303788995,-0.13797580303788995,-0.13797580303788995,-0.13797580303788995,-0.13797580303788995,-0.13797580303788995,-0.13797580303788995,-0.13797580303788995,-0.13797580303788995,-0.13797580303788995,-0.13797580303788995,-0.13797580303788995,-0.13797580303788995,-0.13797580303788995,-0.13797580303788995,-0.13797580303788995,-0.13457444249367229,-0.13457444249367229,-0.13457444249367229,-0.13457444249367229,-0.13457444249367229,-0.13457444249367229,-0.13457444249367229,-0.13457444249367229,-0.13457444249367229,-0.13457444249367229,-0.1311730819494546,-0.1311730819494546,-0.1311730819494546,-0.1311730819494546,-0.1311730819494546,-0.1311730819494546,-0.1311730819494546,-0.1311730819494546,-0.1277717214052369,-0.1277717214052369,-0.1277717214052369,-0.1277717214052369,-0.1277717214052369,-0.1277717214052369,-0.1277717214052369,-0.1277717214052369,-0.1277717214052369,-0.1277717214052369,-0.1277717214052369,-0.1277717214052369,-0.1277717214052369,-0.1277717214052369,-0.1277717214052369,-0.1277717214052369,-0.1277717214052369,-0.1277717214052369,-0.1277717214052369,-0.1277717214052369,-0.1277717214052369,-0.1277717214052369,-0.1277717214052369,-0.1277717214052369,-0.1277717214052369,-0.1277717214052369,-0.1277717214052369,-0.1277717214052369,-0.1277717214052369,-0.1277717214052369,-0.1277717214052369,-0.1277717214052369,-0.1277717214052369,-0.1277717214052369,-0.1277717214052369,-0.1277717214052369,-0.1277717214052369,-0.1277717214052369,-0.1277717214052369,-0.1277717214052369,-0.1277717214052369,-0.1277717214052369,-0.1277717214052369,-0.1277717214052369,-0.1277717214052369,-0.1277717214052369,-0.1277717214052369,-0.1277717214052369,-0.1277717214052369,-0.1277717214052369,-0.1277717214052369,-0.1277717214052369,-0.1277717214052369,-0.1277717214052369,-0.1277717214052369,-0.1277717214052369,-0.1277717214052369,-0.1277717214052369,-0.1277717214052369,-0.1277717214052369,-0.1277717214052369,-0.1277717214052369,-0.1277717214052369,-0.1277717214052369,-0.1311730819494546,-0.1311730819494546,-0.1311730819494546,-0.1311730819494546,-0.1311730819494546,-0.1311730819494546,-0.1311730819494546,-0.1311730819494546,-0.1311730819494546,-0.1311730819494546,-0.1311730819494546,-0.13457444249367229,-0.13457444249367229,-0.13457444249367229,-0.13457444249367229,-0.13457444249367229,-0.13457444249367229,-0.13457444249367229,-0.13457444249367229,-0.13457444249367229,-0.13457444249367229,-0.13457444249367229,-0.13457444249367229,-0.13457444249367229,-0.13457444249367229,-0.13457444249367229,-0.13457444249367229,-0.13457444249367229,-0.13457444249367229,-0.13457444249367229,-0.13457444249367229,-0.13457444249367229,-0.13457444249367229,-0.13457444249367229,-0.13457444249367229,-0.13457444249367229,-0.1311730819494546,-0.1311730819494546,-0.1311730819494546,-0.1311730819494546,-0.1311730819494546,-0.1311730819494546,-0.1311730819494546,-0.1311730819494546,-0.1311730819494546,-0.1311730819494546,-0.1311730819494546,-0.1311730819494546,-0.13457444249367229,-0.1311730819494546,-0.1311730819494546,-0.1311730819494546,-0.1311730819494546,-0.1311730819494546,-0.1311730819494546,-0.1311730819494546,-0.1311730819494546,-0.1311730819494546,-0.1311730819494546,-0.1311730819494546,-0.1311730819494546,-0.1311730819494546,-0.1311730819494546,-0.1311730819494546,-0.1311730819494546,-0.1311730819494546,-0.1311730819494546,-0.1311730819494546,-0.1311730819494546,-0.1311730819494546,-0.1311730819494546,-0.1311730819494546,-0.1311730819494546,-0.1311730819494546,-0.1311730819494546,-0.1311730819494546,-0.1311730819494546,-0.1311730819494546,-0.1311730819494546,-0.1311730819494546,-0.1311730819494546,-0.1311730819494546,-0.1311730819494546,-0.1311730819494546,-0.11416627922836615,-0.09035675541884235,-0.09035675541884235,-0.05974451052088316,-0.0223295445344886,0.011684060907688271,0.011684060907688271,0.04229630580564745,0.04229630580564745,0.06270446907095358,0.07290855070360663,0.07971127179204202,0.09331671396891277,0.10011943505734813,0.10692215614578351,0.10692215614578351,0.11032351669000119,0.11372487723421888,0.11372487723421888,0.11372487723421888,0.11372487723421888,0.11372487723421888,0.11372487723421888,0.10692215614578351,0.10692215614578351,0.10692215614578351,0.10692215614578351,0.10692215614578351,0.10692215614578351,0.10692215614578351,0.10692215614578351,0.10692215614578351,0.10692215614578351,0.10692215614578351,0.10352079560156582,0.10352079560156582,0.10352079560156582,0.10352079560156582,0.10352079560156582,0.10352079560156582,0.10352079560156582,0.10352079560156582,0.10011943505734813,0.10011943505734813,0.10011943505734813,0.10011943505734813,0.10011943505734813,0.10011943505734813,0.10011943505734813,0.10011943505734813,0.10352079560156582,0.10352079560156582,0.10011943505734813,0.10011943505734813,0.10011943505734813,0.10011943505734813,0.10011943505734813,0.10011943505734813,0.10011943505734813,0.10011943505734813,0.10011943505734813,0.10011943505734813,0.10011943505734813,0.10011943505734813,0.10011943505734813,0.10011943505734813,0.09671807451313044,0.09671807451313044,0.09331671396891277,0.08991535342469507,0.08991535342469507,0.07971127179204202,0.07971127179204202,0.06950719015938896,0.052500387438300516,0.052500387438300516,0.025289503084559017,0.0014799792750352094,-0.025730905078706286,-0.04613906834401241,-0.04613906834401241,-0.06314587106510085,-0.08015267378618927,-0.09035675541884235,-0.09375811596306002,-0.09375811596306002,-0.09375811596306002,-0.09715947650727771,-0.1005608370514954,-0.1005608370514954,-0.1005608370514954,-0.1039621975957131,-0.1039621975957131,-0.1039621975957131,-0.1039621975957131,-0.10736355813993077,-0.10736355813993077,-0.11076491868414846,-0.11076491868414846,-0.11076491868414846,-0.11076491868414846,-0.11076491868414846,-0.11076491868414846,-0.11076491868414846,-0.11076491868414846,-0.11076491868414846,-0.10736355813993077,-0.10736355813993077,-0.10736355813993077,-0.10736355813993077,-0.1039621975957131,-0.1039621975957131,-0.1039621975957131,-0.1039621975957131,-0.1039621975957131,-0.1039621975957131,-0.1039621975957131,-0.1039621975957131,-0.1039621975957131,-0.1039621975957131,-0.1039621975957131,-0.1039621975957131,-0.1039621975957131,-0.1039621975957131,-0.10736355813993077,-0.10736355813993077,-0.10736355813993077,-0.1039621975957131,-0.10736355813993077,-0.10736355813993077,-0.10736355813993077,-0.1039621975957131,-0.1039621975957131,-0.1039621975957131,-0.1039621975957131,-0.1039621975957131,-0.1039621975957131,-0.1039621975957131,-0.1039621975957131,-0.1039621975957131,-0.1039621975957131,-0.1039621975957131,-0.1039621975957131,-0.1039621975957131,-0.1039621975957131,-0.1039621975957131,-0.1039621975957131,-0.1039621975957131,-0.1039621975957131,-0.1039621975957131,-0.1039621975957131,-0.10736355813993077,-0.10736355813993077,-0.10736355813993077,-0.10736355813993077,-0.1039621975957131,-0.1039621975957131,-0.1039621975957131,-0.1039621975957131,-0.1039621975957131,-0.1039621975957131,-0.1039621975957131,-0.1039621975957131,-0.1039621975957131,-0.1039621975957131,-0.1039621975957131,-0.1039621975957131,-0.1039621975957131,-0.1039621975957131,-0.1039621975957131,-0.1039621975957131,-0.1039621975957131,-0.1039621975957131,-0.1039621975957131,-0.1039621975957131,-0.1039621975957131,-0.1039621975957131,-0.1039621975957131,-0.1039621975957131,-0.1039621975957131,-0.1039621975957131,-0.1039621975957131,-0.1039621975957131,-0.1039621975957131,-0.1039621975957131,-0.1039621975957131,-0.1039621975957131,-0.1039621975957131,-0.1039621975957131,-0.1039621975957131,-0.1039621975957131,-0.1005608370514954,-0.1005608370514954,-0.1005608370514954,-0.1005608370514954,-0.1005608370514954,-0.1005608370514954,-0.1005608370514954,-0.1005608370514954,-0.1005608370514954,-0.1005608370514954,-0.1005608370514954,-0.1005608370514954,-0.1005608370514954,-0.1005608370514954,-0.1005608370514954,-0.1005608370514954,-0.1005608370514954,-0.1005608370514954,-0.1005608370514954,-0.1005608370514954,-0.1005608370514954,-0.1005608370514954,-0.1005608370514954,-0.1005608370514954,-0.1005608370514954,-0.1005608370514954,-0.1005608370514954,-0.1005608370514954,-0.1005608370514954,-0.1005608370514954,-0.1005608370514954,-0.1005608370514954,-0.1005608370514954,-0.1005608370514954,-0.1005608370514954,-0.1005608370514954,-0.1005608370514954,-0.1005608370514954,-0.1005608370514954,-0.1005608370514954,-0.1005608370514954,-0.1005608370514954,-0.1005608370514954,-0.1005608370514954,-0.1005608370514954,-0.1005608370514954,-0.1005608370514954,-0.1005608370514954,-0.1005608370514954,-0.1005608370514954,-0.1005608370514954,-0.1005608370514954,-0.1005608370514954,-0.1005608370514954,-0.1005608370514954,-0.1005608370514954,-0.1005608370514954,-0.1005608370514954,-0.1005608370514954,-0.1005608370514954,-0.1005608370514954,-0.1005608370514954,-0.1005608370514954,-0.1005608370514954,-0.1005608370514954,-0.1005608370514954,-0.1005608370514954,-0.1005608370514954,-0.1005608370514954,-0.1005608370514954,-0.1005608370514954,-0.1005608370514954,-0.1005608370514954,-0.1039621975957131,-0.1039621975957131,-0.1039621975957131,-0.1005608370514954,-0.1005608370514954,-0.1005608370514954,-0.1005608370514954,-0.1005608370514954,-0.1005608370514954,-0.1005608370514954,-0.1005608370514954,-0.1005608370514954,-0.1005608370514954,-0.1005608370514954,-0.1005608370514954,-0.1005608370514954,-0.1005608370514954,-0.1005608370514954,-0.1005608370514954,-0.1005608370514954,-0.1005608370514954,-0.1005608370514954,-0.1005608370514954,-0.1005608370514954,-0.1005608370514954,-0.1005608370514954,-0.1039621975957131,-0.1039621975957131,-0.1005608370514954,-0.1005608370514954,-0.1005608370514954,-0.1005608370514954,-0.1005608370514954,-0.1005608370514954,-0.1005608370514954,-0.1005608370514954,-0.1005608370514954,-0.1005608370514954,-0.1005608370514954,-0.1005608370514954,-0.1005608370514954,-0.1005608370514954,-0.1005608370514954,-0.1005608370514954,-0.1005608370514954,-0.1005608370514954,-0.1005608370514954,-0.1005608370514954,-0.1005608370514954,-0.1005608370514954,-0.1005608370514954,-0.1005608370514954,-0.1005608370514954,-0.1005608370514954,-0.1005608370514954,-0.1005608370514954,-0.1005608370514954,-0.1005608370514954,-0.1005608370514954,-0.1005608370514954,-0.1005608370514954,-0.1005608370514954,-0.1005608370514954,-0.1005608370514954,-0.1005608370514954,-0.1005608370514954,-0.1005608370514954,-0.1005608370514954,-0.1005608370514954,-0.1005608370514954,-0.1005608370514954,-0.1005608370514954,-0.1005608370514954,-0.1005608370514954,-0.1005608370514954,-0.1005608370514954,-0.1005608370514954,-0.1005608370514954,-0.1005608370514954,-0.1005608370514954,-0.1005608370514954,-0.1005608370514954,-0.1005608370514954,-0.1005608370514954,-0.1005608370514954,-0.1005608370514954,-0.1005608370514954,-0.1005608370514954,-0.1005608370514954,-0.1005608370514954,-0.1005608370514954,-0.1005608370514954,-0.1005608370514954,-0.1005608370514954,-0.1005608370514954,-0.1005608370514954,-0.1005608370514954,-0.1005608370514954,-0.1005608370514954,-0.1005608370514954,-0.1005608370514954,-0.1005608370514954,-0.1005608370514954,-0.1005608370514954,-0.1005608370514954,-0.1005608370514954,-0.09715947650727771,-0.09715947650727771,-0.09715947650727771,-0.09715947650727771,-0.09715947650727771,-0.09715947650727771,-0.1005608370514954,-0.1005608370514954,-0.1005608370514954,-0.1005608370514954,-0.1005608370514954,-0.1005608370514954,-0.1005608370514954,-0.1005608370514954,-0.09715947650727771,-0.09715947650727771,-0.09715947650727771,-0.09715947650727771,-0.09715947650727771,-0.1005608370514954,-0.1005608370514954,-0.1005608370514954,-0.1005608370514954,-0.1005608370514954,-0.1005608370514954,-0.1005608370514954,-0.1005608370514954,-0.1005608370514954,-0.1005608370514954,-0.1005608370514954,-0.1005608370514954,-0.1005608370514954,-0.1005608370514954,-0.1005608370514954,-0.1005608370514954,-0.1005608370514954,-0.1005608370514954,-0.1005608370514954,-0.1005608370514954,-0.1005608370514954,-0.1005608370514954,-0.1005608370514954,-0.1005608370514954,-0.1005608370514954,-0.1005608370514954,-0.1005608370514954,-0.1005608370514954,-0.1005608370514954,-0.1005608370514954,-0.1005608370514954,-0.1005608370514954,-0.1005608370514954,-0.1005608370514954,-0.1005608370514954,-0.1005608370514954,-0.1005608370514954,-0.1005608370514954,-0.1005608370514954,-0.1005608370514954,-0.1005608370514954,-0.1005608370514954,-0.1005608370514954,-0.1005608370514954,-0.1005608370514954,-0.1005608370514954,-0.1005608370514954,-0.1005608370514954,-0.1005608370514954,-0.1005608370514954,-0.1005608370514954,-0.1005608370514954,-0.1005608370514954,-0.1005608370514954,-0.1005608370514954,-0.1005608370514954,-0.1005608370514954,-0.1005608370514954,-0.1005608370514954,-0.1005608370514954,-0.1005608370514954,-0.1005608370514954,-0.1005608370514954,-0.1005608370514954,-0.1005608370514954,-0.1005608370514954,-0.1005608370514954,-0.1005608370514954,-0.1005608370514954,-0.1005608370514954,-0.1005608370514954,-0.1005608370514954,-0.1005608370514954,-0.1005608370514954,-0.1005608370514954,-0.1005608370514954,-0.1005608370514954,-0.1005608370514954,-0.1005608370514954,-0.1005608370514954,-0.1005608370514954,-0.1005608370514954,-0.1005608370514954,-0.1005608370514954,-0.1005608370514954,-0.1005608370514954,-0.1005608370514954,-0.1005608370514954,-0.1005608370514954,-0.1005608370514954,-0.1005608370514954,-0.1005608370514954,-0.1005608370514954,-0.1005608370514954,-0.1005608370514954,-0.1005608370514954,-0.1005608370514954,-0.1005608370514954,-0.1005608370514954,-0.1005608370514954,-0.1005608370514954,-0.11076491868414846,-0.11416627922836615,-0.11416627922836615,-0.11756763977258383,-0.12096900031680152,-0.1277717214052369,-0.1277717214052369,-0.13457444249367229,-0.13797580303788995,-0.14817988467054302,-0.14817988467054302,-0.1515812452147607,-0.16518668739163145,-0.1787921295685022,-0.19579893228959064,-0.19579893228959064,-0.20260165337802602,-0.21280573501067906,-0.22981253773176752,-0.22981253773176752,-0.24341797990863825,-0.2502207009970736,-0.257023422085509,-0.26382614317394437,-0.26382614317394437,-0.27062886426237975,-0.27062886426237975,-0.2604247826297267,-0.2604247826297267,-0.24001661936442056,-0.21280573501067906,-0.21280573501067906,-0.16858804793584914,-0.12437036086101921,-0.0733499526977539,-0.029132265622923974,-0.029132265622923974,0.021888142540341333,0.09671807451313044,0.1613439248532665,0.22256841464918486,0.22256841464918486,0.27699018335666786,0.307602428254627,0.33141195206415086,0.33141195206415086,0.3450173942410216,0.35182011532945695,0.35522147587367464,0.35522147587367464,0.35522147587367464,0.35522147587367464,0.35522147587367464,0.35522147587367464,0.35522147587367464,0.35522147587367464,0.35522147587367464,0.35522147587367464,0.33141195206415086,0.33141195206415086,0.33141195206415086,0.33141195206415086,0.33141195206415086,0.33141195206415086,0.33481331260836855,0.33481331260836855,0.33481331260836855,0.33481331260836855,0.33481331260836855,0.33481331260836855,0.33481331260836855,0.33481331260836855,0.38923508131585155,0.39603780240428693,0.40284052349272226,0.40284052349272226,0.40284052349272226,0.40284052349272226,0.40284052349272226,0.40284052349272226,0.3994391629485046,0.3994391629485046,0.3994391629485046,0.3994391629485046,0.3994391629485046,0.3994391629485046,0.3994391629485046,0.3994391629485046,0.3994391629485046,0.3994391629485046,0.3994391629485046,0.3994391629485046,0.39263644186006924,0.39263644186006924,0.39263644186006924,0.39263644186006924,0.39263644186006924,0.39263644186006924,0.39263644186006924,0.39263644186006924,0.39263644186006924,0.39263644186006924,0.39263644186006924,0.39263644186006924,0.38923508131585155,0.39263644186006924,0.39263644186006924,0.39263644186006924,0.38923508131585155,0.38923508131585155,0.38583372077163386,0.38583372077163386,0.38583372077163386,0.38583372077163386,0.38583372077163386,0.38583372077163386,0.38583372077163386,0.38583372077163386,0.38583372077163386,0.38583372077163386,0.38583372077163386,0.38583372077163386,0.38583372077163386,0.38583372077163386,0.38583372077163386,0.38583372077163386,0.38583372077163386,0.38243236022741617,0.38243236022741617,0.3790309996831985,0.3790309996831985,0.3722282785947631,0.35522147587367464,0.35522147587367464,0.33481331260836855,0.3110037887988447,0.28039154390088555,0.28039154390088555,0.253180659547144,0.21916705410496717,0.18175208811857263,0.15113984322061344,0.15113984322061344,0.12052759832265425,0.09671807451313044,0.07630991124782432,0.07630991124782432,0.06270446907095358,0.04569766634986514,0.028690863628776705,0.028690863628776705,0.021888142540341333,0.018486781996123646,0.008282700363470584,0.008282700363470584,0.008282700363470584,0.004881339819252897,0.008282700363470584,0.008282700363470584,0.008282700363470584,0.004881339819252897,0.004881339819252897,-0.005322741813400165,-0.005322741813400165,-0.01892818399027091,-0.03593498671135935,-0.05294178943244778,-0.05294178943244778,-0.06994859215353622,-0.09035675541884235,-0.1039621975957131,-0.10736355813993077,-0.10736355813993077,-0.11756763977258383,-0.11756763977258383,-0.11756763977258383,-0.11756763977258383,-0.11756763977258383,-0.11756763977258383,-0.11416627922836615,-0.11076491868414846,-0.11076491868414846,-0.11076491868414846,-0.1039621975957131,-0.1039621975957131,-0.1039621975957131,-0.1005608370514954,-0.1005608370514954,-0.1005608370514954,-0.1005608370514954,-0.1005608370514954,-0.1005608370514954,-0.1005608370514954,-0.1005608370514954,-0.1005608370514954,-0.1005608370514954,-0.1005608370514954,-0.1005608370514954,-0.1005608370514954,-0.1005608370514954,-0.1005608370514954,-0.1005608370514954,-0.09715947650727771,-0.09715947650727771,-0.09715947650727771,-0.09715947650727771,-0.09715947650727771,-0.09715947650727771,-0.09375811596306002,-0.09375811596306002,-0.09375811596306002,-0.09375811596306002,-0.09035675541884235,-0.09035675541884235,-0.08695539487462466,-0.08695539487462466,-0.08355403433040696,-0.08355403433040696,-0.08355403433040696,-0.08355403433040696,-0.08355403433040696,-0.08355403433040696,-0.08355403433040696,-0.08355403433040696,-0.08355403433040696,-0.08355403433040696,-0.08355403433040696,-0.08355403433040696,-0.08355403433040696,-0.08355403433040696,-0.08355403433040696,-0.08355403433040696,-0.08355403433040696,-0.08355403433040696,-0.08355403433040696,-0.08355403433040696,-0.08355403433040696,-0.08355403433040696,-0.08355403433040696,-0.08355403433040696,-0.08015267378618927,-0.08015267378618927,-0.08015267378618927,-0.0767513132419716,-0.0767513132419716,-0.0767513132419716,-0.0767513132419716,-0.0767513132419716,-0.0767513132419716,-0.0767513132419716,-0.0767513132419716,-0.0767513132419716,-0.0767513132419716,-0.0767513132419716,-0.0767513132419716,-0.0767513132419716,-0.0767513132419716,-0.0767513132419716,-0.0767513132419716,-0.0767513132419716,-0.0767513132419716,-0.0767513132419716,-0.0767513132419716,-0.0767513132419716,-0.0767513132419716,-0.0767513132419716,-0.0767513132419716,-0.0767513132419716,-0.0767513132419716,-0.0767513132419716,-0.0767513132419716,-0.0767513132419716,-0.0733499526977539,-0.0733499526977539,-0.0767513132419716,-0.0767513132419716,-0.0767513132419716,-0.0767513132419716,-0.0767513132419716,-0.0767513132419716,-0.0767513132419716,-0.0733499526977539,-0.06994859215353622,-0.05974451052088316,-0.05974451052088316,-0.04273770779979472,-0.0223295445344886,-0.0223295445344886,0.03889494526142977,0.03889494526142977,0.06610582961517127,0.09331671396891277,0.11712623777843657,0.11712623777843657,0.134133040499525,0.15454120376483113,0.15454120376483113,0.18175208811857263,0.18175208811857263,0.19535753029544337,0.20896297247231413,0.20896297247231413,0.22256841464918486,0.22937113573762025,0.24297657791449098,0.253180659547144,0.253180659547144,0.2599833806355794,0.27358882281245017,0.27358882281245017,0.27699018335666786,0.27699018335666786,0.28039154390088555,0.28039154390088555,0.28039154390088555,0.28039154390088555,0.28039154390088555,0.28039154390088555,0.28039154390088555,0.28039154390088555,0.28039154390088555,0.28039154390088555,0.27358882281245017,0.27358882281245017,0.27358882281245017,0.27358882281245017,0.2701874622682325,0.2701874622682325,0.2701874622682325,0.2667861017240148,0.2633847411797971,0.253180659547144,0.253180659547144,0.23277249628183794,0.21576569356074948,0.19535753029544337,0.17494936703013725,0.17494936703013725,0.14433712213217806,0.12392895886687194,0.12392895886687194,0.10352079560156582,0.08651399288047738,0.07290855070360663,0.049099026894082826,0.049099026894082826,0.04229630580564745,0.03889494526142977,0.03549358471721208,0.03549358471721208,0.03889494526142977,0.04229630580564745,0.052500387438300516,0.05930310852673589,0.05930310852673589,0.07630991124782432,0.08311263233625969,0.09671807451313044,0.11372487723421888,0.11372487723421888,0.12392895886687194,0.14093576158796037,0.15113984322061344,0.15113984322061344,0.15794256430904882,0.16814664594170187,0.16814664594170187,0.16814664594170187,0.17154800648591956,0.17494936703013725,0.17154800648591956,0.16814664594170187,0.16814664594170187,0.16814664594170187,0.16474528539748418,0.16474528539748418,0.15794256430904882,0.15794256430904882,0.15794256430904882,0.15794256430904882,0.15794256430904882,0.15794256430904882,0.15794256430904882,0.15794256430904882,0.15794256430904882,0.15794256430904882,0.15794256430904882,0.15794256430904882,0.15794256430904882,0.15794256430904882,0.1613439248532665,0.1613439248532665,0.1613439248532665,0.16474528539748418,0.16474528539748418,0.16474528539748418,0.16474528539748418,0.16474528539748418,0.16474528539748418,0.16474528539748418,0.15794256430904882,0.15794256430904882,0.16474528539748418,0.16474528539748418,0.1613439248532665,0.1613439248532665,0.1613439248532665,0.1613439248532665,0.1613439248532665,0.1613439248532665,0.1613439248532665,0.1613439248532665,0.1613439248532665,0.1613439248532665,0.1613439248532665,0.1613439248532665,0.1613439248532665,0.1613439248532665,0.1613439248532665,0.1613439248532665,0.1613439248532665,0.1613439248532665,0.15794256430904882,0.15794256430904882,0.15794256430904882,0.15794256430904882,0.15794256430904882,0.15794256430904882,0.15113984322061344,0.15113984322061344,0.15113984322061344,0.15113984322061344,0.15113984322061344,0.15113984322061344,0.15113984322061344,0.15113984322061344,0.15113984322061344,0.15113984322061344,0.15113984322061344,0.15113984322061344,0.15113984322061344,0.15113984322061344,0.14773848267639575,0.14773848267639575,0.134133040499525,0.134133040499525,0.11372487723421888,0.08651399288047738,0.04569766634986514,0.04569766634986514,-0.012125462901835539,-0.06314587106510085,-0.12437036086101921,-0.14817988467054302,-0.14817988467054302,-0.16518668739163145,-0.16858804793584914,-0.17198940848006683,-0.17198940848006683,-0.17198940848006683,-0.17198940848006683,-0.16858804793584914,-0.16518668739163145,-0.16518668739163145,-0.16178532684741376,-0.1583839663031961,-0.1583839663031961,-0.1583839663031961,-0.1549826057589784,-0.1549826057589784,-0.1549826057589784,-0.1549826057589784,-0.1549826057589784,-0.1549826057589784,-0.1549826057589784,-0.1583839663031961,-0.1583839663031961,-0.1583839663031961,-0.1583839663031961,-0.1583839663031961,-0.1583839663031961,-0.1583839663031961,-0.1583839663031961,-0.1583839663031961,-0.1549826057589784,-0.1515812452147607,-0.1515812452147607,-0.1515812452147607,-0.14817988467054302,-0.14817988467054302,-0.14817988467054302,-0.14477852412632533,-0.14137716358210764,-0.14137716358210764,-0.14137716358210764,-0.14137716358210764,-0.14137716358210764,-0.14137716358210764,-0.14137716358210764,-0.14137716358210764,-0.14477852412632533,-0.14477852412632533,-0.14477852412632533,-0.14477852412632533,-0.14477852412632533,-0.14477852412632533,-0.14477852412632533,-0.14137716358210764,-0.1277717214052369,-0.1277717214052369,-0.08695539487462466,-0.08695539487462466,-0.05294178943244778,-0.0223295445344886,0.0014799792750352094,0.0014799792750352094,0.004881339819252897,0.015085421451905957,0.015085421451905957,0.015085421451905957,0.015085421451905957,0.015085421451905957,0.015085421451905957,0.008282700363470584,0.008282700363470584,0.008282700363470584,0.008282700363470584,0.008282700363470584,0.008282700363470584,0.008282700363470584,0.008282700363470584,0.008282700363470584,0.008282700363470584,0.008282700363470584,0.008282700363470584,0.008282700363470584,0.008282700363470584,0.008282700363470584,0.008282700363470584,0.008282700363470584,0.008282700363470584,0.008282700363470584,0.008282700363470584,0.008282700363470584,0.008282700363470584,0.008282700363470584,0.008282700363470584,0.008282700363470584,0.008282700363470584,0.008282700363470584,0.008282700363470584,0.008282700363470584,0.008282700363470584,0.008282700363470584,0.008282700363470584,0.008282700363470584,0.008282700363470584,0.004881339819252897,0.008282700363470584,0.0014799792750352094,0.0014799792750352094,-0.0019213812691824777,-0.005322741813400165,-0.005322741813400165,-0.012125462901835539,-0.0223295445344886,-0.025730905078706286,-0.025730905078706286,-0.03593498671135935,-0.04273770779979472,-0.05294178943244778,-0.06314587106510085,-0.06314587106510085,-0.06994859215353622,-0.0767513132419716,-0.08015267378618927,-0.08015267378618927,-0.09375811596306002,-0.09715947650727771,-0.1039621975957131,-0.1039621975957131,-0.11076491868414846,-0.11076491868414846,-0.11756763977258383,-0.11756763977258383,-0.11756763977258383,-0.11756763977258383,-0.11756763977258383,-0.11756763977258383,-0.11756763977258383,-0.11756763977258383,-0.11756763977258383,-0.11756763977258383,-0.11416627922836615,-0.11416627922836615,-0.11416627922836615,-0.11416627922836615,-0.11416627922836615,-0.11416627922836615,-0.11416627922836615,-0.11076491868414846,-0.11076491868414846,-0.11076491868414846,-0.10736355813993077,-0.10736355813993077,-0.10736355813993077,-0.10736355813993077,-0.10736355813993077,-0.10736355813993077,-0.10736355813993077,-0.10736355813993077,-0.10736355813993077,-0.10736355813993077,-0.10736355813993077,-0.10736355813993077,-0.10736355813993077,-0.10736355813993077,-0.1039621975957131,-0.1039621975957131,-0.1039621975957131,-0.1039621975957131,-0.10736355813993077,-0.1039621975957131,-0.1039621975957131,-0.1039621975957131,-0.1005608370514954,-0.1005608370514954,-0.1005608370514954,-0.1005608370514954,-0.1005608370514954,-0.1005608370514954,-0.1005608370514954,-0.1005608370514954,-0.1005608370514954,-0.1005608370514954,-0.1005608370514954,-0.1005608370514954,-0.1005608370514954,-0.1005608370514954,-0.1005608370514954,-0.1005608370514954,-0.1005608370514954,-0.1005608370514954,-0.1005608370514954,-0.1005608370514954,-0.1005608370514954,-0.1005608370514954,-0.1005608370514954,-0.1005608370514954,-0.1005608370514954,-0.09715947650727771,-0.09715947650727771,-0.09715947650727771,-0.09715947650727771,-0.09715947650727771,-0.09715947650727771,-0.09715947650727771,-0.09715947650727771,-0.09715947650727771,-0.09375811596306002,-0.09715947650727771,-0.09715947650727771,-0.09715947650727771,-0.09375811596306002,-0.09375811596306002,-0.09375811596306002,-0.09375811596306002,-0.09375811596306002,-0.09375811596306002,-0.09375811596306002,-0.09375811596306002,-0.09375811596306002,-0.09375811596306002,-0.09035675541884235,-0.09035675541884235,-0.09035675541884235,-0.09035675541884235,-0.09035675541884235,-0.09035675541884235,-0.09035675541884235,-0.09035675541884235,-0.09035675541884235,-0.09035675541884235,-0.08695539487462466,-0.08695539487462466,-0.08695539487462466,-0.08695539487462466,-0.08695539487462466,-0.08695539487462466,-0.08695539487462466,-0.08695539487462466,-0.08695539487462466,-0.08355403433040696,-0.08355403433040696,-0.08355403433040696,-0.08355403433040696,-0.08355403433040696,-0.08355403433040696,-0.08355403433040696,-0.08015267378618927,-0.08015267378618927,-0.08015267378618927,-0.08015267378618927,-0.08015267378618927,-0.08015267378618927,-0.08015267378618927,-0.08015267378618927,-0.08015267378618927,-0.08015267378618927,-0.08015267378618927,-0.08015267378618927,-0.08015267378618927,-0.08015267378618927,-0.08015267378618927,-0.08015267378618927,-0.08015267378618927,-0.08015267378618927,-0.08015267378618927,-0.08015267378618927,-0.08355403433040696,-0.08355403433040696,-0.08695539487462466,-0.08695539487462466,-0.09035675541884235,-0.09375811596306002,-0.09375811596306002,-0.09375811596306002,-0.09375811596306002,-0.09375811596306002,-0.12437036086101921,-0.1311730819494546,-0.1311730819494546,-0.14477852412632533,-0.1515812452147607,-0.16518668739163145,-0.16518668739163145,-0.17539076902428452,-0.1787921295685022,-0.19239757174537295,-0.20260165337802602,-0.20260165337802602,-0.2094043744664614,-0.21960845609911445,-0.22300981664333214,-0.22300981664333214,-0.22300981664333214,-0.22300981664333214,-0.21960845609911445,-0.21960845609911445,-0.21620709555489676,-0.19239757174537295,-0.13457444249367229,-0.13457444249367229,-0.015526823446053226,0.11032351669000119,0.27699018335666786,0.44365685002333455,0.44365685002333455,0.5967180745131304,0.7157656935607495,0.807602428254627,0.807602428254627,0.8450173942410216,0.8654255575063278,0.8790309996831984,0.8824323602274161,0.8824323602274161,0.8858337207716338,0.8858337207716338,0.8858337207716338,0.8858337207716338,0.8756296391389808,0.8586228364178924,0.8416160336968039,0.8416160336968039,0.8178065098872801,0.8007997071661916,0.7837929044451032,0.7837929044451032,0.7633847411797972,0.7599833806355795,0.7599833806355795,0.7599833806355795,0.7599833806355795,0.7565820200913618,0.7599833806355795,0.7599833806355795,0.7599833806355795,0.7599833806355795,0.7565820200913618,0.7565820200913618,0.7531806595471441,0.7531806595471441,0.7497792990029264,0.7395752173702733,0.7259697751934026,0.7259697751934026,0.7089629724723141,0.6851534486627903,0.6647452853974842,0.6511398432206135,0.6511398432206135,0.6409357615879604,0.6409357615879604,0.6409357615879604,0.6409357615879604,0.6409357615879604,0.6409357615879604,0.6409357615879604,0.6409357615879604,0.6409357615879604,0.6409357615879604,0.6409357615879604,0.6375344010437427,0.6375344010437427,0.634133040499525,0.6273303194110896,0.6273303194110896,0.6205275983226543,0.6171262377784366,0.6171262377784366,0.6103235166900012,0.6035207956015658,0.6035207956015658,0.6035207956015658,0.6035207956015658,0.6001194350573481,0.6001194350573481,0.5967180745131304,0.5967180745131304,0.5967180745131304,0.5967180745131304,0.5967180745131304,0.5967180745131304,0.5967180745131304,0.5967180745131304,0.5967180745131304,0.5967180745131304,0.5967180745131304,0.5967180745131304,0.6001194350573481,0.6001194350573481,0.6001194350573481,0.6001194350573481,0.5967180745131304,0.5967180745131304,0.5967180745131304,0.5933167139689127,0.5933167139689127,0.5933167139689127,0.589915353424695,0.589915353424695,0.589915353424695,0.589915353424695,0.589915353424695,0.589915353424695,0.589915353424695,0.5933167139689127,0.5967180745131304,0.5967180745131304,0.5967180745131304,0.5967180745131304,0.5933167139689127,0.5933167139689127,0.5967180745131304,0.5967180745131304,0.5933167139689127,0.589915353424695,0.5865139928804773,0.5865139928804773,0.5865139928804773,0.5865139928804773,0.579711271792042,0.579711271792042,0.579711271792042,0.579711271792042,0.579711271792042,0.579711271792042,0.579711271792042,0.579711271792042,0.579711271792042,0.5865139928804773,0.5865139928804773,0.5865139928804773,0.5865139928804773,0.5933167139689127,0.6001194350573481,0.6001194350573481,0.6001194350573481,0.6001194350573481,0.6001194350573481,0.6001194350573481,0.6001194350573481,0.6001194350573481,0.6001194350573481,0.6001194350573481,0.6001194350573481,0.6001194350573481,0.5967180745131304,0.5967180745131304,0.5967180745131304,0.5967180745131304,0.5967180745131304,0.5967180745131304,0.5967180745131304,0.5967180745131304,0.6001194350573481,0.6035207956015658,0.6035207956015658,0.6035207956015658,0.6035207956015658,0.6035207956015658,0.6035207956015658,0.6035207956015658,0.6035207956015658,0.6035207956015658,0.6035207956015658,0.6035207956015658,0.6035207956015658,0.6035207956015658,0.6001194350573481,0.6001194350573481,0.6001194350573481,0.6001194350573481,0.6001194350573481,0.6001194350573481,0.6001194350573481,0.6035207956015658,0.6035207956015658,0.6001194350573481,0.6001194350573481,0.6001194350573481,0.6001194350573481,0.6001194350573481,0.6001194350573481,0.6001194350573481,0.6001194350573481,0.6001194350573481,0.6001194350573481,0.6001194350573481,0.6001194350573481,0.6001194350573481,0.6001194350573481,0.6001194350573481,0.6001194350573481,0.6001194350573481,0.6001194350573481,0.6001194350573481,0.6001194350573481,0.6001194350573481,0.6035207956015658,0.6035207956015658,0.6035207956015658,0.6035207956015658,0.6035207956015658,0.6035207956015658,0.6035207956015658,0.6035207956015658,0.6035207956015658,0.6035207956015658,0.6035207956015658,0.6035207956015658,0.6001194350573481,0.6001194350573481,0.6001194350573481,0.6001194350573481,0.6001194350573481,0.6001194350573481,0.6001194350573481,0.6001194350573481,0.6001194350573481,0.6001194350573481,0.6001194350573481,0.6001194350573481,0.5967180745131304,0.5967180745131304,0.5967180745131304,0.5967180745131304,0.5967180745131304,0.5967180745131304,0.5967180745131304,0.5967180745131304,0.5967180745131304,0.5967180745131304,0.5967180745131304,0.5967180745131304,0.5967180745131304,0.5967180745131304,0.5967180745131304,0.5967180745131304,0.5967180745131304,0.5967180745131304,0.5967180745131304,0.5967180745131304,0.5967180745131304,0.5967180745131304,0.5967180745131304,0.5967180745131304,0.5967180745131304,0.5967180745131304,0.5967180745131304,0.5967180745131304,0.5967180745131304,0.5967180745131304,0.5967180745131304,0.5967180745131304,0.5967180745131304,0.5967180745131304,0.5967180745131304,0.5967180745131304,0.5967180745131304,0.5967180745131304,0.5967180745131304,0.5967180745131304,0.5967180745131304,0.5967180745131304,0.5967180745131304,0.5967180745131304,0.5967180745131304,0.5967180745131304,0.5967180745131304,0.5967180745131304,0.5967180745131304,0.5967180745131304,0.5967180745131304,0.5967180745131304,0.5967180745131304,0.5967180745131304,0.5967180745131304,0.5967180745131304,0.5967180745131304,0.5967180745131304,0.5967180745131304,0.5967180745131304,0.5967180745131304,0.5967180745131304,0.5967180745131304,0.5967180745131304,0.5967180745131304,0.5967180745131304,0.5967180745131304,0.5967180745131304,0.5967180745131304,0.5967180745131304,0.5967180745131304,0.5967180745131304,0.5967180745131304,0.5967180745131304,0.5967180745131304,0.5967180745131304,0.5967180745131304,0.5967180745131304,0.5967180745131304,0.5967180745131304,0.5967180745131304,0.5967180745131304,0.5967180745131304,0.5967180745131304,0.5967180745131304,0.5967180745131304,0.5967180745131304,0.5967180745131304,0.5967180745131304,0.5967180745131304,0.5967180745131304,0.5967180745131304,0.5967180745131304,0.5967180745131304,0.5967180745131304,0.5967180745131304,0.5967180745131304,0.5933167139689127,0.5933167139689127,0.5933167139689127,0.5933167139689127,0.5933167139689127,0.5933167139689127,0.5933167139689127,0.5933167139689127,0.5933167139689127,0.5933167139689127,0.5933167139689127,0.5933167139689127,0.5933167139689127,0.5933167139689127,0.5933167139689127,0.5933167139689127,0.5933167139689127,0.5933167139689127,0.5933167139689127,0.5933167139689127,0.589915353424695,0.589915353424695,0.589915353424695,0.589915353424695,0.589915353424695,0.589915353424695,0.589915353424695,0.589915353424695,0.589915353424695,0.589915353424695,0.589915353424695,0.589915353424695,0.589915353424695,0.589915353424695,0.589915353424695,0.589915353424695,0.589915353424695,0.589915353424695,0.589915353424695,0.589915353424695,0.589915353424695,0.589915353424695,0.5933167139689127,0.5933167139689127,0.5933167139689127,0.5933167139689127,0.5933167139689127,0.5933167139689127,0.5933167139689127,0.5967180745131304,0.5967180745131304,0.5967180745131304,0.5967180745131304,0.5967180745131304,0.5967180745131304,0.5967180745131304,0.5967180745131304,0.5967180745131304,0.5967180745131304,0.5967180745131304,0.5967180745131304,0.5967180745131304,0.5967180745131304,0.5967180745131304,0.5967180745131304,0.5967180745131304,0.5967180745131304,0.5967180745131304,0.5967180745131304,0.5967180745131304,0.5967180745131304,0.5967180745131304,0.5967180745131304,0.5967180745131304,0.5967180745131304,0.5967180745131304,0.5967180745131304,0.5967180745131304,0.5967180745131304,0.5967180745131304,0.5967180745131304,0.5967180745131304,0.5967180745131304,0.5967180745131304,0.5967180745131304,0.5967180745131304,0.5967180745131304,0.5967180745131304,0.5967180745131304,0.5967180745131304,0.5967180745131304,0.5967180745131304,0.5967180745131304,0.5967180745131304,0.5967180745131304,0.5967180745131304,0.5967180745131304,0.5967180745131304,0.5967180745131304,0.5967180745131304,0.5967180745131304,0.5967180745131304,0.5933167139689127,0.5933167139689127,0.5933167139689127,0.5933167139689127,0.5933167139689127,0.5933167139689127,0.5933167139689127,0.5933167139689127,0.5933167139689127,0.5933167139689127,0.5933167139689127,0.5933167139689127,0.5933167139689127,0.5933167139689127,0.5933167139689127,0.5933167139689127,0.5933167139689127,0.5933167139689127,0.5933167139689127,0.5933167139689127,0.5933167139689127,0.5933167139689127,0.5933167139689127,0.5933167139689127,0.5933167139689127,0.5933167139689127,0.5933167139689127,0.5933167139689127,0.5933167139689127,0.5933167139689127,0.5933167139689127,0.5933167139689127,0.5933167139689127,0.5933167139689127,0.5933167139689127,0.5933167139689127,0.5933167139689127,0.5933167139689127,0.5933167139689127,0.5933167139689127,0.5933167139689127,0.5933167139689127,0.5933167139689127,0.5933167139689127,0.5933167139689127,0.5933167139689127,0.5933167139689127,0.5967180745131304,0.5967180745131304,0.6001194350573481,0.6001194350573481,0.6069221561457835,0.6171262377784366,0.6409357615879604,0.6409357615879604,0.6817520881185726,0.7361738568260556,0.7871942649893209,0.7871942649893209,0.8416160336968039,0.8790309996831984,0.916445965669593,0.9402554894791169,0.9402554894791169,0.9572622922002053,0.9674663738328584,0.9742690949212938,0.9742690949212938,0.981071816009729,0.981071816009729,0.981071816009729,0.9844731765539467,0.9844731765539467,0.9844731765539467,0.9844731765539467,0.9844731765539467,0.9844731765539467,0.9844731765539467,0.981071816009729,0.981071816009729,0.981071816009729,0.981071816009729,0.981071816009729,0.981071816009729,0.981071816009729,0.981071816009729,0.981071816009729,0.981071816009729,0.9844731765539467,0.9844731765539467,0.9844731765539467,0.9878745370981644,0.9912758976423821,0.9912758976423821,0.9912758976423821,0.9912758976423821,0.9912758976423821,0.9912758976423821,0.9912758976423821,0.9878745370981644,0.9878745370981644,0.981071816009729,0.981071816009729,0.981071816009729,0.9776704554655113,0.9776704554655113,0.981071816009729,0.981071816009729,0.981071816009729,0.981071816009729,0.981071816009729,0.981071816009729,0.981071816009729,0.981071816009729,0.981071816009729,0.981071816009729,0.981071816009729,0.981071816009729,0.981071816009729,0.981071816009729,0.981071816009729,0.9776704554655113,0.9776704554655113,0.9776704554655113,0.9742690949212938,0.9708677343770761,0.960663652744423,0.960663652744423,0.9504595711117699,0.9334527683906815,0.9130446051253753,0.8892350813158515,0.8552214758736747,0.8552214758736747,0.7905956255335386,0.7327724962818379,0.7327724962818379,0.6851534486627903,0.6375344010437427,0.5865139928804773,0.5865139928804773,0.5525003874383005,0.5525003874383005,0.5320922241729944,0.525289503084559,0.5048813398192529,0.5048813398192529,0.49467725818659986,0.4878745370981645,0.4878745370981645,0.470867734377076,0.46066365274442295,0.45386093165598757,0.44365685002333455,0.44365685002333455,0.44365685002333455,0.44365685002333455,0.43685412893489917,0.4300514078464638,0.4300514078464638,0.4300514078464638,0.4300514078464638,0.4300514078464638,0.4300514078464638,0.4300514078464638,0.4300514078464638,0.4300514078464638,0.4300514078464638,0.4300514078464638,0.4300514078464638,0.4232486867580284,0.4232486867580284,0.41304460512537533,0.40284052349272226,0.39603780240428693,0.39603780240428693,0.3722282785947631,0.3722282785947631,0.35522147587367464,0.3450173942410216,0.3450173942410216,0.3450173942410216,0.3450173942410216,0.3484187547852393,0.3484187547852393,0.3654255575063277,0.40624188403693995,0.45386093165598757,0.45386093165598757,0.49807861873081755,0.5490990268940829,0.5831126323362597,0.5831126323362597,0.6137248772342189,0.634133040499525,0.6443371221321781,0.6477384826763958,0.6477384826763958,0.6477384826763958,0.6477384826763958,0.6477384826763958,0.6477384826763958,0.6477384826763958,0.6477384826763958,0.6545412037648312,0.6613439248532665,0.6613439248532665,0.6681466459417019,0.6783507275743549,0.688554809207008,0.688554809207008,0.7157656935607495,0.7157656935607495,0.7361738568260556,0.7565820200913618,0.7565820200913618,0.7701874622682325,0.7905956255335386,0.807602428254627,0.807602428254627,0.8280105915199332,0.8484187547852393,0.8722282785947632,0.8960378024042869,0.8960378024042869,0.9232486867580284,0.9504595711117699,0.9674663738328584,0.9674663738328584,0.9844731765539467,0.9980786187308175,1.0082827003634707,1.0082827003634707,1.0082827003634707,1.0082827003634707,1.0082827003634707,1.0014799792750353,0.9980786187308175,0.9878745370981644,0.9776704554655113,0.9776704554655113,0.9572622922002053,0.9368541289348992,0.916445965669593,0.916445965669593,0.8892350813158515,0.8654255575063278,0.851820115329457,0.851820115329457,0.8348133126083686,0.8212078704314978,0.8042010677104093,0.8042010677104093,0.8007997071661916,0.7871942649893209,0.7769901833566678,0.7633847411797972,0.7633847411797972,0.7565820200913618,0.7395752173702733,0.7259697751934026,0.7191670541049672,0.7191670541049672,0.7089629724723141,0.7021602513838787,0.698758890839661,0.698758890839661,0.698758890839661,0.7089629724723141,0.7395752173702733,0.7395752173702733,0.807602428254627,0.9028405234927223,1.0116840609076883,1.0116840609076883,1.1035207956015658,1.1613439248532664,1.2055616119280965,1.2225684146491849,1.2225684146491849,1.2327724962818378,1.2463779384587086,1.2463779384587086,1.2463779384587086,1.2463779384587086,1.2463779384587086,1.2463779384587086,1.2463779384587086,1.2463779384587086,1.2463779384587086,1.2361738568260556,1.2293711357376202,1.2293711357376202,1.2157656935607495,1.1987588908396611,1.188554809207008,1.188554809207008,1.1749493670301372,1.1613439248532664,1.1579425643090488,1.1477384826763957,1.1477384826763957,1.144337122132178,1.144337122132178,1.1409357615879603,1.1409357615879603,1.1409357615879603,1.1409357615879603,1.1409357615879603,1.144337122132178,1.144337122132178,1.144337122132178,1.144337122132178,1.144337122132178,1.144337122132178,1.144337122132178,1.1409357615879603,1.1375344010437427,1.1375344010437427,1.1375344010437427,1.1375344010437427,1.1375344010437427,1.1375344010437427,1.1375344010437427,1.1375344010437427,1.1409357615879603,1.1409357615879603,1.1409357615879603,1.1409357615879603,1.1409357615879603,1.1409357615879603,1.1409357615879603,1.1409357615879603,1.1409357615879603,1.1409357615879603,1.1409357615879603,1.1409357615879603,1.1409357615879603,1.1409357615879603,1.1409357615879603,1.1409357615879603,1.1409357615879603,1.1375344010437427,1.1375344010437427,1.1375344010437427,1.1375344010437427,1.1375344010437427,1.1375344010437427,1.1375344010437427,1.1375344010437427,1.1375344010437427,1.1375344010437427,1.1375344010437427,1.1375344010437427,1.1375344010437427,1.134133040499525,1.134133040499525,1.1307316799553073,1.1307316799553073,1.1307316799553073,1.1307316799553073,1.1307316799553073,1.1307316799553073,1.1307316799553073,1.1273303194110895,1.1273303194110895,1.1273303194110895,1.123928958866872,1.123928958866872,1.123928958866872,1.1273303194110895,1.1273303194110895,1.1273303194110895,1.123928958866872,1.1273303194110895,1.1273303194110895,1.1273303194110895,1.1273303194110895,1.1273303194110895,1.1273303194110895,1.1273303194110895,1.1273303194110895,1.1273303194110895,1.1273303194110895,1.1273303194110895,1.1273303194110895,1.123928958866872,1.123928958866872,1.123928958866872,1.123928958866872,1.123928958866872,1.123928958866872,1.123928958866872,1.1205275983226544,1.1171262377784366,1.1171262377784366,1.1171262377784366,1.1171262377784366,1.1171262377784366,1.1171262377784366,1.1171262377784366,1.1171262377784366,1.1171262377784366,1.1171262377784366,1.1171262377784366,1.1171262377784366,1.1171262377784366,1.1171262377784366,1.113724877234219,1.113724877234219,1.113724877234219,1.1103235166900012,1.1103235166900012,1.1103235166900012,1.1103235166900012,1.1103235166900012,1.1103235166900012,1.1103235166900012,1.1103235166900012,1.1103235166900012,1.1103235166900012,1.1103235166900012,1.1103235166900012,1.1103235166900012,1.1103235166900012,1.1103235166900012,1.1103235166900012,1.1103235166900012,1.1103235166900012,1.1103235166900012,1.1103235166900012,1.1103235166900012,1.1103235166900012,1.1103235166900012,1.1103235166900012,1.1103235166900012,1.1103235166900012,1.1103235166900012,1.1069221561457836,1.1069221561457836,1.1069221561457836,1.1069221561457836,1.1069221561457836,1.1103235166900012,1.1103235166900012,1.1103235166900012,1.1103235166900012,1.1103235166900012,1.1103235166900012,1.1103235166900012,1.1103235166900012,1.1103235166900012,1.1103235166900012,1.1103235166900012,1.1103235166900012,1.1103235166900012,1.1103235166900012,1.1103235166900012,1.1103235166900012,1.1103235166900012,1.1103235166900012,1.1103235166900012,1.1103235166900012],"y":[0.7779442923409599,0.7779442923409599,0.7779442923409599,0.7779442923409599,0.7779442923409599,0.7493728637695313,0.7493728637695313,0.7303252447219122,0.7303252447219122,0.673182387579055,0.673182387579055,0.654134768531436,0.616039530436198,0.5969919113885789,0.5969919113885789,0.5684204828171503,0.5208014351981026,0.5112776256742931,0.5112776256742931,0.45413476853143603,0.4446109590076265,0.43508714948381694,0.4160395304361979,0.4160395304361979,0.39699191138857887,0.37794429234095983,0.37794429234095983,0.3874681018647693,0.3684204828171503,0.34937286376953125,0.32080143519810267,0.32080143519810267,0.32080143519810267,0.32080143519810267,0.30175381615048363,0.2827061971028646,0.2827061971028646,0.254134768531436,0.254134768531436,0.23508714948381695,0.23508714948381695,0.2065157209123884,0.18746810186476934,0.18746810186476934,0.18746810186476934,0.18746810186476934,0.18746810186476934,0.19699191138857886,0.21603953043619792,0.21603953043619792,0.21603953043619792,0.21603953043619792,0.21603953043619792,0.21603953043619792,0.21603953043619792,0.21603953043619792,0.2065157209123884,0.2065157209123884,0.2065157209123884,0.2065157209123884,0.2065157209123884,0.23508714948381695,0.23508714948381695,0.23508714948381695,0.254134768531436,0.254134768531436,0.27318238757905505,0.27318238757905505,0.32080143519810267,0.32080143519810267,0.3398490542457217,0.3398490542457217,0.3874681018647693,0.3874681018647693,0.3874681018647693,0.3874681018647693,0.4160395304361979,0.42556333996000745,0.43508714948381694,0.45413476853143603,0.45413476853143603,0.45413476853143603,0.45413476853143603,0.45413476853143603,0.45413476853143603,0.45413476853143603,0.47318238757905506,0.47318238757905506,0.4827061971028646,0.4827061971028646,0.5017538161504836,0.5017538161504836,0.5017538161504836,0.5017538161504836,0.5112776256742931,0.5303252447219122,0.5398490542457217,0.5398490542457217,0.5493728637695312,0.5493728637695312,0.5588966732933408,0.5684204828171503,0.5684204828171503,0.5969919113885789,0.5969919113885789,0.616039530436198,0.616039530436198,0.6255633399600075,0.635087149483817,0.6636585780552455,0.6636585780552455,0.673182387579055,0.673182387579055,0.673182387579055,0.6636585780552455,0.6636585780552455,0.6065157209123884,0.6065157209123884,0.6065157209123884,0.6065157209123884,0.4922300066266741,0.4160395304361979,0.39699191138857887,0.3588966732933408,0.3588966732933408,0.34937286376953125,0.3398490542457217,0.3398490542457217,0.3398490542457217,0.3112776256742932,0.27318238757905505,0.26365857805524556,0.26365857805524556,0.26365857805524556,0.2065157209123884,0.1684204828171503,0.1684204828171503,0.1684204828171503,0.0922300066266741,0.08270619710286459,-0.003008088611421131,-0.003008088611421131,-0.012531898135230654,-0.07919856480189733,-0.08872237432570684,-0.08872237432570684,-0.08872237432570684,-0.14586523146856398,-0.14586523146856398,-0.14586523146856398,-0.14586523146856398,-0.14586523146856398,-0.14586523146856398,-0.16491285051618304,-0.16491285051618304,-0.18396046956380208,-0.1934842790876116,-0.20300808861142114,-0.20300808861142114,-0.20300808861142114,-0.20300808861142114,-0.20300808861142114,-0.20300808861142114,-0.20300808861142114,-0.20300808861142114,-0.20300808861142114,-0.20300808861142114,-0.20300808861142114,-0.20300808861142114,-0.18396046956380208,-0.17443666003999256,-0.17443666003999256,-0.17443666003999256,-0.16491285051618304,-0.16491285051618304,-0.16491285051618304,-0.16491285051618304,-0.16491285051618304,-0.15538904099237352,-0.15538904099237352,-0.15538904099237352,-0.15538904099237352,-0.15538904099237352,-0.15538904099237352,-0.15538904099237352,-0.15538904099237352,-0.15538904099237352,-0.16491285051618304,-0.16491285051618304,-0.15538904099237352,-0.15538904099237352,-0.15538904099237352,-0.15538904099237352,-0.15538904099237352,-0.15538904099237352,-0.15538904099237352,-0.15538904099237352,-0.15538904099237352,-0.14586523146856398,-0.13634142194475446,-0.13634142194475446,-0.13634142194475446,-0.13634142194475446,-0.13634142194475446,-0.12681761242094494,-0.12681761242094494,-0.12681761242094494,-0.12681761242094494,-0.12681761242094494,-0.12681761242094494,-0.12681761242094494,-0.12681761242094494,-0.11729380289713541,-0.11729380289713541,-0.11729380289713541,-0.11729380289713541,-0.11729380289713541,-0.11729380289713541,-0.11729380289713541,-0.11729380289713541,-0.11729380289713541,-0.11729380289713541,-0.11729380289713541,-0.11729380289713541,-0.11729380289713541,-0.09824618384951637,-0.09824618384951637,-0.09824618384951637,-0.09824618384951637,-0.08872237432570684,-0.08872237432570684,-0.08872237432570684,-0.08872237432570684,-0.08872237432570684,-0.07919856480189733,-0.07919856480189733,-0.07919856480189733,-0.07919856480189733,-0.08872237432570684,-0.08872237432570684,-0.08872237432570684,-0.08872237432570684,-0.07919856480189733,-0.07919856480189733,-0.07919856480189733,-0.07919856480189733,-0.07919856480189733,-0.07919856480189733,-0.07919856480189733,-0.07919856480189733,-0.07919856480189733,-0.07919856480189733,-0.07919856480189733,-0.07919856480189733,-0.07919856480189733,-0.0696747552780878,-0.0696747552780878,-0.0696747552780878,-0.0696747552780878,-0.0696747552780878,-0.0696747552780878,-0.0696747552780878,-0.0696747552780878,-0.0696747552780878,-0.0696747552780878,-0.0696747552780878,-0.0696747552780878,-0.0696747552780878,-0.0696747552780878,-0.05062713623046875,-0.05062713623046875,-0.05062713623046875,-0.04110332670665923,-0.04110332670665923,-0.04110332670665923,-0.04110332670665923,-0.022055707659040177,-0.0315795171828497,-0.0315795171828497,-0.0315795171828497,-0.0315795171828497,-0.0315795171828497,-0.022055707659040177,-0.012531898135230654,0.006515720912388393,0.006515720912388393,0.016039530436197918,0.016039530436197918,0.016039530436197918,0.016039530436197918,0.016039530436197918,0.016039530436197918,0.02556333996000744,0.02556333996000744,0.02556333996000744,0.02556333996000744,0.02556333996000744,0.02556333996000744,0.02556333996000744,0.02556333996000744,0.02556333996000744,0.02556333996000744,0.02556333996000744,0.02556333996000744,0.02556333996000744,0.02556333996000744,0.02556333996000744,0.02556333996000744,0.02556333996000744,0.02556333996000744,0.02556333996000744,0.02556333996000744,0.02556333996000744,0.02556333996000744,0.02556333996000744,0.02556333996000744,0.02556333996000744,0.02556333996000744,0.02556333996000744,0.02556333996000744,0.016039530436197918,0.016039530436197918,0.016039530436197918,0.016039530436197918,0.016039530436197918,0.016039530436197918,0.016039530436197918,0.016039530436197918,0.016039530436197918,0.02556333996000744,0.016039530436197918,0.016039530436197918,0.016039530436197918,0.016039530436197918,0.02556333996000744,0.02556333996000744,0.02556333996000744,0.02556333996000744,0.02556333996000744,0.02556333996000744,0.016039530436197918,0.016039530436197918,0.016039530436197918,0.016039530436197918,0.016039530436197918,0.016039530436197918,0.016039530436197918,0.016039530436197918,0.016039530436197918,0.016039530436197918,0.016039530436197918,0.016039530436197918,0.016039530436197918,0.016039530436197918,0.016039530436197918,0.016039530436197918,0.016039530436197918,0.016039530436197918,0.016039530436197918,0.016039530436197918,0.016039530436197918,0.016039530436197918,0.016039530436197918,0.016039530436197918,0.016039530436197918,0.016039530436197918,0.016039530436197918,0.016039530436197918,0.006515720912388393,0.006515720912388393,0.006515720912388393,0.006515720912388393,0.006515720912388393,0.006515720912388393,0.006515720912388393,0.006515720912388393,0.006515720912388393,0.016039530436197918,0.02556333996000744,0.02556333996000744,0.02556333996000744,-0.003008088611421131,0.016039530436197918,0.016039530436197918,0.016039530436197918,0.016039530436197918,0.016039530436197918,0.016039530436197918,0.016039530436197918,0.016039530436197918,0.006515720912388393,0.006515720912388393,0.006515720912388393,0.006515720912388393,0.006515720912388393,0.006515720912388393,0.006515720912388393,0.006515720912388393,0.006515720912388393,0.006515720912388393,0.006515720912388393,0.006515720912388393,0.006515720912388393,0.006515720912388393,-0.003008088611421131,-0.003008088611421131,-0.003008088611421131,-0.003008088611421131,-0.003008088611421131,-0.003008088611421131,-0.003008088611421131,-0.003008088611421131,-0.003008088611421131,-0.003008088611421131,-0.003008088611421131,0.006515720912388393,0.006515720912388393,-0.012531898135230654,-0.012531898135230654,-0.012531898135230654,-0.012531898135230654,-0.012531898135230654,-0.012531898135230654,-0.012531898135230654,-0.012531898135230654,-0.012531898135230654,-0.012531898135230654,-0.012531898135230654,-0.012531898135230654,-0.012531898135230654,-0.012531898135230654,-0.012531898135230654,-0.012531898135230654,-0.012531898135230654,-0.012531898135230654,-0.012531898135230654,-0.012531898135230654,-0.012531898135230654,0.006515720912388393,0.006515720912388393,0.006515720912388393,0.016039530436197918,0.016039530436197918,0.016039530436197918,0.035087149483816964,0.035087149483816964,0.05413476853143601,0.06365857805524554,0.06365857805524554,0.07318238757905506,0.07318238757905506,0.08270619710286459,0.10175381615048364,0.10175381615048364,0.10175381615048364,0.10175381615048364,0.10175381615048364,0.12080143519810267,0.12080143519810267,0.12080143519810267,0.15889667329334078,0.15889667329334078,0.15889667329334078,0.15889667329334078,0.15889667329334078,0.15889667329334078,0.15889667329334078,0.15889667329334078,0.15889667329334078,0.15889667329334078,0.15889667329334078,0.14937286376953124,0.14937286376953124,0.14937286376953124,0.14937286376953124,0.14937286376953124,0.14937286376953124,0.14937286376953124,0.14937286376953124,0.14937286376953124,0.14937286376953124,0.14937286376953124,0.14937286376953124,0.14937286376953124,0.14937286376953124,0.14937286376953124,0.14937286376953124,0.14937286376953124,0.14937286376953124,0.14937286376953124,0.14937286376953124,0.14937286376953124,0.14937286376953124,0.14937286376953124,0.14937286376953124,0.14937286376953124,0.14937286376953124,0.14937286376953124,0.14937286376953124,0.14937286376953124,0.14937286376953124,0.14937286376953124,0.14937286376953124,0.14937286376953124,0.14937286376953124,0.14937286376953124,0.14937286376953124,0.15889667329334078,0.15889667329334078,0.14937286376953124,0.14937286376953124,0.14937286376953124,0.14937286376953124,0.14937286376953124,0.14937286376953124,0.14937286376953124,0.14937286376953124,0.14937286376953124,0.14937286376953124,0.14937286376953124,0.13984905424572172,0.13984905424572172,0.13984905424572172,0.13984905424572172,0.13984905424572172,0.13984905424572172,0.13984905424572172,0.13984905424572172,0.13984905424572172,0.13984905424572172,0.13984905424572172,0.13984905424572172,0.13984905424572172,0.13984905424572172,0.13984905424572172,0.1303252447219122,0.1303252447219122,0.1303252447219122,0.1303252447219122,0.12080143519810267,0.12080143519810267,0.12080143519810267,0.12080143519810267,0.12080143519810267,0.12080143519810267,0.12080143519810267,0.12080143519810267,0.1303252447219122,0.12080143519810267,0.12080143519810267,0.12080143519810267,0.12080143519810267,0.12080143519810267,0.12080143519810267,0.12080143519810267,0.12080143519810267,0.12080143519810267,0.12080143519810267,0.12080143519810267,0.12080143519810267,0.12080143519810267,0.12080143519810267,0.12080143519810267,0.12080143519810267,0.12080143519810267,0.12080143519810267,0.12080143519810267,0.12080143519810267,0.12080143519810267,0.12080143519810267,0.12080143519810267,0.12080143519810267,0.12080143519810267,0.12080143519810267,0.12080143519810267,0.12080143519810267,0.12080143519810267,0.12080143519810267,0.12080143519810267,0.12080143519810267,0.12080143519810267,0.12080143519810267,0.12080143519810267,0.12080143519810267,0.12080143519810267,0.12080143519810267,0.12080143519810267,0.12080143519810267,0.12080143519810267,0.12080143519810267,0.12080143519810267,0.11127762567429315,0.11127762567429315,0.11127762567429315,0.11127762567429315,0.11127762567429315,0.11127762567429315,0.11127762567429315,0.11127762567429315,0.11127762567429315,0.11127762567429315,0.11127762567429315,0.11127762567429315,0.11127762567429315,0.11127762567429315,0.11127762567429315,0.11127762567429315,0.11127762567429315,0.11127762567429315,0.11127762567429315,0.11127762567429315,0.12080143519810267,0.12080143519810267,0.12080143519810267,0.11127762567429315,0.11127762567429315,0.11127762567429315,0.11127762567429315,0.11127762567429315,0.11127762567429315,0.11127762567429315,0.11127762567429315,0.11127762567429315,0.10175381615048364,0.10175381615048364,0.10175381615048364,0.0922300066266741,0.0922300066266741,0.08270619710286459,0.08270619710286459,0.08270619710286459,0.08270619710286459,0.08270619710286459,0.08270619710286459,0.0922300066266741,0.08270619710286459,0.08270619710286459,0.08270619710286459,0.08270619710286459,0.08270619710286459,0.08270619710286459,0.08270619710286459,0.08270619710286459,0.08270619710286459,0.08270619710286459,0.08270619710286459,0.08270619710286459,0.08270619710286459,0.08270619710286459,0.08270619710286459,0.08270619710286459,0.08270619710286459,0.08270619710286459,0.08270619710286459,0.08270619710286459,0.08270619710286459,0.08270619710286459,0.08270619710286459,0.08270619710286459,0.08270619710286459,0.08270619710286459,0.08270619710286459,0.08270619710286459,0.08270619710286459,0.08270619710286459,0.08270619710286459,0.08270619710286459,0.08270619710286459,0.08270619710286459,0.08270619710286459,0.08270619710286459,0.08270619710286459,0.08270619710286459,0.08270619710286459,0.08270619710286459,0.08270619710286459,0.08270619710286459,0.08270619710286459,0.08270619710286459,0.08270619710286459,0.08270619710286459,0.08270619710286459,0.08270619710286459,0.07318238757905506,0.07318238757905506,0.07318238757905506,0.07318238757905506,0.07318238757905506,0.07318238757905506,0.07318238757905506,0.07318238757905506,0.07318238757905506,0.07318238757905506,0.07318238757905506,0.07318238757905506,0.07318238757905506,0.07318238757905506,0.07318238757905506,0.07318238757905506,0.07318238757905506,0.07318238757905506,0.08270619710286459,0.08270619710286459,0.08270619710286459,0.08270619710286459,0.07318238757905506,0.07318238757905506,0.07318238757905506,0.07318238757905506,0.07318238757905506,0.07318238757905506,0.07318238757905506,0.07318238757905506,0.07318238757905506,0.07318238757905506,0.07318238757905506,0.07318238757905506,0.07318238757905506,0.07318238757905506,0.08270619710286459,0.08270619710286459,0.08270619710286459,0.08270619710286459,0.07318238757905506,0.07318238757905506,0.07318238757905506,0.07318238757905506,0.07318238757905506,0.07318238757905506,0.07318238757905506,0.07318238757905506,0.08270619710286459,0.0922300066266741,0.0922300066266741,0.10175381615048364,0.10175381615048364,0.10175381615048364,0.10175381615048364,0.10175381615048364,0.10175381615048364,0.10175381615048364,0.0922300066266741,0.0922300066266741,0.0922300066266741,0.0922300066266741,0.10175381615048364,0.10175381615048364,0.10175381615048364,0.10175381615048364,0.10175381615048364,0.10175381615048364,0.10175381615048364,0.10175381615048364,0.10175381615048364,0.0922300066266741,0.0922300066266741,0.08270619710286459,0.08270619710286459,0.07318238757905506,0.07318238757905506,0.07318238757905506,0.07318238757905506,0.07318238757905506,0.07318238757905506,0.07318238757905506,0.07318238757905506,0.07318238757905506,0.07318238757905506,0.07318238757905506,0.07318238757905506,0.07318238757905506,0.07318238757905506,0.07318238757905506,0.07318238757905506,0.07318238757905506,0.07318238757905506,0.07318238757905506,0.07318238757905506,0.07318238757905506,0.07318238757905506,0.07318238757905506,0.07318238757905506,0.07318238757905506,0.07318238757905506,0.07318238757905506,0.07318238757905506,0.07318238757905506,0.07318238757905506,0.07318238757905506,0.07318238757905506,0.07318238757905506,0.06365857805524554,0.06365857805524554,0.06365857805524554,0.07318238757905506,0.07318238757905506,0.07318238757905506,0.07318238757905506,0.07318238757905506,0.06365857805524554,0.06365857805524554,0.06365857805524554,0.06365857805524554,0.06365857805524554,0.06365857805524554,0.07318238757905506,0.07318238757905506,0.07318238757905506,0.07318238757905506,0.07318238757905506,0.07318238757905506,0.07318238757905506,0.07318238757905506,0.07318238757905506,0.07318238757905506,0.08270619710286459,0.08270619710286459,0.08270619710286459,0.08270619710286459,0.08270619710286459,0.08270619710286459,0.0922300066266741,0.08270619710286459,0.08270619710286459,0.08270619710286459,0.08270619710286459,0.08270619710286459,0.08270619710286459,0.08270619710286459,0.08270619710286459,0.08270619710286459,0.08270619710286459,0.08270619710286459,0.08270619710286459,0.08270619710286459,0.08270619710286459,0.08270619710286459,0.08270619710286459,0.08270619710286459,0.0922300066266741,0.0922300066266741,0.0922300066266741,0.0922300066266741,0.08270619710286459,0.0922300066266741,0.10175381615048364,0.10175381615048364,0.10175381615048364,0.11127762567429315,0.11127762567429315,0.12080143519810267,0.12080143519810267,0.12080143519810267,0.12080143519810267,0.12080143519810267,0.18746810186476934,0.22556333996000744,0.22556333996000744,0.254134768531436,0.27318238757905505,0.3303252447219122,0.3303252447219122,0.3303252447219122,0.37794429234095983,0.39699191138857887,0.39699191138857887,0.39699191138857887,0.4160395304361979,0.4636585780552455,0.5017538161504836,0.5017538161504836,0.5017538161504836,0.5017538161504836,0.5493728637695312,0.5493728637695312,0.5874681018647694,0.5874681018647694,0.616039530436198,0.6446109590076264,0.6446109590076264,0.6636585780552455,0.6636585780552455,0.654134768531436,0.654134768531436,0.654134768531436,0.654134768531436,0.654134768531436,0.6065157209123884,0.5969919113885789,0.5969919113885789,0.5874681018647694,0.5874681018647694,0.5874681018647694,0.616039530436198,0.616039530436198,0.616039530436198,0.616039530436198,0.6827061971028646,0.7112776256742932,0.7874681018647693,0.7874681018647693,0.7969919113885788,0.7969919113885788,0.7969919113885788,0.7969919113885788,0.7969919113885788,0.7684204828171503,0.7684204828171503,0.7684204828171503,0.7684204828171503,0.7684204828171503,0.7684204828171503,0.7684204828171503,0.5969919113885789,0.5969919113885789,0.5969919113885789,0.5969919113885789,0.5969919113885789,0.5969919113885789,0.5303252447219122,0.5303252447219122,0.5303252447219122,0.5303252447219122,0.5303252447219122,0.5303252447219122,0.5303252447219122,0.5303252447219122,0.5303252447219122,0.5303252447219122,0.5303252447219122,0.5398490542457217,0.5398490542457217,0.5398490542457217,0.5398490542457217,0.5398490542457217,0.5303252447219122,0.5303252447219122,0.5303252447219122,0.5303252447219122,0.5303252447219122,0.5303252447219122,0.5303252447219122,0.5303252447219122,0.5303252447219122,0.5303252447219122,0.5303252447219122,0.5303252447219122,0.5208014351981026,0.5208014351981026,0.5208014351981026,0.5208014351981026,0.5208014351981026,0.5208014351981026,0.5208014351981026,0.5208014351981026,0.5208014351981026,0.5208014351981026,0.5208014351981026,0.5208014351981026,0.5208014351981026,0.5208014351981026,0.5208014351981026,0.5208014351981026,0.5112776256742931,0.5112776256742931,0.5112776256742931,0.5112776256742931,0.5112776256742931,0.5017538161504836,0.4922300066266741,0.4922300066266741,0.4827061971028646,0.47318238757905506,0.47318238757905506,0.47318238757905506,0.47318238757905506,0.47318238757905506,0.47318238757905506,0.47318238757905506,0.47318238757905506,0.47318238757905506,0.47318238757905506,0.47318238757905506,0.47318238757905506,0.4827061971028646,0.4827061971028646,0.4636585780552455,0.4446109590076265,0.4446109590076265,0.4160395304361979,0.4160395304361979,0.39699191138857887,0.39699191138857887,0.3684204828171503,0.34937286376953125,0.34937286376953125,0.32080143519810267,0.32080143519810267,0.27318238757905505,0.254134768531436,0.254134768531436,0.254134768531436,0.23508714948381695,0.23508714948381695,0.17794429234095982,0.17794429234095982,0.17794429234095982,0.18746810186476934,0.18746810186476934,0.18746810186476934,0.18746810186476934,0.18746810186476934,0.18746810186476934,0.18746810186476934,0.18746810186476934,0.17794429234095982,0.1684204828171503,0.1303252447219122,0.1303252447219122,0.1303252447219122,0.1303252447219122,0.1303252447219122,0.1303252447219122,0.1303252447219122,0.13984905424572172,0.13984905424572172,0.14937286376953124,0.14937286376953124,0.14937286376953124,0.13984905424572172,0.13984905424572172,0.13984905424572172,0.13984905424572172,0.13984905424572172,0.13984905424572172,0.13984905424572172,0.13984905424572172,0.13984905424572172,0.12080143519810267,0.12080143519810267,0.12080143519810267,0.11127762567429315,0.11127762567429315,0.11127762567429315,0.11127762567429315,0.12080143519810267,0.12080143519810267,0.1303252447219122,0.1303252447219122,0.12080143519810267,0.12080143519810267,0.12080143519810267,0.12080143519810267,0.12080143519810267,0.12080143519810267,0.11127762567429315,0.11127762567429315,0.11127762567429315,0.11127762567429315,0.11127762567429315,0.12080143519810267,0.12080143519810267,0.12080143519810267,0.12080143519810267,0.1303252447219122,0.1303252447219122,0.1303252447219122,0.1303252447219122,0.1303252447219122,0.1303252447219122,0.1303252447219122,0.1303252447219122,0.1303252447219122,0.1303252447219122,0.1303252447219122,0.1303252447219122,0.1303252447219122,0.1303252447219122,0.1303252447219122,0.1303252447219122,0.1303252447219122,0.1303252447219122,0.1303252447219122,0.1303252447219122,0.1303252447219122,0.1303252447219122,0.1303252447219122,0.1303252447219122,0.1303252447219122,0.1303252447219122,0.1303252447219122,0.1303252447219122,0.1303252447219122,0.1303252447219122,0.1303252447219122,0.1303252447219122,0.1303252447219122,0.1303252447219122,0.1303252447219122,0.1303252447219122,0.1303252447219122,0.13984905424572172,0.12080143519810267,0.12080143519810267,0.1303252447219122,0.12080143519810267,0.12080143519810267,0.11127762567429315,0.11127762567429315,0.12080143519810267,0.11127762567429315,0.1303252447219122,0.1303252447219122,0.1303252447219122,0.1303252447219122,0.1303252447219122,0.1303252447219122,0.1303252447219122,0.1303252447219122,0.1303252447219122,0.1303252447219122,0.1303252447219122,0.1303252447219122,0.1303252447219122,0.1303252447219122,0.1303252447219122,0.1303252447219122,0.13984905424572172,0.13984905424572172,0.1303252447219122,0.13984905424572172,0.13984905424572172,0.13984905424572172,0.13984905424572172,0.13984905424572172,0.13984905424572172,0.18746810186476934,0.19699191