[{"success":true,"trial_type":"fullscreen","trial_index":0,"time_elapsed":4173,"internal_node_id":"0.0-0.0","protocol_sum":"","subject_identifier":300,"subject_sum":[154,226,189,215,190,237,194,231,102,198,183,101,133,83,14,22,146,81,21,112,125,199,160,106,181,238,74,162,119,107,44,123],"subject_pair":150,"STUDY_ID":"66a0b3911f23dfc7665bb169","PROLIFIC_PID":"5e1fd25f1160072f44b93722","SESSION_ID":"66a0f9e3593f797dce8351c6","practice_instructions":1,"leaderboard_instructions":0,"bonus":1,"reveal_word":false,"self_rating":"5","confidence":"16"},{"view_history":"[{\"page_index\":0,\"viewing_time\":6095.599999964237}]","rt":6096.699999988079,"trial_type":"instructions","trial_index":1,"time_elapsed":10287,"internal_node_id":"0.0-1.0","protocol_sum":"","subject_identifier":300,"subject_sum":[154,226,189,215,190,237,194,231,102,198,183,101,133,83,14,22,146,81,21,112,125,199,160,106,181,238,74,162,119,107,44,123],"subject_pair":150,"STUDY_ID":"66a0b3911f23dfc7665bb169","PROLIFIC_PID":"5e1fd25f1160072f44b93722","SESSION_ID":"66a0f9e3593f797dce8351c6","practice_instructions":1,"leaderboard_instructions":0,"bonus":1,"reveal_word":false,"self_rating":"5","confidence":"16"},{"view_history":"[{\"page_index\":0,\"viewing_time\":27984.400000035763}]","rt":27985.400000035763,"trial_type":"instructions","trial_index":2,"time_elapsed":38275,"internal_node_id":"0.0-2.0-0.0","protocol_sum":"","subject_identifier":300,"subject_sum":[154,226,189,215,190,237,194,231,102,198,183,101,133,83,14,22,146,81,21,112,125,199,160,106,181,238,74,162,119,107,44,123],"subject_pair":150,"STUDY_ID":"66a0b3911f23dfc7665bb169","PROLIFIC_PID":"5e1fd25f1160072f44b93722","SESSION_ID":"66a0f9e3593f797dce8351c6","practice_instructions":1,"leaderboard_instructions":0,"bonus":1,"reveal_word":false,"self_rating":"5","confidence":"16"},{"rt":8538.300000011921,"responses":"{\"Q0\":\"... reveal the word with as <b>few letter guesses</b> as possible\"}","question_order":"[0]","trial_type":"survey-multi-choice","trial_index":3,"time_elapsed":46819,"internal_node_id":"0.0-2.0-1.0","protocol_sum":"","subject_identifier":300,"subject_sum":[154,226,189,215,190,237,194,231,102,198,183,101,133,83,14,22,146,81,21,112,125,199,160,106,181,238,74,162,119,107,44,123],"subject_pair":150,"correct":true,"test_part":"multichoice_nonpretend","STUDY_ID":"66a0b3911f23dfc7665bb169","PROLIFIC_PID":"5e1fd25f1160072f44b93722","SESSION_ID":"66a0f9e3593f797dce8351c6","practice_instructions":1,"leaderboard_instructions":0,"bonus":1,"reveal_word":false,"self_rating":"5","confidence":"16"},{"view_history":"[{\"page_index\":0,\"viewing_time\":1860.3999999761581}]","rt":1860.699999988079,"trial_type":"instructions","trial_index":4,"time_elapsed":48681,"internal_node_id":"0.0-3.0","protocol_sum":"","subject_identifier":300,"subject_sum":[154,226,189,215,190,237,194,231,102,198,183,101,133,83,14,22,146,81,21,112,125,199,160,106,181,238,74,162,119,107,44,123],"subject_pair":150,"STUDY_ID":"66a0b3911f23dfc7665bb169","PROLIFIC_PID":"5e1fd25f1160072f44b93722","SESSION_ID":"66a0f9e3593f797dce8351c6","practice_instructions":1,"leaderboard_instructions":0,"bonus":1,"reveal_word":false,"self_rating":"5","confidence":"16"},{"word":"ZEBRA","click_log":{"letter":["","S","T","A","E","N","R","D","H","L","P","B","Z"],"t":[0,5587.199999988079,7382.699999988079,9421.5,15864,26233.100000023842,29683.5,46531.60000002384,49303.10000002384,51707.60000002384,54058.80000001192,57562.80000001192,59635],"hit":[null,0,0,1,1,0,1,0,0,0,0,1,1],"asked":["","S","ST","STA","STAE","STAEN","STAENR","STAENRD","STAENRDH","STAENRDHL","STAENRDHLP","STAENRDHLPB","STAENRDHLPBZ"],"word_state":["_____","_____","_____","____A","_E__A","_E__A","_E_RA","_E_RA","_E_RA","_E_RA","_E_RA","_EBRA","ZEBRA"]},"hover_log":{"letter":["?","?","?","?","?","?","?","?","?","?","?","?","?","?","?","?","?","?","?","?","?","?","?","?","?","?","?","?","?","?","?","?","?","?","?","?","?","?","?","?","?","?","?","?","?","?","?","?","?","?","?","?","?","?","?","?","?","?","?","?","?","?","?","?","?","?","?","?","?","?","?","?","?","?","?","?","?","?","?","?","?","?","?","?","?","?","?","?","?","?","?","?","?","?","?","?","?","?","?","?","?","?","?","?","?","?","?","?","?","?","?","?","?","?","?","?","?","?","?","?","?","?","?","?","?","?","?","?","?","?","?","?","?","A","J","J","?","S","?","?","?","?","?","?","?","?","?","?","?","?","?","?","?","?","?","?","?","?","?","?","?","?","?","?","?","?","?","?","?","?","?","?","?","?","?","?","?","?","?","?","?","J","?","?","?","?","?","?","?","B","B","B","B","B","B","?","C","C","D","E","E","?","?","?","?","?","?","?","?","?","?","?","?","?","?","?","?","?","?","?","?","?","?","?","?","?","?","?","?","?","?","?","P","?","?","Q","Q","Q","Q","Q","Q","Q","Q","Q","Q","Q","Q","Q","?","?","?","V","U","U","U","?","?","?","?","?","?","?","?","?","?","?","?","?","T","T","?","S","S","S","S","S","S","S","S","S","S","S","S","S","S","S","S","S","S","S","S","S","S","S","S","S","S","S","S","S","S","S","S","S","S","S","S","S","S","S","S","S","S","S","S","S","S","S","S","S","S","S","S","S","S","S","S","S","S","S","S","S","S","S","S","S","S","S","S","S","S","S","S","S","S","S","S","S","S","S","S","S","S","S","S","S","S","S","S","S","S","S","S","S","S","S","S","S","S","S","S","S","S","S","S","S","S","S","S","S","S","S","S","S","S","S","S","S","S","S","S","S","S","S","S","S","S","S","S","S","S","S","S","S","S","S","?","T","T","T","T","T","T","T","T","T","T","T","T","T","T","T","T","T","T","T","T","T","T","T","T","T","T","T","T","T","T","T","T","T","T","T","T","T","T","T","T","T","T","T","T","T","T","T","T","T","T","T","T","T","T","T","T","T","T","T","T","T","T","T","T","T","T","T","T","T","T","T","T","T","T","T","T","T","T","T","T","T","T","T","T","T","T","T","T","T","T","T","T","?","K","?","?","?","?","?","?","?","?","?","?","?","?","?","?","?","A","A","A","A","A","A","A","A","A","A","A","A","A","A","A","A","A","A","A","A","A","A","A","A","A","A","A","A","A","A","A","A","A","A","A","A","A","A","A","A","A","A","A","A","A","A","A","A","A","A","A","A","A","A","A","A","A","A","A","A","A","A","A","A","A","A","A","A","A","A","A","A","A","A","A","A","A","A","A","A","A","A","A","A","A","A","A","A","A","A","A","A","A","A","A","A","A","A","A","A","A","A","A","A","A","A","A","A","A","A","A","A","A","A","A","A","A","A","A","A","A","A","A","A","A","A","A","A","A","A","A","A","A","A","A","A","A","A","A","A","A","A","A","A","A","A","A","A","A","A","A","A","A","A","A","A","A","A","A","A","A","A","A","A","A","A","A","A","A","A","A","A","A","A","A","A","A","A","A","A","A","A","A","A","A","A","A","A","A","A","A","A","A","A","A","A","A","A","A","A","A","A","A","A","A","A","A","A","A","A","A","A","A","A","A","A","A","A","A","A","A","A","A","A","A","A","A","A","A","A","A","A","A","A","A","A","A","A","A","A","A","A","A","A","A","A","A","A","A","A","A","A","A","A","A","A","A","A","A","A","A","A","A","A","A","A","A","A","A","A","A","A","A","A","A","A","A","A","A","A","A","A","A","A","A","A","A","A","A","A","A","A","A","A","A","A","A","A","A","A","A","A","A","A","A","A","A","A","A","A","A","A","A","A","A","A","A","A","A","A","A","A","A","A","A","A","A","A","A","A","A","A","A","A","A","A","A","A","A","A","A","A","A","A","A","A","A","A","A","A","A","A","A","A","B","B","B","?","?","?","?","?","?","?","?","?","?","?","?","?","?","?","?","?","?","?","?","?","?","?","?","?","?","?","?","?","?","?","?","?","?","?","E","E","E","E","E","E","E","E","E","E","E","E","E","E","E","E","E","E","E","E","E","E","E","E","E","E","E","E","E","E","E","E","E","E","E","E","E","E","E","E","E","E","E","E","E","E","E","E","E","E","E","E","E","E","E","E","E","E","E","E","E","E","E","E","E","E","E","E","E","E","E","E","E","E","E","E","E","E","E","E","E","E","E","E","E","E","E","E","E","E","E","E","E","E","E","E","E","E","E","E","E","E","E","E","E","E","E","E","E","E","E","E","E","E","E","E","E","E","E","E","E","E","E","E","E","E","E","E","E","E","E","E","E","E","E","E","E","E","E","E","E","E","E","E","E","E","E","E","E","E","E","E","E","E","E","E","E","E","E","E","E","E","E","E","E","E","E","E","E","E","E","E","E","E","E","E","E","E","E","E","E","E","E","E","E","E","E","E","E","E","E","E","E","E","E","E","E","E","E","E","E","E","E","E","E","E","E","E","E","E","E","E","E","E","E","E","E","E","E","E","E","E","E","E","E","E","E","E","E","E","E","E","E","E","E","E","E","E","?","?","?","?","?","?","?","F","F","F","F","F","F","F","F","F","F","F","F","F","F","F","F","F","F","F","F","F","F","F","F","F","F","F","F","F","F","F","F","F","F","F","F","F","F","F","F","F","F","F","F","F","F","F","F","F","F","F","F","F","F","F","F","F","F","F","F","F","F","F","F","F","F","F","F","F","F","F","F","F","F","F","F","F","F","F","F","F","F","F","F","F","F","F","F","F","F","F","F","F","F","F","F","F","F","F","F","F","F","F","F","F","F","F","F","F","F","F","F","F","F","F","F","F","F","F","F","F","F","F","F","F","F","F","F","F","F","F","F","F","F","F","F","F","F","?","G","G","G","G","G","G","G","G","G","G","G","G","G","G","G","G","G","G","G","G","G","G","G","G","G","?","?","?","?","?","?","?","?","?","?","?","?","H","H","H","H","H","H","H","H","H","H","H","H","H","H","H","H","H","H","H","H","H","H","H","H","H","H","H","H","H","H","H","H","H","H","H","H","H","H","H","H","H","H","H","H","H","H","H","H","H","H","H","H","H","H","H","H","H","H","H","H","H","H","H","H","H","H","H","H","H","H","H","H","H","H","H","H","H","H","H","H","H","H","H","H","H","H","H","H","H","H","H","H","H","H","H","H","H","H","H","H","H","H","H","H","H","H","H","H","H","H","H","H","H","H","H","H","H","H","H","H","H","H","H","H","H","H","H","H","H","H","H","H","H","H","H","H","H","H","H","H","H","H","H","H","H","H","H","H","H","H","H","H","H","H","H","H","H","H","H","H","H","H","H","H","H","H","H","H","H","H","H","H","H","H","H","H","H","H","H","?","?","?","?","?","?","?","?","?","?","?","P","P","P","P","?","O","O","?","?","?","?","?","?","?","?","N","N","N","N","N","N","N","N","N","N","N","N","N","N","N","N","N","N","N","N","N","N","N","N","N","N","N","N","N","N","N","N","N","N","N","N","N","N","N","N","N","N","N","N","N","N","N","N","N","N","N","N","N","N","N","N","N","N","N","N","N","N","N","N","N","N","N","N","N","N","N","N","N","N","N","N","N","N","N","N","N","N","N","N","N","N","N","N","N","N","N","N","N","N","N","N","N","N","N","N","?","?","?","F","?","G","G","G","G","G","G","G","G","G","G","G","G","?","?","?","?","?","?","?","H","H","H","H","H","H","H","H","H","H","H","H","H","H","H","H","H","H","H","H","H","H","H","H","H","H","H","H","H","H","H","H","H","H","H","H","H","H","H","H","H","H","H","H","H","H","H","H","H","H","H","H","H","H","H","H","H","H","H","H","H","H","H","H","?","?","?","?","?","?","?","?","?","?","?","?","?","?","?","R","R","R","R","R","R","R","R","R","R","R","R","R","R","R","R","R","R","R","R","R","R","R","R","R","R","R","R","R","R","R","R","R","R","R","R","R","R","R","R","R","R","R","R","R","R","R","R","R","R","R","R","R","R","R","R","R","R","R","R","R","R","R","R","R","R","R","R","R","R","R","R","R","R","R","R","R","R","R","R","R","R","R","R","R","R","R","R","R","R","R","R","R","R","R","R","R","R","R","R","R","R","R","R","R","R","R","R","R","R","R","R","R","R","R","R","R","R","R","R","R","R","R","R","R","R","R","R","R","R","R","R","R","R","R","R","R","R","R","R","R","R","R","R","R","R","R","R","R","R","R","R","R","R","R","R","R","R","R","R","R","R","R","R","R","R","R","R","R","R","R","R","R","R","R","R","R","R","R","R","R","R","R","R","R","R","R","R","R","R","R","R","R","R","R","R","R","R","R","R","R","R","R","R","R","R","R","R","R","R","R","R","R","R","R","R","R","R","R","R","R","R","R","R","R","R","R","R","R","R","R","R","R","R","R","R","R","R","R","R","R","R","R","R","R","R","R","R","R","R","R","R","R","R","R","R","R","R","R","R","R","R","R","R","R","R","R","R","R","R","R","R","R","R","R","R","R","R","R","R","R","R","R","R","R","R","R","R","R","R","R","R","R","R","R","R","R","R","R","R","R","R","R","R","R","R","R","R","R","R","R","R","R","R","R","R","R","R","R","R","R","R","R","R","R","R","R","R","R","R","R","R","R","R","R","R","R","R","R","R","R","R","R","R","R","R","R","R","R","R","R","R","R","R","R","R","R","R","R","R","R","R","R","R","R","R","R","R","R","R","R","R","R","R","R","R","R","R","R","R","R","R","R","R","R","R","R","R","R","R","R","R","R","R","R","R","R","R","R","R","R","R","R","R","R","R","R","R","R","R","R","R","R","R","R","R","R","R","R","R","R","R","R","R","R","R","R","R","R","R","R","R","R","R","R","R","R","R","R","R","R","R","R","R","R","R","R","R","R","R","R","R","R","R","R","R","R","R","R","R","R","R","R","R","R","R","R","R","R","R","R","R","R","R","R","R","R","R","R","R","R","R","R","R","R","R","R","R","R","R","R","R","R","R","R","R","R","R","R","R","R","R","R","R","R","R","R","R","R","R","R","R","R","R","R","R","R","R","R","R","R","R","R","R","R","R","R","R","R","R","R","R","R","R","R","R","R","R","R","R","R","R","R","R","R","R","R","R","R","R","R","R","R","R","R","R","R","R","R","R","R","R","R","R","R","R","R","R","R","R","R","R","R","R","R","R","R","R","R","R","R","R","R","R","R","R","R","R","R","R","R","R","R","R","R","R","R","R","R","R","R","R","R","R","R","R","R","R","R","R","R","R","R","R","R","R","R","R","R","R","R","R","R","R","R","R","R","R","R","R","R","R","R","R","R","R","R","R","R","R","R","R","R","R","R","R","R","R","R","R","R","R","R","R","R","R","R","R","R","R","R","R","R","R","R","R","R","R","R","R","R","R","R","R","R","R","R","R","R","R","R","R","R","R","R","R","R","R","R","R","R","R","R","R","R","R","R","R","R","R","R","R","R","R","R","R","R","R","R","R","R","R","R","R","R","R","R","R","R","R","R","R","R","R","R","R","R","R","R","R","R","R","R","R","R","R","R","R","R","R","R","R","R","R","R","R","R","R","R","R","R","R","R","R","R","R","R","R","R","R","R","R","R","R","R","R","R","R","R","R","R","R","R","R","R","R","R","R","R","R","R","R","R","R","R","R","R","R","R","R","R","R","R","R","R","R","R","R","R","R","R","R","R","R","R","R","R","R","R","R","R","R","R","R","R","R","R","R","R","R","R","R","R","R","R","R","R","R","R","R","R","R","R","R","R","R","R","R","R","R","R","R","R","R","R","R","R","R","R","R","R","R","R","R","R","R","R","R","R","R","R","R","R","R","R","R","R","R","R","R","R","R","R","R","R","R","R","R","R","R","R","R","R","R","R","R","R","R","R","R","R","R","R","R","R","R","R","R","R","R","R","R","R","R","R","R","R","R","Q","?","?","?","?","?","?","?","?","?","?","?","D","D","D","D","D","D","D","D","?","?","?","?","C","C","C","C","C","C","C","C","C","C","C","C","C","C","C","C","C","C","C","C","C","C","C","C","C","C","C","C","C","C","C","C","C","C","C","C","C","C","C","C","C","C","C","C","C","C","C","C","C","C","C","C","C","?","?","?","?","?","D","D","D","D","D","D","D","D","D","D","D","D","D","D","D","D","D","D","D","D","D","D","D","D","D","D","D","D","D","D","D","D","D","D","D","D","D","D","D","D","D","D","D","D","D","D","D","D","D","D","D","D","D","D","D","D","D","D","D","D","D","D","D","D","D","D","D","D","D","D","D","D","D","D","D","D","D","D","D","D","D","D","D","D","D","D","D","D","D","D","D","D","D","D","E","F","F","F","F","F","F","F","F","?","?","?","?","?","?","?","?","?","?","?","?","?","?","?","?","?","?","?","?","?","?","?","?","?","?","?","?","?","?","?","?","?","?","?","?","?","?","?","?","?","?","?","?","?","H","H","H","H","H","H","H","H","H","H","H","H","H","H","H","H","H","H","H","H","H","H","H","H","H","H","H","H","H","H","H","H","H","H","H","H","H","H","H","H","H","H","H","H","H","H","H","H","H","H","H","H","H","H","H","H","H","H","H","H","H","H","H","H","H","H","H","H","H","H","H","H","H","H","H","H","H","H","H","H","H","H","H","I","?","?","?","?","?","?","?","?","?","?","?","?","?","?","?","?","?","?","?","?","?","?","?","?","?","?","?","?","?","?","?","?","?","?","?","?","?","?","?","?","?","?","?","?","?","?","?","?","?","?","?","?","?","?","?","?","?","?","?","?","?","?","?","O","N","M","M","?","?","?","?","?","L","L","L","L","L","L","L","L","L","L","L","L","L","L","L","L","L","L","L","L","L","L","L","L","L","L","L","L","L","L","L","L","L","L","L","L","L","L","L","L","L","L","L","L","L","L","L","L","L","L","L","L","L","L","L","L","L","L","L","L","L","L","L","L","L","L","L","L","L","L","L","L","L","L","L","L","L","L","L","L","L","L","L","L","L","L","L","L","L","L","L","L","L","L","L","L","L","L","L","L","L","L","L","L","L","L","L","L","L","L","L","L","L","L","L","L","L","L","L","L","L","L","L","L","L","L","L","L","L","L","?","M","?","?","?","?","O","O","?","?","?","?","?","?","?","?","?","P","P","P","P","P","P","P","P","P","P","P","P","P","P","P","P","P","P","P","P","P","P","P","P","P","P","P","P","P","P","P","P","P","P","P","P","P","P","P","P","P","P","P","P","P","P","P","P","P","P","P","P","P","P","P","P","P","P","P","P","P","P","P","P","P","P","P","P","P","P","P","P","P","P","P","P","P","P","P","P","P","P","P","P","P","P","P","P","P","P","P","P","P","P","P","P","P","P","P","P","P","P","P","P","P","P","P","P","P","P","P","P","P","P","P","P","O","O","O","O","O","?","?","?","?","?","?","?","?","?","?","?","?","?","?","?","?","X","X","X","X","X","X","X","X","X","X","Y","Y","Y","Y","Y","Y","Y","Y","Y","Y","Y","Y","Y","X","?","?","?","?","?","M","M","M","M","M","?","?","?","?","?","?","?","?","?","?","?","?","?","C","C","C","C","C","C","C","C","C","C","C","C","C","C","C","C","C","C","C","C","C","C","C","C","C","C","?","?","?","?","?","?","?","?","?","?","?","?","?","?","?","B","B","B","B","B","B","B","B","B","B","B","B","B","B","B","B","B","B","B","B","B","B","B","B","B","B","B","B","B","B","B","B","B","B","B","B","B","B","B","B","B","B","B","B","B","B","B","?","?","?","K","K","K","K","?","?","?","?","?","?","?","?","?","?","?","?","U","V","V","?","W","W","?","X","X","X","X","X","X","X","X","?","Y","Y","Y","Y","Y","Y","Y","Y","?","?","?","?","?","?","?","?","Z","Z","Z","Z","Z","Z","Z","Z","Z","Z","Z","Z","Z","Z","Z","Z","Z","Z","Z","Z","Z","Z","Z","Z","Z","Z","Z","Z","Z","Z","Z","Z","Z","Z","Z","Z","Z","Z","Z","Z","Z","Z","Z","Z","Z","Z","Z","Z","Z","Z","Z","Z","Z","Z","Z","Z","Z","Z","Z","Z","Z","Z","Z","Z","Z","Z","Z","Z","Z","Z","Z","Z","Z","Z","Z","Z","Z","Z","Z","Z","Z","Z","Z","Z","Z","Z","Z","Z","Z","Z","Z","Z","Z","Z","Z","Z","Z","Z","Z","Z","Z","Z","Z","Z","Z","Z","Z","Z","Z","Z","Z","Z","Z","Z","Z","Z","Z","Z","Z","Z","Z","Z","Z","Z","Z","Z","Z","Z","Z","Z","Z","Z","Z","Z","Z","Z","Z","Z","Z","Z","Z","Z"],"t":[49,105,118,135,151,168,186,202,219,235,251,268,285,303,320,337,354,371,385,401,418,434,450,468,486,502,517,533,549,569,583,600,616,633,650,666,683,701,716,736,753,769,787,799,816,835,851,867,883,899,916,933,949,966,986,1001,1018,1034,1053,1069,1084,1100,1117,1134,1151,1167,1184,1200,1216,1234,1250,1267,1283,1300,1317,1333,1350,1367,1386,1401,1418,1436,1452,1468,1483,1510,1525,1550,1566,1583,1600,1621,1634,1651,1666,1683,1700,1716,1734,1750,1766,1783,1800,1816,1833,1850,1867,1883,1899,1916,1933,1950,1966,1982,2000,2016,2032,2049,2066,2082,2099,2116,2132,2149,2165,2182,2200,2216,2232,2249,2266,2282,2300,2318,2332,2350,2366,2383,2399,2416,2432,2449,2466,2483,2499,2516,2533,2549,2566,2582,2599,2616,2632,2649,2665,2682,2699,2715,2732,2749,2765,2782,2799,2817,2833,2850,2867,2882,2899,2916,2933,2950,2965,2982,2998,3016,3032,3049,3066,3083,3099,3116,3133,3149,3165,3182,3199,3215,3233,3249,3265,3283,3299,3315,3332,3349,3365,3383,3399,3416,3432,3449,3465,3482,3498,3515,3531,3549,3566,3583,3599,3615,3631,3648,3667,3683,3700,3715,3731,3748,3764,3781,3800,3816,3833,3848,3866,3881,3898,3914,3933,3948,3965,3981,4001,4015,4031,4048,4065,4081,4099,4115,4131,4148,4165,4182,4198,4215,4231,4248,4266,4282,4299,4315,4331,4349,4370,4381,4399,4415,4431,4448,4465,4481,4498,4515,4531,4548,4565,4581,4598,4615,4631,4648,4665,4681,4698,4715,4731,4748,4765,4781,4797,4814,4831,4848,4864,4881,4897,4914,4932,4947,4964,4981,4997,5014,5031,5049,5064,5081,5097,5115,5132,5148,5165,5182,5198,5214,5231,5247,5264,5281,5297,5314,5331,5347,5364,5381,5397,5414,5430,5448,5465,5480,5497,5516,5531,5547,5564,5581,5613,5623,5648,5666,5683,5701,5716,5732,5750,5766,5787,5800,5820,5832,5848,5865,5882,5898,5915,5931,5947,5964,5981,5997,6014,6031,6047,6064,6081,6099,6115,6131,6149,6166,6183,6200,6216,6231,6251,6266,6280,6297,6314,6330,6347,6364,6381,6397,6414,6431,6448,6464,6481,6497,6515,6532,6547,6566,6582,6599,6618,6633,6650,6667,6683,6700,6716,6733,6750,6764,6780,6797,6814,6832,6847,6864,6882,6897,6914,6931,6947,6964,6981,6997,7014,7034,7047,7065,7081,7097,7114,7132,7147,7164,7180,7197,7213,7231,7250,7263,7280,7297,7313,7331,7347,7363,7381,7397,7414,7430,7447,7464,7480,7498,7515,7530,7547,7563,7580,7597,7613,7630,7650,7664,7681,7697,7713,7730,7747,7763,7780,7798,7815,7831,7875,7896,7913,7930,7946,7963,7980,7996,8013,8030,8047,8063,8080,8096,8113,8130,8146,8164,8180,8197,8214,8231,8247,8263,8280,8296,8315,8330,8346,8363,8380,8397,8413,8430,8447,8464,8481,8497,8514,8530,8547,8564,8580,8597,8614,8630,8647,8663,8680,8706,8719,8734,8748,8763,8781,8798,8814,8830,8846,8864,8881,8896,8914,8930,8947,8964,8981,8997,9014,9030,9047,9063,9082,9097,9113,9130,9146,9163,9180,9197,9214,9231,9248,9263,9279,9296,9313,9330,9346,9363,9380,9398,9413,9435,9447,9463,9481,9496,9514,9530,9546,9564,9580,9597,9614,9630,9646,9663,9680,9699,9713,9730,9747,9764,9779,9796,9813,9829,9847,9865,9881,9899,9913,9930,9946,9963,9979,9998,10013,10029,10055,10079,10096,10112,10130,10147,10163,10184,10196,10212,10229,10246,10262,10280,10297,10313,10330,10346,10365,10379,10396,10412,10429,10446,10462,10480,10496,10513,10529,10546,10562,10579,10596,10613,10630,10646,10663,10679,10697,10714,10730,10746,10764,10779,10796,10813,10830,10845,10864,10881,10897,10914,10931,10946,10962,10979,10997,11017,11030,11045,11062,11079,11095,11112,11129,11147,11162,11180,11195,11212,11229,11246,11262,11279,11296,11312,11329,11345,11362,11379,11396,11412,11431,11446,11463,11480,11496,11512,11530,11545,11562,11578,11599,11613,11630,11645,11662,11679,11696,11713,11729,11747,11762,11779,11795,11812,11828,11845,11862,11878,11895,11912,11929,11945,11962,11980,11995,12012,12028,12045,12062,12078,12096,12114,12128,12146,12163,12178,12195,12212,12228,12245,12261,12278,12297,12312,12328,12345,12362,12379,12395,12411,12428,12447,12462,12478,12495,12512,12530,12545,12562,12579,12595,12612,12629,12646,12663,12680,12696,12712,12729,12745,12762,12778,12795,12811,12828,12845,12861,12878,12895,12911,12928,12945,12961,12980,12996,13014,13030,13049,13062,13079,13095,13112,13128,13145,13162,13178,13195,13212,13228,13245,13263,13278,13295,13311,13328,13345,13362,13378,13397,13412,13428,13445,13461,13478,13495,13512,13529,13545,13562,13578,13595,13613,13630,13646,13663,13679,13694,13712,13728,13744,13762,13778,13797,13811,13828,13845,13861,13879,13896,13913,13930,13947,13964,13980,13995,14014,14030,14047,14066,14079,14095,14113,14130,14144,14161,14178,14194,14211,14228,14244,14261,14278,14294,14311,14330,14345,14361,14378,14395,14413,14436,14461,14479,14528,14543,14558,14578,14597,14611,14628,14644,14661,14677,14697,14712,14728,14746,14761,14778,14795,14811,14828,14845,14861,14878,14895,14911,14927,14945,14961,14979,14995,15011,15028,15045,15061,15078,15095,15111,15128,15145,15163,15178,15194,15211,15227,15245,15261,15278,15295,15311,15328,15344,15361,15378,15395,15412,15428,15444,15461,15478,15494,15511,15528,15544,15562,15578,15594,15611,15628,15644,15661,15677,15694,15711,15727,15745,15762,15779,15797,15811,15827,15844,15862,15878,15894,15911,15934,15961,15977,15994,16011,16027,16045,16061,16078,16094,16110,16127,16144,16160,16177,16194,16210,16227,16244,16260,16278,16295,16311,16328,16346,16362,16379,16396,16410,16427,16444,16460,16478,16495,16511,16527,16544,16560,16577,16596,16612,16627,16644,16662,16678,16695,16712,16727,16745,16762,16779,16796,16812,16827,16844,16860,16877,16893,16910,16927,16946,16961,16978,16995,17011,17028,17043,17060,17077,17096,17111,17127,17145,17161,17178,17195,17211,17228,17243,17262,17278,17294,17310,17327,17354,17377,17394,17410,17428,17443,17460,17477,17493,17510,17527,17543,17560,17577,17593,17610,17626,17643,17661,17678,17695,17711,17728,17745,17760,17779,17795,17812,17828,17845,17862,17877,17893,17910,17928,17945,17961,17978,17996,18012,18028,18045,18062,18076,18093,18110,18128,18145,18162,18176,18193,18210,18226,18243,18260,18276,18293,18312,18328,18345,18361,18378,18396,18412,18429,18444,18461,18477,18493,18510,18526,18543,18560,18576,18593,18610,18628,18645,18662,18678,18694,18709,18726,18746,18786,18799,18822,18835,18864,18877,18893,18910,18926,18943,18959,18977,18994,19010,19026,19043,19059,19076,19093,19109,19127,19143,19160,19177,19193,19210,19227,19243,19260,19277,19294,19310,19326,19343,19359,19377,19393,19410,19427,19444,19460,19478,19493,19509,19526,19544,19559,19577,19593,19610,19627,19643,19659,19677,19693,19709,19726,19744,19761,19776,19793,19809,19826,19843,19859,19876,19893,19909,19926,19943,19960,19976,19993,20009,20026,20043,20059,20076,20093,20109,20126,20144,20160,20176,20192,20221,20242,20259,20276,20292,20309,20327,20343,20360,20375,20392,20409,20425,20442,20459,20476,20492,20509,20526,20542,20559,20575,20592,20609,20626,20643,20659,20676,20692,20709,20725,20744,20760,20778,20794,20809,20825,20844,20860,20877,20894,20910,20927,20944,20961,20978,20994,21011,21027,21044,21061,21077,21094,21110,21125,21142,21159,21175,21192,21209,21225,21242,21259,21275,21292,21309,21325,21342,21360,21377,21394,21411,21425,21442,21459,21475,21492,21509,21525,21542,21559,21575,21592,21616,21627,21642,21659,21676,21693,21711,21727,21743,21760,21776,21793,21810,21827,21843,21860,21876,21893,21910,21926,21944,21960,21976,21995,22009,22026,22043,22060,22085,22110,22126,22142,22159,22175,22192,22208,22226,22242,22259,22276,22292,22309,22325,22342,22358,22376,22392,22409,22426,22442,22459,22476,22492,22509,22526,22549,22559,22575,22592,22608,22625,22642,22658,22676,22692,22710,22725,22742,22758,22775,22796,22813,22826,22842,22859,22875,22892,22908,22925,22941,22958,22975,22992,23008,23026,23042,23059,23075,23092,23108,23125,23141,23158,23175,23192,23208,23225,23242,23258,23275,23292,23308,23325,23341,23358,23375,23392,23408,23425,23446,23458,23475,23491,23508,23525,23541,23559,23575,23591,23609,23625,23641,23658,23676,23691,23708,23724,23741,23758,23774,23791,23808,23824,23841,23858,23874,23891,23908,23924,23941,23958,23974,23991,24008,24025,24041,24058,24074,24091,24108,24126,24143,24158,24175,24199,24210,24226,24242,24258,24274,24291,24308,24326,24342,24358,24376,24394,24409,24425,24442,24458,24475,24492,24508,24525,24542,24558,24576,24592,24608,24624,24643,24658,24675,24692,24709,24725,24743,24759,24776,24792,24809,24824,24841,24858,24874,24892,24907,24924,24941,24958,24976,24992,25007,25024,25041,25058,25074,25091,25107,25124,25141,25157,25174,25191,25208,25224,25242,25259,25274,25292,25310,25325,25342,25358,25375,25392,25408,25425,25441,25459,25475,25492,25508,25524,25542,25559,25574,25592,25611,25630,25658,25674,25691,25708,25724,25741,25758,25774,25791,25808,25824,25840,25857,25874,25891,25907,25924,25941,25957,25974,25991,26008,26024,26041,26057,26074,26091,26107,26125,26140,26157,26174,26190,26207,26224,26240,26257,26274,26290,26307,26324,26340,26357,26375,26391,26408,26425,26442,26457,26474,26491,26507,26524,26540,26557,26574,26591,26608,26625,26641,26657,26673,26692,26709,26725,26742,26758,26773,26791,26808,26825,26842,26859,26875,26892,26909,26925,26942,26957,26973,26990,27014,27040,27057,27073,27090,27107,27123,27140,27157,27174,27190,27206,27223,27240,27257,27273,27290,27308,27325,27341,27357,27374,27390,27407,27423,27440,27456,27473,27492,27507,27527,27545,27576,27595,27609,27624,27644,27658,27678,27691,27712,27731,27748,27776,27798,27824,27841,27858,27874,27892,27912,27938,27948,27964,27976,27991,28007,28024,28043,28059,28078,28091,28108,28125,28140,28157,28174,28191,28211,28224,28244,28261,28274,28290,28310,28339,28361,28368,28390,28407,28423,28441,28463,28496,28523,28539,28557,28573,28590,28607,28624,28640,28657,28673,28690,28706,28724,28741,28757,28773,28789,28806,28823,28839,28856,28873,28889,28911,28927,28942,28956,28975,28991,29008,29024,29041,29058,29075,29092,29107,29125,29143,29159,29176,29190,29206,29225,29241,29258,29275,29291,29308,29328,29340,29357,29374,29391,29408,29424,29441,29457,29474,29491,29507,29532,29556,29573,29599,29609,29623,29639,29657,29680,29692,29709,29731,29760,29773,29789,29806,29822,29841,29856,29872,29889,29930,29950,29963,29990,30006,30028,30039,30056,30073,30089,30106,30122,30142,30156,30172,30189,30206,30222,30239,30256,30272,30289,30306,30322,30339,30356,30372,30390,30408,30422,30440,30456,30472,30489,30506,30522,30539,30555,30572,30589,30606,30622,30639,30656,30672,30689,30705,30722,30739,30760,30774,30789,30805,30822,30839,30855,30872,30889,30905,30922,30939,30955,30972,30989,31005,31023,31044,31066,31083,31106,31122,31140,31155,31172,31189,31205,31222,31238,31255,31272,31289,31307,31338,31350,31380,31406,31422,31439,31455,31472,31488,31505,31522,31538,31555,31572,31589,31605,31622,31638,31655,31672,31688,31705,31722,31739,31755,31772,31788,31805,31822,31838,31856,31872,31892,31906,31923,31938,31955,31972,31988,32005,32022,32038,32055,32072,32088,32105,32125,32139,32155,32172,32188,32205,32222,32238,32255,32271,32288,32305,32322,32338,32355,32371,32388,32405,32422,32438,32455,32471,32488,32505,32521,32538,32555,32571,32615,32639,32655,32671,32688,32705,32721,32738,32755,32772,32805,32821,32838,32857,32871,32888,32905,32922,32938,32955,32971,32988,33005,33022,33038,33055,33071,33088,33105,33124,33138,33155,33171,33188,33204,33222,33238,33254,33271,33288,33305,33321,33338,33355,33372,33388,33405,33422,33439,33455,33471,33488,33505,33521,33538,33555,33571,33589,33605,33622,33639,33657,33672,33688,33705,33722,33739,33756,33773,33790,33807,33823,33840,33855,33871,33888,33905,33922,33938,33954,33972,33988,34005,34022,34039,34055,34071,34088,34104,34121,34138,34154,34171,34188,34205,34221,34238,34254,34271,34288,34306,34321,34338,34355,34371,34387,34405,34421,34437,34454,34471,34488,34504,34521,34538,34554,34572,34587,34604,34621,34637,34655,34673,34687,34704,34721,34737,34755,34772,34788,34804,34821,34837,34854,34871,34888,34904,34921,34937,34954,34971,34988,35004,35021,35037,35054,35071,35088,35106,35121,35137,35154,35171,35187,35204,35221,35239,35255,35272,35289,35305,35322,35338,35354,35370,35387,35404,35420,35439,35454,35471,35487,35504,35521,35537,35556,35572,35589,35611,35638,35654,35670,35687,35704,35721,35738,35754,35771,35787,35804,35821,35838,35854,35870,35887,35904,35921,35938,35955,35970,35987,36004,36020,36037,36054,36070,36088,36105,36122,36139,36154,36170,36187,36204,36220,36237,36256,36270,36287,36305,36320,36339,36354,36370,36387,36404,36421,36437,36453,36470,36487,36505,36521,36538,36555,36571,36587,36603,36620,36637,36653,36670,36687,36703,36721,36737,36754,36770,36788,36804,36820,36839,36853,36870,36887,36903,36920,36937,36954,36970,36987,37003,37020,37037,37054,37071,37087,37104,37120,37137,37154,37171,37188,37205,37220,37237,37253,37270,37287,37303,37320,37339,37354,37370,37387,37403,37420,37437,37454,37471,37488,37504,37521,37537,37553,37572,37588,37605,37622,37638,37654,37671,37688,37704,37720,37737,37753,37770,37788,37805,37821,37838,37853,37870,37886,37903,37920,37936,37953,37970,37987,38006,38022,38038,38053,38070,38086,38104,38120,38137,38153,38170,38186,38203,38220,38237,38254,38272,38286,38304,38321,38338,38360,38387,38403,38420,38436,38453,38469,38486,38503,38519,38536,38553,38569,38586,38603,38619,38637,38654,38670,38686,38703,38719,38736,38754,38771,38786,38804,38821,38838,38854,38871,38886,38903,38921,38938,38955,38972,38986,39003,39019,39036,39053,39071,39087,39103,39120,39136,39153,39169,39187,39203,39219,39236,39253,39269,39286,39304,39321,39337,39354,39371,39387,39403,39421,39438,39454,39470,39487,39503,39519,39536,39553,39569,39586,39602,39619,39636,39653,39671,39687,39704,39719,39736,39752,39769,39787,39802,39819,39837,39853,39869,39886,39902,39919,39936,39952,39970,39987,40004,40020,40036,40054,40071,40087,40104,40119,40137,40154,40169,40187,40204,40221,40237,40254,40270,40286,40302,40323,40336,40352,40369,40385,40403,40421,40437,40454,40469,40485,40502,40520,40535,40554,40569,40585,40602,40619,40635,40652,40669,40687,40702,40719,40735,40752,40769,40787,40804,40820,40837,40853,40870,40885,40902,40919,40935,40952,40969,40986,41002,41019,41035,41052,41069,41085,41102,41119,41135,41152,41170,41185,41202,41219,41236,41252,41269,41285,41302,41320,41337,41353,41370,41386,41403,41420,41436,41453,41469,41485,41502,41518,41535,41552,41569,41585,41602,41619,41635,41652,41668,41686,41703,41720,41736,41753,41770,41787,41803,41818,41837,41853,41870,41887,41903,41918,41935,41952,41968,41987,42005,42019,42035,42052,42068,42085,42105,42119,42139,42152,42168,42186,42202,42219,42235,42253,42269,42286,42303,42319,42335,42352,42369,42387,42403,42419,42436,42452,42468,42485,42501,42518,42538,42552,42569,42585,42602,42618,42635,42652,42669,42686,42703,42719,42736,42753,42770,42787,42803,42820,42837,42855,42870,42887,42903,42920,42937,42953,42970,42987,43003,43020,43036,43053,43068,43085,43103,43119,43136,43153,43168,43185,43201,43218,43236,43253,43268,43285,43301,43319,43336,43353,43368,43385,43402,43418,43435,43451,43468,43485,43501,43518,43535,43551,43568,43585,43601,43618,43634,43651,43668,43684,43701,43718,43734,43751,43768,43784,43801,43820,43836,43852,43869,43884,43903,43926,43939,43954,43969,43986,44002,44020,44036,44054,44070,44087,44102,44119,44139,44154,44169,44185,44202,44219,44238,44256,44270,44287,44303,44321,44338,44354,44372,44387,44404,44420,44437,44453,44471,44487,44504,44518,44538,44556,44571,44587,44602,44618,44635,44652,44668,44685,44703,44718,44735,44752,44768,44785,44803,44818,44836,44852,44868,44885,44902,44918,44935,44953,44969,44985,45003,45018,45035,45053,45069,45084,45102,45118,45135,45152,45169,45185,45201,45219,45235,45252,45269,45286,45307,45334,45352,45367,45384,45400,45418,45434,45450,45469,45484,45500,45518,45534,45550,45567,45584,45600,45617,45634,45650,45667,45684,45701,45717,45735,45750,45767,45784,45801,45817,45834,45851,45867,45884,45900,45917,45934,45951,45968,45984,46001,46018,46034,46051,46067,46084,46100,46117,46134,46150,46168,46185,46201,46218,46235,46251,46267,46284,46301,46317,46334,46350,46367,46383,46400,46417,46433,46450,46467,46484,46500,46517,46534,46550,46567,46583,46600,46617,46641,46653,46668,46684,46701,46718,46735,46751,46769,46786,46803,46820,46834,46851,46868,46884,46901,46918,46935,46954,46970,46987,47002,47019,47036,47050,47067,47084,47100,47119,47137,47151,47167,47184,47201,47218,47234,47251,47268,47289,47302,47320,47336,47351,47370,47386,47404,47419,47435,47452,47469,47486,47500,47522,47537,47551,47567,47583,47602,47618,47633,47651,47668,47685,47700,47717,47733,47750,47767,47783,47800,47819,47834,47851,47867,47884,47900,47918,47934,47951,47968,47984,48000,48022,48037,48051,48069,48085,48101,48118,48134,48151,48169,48185,48202,48218,48235,48250,48268,48284,48301,48318,48336,48350,48367,48384,48400,48417,48438,48452,48469,48486,48500,48518,48535,48550,48568,48584,48600,48617,48634,48651,48667,48685,48700,48717,48734,48750,48767,48784,48800,48816,48834,48850,48866,48884,48901,48918,48935,48951,48966,48984,49001,49017,49033,49050,49067,49083,49100,49116,49133,49152,49168,49184,49200,49217,49233,49250,49266,49284,49300,49316,49333,49349,49367,49384,49400,49417,49433,49450,49467,49483,49500,49517,49534,49550,49569,49585,49601,49617,49635,49651,49670,49686,49703,49720,49736,49750,49766,49783,49802,49818,49833,49850,49867,49883,49899,49917,49933,49950,49967,49983,50000,50017,50034,50050,50066,50083,50100,50117,50133,50158,50183,50199,50216,50232,50249,50266,50282,50299,50315,50333,50349,50366,50382,50399,50416,50432,50449,50465,50483,50499,50515,50532,50549,50565,50582,50599,50616,50632,50649,50666,50683,50699,50719,50732,50749,50765,50782,50799,50815,50832,50849,50867,50882,50900,50915,50932,50949,50966,50982,50999,51016,51033,51049,51066,51082,51099,51116,51134,51149,51166,51182,51199,51216,51232,51249,51266,51282,51299,51316,51332,51350,51366,51382,51399,51416,51432,51450,51466,51482,51500,51516,51532,51549,51565,51582,51600,51616,51633,51648,51665,51682,51698,51715,51733,51750,51767,51783,51800,51816,51833,51848,51865,51882,51898,51915,51932,51948,51966,51982,51998,52015,52032,52049,52065,52082,52098,52115,52132,52149,52165,52182,52199,52216,52233,52249,52266,52282,52299,52315,52333,52349,52366,52383,52400,52416,52433,52450,52467,52481,52500,52516,52533,52550,52566,52581,52599,52616,52632,52649,52666,52682,52698,52716,52733,52753,52765,52782,52800,52816,52833,52849,52866,52883,52898,52918,52932,52948,52965,52981,53000,53017,53033,53050,53067,53083,53098,53114,53131,53148,53166,53181,53199,53216,53232,53248,53264,53282,53298,53314,53333,53348,53365,53382,53399,53423,53434,53450,53465,53482,53498,53515,53532,53548,53566,53582,53599,53615,53632,53648,53666,53682,53699,53716,53732,53749,53765,53781,53799,53817,53831,53849,53867,53881,53899,53914,53931,53948,53964,53982,53998,54014,54031,54048,54064,54081,54098,54114,54131,54148,54164,54181,54198,54215,54232,54248,54265,54282,54298,54315,54332,54348,54366,54383,54399,54416,54432,54448,54464,54481,54498,54514,54531,54548,54564,54581,54597,54614,54631,54647,54664,54681,54697,54714,54731,54749,54772,54798,54814,54831,54847,54864,54881,54898,54916,54932,54948,54965,54981,54997,55014,55031,55049,55065,55081,55097,55114,55132,55148,55165,55181,55197,55214,55231,55247,55264,55280,55297,55315,55332,55349,55365,55382,55399,55415,55432,55448,55464,55480,55497,55514,55530,55547,55564,55581,55597,55615,55631,55649,55664,55681,55698,55715,55731,55748,55764,55781,55797,55814,55831,55848,55864,55881,55897,55914,55931,55947,55963,55980,55997,56014,56030,56047,56063,56080,56098,56114,56131,56147,56164,56184,56197,56214,56231,56247,56264,56281,56297,56314,56331,56348,56364,56381,56397,56414,56431,56448,56464,56481,56498,56514,56531,56547,56564,56580,56598,56614,56630,56648,56664,56680,56698,56714,56730,56748,56764,56780,56797,56814,56831,56847,56864,56880,56897,56915,56930,56948,56964,56981,56997,57014,57031,57047,57064,57080,57105,57131,57147,57164,57180,57206,57229,57244,57257,57334,57359,57375,57408,57434,57449,57461,57471,57489,57521,57536,57552,57571,57584,57600,57629,57644,57677,57710,57745,57776,57786,57803,57814,57832,57849,57868,57883,57899,57915,57932,57948,57976,58006,58015,58033,58049,58066,58083,58099,58115,58134,58150,58164,58180,58197,58213,58230,58246,58267,58287,58313,58329,58346,58364,58381,58397,58413,58431,58447,58463,58480,58496,58513,58530,58547,58563,58580,58597,58613,58630,58647,58663,58680,58696,58721,58747,58763,58781,58797,58813,58831,58846,58863,58881,58896,58913,58930,58946,58963,58980,58997,59013,59030,59047,59063,59079,59097,59113,59135,59150,59164,59180,59197,59213,59230,59246,59263,59280,59296,59313,59329,59346,59363,59380,59397,59413,59430,59446,59463,59480,59496,59513,59529,59546,59563,59579,59596,59613,59629,59650,59663,59683,59698,59713,59733,59749,59763,59781,59800,59814,59834,59849,59863,59879,59896,59913,59930,59946,59963,59979,59996,60012,60029,60046,60062,60079,60096,60113,60129,60146,60163,60179,60196,60212,60229,60246,60264,60279,60296,60313,60331,60346,60365,60379,60396,60413,60429,60446,60463,60479,60503,60522,60537,60559,60567,60584,60599,60615,60634,60649,60666,60682,60698,60715,60732,60747,60763,60782,60799,60813,60829,60847,60864,60880,60896,60913,60930,60947,60967,60984,61003,61015,61031,61049,61065,61083,61103,61119,61135,61158,61164,61180,61197,61214,61232,61247,61264,61281,61320,61327,61346,61363,61380,61397,61425,61441,61470,61479,61498,61512,61529,61545,61562,61580,61595,61612,61629,61648],"hit":[null],"x":[-1.751700680272109,-1.751700680272109,-1.751700680272109,-1.751700680272109,-1.751700680272109,-1.751700680272109,-1.751700680272109,-1.751700680272109,-1.751700680272109,-1.751700680272109,-1.751700680272109,-1.751700680272109,-1.751700680272109,-1.751700680272109,-1.751700680272109,-1.751700680272109,-1.751700680272109,-1.751700680272109,-1.751700680272109,-1.751700680272109,-1.751700680272109,-1.751700680272109,-1.751700680272109,-1.751700680272109,-1.751700680272109,-1.751700680272109,-1.751700680272109,-1.751700680272109,-1.751700680272109,-1.751700680272109,-1.751700680272109,-1.751700680272109,-1.751700680272109,-1.751700680272109,-1.751700680272109,-1.751700680272109,-1.751700680272109,-1.751700680272109,-1.751700680272109,-1.751700680272109,-1.751700680272109,-1.751700680272109,-1.751700680272109,-1.751700680272109,-1.751700680272109,-1.751700680272109,-1.751700680272109,-1.751700680272109,-1.751700680272109,-1.751700680272109,-1.751700680272109,-1.751700680272109,-1.751700680272109,-1.751700680272109,-0.030612244897959183,0.023809523809523808,0.07482993197278912,0.1360544217687075,0.17006802721088435,0.19047619047619047,0.19387755102040816,0.20068027210884354,0.20408163265306123,0.20748299319727892,0.20748299319727892,0.20748299319727892,0.20748299319727892,0.20748299319727892,0.20748299319727892,0.20748299319727892,0.20748299319727892,0.20748299319727892,0.20748299319727892,0.20748299319727892,0.20748299319727892,0.20748299319727892,0.20748299319727892,0.20748299319727892,0.2108843537414966,0.2108843537414966,0.2108843537414966,0.2108843537414966,0.2108843537414966,0.2108843537414966,0.2108843537414966,0.2108843537414966,0.2108843537414966,0.2108843537414966,0.2108843537414966,0.2108843537414966,0.2108843537414966,0.2108843537414966,0.2108843537414966,0.2108843537414966,0.2108843537414966,0.2108843537414966,0.2108843537414966,0.2108843537414966,0.2108843537414966,0.2108843537414966,0.2108843537414966,0.2108843537414966,0.2108843537414966,0.2108843537414966,0.2108843537414966,0.2108843537414966,0.2108843537414966,0.2108843537414966,0.2108843537414966,0.2108843537414966,0.2108843537414966,0.2108843537414966,0.2108843537414966,0.2108843537414966,0.2108843537414966,0.2108843537414966,0.2108843537414966,0.2108843537414966,0.2108843537414966,0.2108843537414966,0.2108843537414966,0.20748299319727892,0.20748299319727892,0.20748299319727892,0.20748299319727892,0.20748299319727892,0.20748299319727892,0.20748299319727892,0.20748299319727892,0.14965986394557823,0.09863945578231292,0.05782312925170068,0.04421768707482993,0.017006802721088437,-0.006802721088435374,-0.02040816326530612,-0.030612244897959183,-0.04421768707482993,-0.05782312925170068,-0.07142857142857142,-0.0782312925170068,-0.08503401360544217,-0.09523809523809523,-0.10204081632653061,-0.10204081632653061,-0.1054421768707483,-0.1054421768707483,-0.1054421768707483,-0.10884353741496598,-0.10884353741496598,-0.10884353741496598,-0.10884353741496598,-0.10884353741496598,-0.10884353741496598,-0.10884353741496598,-0.10884353741496598,-0.10884353741496598,-0.10884353741496598,-0.10884353741496598,-0.10884353741496598,-0.10884353741496598,-0.10884353741496598,-0.10884353741496598,-0.10884353741496598,-0.10884353741496598,-0.10884353741496598,-0.10884353741496598,-0.10884353741496598,-0.10884353741496598,-0.10884353741496598,-0.10884353741496598,-0.10884353741496598,-0.10884353741496598,-0.10884353741496598,-0.10884353741496598,-0.1054421768707483,-0.09863945578231292,-0.08503401360544217,-0.07482993197278912,-0.04081632653061224,-0.013605442176870748,0,0.05102040816326531,0.07482993197278912,0.08503401360544217,0.09523809523809523,0.10204081632653061,0.1054421768707483,0.10884353741496598,0.11224489795918367,0.11904761904761904,0.12244897959183673,0.13945578231292516,0.15306122448979592,0.19047619047619047,0.21428571428571427,0.25170068027210885,0.3129251700680272,0.47619047619047616,0.5476190476190477,0.5748299319727891,0.7551020408163265,0.7653061224489796,0.7755102040816326,0.7755102040816326,0.7755102040816326,0.7755102040816326,0.7755102040816326,0.7755102040816326,0.7755102040816326,0.7755102040816326,0.7755102040816326,0.7755102040816326,0.7755102040816326,0.7755102040816326,0.7755102040816326,0.7755102040816326,0.7755102040816326,0.7755102040816326,0.7755102040816326,0.7755102040816326,0.7755102040816326,0.7755102040816326,0.7755102040816326,0.7755102040816326,0.7755102040816326,0.7755102040816326,0.7755102040816326,0.7755102040816326,0.7755102040816326,0.7755102040816326,0.7755102040816326,0.8401360544217688,0.9149659863945578,0.9387755102040817,0.9727891156462585,0.9965986394557823,1.0034013605442176,1.0204081632653061,1.034013605442177,1.0374149659863945,1.0408163265306123,1.0442176870748299,1.0442176870748299,1.0442176870748299,1.0442176870748299,1.0442176870748299,1.034013605442177,0.8435374149659864,0.8435374149659864,0.48639455782312924,0.3877551020408163,0.282312925170068,0.24489795918367346,0.23809523809523808,0.23469387755102042,0.22789115646258504,0.22448979591836735,0.22448979591836735,0.22448979591836735,0.22108843537414966,0.22108843537414966,0.22108843537414966,0.22108843537414966,0.21768707482993196,0.21768707482993196,0.21428571428571427,0.19727891156462585,0.17346938775510204,0.11564625850340136,0.07482993197278912,0.05782312925170068,0.047619047619047616,0.04081632653061224,0.04081632653061224,0.03741496598639456,0.03741496598639456,0.03741496598639456,0.034013605442176874,0.034013605442176874,0.034013605442176874,0.034013605442176874,0.034013605442176874,0.034013605442176874,0.034013605442176874,0.034013605442176874,0.034013605442176874,0.034013605442176874,0.034013605442176874,0.034013605442176874,0.034013605442176874,0.034013605442176874,0.034013605442176874,0.034013605442176874,0.034013605442176874,0.034013605442176874,0.034013605442176874,0.034013605442176874,0.034013605442176874,0.034013605442176874,0.034013605442176874,0.034013605442176874,0.034013605442176874,0.034013605442176874,0.034013605442176874,0.034013605442176874,0.034013605442176874,0.034013605442176874,0.034013605442176874,0.034013605442176874,0.034013605442176874,0.034013605442176874,0.034013605442176874,0.034013605442176874,0.034013605442176874,0.034013605442176874,0.034013605442176874,0.034013605442176874,0.034013605442176874,0.034013605442176874,0.034013605442176874,0.034013605442176874,0.034013605442176874,0.034013605442176874,0.034013605442176874,0.034013605442176874,0.034013605442176874,0.034013605442176874,0.034013605442176874,0.034013605442176874,0.034013605442176874,0.034013605442176874,0.034013605442176874,0.034013605442176874,0.034013605442176874,0.034013605442176874,0.034013605442176874,0.034013605442176874,0.034013605442176874,0.034013605442176874,0.034013605442176874,0.034013605442176874,0.034013605442176874,0.034013605442176874,0.034013605442176874,0.034013605442176874,0.034013605442176874,0.034013605442176874,0.034013605442176874,0.034013605442176874,0.034013605442176874,0.034013605442176874,0.034013605442176874,0.034013605442176874,0.034013605442176874,0.034013605442176874,0.034013605442176874,0.034013605442176874,0.034013605442176874,0.034013605442176874,0.034013605442176874,0.034013605442176874,0.034013605442176874,0.034013605442176874,0.034013605442176874,0.034013605442176874,0.034013605442176874,0.034013605442176874,0.034013605442176874,0.034013605442176874,0.034013605442176874,0.034013605442176874,0.034013605442176874,0.034013605442176874,0.034013605442176874,0.034013605442176874,0.034013605442176874,0.034013605442176874,0.034013605442176874,0.034013605442176874,0.034013605442176874,0.034013605442176874,0.034013605442176874,0.034013605442176874,0.034013605442176874,0.034013605442176874,0.034013605442176874,0.034013605442176874,0.034013605442176874,0.034013605442176874,0.034013605442176874,0.034013605442176874,0.034013605442176874,0.034013605442176874,0.034013605442176874,0.034013605442176874,0.034013605442176874,0.034013605442176874,0.034013605442176874,0.034013605442176874,0.034013605442176874,0.034013605442176874,0.034013605442176874,0.034013605442176874,0.034013605442176874,0.034013605442176874,0.06462585034013606,0.09523809523809523,0.10204081632653061,0.11224489795918367,0.11564625850340136,0.11564625850340136,0.11904761904761904,0.12244897959183673,0.12244897959183673,0.12244897959183673,0.12585034013605442,0.12585034013605442,0.1292517006802721,0.1326530612244898,0.1360544217687075,0.1360544217687075,0.13945578231292516,0.13945578231292516,0.13945578231292516,0.13945578231292516,0.13945578231292516,0.13945578231292516,0.13945578231292516,0.13945578231292516,0.13945578231292516,0.13945578231292516,0.13945578231292516,0.13945578231292516,0.13945578231292516,0.13945578231292516,0.13945578231292516,0.13945578231292516,0.13945578231292516,0.13945578231292516,0.13945578231292516,0.13945578231292516,0.13945578231292516,0.13945578231292516,0.13945578231292516,0.13945578231292516,0.13945578231292516,0.13945578231292516,0.13945578231292516,0.13945578231292516,0.13945578231292516,0.13945578231292516,0.13945578231292516,0.13945578231292516,0.13945578231292516,0.13945578231292516,0.13945578231292516,0.13945578231292516,0.13945578231292516,0.13945578231292516,0.13945578231292516,0.13945578231292516,0.13945578231292516,0.13945578231292516,0.13945578231292516,0.13945578231292516,0.13945578231292516,0.13945578231292516,0.13945578231292516,0.13945578231292516,0.13945578231292516,0.13945578231292516,0.13945578231292516,0.13945578231292516,0.13945578231292516,0.13945578231292516,0.13945578231292516,0.13945578231292516,0.13945578231292516,0.13945578231292516,0.13945578231292516,0.13945578231292516,0.13945578231292516,0.13945578231292516,0.13945578231292516,0.13945578231292516,0.13945578231292516,0.13945578231292516,0.13945578231292516,0.13945578231292516,0.13945578231292516,0.13945578231292516,0.13945578231292516,0.13945578231292516,0.13945578231292516,0.13945578231292516,0.13945578231292516,0.1326530612244898,0.12585034013605442,0.11564625850340136,0.09863945578231292,0.09523809523809523,0.09183673469387756,0.08843537414965986,0.08503401360544217,0.0782312925170068,0.07142857142857142,0.06802721088435375,0.06462585034013606,0.06462585034013606,0.061224489795918366,0.061224489795918366,0.05782312925170068,0.05782312925170068,0.05442176870748299,0.05442176870748299,0.05102040816326531,0.05102040816326531,0.04421768707482993,0.04081632653061224,0.03741496598639456,0.030612244897959183,0.023809523809523808,0.023809523809523808,0.02040816326530612,0.017006802721088437,0.017006802721088437,0.017006802721088437,0.017006802721088437,0.013605442176870748,0.013605442176870748,0.013605442176870748,0.013605442176870748,0.01020408163265306,0.01020408163265306,0.01020408163265306,0.01020408163265306,0.006802721088435374,0.006802721088435374,0.006802721088435374,0.006802721088435374,0.006802721088435374,0.006802721088435374,0.006802721088435374,0.006802721088435374,0.006802721088435374,0.006802721088435374,0.006802721088435374,0.006802721088435374,0.006802721088435374,0.006802721088435374,0.006802721088435374,0.006802721088435374,0.006802721088435374,0.006802721088435374,0.006802721088435374,0.006802721088435374,0.006802721088435374,0.006802721088435374,0.006802721088435374,0.006802721088435374,0.006802721088435374,0.006802721088435374,0.006802721088435374,0.006802721088435374,0.006802721088435374,0.006802721088435374,0.006802721088435374,0.006802721088435374,0.006802721088435374,0.006802721088435374,0.006802721088435374,0.006802721088435374,0.006802721088435374,0.006802721088435374,0.006802721088435374,0.006802721088435374,0.006802721088435374,0.006802721088435374,0.006802721088435374,0.006802721088435374,0.006802721088435374,0.006802721088435374,0.006802721088435374,0.006802721088435374,0.006802721088435374,0.006802721088435374,0.006802721088435374,0.006802721088435374,0.006802721088435374,0.006802721088435374,0.006802721088435374,0.006802721088435374,0.006802721088435374,0.006802721088435374,0.006802721088435374,0.006802721088435374,0.006802721088435374,0.006802721088435374,0.006802721088435374,0.006802721088435374,0.006802721088435374,0.006802721088435374,0.006802721088435374,0.006802721088435374,0.006802721088435374,0.006802721088435374,0.006802721088435374,0.006802721088435374,0.006802721088435374,0.006802721088435374,0.006802721088435374,0.006802721088435374,0.006802721088435374,0.006802721088435374,0.006802721088435374,0.006802721088435374,0.006802721088435374,0.006802721088435374,0.006802721088435374,0.006802721088435374,0.006802721088435374,0.006802721088435374,0.006802721088435374,0.006802721088435374,0.006802721088435374,0.006802721088435374,0.006802721088435374,0.006802721088435374,0.006802721088435374,0.006802721088435374,0.006802721088435374,0.006802721088435374,0.006802721088435374,0.006802721088435374,0.006802721088435374,0.006802721088435374,0.006802721088435374,0.006802721088435374,0.006802721088435374,0.006802721088435374,0.006802721088435374,0.006802721088435374,0.006802721088435374,0.006802721088435374,0.006802721088435374,0.006802721088435374,0.006802721088435374,0.006802721088435374,0.006802721088435374,0.006802721088435374,0.006802721088435374,0.006802721088435374,0.006802721088435374,0.006802721088435374,0.006802721088435374,0.006802721088435374,0.006802721088435374,0.006802721088435374,0.006802721088435374,0.006802721088435374,0.006802721088435374,0.006802721088435374,0.006802721088435374,0.006802721088435374,0.006802721088435374,0.006802721088435374,0.006802721088435374,0.006802721088435374,0.006802721088435374,0.006802721088435374,0.006802721088435374,0.006802721088435374,0.006802721088435374,0.006802721088435374,0.006802721088435374,0.006802721088435374,0.006802721088435374,0.006802721088435374,0.006802721088435374,0.006802721088435374,0.006802721088435374,0.006802721088435374,0.006802721088435374,0.006802721088435374,0.006802721088435374,0.006802721088435374,0.006802721088435374,0.006802721088435374,0.006802721088435374,0.006802721088435374,0.006802721088435374,0.006802721088435374,0.006802721088435374,0.006802721088435374,0.006802721088435374,0.006802721088435374,0.006802721088435374,0.006802721088435374,0.006802721088435374,0.006802721088435374,0.006802721088435374,0.006802721088435374,0.006802721088435374,0.006802721088435374,0.006802721088435374,0.006802721088435374,0.006802721088435374,0.006802721088435374,0.006802721088435374,0.006802721088435374,0.006802721088435374,0.006802721088435374,0.006802721088435374,0.006802721088435374,0.006802721088435374,0.006802721088435374,0.006802721088435374,0.006802721088435374,0.006802721088435374,0.006802721088435374,0.006802721088435374,0.006802721088435374,0.006802721088435374,0.006802721088435374,0.006802721088435374,0.006802721088435374,0.006802721088435374,0.006802721088435374,0.006802721088435374,0.006802721088435374,0.006802721088435374,0.006802721088435374,0.006802721088435374,0.006802721088435374,0.006802721088435374,0.006802721088435374,0.006802721088435374,0.006802721088435374,0.006802721088435374,0.006802721088435374,0.006802721088435374,0.006802721088435374,0.006802721088435374,0.006802721088435374,0.006802721088435374,0.006802721088435374,0.006802721088435374,0.006802721088435374,0.006802721088435374,0.006802721088435374,0.006802721088435374,0.006802721088435374,0.006802721088435374,0.006802721088435374,0.006802721088435374,0.006802721088435374,0.006802721088435374,0.006802721088435374,0.006802721088435374,0.006802721088435374,0.006802721088435374,0.006802721088435374,0.006802721088435374,0.006802721088435374,0.006802721088435374,0.006802721088435374,0.006802721088435374,0.006802721088435374,0.006802721088435374,0.006802721088435374,0.006802721088435374,0.006802721088435374,0.006802721088435374,0.006802721088435374,0.006802721088435374,0.006802721088435374,0.006802721088435374,0.006802721088435374,0.006802721088435374,0.006802721088435374,0.006802721088435374,0.006802721088435374,0.006802721088435374,0.006802721088435374,0.006802721088435374,0.006802721088435374,0.006802721088435374,0.006802721088435374,0.006802721088435374,0.006802721088435374,0.006802721088435374,0.006802721088435374,0.006802721088435374,0.006802721088435374,0.006802721088435374,0.006802721088435374,0.006802721088435374,0.006802721088435374,0.006802721088435374,0.006802721088435374,0.006802721088435374,0.006802721088435374,0.006802721088435374,0.006802721088435374,0.006802721088435374,0.006802721088435374,0.006802721088435374,0.006802721088435374,0.006802721088435374,0.006802721088435374,0.006802721088435374,0.006802721088435374,0.006802721088435374,0.006802721088435374,0.006802721088435374,0.006802721088435374,0.006802721088435374,0.006802721088435374,0.006802721088435374,0.006802721088435374,0.006802721088435374,0.006802721088435374,0.006802721088435374,0.006802721088435374,0.006802721088435374,0.006802721088435374,0.006802721088435374,0.006802721088435374,0.006802721088435374,0.006802721088435374,0.006802721088435374,0.006802721088435374,0.006802721088435374,0.006802721088435374,0.006802721088435374,0.006802721088435374,0.006802721088435374,0.006802721088435374,0.006802721088435374,0.006802721088435374,0.006802721088435374,0.006802721088435374,0.006802721088435374,0.006802721088435374,0.006802721088435374,0.006802721088435374,0.006802721088435374,0.006802721088435374,0.006802721088435374,0.006802721088435374,0.006802721088435374,0.01020408163265306,0.01020408163265306,0.01020408163265306,0.013605442176870748,0.017006802721088437,0.017006802721088437,0.02040816326530612,0.023809523809523808,0.027210884353741496,0.027210884353741496,0.027210884353741496,0.027210884353741496,0.027210884353741496,0.027210884353741496,0.027210884353741496,0.027210884353741496,0.027210884353741496,0.04421768707482993,0.13945578231292516,0.16326530612244897,0.17346938775510204,0.20408163265306123,0.2687074829931973,0.29591836734693877,0.3163265306122449,0.3333333333333333,0.3435374149659864,0.36394557823129253,0.3945578231292517,0.40476190476190477,0.4217687074829932,0.42857142857142855,0.43197278911564624,0.4387755102040816,0.4421768707482993,0.445578231292517,0.445578231292517,0.4489795918367347,0.4489795918367347,0.4523809523809524,0.4557823129251701,0.4557823129251701,0.46258503401360546,0.46598639455782315,0.46938775510204084,0.47278911564625853,0.47959183673469385,0.48299319727891155,0.48639455782312924,0.4931972789115646,0.4965986394557823,0.5,0.5034013605442177,0.5068027210884354,0.5102040816326531,0.5136054421768708,0.5204081632653061,0.5204081632653061,0.5272108843537415,0.5272108843537415,0.5306122448979592,0.5340136054421769,0.5374149659863946,0.5374149659863946,0.5408163265306123,0.54421768707483,0.5476190476190477,0.5510204081632653,0.5544217687074829,0.5578231292517006,0.5612244897959183,0.564625850340136,0.564625850340136,0.5680272108843537,0.5680272108843537,0.5680272108843537,0.5680272108843537,0.5680272108843537,0.5680272108843537,0.5680272108843537,0.5680272108843537,0.5680272108843537,0.5680272108843537,0.5680272108843537,0.5680272108843537,0.5680272108843537,0.5680272108843537,0.5680272108843537,0.5680272108843537,0.5680272108843537,0.5680272108843537,0.5680272108843537,0.5680272108843537,0.5680272108843537,0.5680272108843537,0.5680272108843537,0.5680272108843537,0.5680272108843537,0.5680272108843537,0.5680272108843537,0.5680272108843537,0.5680272108843537,0.5680272108843537,0.5680272108843537,0.5680272108843537,0.5680272108843537,0.5680272108843537,0.5680272108843537,0.5680272108843537,0.5680272108843537,0.5680272108843537,0.5680272108843537,0.5680272108843537,0.5680272108843537,0.5680272108843537,0.5680272108843537,0.5680272108843537,0.5680272108843537,0.5680272108843537,0.5680272108843537,0.5680272108843537,0.5680272108843537,0.5680272108843537,0.5680272108843537,0.5680272108843537,0.5680272108843537,0.5680272108843537,0.5680272108843537,0.5680272108843537,0.5680272108843537,0.5680272108843537,0.5680272108843537,0.5680272108843537,0.5680272108843537,0.5680272108843537,0.5680272108843537,0.5680272108843537,0.5680272108843537,0.5680272108843537,0.5680272108843537,0.5680272108843537,0.5680272108843537,0.5680272108843537,0.5680272108843537,0.5680272108843537,0.5680272108843537,0.5680272108843537,0.5680272108843537,0.5680272108843537,0.5680272108843537,0.5680272108843537,0.5680272108843537,0.5680272108843537,0.5680272108843537,0.5680272108843537,0.5680272108843537,0.5680272108843537,0.5680272108843537,0.5680272108843537,0.5680272108843537,0.5680272108843537,0.5680272108843537,0.5680272108843537,0.5680272108843537,0.5680272108843537,0.5680272108843537,0.5680272108843537,0.5680272108843537,0.5680272108843537,0.5680272108843537,0.5680272108843537,0.5680272108843537,0.5680272108843537,0.5680272108843537,0.5680272108843537,0.5680272108843537,0.5680272108843537,0.5680272108843537,0.5680272108843537,0.5680272108843537,0.5680272108843537,0.5680272108843537,0.5680272108843537,0.5680272108843537,0.5680272108843537,0.5680272108843537,0.5680272108843537,0.5680272108843537,0.5680272108843537,0.5680272108843537,0.5680272108843537,0.5680272108843537,0.5680272108843537,0.5680272108843537,0.5680272108843537,0.5680272108843537,0.5680272108843537,0.5680272108843537,0.5680272108843537,0.5680272108843537,0.5680272108843537,0.5680272108843537,0.5680272108843537,0.5680272108843537,0.5680272108843537,0.5680272108843537,0.5680272108843537,0.5680272108843537,0.5680272108843537,0.5680272108843537,0.5680272108843537,0.5680272108843537,0.5680272108843537,0.5680272108843537,0.5680272108843537,0.5680272108843537,0.5680272108843537,0.5680272108843537,0.5680272108843537,0.5680272108843537,0.5680272108843537,0.5680272108843537,0.5680272108843537,0.5680272108843537,0.5680272108843537,0.5680272108843537,0.5680272108843537,0.5680272108843537,0.5680272108843537,0.5680272108843537,0.5680272108843537,0.5680272108843537,0.5680272108843537,0.5680272108843537,0.5680272108843537,0.5680272108843537,0.5680272108843537,0.5680272108843537,0.5680272108843537,0.5680272108843537,0.5680272108843537,0.5680272108843537,0.5680272108843537,0.5680272108843537,0.5680272108843537,0.5680272108843537,0.5680272108843537,0.5680272108843537,0.5680272108843537,0.5680272108843537,0.5680272108843537,0.5680272108843537,0.5680272108843537,0.5680272108843537,0.5680272108843537,0.5680272108843537,0.5680272108843537,0.5680272108843537,0.5680272108843537,0.5680272108843537,0.5680272108843537,0.5680272108843537,0.5680272108843537,0.5680272108843537,0.5680272108843537,0.5680272108843537,0.5680272108843537,0.5680272108843537,0.5680272108843537,0.5680272108843537,0.5680272108843537,0.5680272108843537,0.5680272108843537,0.5680272108843537,0.5680272108843537,0.5680272108843537,0.5680272108843537,0.5680272108843537,0.5680272108843537,0.5680272108843537,0.5680272108843537,0.5714285714285714,0.5748299319727891,0.5816326530612245,0.5850340136054422,0.5918367346938775,0.5952380952380952,0.5986394557823129,0.6020408163265306,0.608843537414966,0.6156462585034014,0.6190476190476191,0.6224489795918368,0.6292517006802721,0.6326530612244898,0.6360544217687075,0.6428571428571429,0.6428571428571429,0.6462585034013606,0.6530612244897959,0.6530612244897959,0.6598639455782312,0.6632653061224489,0.6666666666666666,0.6700680272108843,0.673469387755102,0.673469387755102,0.6802721088435374,0.6802721088435374,0.6836734693877551,0.6836734693877551,0.6870748299319728,0.6870748299319728,0.6904761904761905,0.6904761904761905,0.6938775510204082,0.6938775510204082,0.6972789115646258,0.6972789115646258,0.6972789115646258,0.7006802721088435,0.7006802721088435,0.7006802721088435,0.7006802721088435,0.7040816326530612,0.7040816326530612,0.7040816326530612,0.7040816326530612,0.7074829931972789,0.7074829931972789,0.7074829931972789,0.7074829931972789,0.7108843537414966,0.7108843537414966,0.7108843537414966,0.7108843537414966,0.7108843537414966,0.7108843537414966,0.7108843537414966,0.7108843537414966,0.7108843537414966,0.7108843537414966,0.7108843537414966,0.7108843537414966,0.7108843537414966,0.7108843537414966,0.7108843537414966,0.7108843537414966,0.7108843537414966,0.7108843537414966,0.7108843537414966,0.7108843537414966,0.7108843537414966,0.7108843537414966,0.7108843537414966,0.7108843537414966,0.7108843537414966,0.7108843537414966,0.7108843537414966,0.7108843537414966,0.7108843537414966,0.7108843537414966,0.7108843537414966,0.7108843537414966,0.7108843537414966,0.7108843537414966,0.7108843537414966,0.7108843537414966,0.7108843537414966,0.7108843537414966,0.7108843537414966,0.7108843537414966,0.7108843537414966,0.7108843537414966,0.7108843537414966,0.7108843537414966,0.7108843537414966,0.7108843537414966,0.7108843537414966,0.7108843537414966,0.7108843537414966,0.7108843537414966,0.7108843537414966,0.7108843537414966,0.7108843537414966,0.7108843537414966,0.7108843537414966,0.7108843537414966,0.7108843537414966,0.7108843537414966,0.7108843537414966,0.7108843537414966,0.7108843537414966,0.7108843537414966,0.7108843537414966,0.7108843537414966,0.7108843537414966,0.7108843537414966,0.7108843537414966,0.7108843537414966,0.7108843537414966,0.7108843537414966,0.7108843537414966,0.7108843537414966,0.7108843537414966,0.7108843537414966,0.7108843537414966,0.7108843537414966,0.7108843537414966,0.7108843537414966,0.7108843537414966,0.7108843537414966,0.7108843537414966,0.7108843537414966,0.7108843537414966,0.7108843537414966,0.7108843537414966,0.7108843537414966,0.7108843537414966,0.7108843537414966,0.7108843537414966,0.7108843537414966,0.7108843537414966,0.7108843537414966,0.7108843537414966,0.7108843537414966,0.7108843537414966,0.7108843537414966,0.7108843537414966,0.7108843537414966,0.7108843537414966,0.7108843537414966,0.7108843537414966,0.717687074829932,0.7312925170068028,0.7414965986394558,0.7448979591836735,0.7551020408163265,0.7687074829931972,0.7789115646258503,0.8027210884353742,0.8197278911564626,0.826530612244898,0.8367346938775511,0.8469387755102041,0.8503401360544217,0.8537414965986394,0.8571428571428571,0.8639455782312925,0.8639455782312925,0.8673469387755102,0.8707482993197279,0.8741496598639455,0.8809523809523809,0.8843537414965986,0.8877551020408163,0.8877551020408163,0.891156462585034,0.8945578231292517,0.8945578231292517,0.8979591836734694,0.9013605442176871,0.9047619047619048,0.9081632653061225,0.9115646258503401,0.9149659863945578,0.9149659863945578,0.9183673469387755,0.9217687074829932,0.9217687074829932,0.9251700680272109,0.9285714285714286,0.9319727891156463,0.935374149659864,0.9387755102040817,0.9421768707482994,0.9421768707482994,0.9455782312925171,0.9455782312925171,0.9455782312925171,0.9455782312925171,0.9455782312925171,0.9489795918367347,0.9489795918367347,0.9489795918367347,0.9489795918367347,0.9523809523809523,0.9523809523809523,0.9523809523809523,0.9523809523809523,0.95578231292517,0.95578231292517,0.95578231292517,0.95578231292517,0.9591836734693877,0.9591836734693877,0.9591836734693877,0.9591836734693877,0.9625850340136054,0.9659863945578231,0.9693877551020408,0.9761904761904762,0.9795918367346939,0.9795918367346939,0.9795918367346939,0.9795918367346939,0.9795918367346939,0.9795918367346939,0.9795918367346939,0.9795918367346939,0.9795918367346939,0.9965986394557823,0.9965986394557823,0.9965986394557823,0.9965986394557823,0.9965986394557823,0.9965986394557823,0.9965986394557823,0.9965986394557823,0.9965986394557823,0.9965986394557823,0.9965986394557823,0.9965986394557823,0.9965986394557823,0.9965986394557823,0.9965986394557823,0.9965986394557823,0.9965986394557823,0.9965986394557823,0.9965986394557823,0.9965986394557823,0.9965986394557823,0.9965986394557823,0.9965986394557823,0.9965986394557823,0.9965986394557823,0.9965986394557823,0.9965986394557823,0.9965986394557823,0.9965986394557823,0.9965986394557823,0.9965986394557823,0.9965986394557823,0.9965986394557823,0.9965986394557823,0.9965986394557823,0.9965986394557823,0.9965986394557823,0.9965986394557823,0.9965986394557823,0.9965986394557823,0.9965986394557823,0.9965986394557823,0.9965986394557823,0.9965986394557823,0.9965986394557823,0.9965986394557823,0.9965986394557823,0.9965986394557823,0.9965986394557823,0.9965986394557823,0.9965986394557823,0.9965986394557823,0.9965986394557823,0.9965986394557823,0.9965986394557823,0.9965986394557823,0.9965986394557823,0.9965986394557823,0.9965986394557823,0.9965986394557823,0.9965986394557823,0.9965986394557823,0.9965986394557823,0.9965986394557823,0.9965986394557823,0.9965986394557823,0.9965986394557823,0.9965986394557823,0.9965986394557823,0.9965986394557823,0.9965986394557823,0.9965986394557823,0.9965986394557823,0.9965986394557823,0.9965986394557823,0.9965986394557823,0.9965986394557823,0.9965986394557823,0.9965986394557823,0.9965986394557823,0.9965986394557823,0.9965986394557823,0.9965986394557823,0.9965986394557823,0.9965986394557823,0.9965986394557823,0.9965986394557823,0.9965986394557823,0.9965986394557823,0.9965986394557823,0.9965986394557823,0.9965986394557823,0.9965986394557823,0.9965986394557823,0.9965986394557823,0.9965986394557823,0.9965986394557823,0.9965986394557823,0.9965986394557823,0.9965986394557823,0.9965986394557823,0.9965986394557823,0.9965986394557823,0.9965986394557823,0.9965986394557823,0.9965986394557823,0.9965986394557823,0.9965986394557823,0.9965986394557823,0.9965986394557823,0.9965986394557823,0.9965986394557823,0.9965986394557823,0.9965986394557823,0.9965986394557823,0.9965986394557823,0.9965986394557823,0.9965986394557823,0.9965986394557823,0.9965986394557823,0.9965986394557823,0.9965986394557823,0.9965986394557823,0.9965986394557823,0.9965986394557823,0.9965986394557823,0.9965986394557823,0.9965986394557823,0.9965986394557823,0.9965986394557823,0.9965986394557823,0.9965986394557823,0.9965986394557823,0.9965986394557823,0.9965986394557823,0.9965986394557823,0.9965986394557823,0.9965986394557823,1,1,1,1,1,0.9931972789115646,0.9795918367346939,0.9761904761904762,0.9659863945578231,0.9625850340136054,0.95578231292517,0.95578231292517,0.9523809523809523,0.9489795918367347,0.9455782312925171,0.9387755102040817,0.9251700680272109,0.9115646258503401,0.8809523809523809,0.8503401360544217,0.8367346938775511,0.8333333333333334,0.8061224489795918,0.7482993197278912,0.6938775510204082,0.6802721088435374,0.6598639455782312,0.6462585034013606,0.6428571428571429,0.6326530612244898,0.6258503401360545,0.6224489795918368,0.6156462585034014,0.6122448979591837,0.608843537414966,0.5986394557823129,0.5918367346938775,0.5918367346938775,0.5884353741496599,0.5850340136054422,0.5850340136054422,0.5850340136054422,0.5850340136054422,0.5850340136054422,0.5850340136054422,0.5850340136054422,0.5850340136054422,0.5850340136054422,0.5850340136054422,0.5850340136054422,0.5850340136054422,0.5850340136054422,0.5850340136054422,0.5850340136054422,0.5850340136054422,0.5850340136054422,0.5850340136054422,0.5850340136054422,0.5850340136054422,0.5850340136054422,0.5850340136054422,0.5850340136054422,0.5850340136054422,0.5850340136054422,0.5850340136054422,0.5850340136054422,0.5850340136054422,0.5850340136054422,0.5850340136054422,0.5850340136054422,0.5850340136054422,0.5850340136054422,0.5850340136054422,0.5850340136054422,0.5850340136054422,0.5850340136054422,0.5850340136054422,0.5850340136054422,0.5850340136054422,0.5850340136054422,0.5850340136054422,0.5850340136054422,0.5850340136054422,0.5850340136054422,0.5850340136054422,0.5850340136054422,0.5850340136054422,0.5850340136054422,0.5850340136054422,0.5850340136054422,0.5850340136054422,0.5850340136054422,0.5850340136054422,0.5850340136054422,0.5850340136054422,0.5850340136054422,0.5850340136054422,0.5850340136054422,0.5850340136054422,0.5850340136054422,0.5850340136054422,0.5850340136054422,0.5850340136054422,0.5850340136054422,0.5850340136054422,0.5850340136054422,0.5850340136054422,0.5850340136054422,0.5850340136054422,0.5850340136054422,0.5850340136054422,0.5850340136054422,0.5850340136054422,0.5850340136054422,0.5850340136054422,0.5850340136054422,0.5850340136054422,0.5850340136054422,0.5850340136054422,0.5850340136054422,0.5850340136054422,0.5850340136054422,0.5850340136054422,0.5850340136054422,0.5850340136054422,0.5850340136054422,0.5850340136054422,0.5850340136054422,0.5850340136054422,0.5850340136054422,0.5850340136054422,0.5850340136054422,0.6020408163265306,0.6802721088435374,0.7006802721088435,0.7006802721088435,0.7619047619047619,0.782312925170068,0.8401360544217688,0.8503401360544217,0.8605442176870748,0.8707482993197279,0.8741496598639455,0.8877551020408163,0.8945578231292517,0.8979591836734694,0.9013605442176871,0.9047619047619048,0.9081632653061225,0.9081632653061225,0.9183673469387755,0.9217687074829932,0.9251700680272109,0.9285714285714286,0.9285714285714286,0.935374149659864,0.9387755102040817,0.9455782312925171,0.9489795918367347,0.9489795918367347,0.9489795918367347,0.95578231292517,0.95578231292517,0.9591836734693877,0.9625850340136054,0.9625850340136054,0.9625850340136054,0.9659863945578231,0.9659863945578231,0.9659863945578231,0.9659863945578231,0.9693877551020408,0.9693877551020408,0.9693877551020408,0.9693877551020408,0.9727891156462585,0.9727891156462585,0.9727891156462585,0.9761904761904762,0.9761904761904762,0.9761904761904762,0.9761904761904762,0.9795918367346939,0.9795918367346939,0.9795918367346939,0.9829931972789115,0.9829931972789115,0.9829931972789115,0.9829931972789115,0.9863945578231292,0.9863945578231292,0.9863945578231292,0.9863945578231292,0.9863945578231292,0.9863945578231292,0.9863945578231292,0.9863945578231292,0.9863945578231292,0.9863945578231292,0.9863945578231292,0.9863945578231292,0.9863945578231292,0.9863945578231292,0.9863945578231292,0.9863945578231292,0.9863945578231292,0.9863945578231292,0.9863945578231292,0.9863945578231292,0.9863945578231292,0.9863945578231292,0.9863945578231292,0.9863945578231292,0.9897959183673469,0.9897959183673469,0.9931972789115646,1,1.0034013605442176,1.0136054421768708,1.0238095238095237,1.0272108843537415,1.034013605442177,1.0442176870748299,1.064625850340136,1.0680272108843538,1.0782312925170068,1.0816326530612246,1.0850340136054422,1.08843537414966,1.0918367346938775,1.0918367346938775,1.0952380952380953,1.098639455782313,1.098639455782313,1.1020408163265305,1.1054421768707483,1.1088435374149659,1.1156462585034013,1.119047619047619,1.119047619047619,1.1224489795918366,1.1224489795918366,1.1224489795918366,1.1224489795918366,1.1224489795918366,1.1224489795918366,1.1224489795918366,1.1224489795918366,1.1224489795918366,1.1224489795918366,1.1224489795918366,1.1224489795918366,1.1224489795918366,1.1224489795918366,1.1224489795918366,1.1224489795918366,1.1224489795918366,1.1224489795918366,1.1224489795918366,1.1224489795918366,1.1224489795918366,1.1224489795918366,1.1224489795918366,1.1224489795918366,1.1224489795918366,1.1224489795918366,1.1224489795918366,1.1224489795918366,1.1224489795918366,1.1224489795918366,1.1224489795918366,1.1224489795918366,1.1224489795918366,1.1224489795918366,1.1224489795918366,1.1224489795918366,1.1224489795918366,1.1224489795918366,1.1224489795918366,1.1224489795918366,1.1224489795918366,1.1224489795918366,1.1224489795918366,1.1224489795918366,1.1224489795918366,1.1224489795918366,1.1224489795918366,1.1224489795918366,1.1224489795918366,1.1224489795918366,1.1224489795918366,1.1224489795918366,1.1224489795918366,1.1224489795918366,1.1224489795918366,1.1224489795918366,1.1224489795918366,1.1224489795918366,1.1224489795918366,1.1224489795918366,1.1224489795918366,1.1224489795918366,1.1224489795918366,1.1224489795918366,1.1224489795918366,1.1224489795918366,1.1224489795918366,1.1224489795918366,1.1224489795918366,1.1224489795918366,1.1224489795918366,1.1224489795918366,1.1224489795918366,1.1224489795918366,1.1224489795918366,1.1224489795918366,1.1224489795918366,1.1224489795918366,1.1224489795918366,1.1224489795918366,1.1224489795918366,1.1224489795918366,1.1224489795918366,1.1224489795918366,1.1224489795918366,1.1224489795918366,1.1224489795918366,1.1224489795918366,1.1224489795918366,1.1224489795918366,1.1224489795918366,1.1224489795918366,1.1224489795918366,1.1224489795918366,1.1224489795918366,1.1224489795918366,1.1224489795918366,1.1224489795918366,1.1224489795918366,1.1224489795918366,1.1224489795918366,1.1224489795918366,1.1224489795918366,1.1224489795918366,1.1224489795918366,1.1224489795918366,1.1224489795918366,1.1224489795918366,1.1224489795918366,1.1224489795918366,1.1224489795918366,1.1224489795918366,1.1224489795918366,1.1224489795918366,1.1224489795918366,1.1224489795918366,1.1224489795918366,1.1224489795918366,1.1224489795918366,1.1224489795918366,1.1224489795918366,1.1224489795918366,1.1224489795918366,1.1224489795918366,1.1224489795918366,1.1224489795918366,1.1224489795918366,1.1224489795918366,1.1224489795918366,1.1224489795918366,1.1224489795918366,1.1224489795918366,1.1224489795918366,1.1224489795918366,1.1224489795918366,1.1224489795918366,1.1224489795918366,1.1224489795918366,1.1224489795918366,1.1224489795918366,1.1224489795918366,1.1224489795918366,1.1224489795918366,1.1224489795918366,1.1224489795918366,1.1224489795918366,1.1224489795918366,1.1224489795918366,1.1224489795918366,1.1224489795918366,1.1224489795918366,1.1224489795918366,1.1224489795918366,1.1224489795918366,1.1224489795918366,1.1224489795918366,1.1224489795918366,1.1224489795918366,1.1224489795918366,1.1224489795918366,1.1224489795918366,1.1224489795918366,1.1224489795918366,1.1224489795918366,1.1224489795918366,1.1224489795918366,1.1224489795918366,1.1224489795918366,1.1224489795918366,1.1224489795918366,1.1224489795918366,1.1224489795918366,1.1224489795918366,1.1224489795918366,1.1224489795918366,1.1224489795918366,1.1224489795918366,1.1224489795918366,1.1224489795918366,1.1224489795918366,1.1224489795918366,1.1224489795918366,1.1224489795918366,1.1224489795918366,1.1224489795918366,1.1224489795918366,1.1224489795918366,1.1224489795918366,1.1224489795918366,1.1224489795918366,1.1224489795918366,1.1224489795918366,1.1224489795918366,1.1224489795918366,1.1224489795918366,1.1224489795918366,1.1224489795918366,1.1224489795918366,1.1224489795918366,1.1224489795918366,1.1224489795918366,1.1224489795918366,1.1224489795918366,1.1224489795918366,1.1224489795918366,1.1224489795918366,1.1224489795918366,1.1224489795918366,1.1224489795918366,1.1224489795918366,1.1224489795918366,1.1224489795918366,1.1224489795918366,1.1224489795918366,1.1224489795918366,1.1224489795918366,1.1224489795918366,1.1224489795918366,1.1224489795918366,1.1224489795918366,1.1224489795918366,1.1224489795918366,1.1224489795918366,1.1224489795918366,1.1224489795918366,1.1224489795918366,1.1224489795918366,1.1224489795918366,1.1224489795918366,1.1224489795918366,1.1224489795918366,1.1224489795918366,1.1224489795918366,1.1224489795918366,1.1224489795918366,1.1224489795918366,1.1224489795918366,1.1224489795918366,1.1224489795918366,1.1224489795918366,1.1224489795918366,1.1224489795918366,1.1224489795918366,1.1224489795918366,1.1224489795918366,1.1224489795918366,1.1224489795918366,1.1224489795918366,1.1224489795918366,1.1224489795918366,1.1224489795918366,1.1224489795918366,1.1224489795918366,1.1224489795918366,1.1224489795918366,1.1224489795918366,1.1224489795918366,1.1224489795918366,1.1224489795918366,1.1224489795918366,1.1224489795918366,1.1224489795918366,1.1224489795918366,1.1224489795918366,1.1224489795918366,1.1224489795918366,1.1224489795918366,1.1224489795918366,1.1224489795918366,1.1224489795918366,1.1224489795918366,1.1224489795918366,1.1224489795918366,1.1224489795918366,1.1224489795918366,1.1224489795918366,1.1224489795918366,1.1224489795918366,1.1224489795918366,1.1224489795918366,1.1224489795918366,1.1224489795918366,1.1224489795918366,1.1224489795918366,1.1224489795918366,1.1224489795918366,1.1224489795918366,1.1224489795918366,1.1224489795918366,1.1224489795918366,1.1224489795918366,1.1224489795918366,1.1224489795918366,1.1224489795918366,1.1224489795918366,1.1224489795918366,1.1224489795918366,1.1224489795918366,1.1224489795918366,1.1224489795918366,1.1224489795918366,1.1224489795918366,1.1224489795918366,1.1224489795918366,1.1224489795918366,1.1224489795918366,1.1224489795918366,1.1224489795918366,1.1224489795918366,1.1224489795918366,1.1224489795918366,1.1224489795918366,1.1224489795918366,1.1224489795918366,1.1224489795918366,1.1224489795918366,1.1224489795918366,1.1224489795918366,1.1224489795918366,1.1224489795918366,1.1224489795918366,1.1224489795918366,1.1224489795918366,1.1224489795918366,1.1224489795918366,1.1224489795918366,1.1224489795918366,1.1224489795918366,1.1224489795918366,1.1224489795918366,1.1224489795918366,1.1224489795918366,1.1224489795918366,1.1224489795918366,1.1224489795918366,1.1224489795918366,1.1224489795918366,1.1224489795918366,1.1224489795918366,1.1224489795918366,1.1224489795918366,1.1224489795918366,1.1224489795918366,1.1224489795918366,1.1224489795918366,1.1224489795918366,1.1224489795918366,1.1224489795918366,1.1224489795918366,1.1224489795918366,1.1224489795918366,1.1224489795918366,1.1224489795918366,1.1224489795918366,1.1224489795918366,1.1224489795918366,1.1224489795918366,1.1224489795918366,1.1224489795918366,1.1224489795918366,1.1224489795918366,1.1224489795918366,1.1224489795918366,1.1224489795918366,1.1224489795918366,1.1224489795918366,1.1224489795918366,1.1224489795918366,1.1224489795918366,1.1224489795918366,1.1224489795918366,1.1224489795918366,1.1224489795918366,1.1224489795918366,1.1224489795918366,1.1224489795918366,1.1224489795918366,1.1224489795918366,1.1224489795918366,1.1224489795918366,1.1224489795918366,1.1224489795918366,1.1224489795918366,1.1224489795918366,1.1224489795918366,1.1224489795918366,1.1224489795918366,1.1224489795918366,1.1224489795918366,1.1224489795918366,1.1224489795918366,1.1224489795918366,1.1224489795918366,1.1224489795918366,1.1224489795918366,1.1224489795918366,1.1224489795918366,1.1224489795918366,1.1224489795918366,1.1224489795918366,1.1224489795918366,1.1224489795918366,1.1224489795918366,1.1224489795918366,1.1224489795918366,1.1224489795918366,1.1224489795918366,1.1224489795918366,1.1224489795918366,1.1224489795918366,1.1224489795918366,1.1224489795918366,1.1224489795918366,1.1224489795918366,1.1224489795918366,1.1224489795918366,1.1224489795918366,1.1224489795918366,1.1224489795918366,1.1224489795918366,1.1224489795918366,1.1224489795918366,1.1224489795918366,1.1224489795918366,1.1224489795918366,1.1224489795918366,1.1224489795918366,1.1224489795918366,1.1224489795918366,1.1224489795918366,1.1224489795918366,1.1224489795918366,1.1224489795918366,1.1224489795918366,1.1224489795918366,1.1224489795918366,1.1224489795918366,1.1224489795918366,1.1224489795918366,1.1224489795918366,1.1224489795918366,1.1224489795918366,1.1224489795918366,1.1224489795918366,1.1224489795918366,1.1224489795918366,1.1224489795918366,1.1224489795918366,1.1224489795918366,1.1224489795918366,1.1224489795918366,1.1224489795918366,1.1224489795918366,1.1224489795918366,1.1224489795918366,1.1224489795918366,1.1224489795918366,1.1224489795918366,1.1224489795918366,1.1224489795918366,1.1224489795918366,1.1224489795918366,1.1224489795918366,1.1224489795918366,1.1224489795918366,1.1224489795918366,1.1224489795918366,1.1224489795918366,1.1224489795918366,1.1224489795918366,1.1224489795918366,1.1224489795918366,1.1224489795918366,1.1224489795918366,1.1224489795918366,1.1224489795918366,1.1224489795918366,1.1224489795918366,1.1224489795918366,1.1224489795918366,1.1224489795918366,1.1224489795918366,1.1224489795918366,1.1224489795918366,1.1224489795918366,1.1224489795918366,1.1224489795918366,1.1224489795918366,1.1224489795918366,1.1224489795918366,1.1224489795918366,1.1224489795918366,1.1224489795918366,1.1224489795918366,1.1224489795918366,1.1224489795918366,1.1224489795918366,1.1224489795918366,1.1224489795918366,1.1224489795918366,1.1224489795918366,1.1224489795918366,1.1224489795918366,1.1224489795918366,1.1224489795918366,1.1224489795918366,1.1224489795918366,1.1224489795918366,1.1224489795918366,1.1224489795918366,1.1224489795918366,1.1224489795918366,1.1224489795918366,1.1224489795918366,1.1224489795918366,1.1224489795918366,1.1224489795918366,1.1224489795918366,1.1224489795918366,1.1224489795918366,1.1224489795918366,1.1224489795918366,1.1224489795918366,1.1224489795918366,1.1224489795918366,1.1224489795918366,1.1224489795918366,1.1224489795918366,1.1224489795918366,1.1224489795918366,1.1224489795918366,1.1224489795918366,1.1224489795918366,1.1224489795918366,1.1224489795918366,1.1224489795918366,1.1224489795918366,1.1224489795918366,1.1224489795918366,1.1224489795918366,1.1224489795918366,1.1224489795918366,1.1224489795918366,1.1224489795918366,1.1224489795918366,1.1224489795918366,1.1224489795918366,1.1224489795918366,1.1224489795918366,1.1224489795918366,1.1224489795918366,1.1224489795918366,1.1224489795918366,1.1224489795918366,1.1224489795918366,1.1224489795918366,1.1224489795918366,1.1224489795918366,1.1224489795918366,1.1224489795918366,1.1224489795918366,1.1224489795918366,1.1224489795918366,1.1224489795918366,1.1224489795918366,1.1224489795918366,1.1224489795918366,1.1224489795918366,1.1224489795918366,1.1224489795918366,1.1224489795918366,1.1224489795918366,1.1224489795918366,1.1224489795918366,1.1224489795918366,1.1224489795918366,1.1224489795918366,1.1224489795918366,1.1224489795918366,1.1224489795918366,1.1224489795918366,1.1224489795918366,1.1224489795918366,1.1224489795918366,1.1224489795918366,1.1224489795918366,1.1224489795918366,1.1224489795918366,1.1224489795918366,1.1224489795918366,1.1224489795918366,1.1224489795918366,1.1224489795918366,1.1224489795918366,1.1224489795918366,1.1224489795918366,1.1224489795918366,1.1224489795918366,1.1224489795918366,1.1224489795918366,1.1224489795918366,1.1224489795918366,1.1224489795918366,1.1224489795918366,1.1224489795918366,1.1224489795918366,1.1224489795918366,1.1224489795918366,1.1224489795918366,1.1224489795918366,1.1224489795918366,1.1224489795918366,1.1224489795918366,1.1224489795918366,1.1224489795918366,1.1224489795918366,1.1224489795918366,1.1224489795918366,1.1224489795918366,1.1224489795918366,1.1224489795918366,1.1224489795918366,1.1224489795918366,1.1224489795918366,1.1224489795918366,1.1224489795918366,1.1224489795918366,1.1224489795918366,1.1224489795918366,1.1224489795918366,1.1224489795918366,1.1224489795918366,1.1224489795918366,1.1224489795918366,1.1224489795918366,1.1224489795918366,1.1224489795918366,1.1224489795918366,1.1224489795918366,1.1224489795918366,1.1224489795918366,1.1224489795918366,1.1224489795918366,1.1224489795918366,1.1224489795918366,1.1224489795918366,1.1224489795918366,1.1224489795918366,1.1224489795918366,1.1224489795918366,1.1224489795918366,1.1224489795918366,1.1224489795918366,1.1224489795918366,1.1224489795918366,1.1224489795918366,1.1224489795918366,1.1224489795918366,1.1224489795918366,1.1224489795918366,1.1224489795918366,1.1224489795918366,1.1224489795918366,1.1224489795918366,1.1224489795918366,1.1224489795918366,1.1224489795918366,1.1224489795918366,1.1224489795918366,1.1224489795918366,1.1224489795918366,1.1224489795918366,1.1224489795918366,1.1224489795918366,1.1224489795918366,1.1224489795918366,1.1224489795918366,1.1224489795918366,1.1224489795918366,1.1224489795918366,1.1224489795918366,1.1224489795918366,1.1224489795918366,1.1224489795918366,1.1224489795918366,1.1224489795918366,1.1224489795918366,1.1224489795918366,1.1224489795918366,1.1224489795918366,1.1224489795918366,1.1224489795918366,1.1224489795918366,1.1224489795918366,1.1224489795918366,1.1224489795918366,1.1224489795918366,1.1224489795918366,1.1224489795918366,1.1224489795918366,1.1224489795918366,1.1224489795918366,1.1224489795918366,1.1224489795918366,1.1224489795918366,1.1224489795918366,1.1224489795918366,1.1224489795918366,1.1224489795918366,1.1224489795918366,1.1224489795918366,1.1224489795918366,1.1224489795918366,1.1224489795918366,1.1224489795918366,1.1224489795918366,1.1224489795918366,1.1224489795918366,1.1224489795918366,1.1224489795918366,1.1224489795918366,1.1224489795918366,1.1224489795918366,1.1224489795918366,1.1224489795918366,1.1224489795918366,1.1224489795918366,1.1224489795918366,1.1224489795918366,1.1224489795918366,1.1224489795918366,1.1224489795918366,1.1224489795918366,1.1224489795918366,1.1224489795918366,1.1224489795918366,1.1224489795918366,1.1224489795918366,1.1224489795918366,1.1224489795918366,1.1224489795918366,1.1224489795918366,1.1224489795918366,1.1224489795918366,1.1224489795918366,1.1224489795918366,1.1224489795918366,1.1224489795918366,1.1224489795918366,1.1224489795918366,1.1224489795918366,1.1224489795918366,1.1224489795918366,1.1224489795918366,1.1224489795918366,1.1224489795918366,1.1224489795918366,1.1224489795918366,1.1224489795918366,1.1224489795918366,1.1224489795918366,1.1224489795918366,1.1224489795918366,1.1224489795918366,1.1224489795918366,1.1224489795918366,1.1224489795918366,1.1224489795918366,1.1224489795918366,1.1224489795918366,1.1224489795918366,1.1224489795918366,1.1224489795918366,1.1224489795918366,1.1224489795918366,1.1224489795918366,1.1224489795918366,1.1224489795918366,1.1224489795918366,1.1224489795918366,1.1224489795918366,1.1224489795918366,1.1224489795918366,1.1224489795918366,1.1224489795918366,1.1224489795918366,1.1224489795918366,1.1224489795918366,1.1224489795918366,1.1224489795918366,1.1224489795918366,1.1224489795918366,1.1224489795918366,1.1224489795918366,1.1224489795918366,1.1224489795918366,1.1224489795918366,1.1224489795918366,1.1224489795918366,1.1224489795918366,1.1224489795918366,1.1224489795918366,1.1224489795918366,1.1224489795918366,1.1224489795918366,1.1224489795918366,1.1224489795918366,1.1224489795918366,1.1224489795918366,1.1224489795918366,1.1224489795918366,1.1224489795918366,1.1224489795918366,1.1224489795918366,1.1224489795918366,1.1224489795918366,1.1224489795918366,1.1224489795918366,1.1224489795918366,1.1224489795918366,1.1224489795918366,1.1224489795918366,1.1224489795918366,1.1224489795918366,1.1224489795918366,1.1224489795918366,1.1224489795918366,1.1224489795918366,1.1224489795918366,1.1224489795918366,1.1224489795918366,1.1224489795918366,1.1224489795918366,1.1224489795918366,1.1224489795918366,1.1224489795918366,1.1224489795918366,1.1224489795918366,1.1224489795918366,1.1224489795918366,1.1224489795918366,1.1224489795918366,1.1224489795918366,1.1224489795918366,1.1224489795918366,1.1224489795918366,1.1224489795918366,1.1224489795918366,1.1224489795918366,1.1224489795918366,1.1224489795918366,1.1224489795918366,1.1224489795918366,1.1224489795918366,1.1224489795918366,1.1224489795918366,1.1224489795918366,1.1224489795918366,1.1224489795918366,1.1224489795918366,1.1224489795918366,1.1224489795918366,1.1224489795918366,1.1224489795918366,1.1224489795918366,1.1224489795918366,1.1224489795918366,1.1224489795918366,1.1224489795918366,1.1224489795918366,1.1224489795918366,1.1224489795918366,1.1224489795918366,1.1224489795918366,1.1224489795918366,1.1224489795918366,1.1224489795918366,1.1224489795918366,1.1224489795918366,1.1224489795918366,1.1224489795918366,1.1224489795918366,1.1224489795918366,1.1224489795918366,1.1224489795918366,1.1224489795918366,1.1224489795918366,1.1224489795918366,1.1224489795918366,1.1224489795918366,1.1224489795918366,1.1224489795918366,1.1224489795918366,1.1224489795918366,1.1224489795918366,1.1224489795918366,1.1224489795918366,1.1224489795918366,1.1224489795918366,1.1224489795918366,1.1224489795918366,1.1224489795918366,1.1224489795918366,1.1224489795918366,1.0408163265306123,0.935374149659864,0.8231292517006803,0.7653061224489796,0.6496598639455783,0.6020408163265306,0.564625850340136,0.54421768707483,0.5374149659863946,0.5136054421768708,0.48639455782312924,0.47959183673469385,0.46598639455782315,0.4557823129251701,0.4523809523809524,0.4421768707482993,0.42517006802721086,0.41496598639455784,0.3877551020408163,0.3707482993197279,0.36394557823129253,0.35714285714285715,0.35034013605442177,0.3469387755102041,0.3435374149659864,0.3401360544217687,0.3401360544217687,0.336734693877551,0.336734693877551,0.336734693877551,0.336734693877551,0.3333333333333333,0.3333333333333333,0.3333333333333333,0.3333333333333333,0.3299319727891156,0.3299319727891156,0.3299319727891156,0.32653061224489793,0.32653061224489793,0.32653061224489793,0.32653061224489793,0.32653061224489793,0.32653061224489793,0.32653061224489793,0.32653061224489793,0.32653061224489793,0.32653061224489793,0.32653061224489793,0.32653061224489793,0.32653061224489793,0.32653061224489793,0.32653061224489793,0.32653061224489793,0.32653061224489793,0.32653061224489793,0.32653061224489793,0.32653061224489793,0.32653061224489793,0.32653061224489793,0.32653061224489793,0.32653061224489793,0.32653061224489793,0.32653061224489793,0.32653061224489793,0.32653061224489793,0.3231292517006803,0.3231292517006803,0.3231292517006803,0.3231292517006803,0.3231292517006803,0.3231292517006803,0.3231292517006803,0.32653061224489793,0.3299319727891156,0.336734693877551,0.3435374149659864,0.3469387755102041,0.35034013605442177,0.35714285714285715,0.36054421768707484,0.36394557823129253,0.3707482993197279,0.3707482993197279,0.37755102040816324,0.38095238095238093,0.38095238095238093,0.3877551020408163,0.391156462585034,0.3945578231292517,0.3945578231292517,0.3979591836734694,0.3979591836734694,0.4013605442176871,0.4013605442176871,0.40476190476190477,0.40476190476190477,0.40476190476190477,0.40476190476190477,0.40476190476190477,0.40476190476190477,0.40476190476190477,0.40476190476190477,0.40476190476190477,0.40476190476190477,0.40476190476190477,0.40476190476190477,0.40476190476190477,0.40476190476190477,0.40476190476190477,0.40476190476190477,0.40476190476190477,0.40476190476190477,0.40476190476190477,0.40476190476190477,0.40476190476190477,0.40476190476190477,0.40476190476190477,0.40476190476190477,0.40476190476190477,0.40476190476190477,0.40476190476190477,0.40476190476190477,0.40476190476190477,0.40476190476190477,0.40476190476190477,0.40476190476190477,0.40476190476190477,0.40476190476190477,0.40476190476190477,0.40476190476190477,0.40476190476190477,0.40476190476190477,0.40476190476190477,0.40476190476190477,0.40476190476190477,0.40476190476190477,0.40476190476190477,0.40476190476190477,0.40476190476190477,0.40476190476190477,0.40476190476190477,0.40476190476190477,0.40476190476190477,0.40476190476190477,0.40476190476190477,0.40476190476190477,0.40476190476190477,0.40476190476190477,0.40476190476190477,0.40476190476190477,0.40476190476190477,0.40476190476190477,0.40476190476190477,0.40476190476190477,0.40476190476190477,0.40476190476190477,0.40476190476190477,0.40476190476190477,0.40476190476190477,0.40476190476190477,0.40476190476190477,0.40476190476190477,0.40476190476190477,0.40476190476190477,0.40476190476190477,0.40476190476190477,0.40476190476190477,0.40476190476190477,0.40476190476190477,0.40476190476190477,0.40476190476190477,0.40476190476190477,0.40476190476190477,0.4387755102040816,0.46938775510204084,0.5748299319727891,0.673469387755102,0.673469387755102,0.673469387755102,0.673469387755102,0.673469387755102,0.673469387755102,0.673469387755102,0.673469387755102,1.3231292517006803,1.3299319727891157,1.336734693877551,1.346938775510204,1.3571428571428572,1.3605442176870748,1.3639455782312926,1.3639455782312926,1.3639455782312926,1.3639455782312926,1.3639455782312926,1.3639455782312926,1.3639455782312926,1.3639455782312926,1.3639455782312926,1.3639455782312926,1.3605442176870748,1.3571428571428572,1.3537414965986394,1.3435374149659864,1.336734693877551,1.3299319727891157,1.3265306122448979,1.3231292517006803,1.3197278911564625,1.3095238095238095,1.2925170068027212,1.282312925170068,1.2619047619047619,1.2346938775510203,1.2210884353741496,1.1904761904761905,1.153061224489796,1.1326530612244898,1.1054421768707483,1.0850340136054422,1.0782312925170068,1.0680272108843538,1.0680272108843538,1.064625850340136,1.0612244897959184,1.0578231292517006,1.054421768707483,1.054421768707483,1.0510204081632653,1.0476190476190477,1.0442176870748299,1.0374149659863945,1.030612244897959,1.030612244897959,1.0238095238095237,1.0238095238095237,1.0204081632653061,1.0204081632653061,1.0204081632653061,1.0204081632653061,1.0170068027210883,1.0170068027210883,1.0170068027210883,1.0170068027210883,1.0136054421768708,1.0136054421768708,1.0136054421768708,1.0136054421768708,1.0136054421768708,1.0136054421768708,1.0136054421768708,1.0136054421768708,1.0136054421768708,1.0136054421768708,1.0136054421768708,1.0136054421768708,1.0136054421768708,1.0136054421768708,1.0136054421768708,1.0136054421768708,1.0136054421768708,1.0136054421768708,1.0136054421768708,1.0136054421768708,1.0136054421768708,1.0136054421768708,1.0136054421768708,1.0136054421768708,1.0136054421768708,1.0136054421768708,1.0136054421768708,1.0136054421768708,1.0136054421768708,1.0136054421768708,1.0136054421768708,1.0136054421768708,1.0136054421768708,1.0136054421768708,1.0136054421768708,1.0136054421768708,1.0136054421768708,1.0136054421768708,1.0136054421768708,1.0136054421768708,1.0136054421768708,1.0136054421768708,1.0136054421768708,1.0136054421768708,1.0136054421768708,1.0136054421768708,1.0136054421768708,1.0136054421768708,1.0136054421768708,1.0136054421768708,1.0136054421768708,1.0136054421768708,1.0136054421768708,1.0136054421768708,1.0136054421768708,1.0136054421768708,1.0136054421768708,1.0136054421768708,1.0136054421768708,1.0136054421768708,1.0136054421768708,1.0136054421768708,1.0136054421768708,1.0136054421768708,1.0136054421768708,1.0136054421768708,1.0136054421768708,1.054421768707483,1.1564625850340136,1.2244897959183674,1.3095238095238095,1.3503401360544218,1.3673469387755102,1.3911564625850341,1.41156462585034,1.4183673469387754,1.4285714285714286,1.4319727891156462,1.435374149659864,1.435374149659864,1.4387755102040816,1.4387755102040816,1.4387755102040816,1.4387755102040816,1.4387755102040816,1.4387755102040816,1.4387755102040816,1.4387755102040816,1.4387755102040816,1.4387755102040816,1.4387755102040816,1.4387755102040816,1.4387755102040816,1.4387755102040816,1.4387755102040816,1.4387755102040816,1.4387755102040816,1.4387755102040816,1.4387755102040816,1.4387755102040816,1.4387755102040816,1.4387755102040816,1.4387755102040816,1.4387755102040816,1.4387755102040816,1.4387755102040816,1.4387755102040816,1.4387755102040816,1.4387755102040816,1.4387755102040816,1.4387755102040816,1.4387755102040816,1.4387755102040816,1.4387755102040816,1.4387755102040816,1.4387755102040816,1.4387755102040816,1.4387755102040816,1.4387755102040816,1.4387755102040816,1.4387755102040816,1.4387755102040816,1.4387755102040816,1.4387755102040816,1.4387755102040816,1.4387755102040816,1.4387755102040816,1.4387755102040816,1.435374149659864,1.4319727891156462,1.3095238095238095,0.8095238095238095,0.673469387755102,0.5748299319727891,0.445578231292517,0.4013605442176871,0.3707482993197279,0.336734693877551,0.3163265306122449,0.3129251700680272,0.30272108843537415,0.29931972789115646,0.29591836734693877,0.2891156462585034,0.282312925170068,0.2789115646258503,0.272108843537415,0.2653061224489796,0.2653061224489796,0.2619047619047619,0.2585034013605442,0.2585034013605442,0.2585034013605442,0.25510204081632654,0.25510204081632654,0.2585034013605442,0.2619047619047619,0.2619047619047619,0.2653061224489796,0.2687074829931973,0.2687074829931973,0.2687074829931973,0.2687074829931973,0.2687074829931973,0.2687074829931973,0.2687074829931973,0.2687074829931973,0.2687074829931973,0.2687074829931973,0.2687074829931973,0.2687074829931973,0.2687074829931973,0.2687074829931973,0.2687074829931973,0.2687074829931973,0.2687074829931973,0.2687074829931973,0.2687074829931973,0.2687074829931973,0.2687074829931973,0.2687074829931973,0.2687074829931973,0.2687074829931973,0.2687074829931973,0.2687074829931973,0.2687074829931973,0.2687074829931973,0.2687074829931973,0.2687074829931973,0.2687074829931973,0.2687074829931973,0.2687074829931973,0.2687074829931973,0.2687074829931973,0.2687074829931973,0.2687074829931973,0.2687074829931973,0.2687074829931973,0.2687074829931973,0.2687074829931973,0.2687074829931973,0.2687074829931973,0.2687074829931973,0.2687074829931973,0.2687074829931973,0.2687074829931973,0.2687074829931973,0.2687074829931973,0.2687074829931973,0.2687074829931973,0.2687074829931973,0.2687074829931973,0.2687074829931973,0.2687074829931973,0.2687074829931973,0.2687074829931973,0.2687074829931973,0.2687074829931973,0.2687074829931973,0.2687074829931973,0.2687074829931973,0.2687074829931973,0.2687074829931973,0.2687074829931973,0.2687074829931973,0.2687074829931973,0.2687074829931973,0.2687074829931973,0.2687074829931973,0.2687