success,trial_type,trial_index,time_elapsed,internal_node_id,protocol_sum,subject_identifier,subject_sum,subject_pair,STUDY_ID,PROLIFIC_PID,SESSION_ID,practice_instructions,leaderboard_instructions,bonus,reveal_word,self_rating,confidence,view_history,rt,responses,question_order,correct,test_part,word,click_log,final_keyboard_state,num_clicks,points,cheat,position_RT,position,player,i_game,true_position,distance,last_word,response,stimulus,confidence_slider_self_response
1.0,fullscreen,0,8039,0.0-0.0,,122,"[208, 41, 250, 58, 149, 225, 116, 161, 153, 52, 133, 127, 83, 94, 185, 66, 125, 150, 114, 24, 163, 110, 160, 20, 183, 10, 215, 4, 188, 108, 141, 28]",61,669a702db1122fc5150a13ce,65dcca0d187f1e33aa00fca1,669b0d61eb343f4f19596040,1,1,0,False,3,100,,,,,,,,,,,,,,,,,,,,,,
,instructions,1,18741,0.0-1.0,,122,"[208, 41, 250, 58, 149, 225, 116, 161, 153, 52, 133, 127, 83, 94, 185, 66, 125, 150, 114, 24, 163, 110, 160, 20, 183, 10, 215, 4, 188, 108, 141, 28]",61,669a702db1122fc5150a13ce,65dcca0d187f1e33aa00fca1,669b0d61eb343f4f19596040,1,1,0,False,3,100,"[{""page_index"":0,""viewing_time"":10690}]",10696.0,,,,,,,,,,,,,,,,,,,,
,instructions,2,94634,0.0-2.0-0.0,,122,"[208, 41, 250, 58, 149, 225, 116, 161, 153, 52, 133, 127, 83, 94, 185, 66, 125, 150, 114, 24, 163, 110, 160, 20, 183, 10, 215, 4, 188, 108, 141, 28]",61,669a702db1122fc5150a13ce,65dcca0d187f1e33aa00fca1,669b0d61eb343f4f19596040,1,1,0,False,3,100,"[{""page_index"":0,""viewing_time"":75886}]",75886.0,,,,,,,,,,,,,,,,,,,,
,survey-multi-choice,3,144326,0.0-2.0-1.0,,122,"[208, 41, 250, 58, 149, 225, 116, 161, 153, 52, 133, 127, 83, 94, 185, 66, 125, 150, 114, 24, 163, 110, 160, 20, 183, 10, 215, 4, 188, 108, 141, 28]",61,669a702db1122fc5150a13ce,65dcca0d187f1e33aa00fca1,669b0d61eb343f4f19596040,1,1,0,False,3,100,,49681.0,"{""Q0"":""... reveal the word with as <b>few letter guesses</b> as possible""}",[0],1.0,multichoice_nonpretend,,,,,,,,,,,,,,,,
,instructions,4,151475,0.0-3.0,,122,"[208, 41, 250, 58, 149, 225, 116, 161, 153, 52, 133, 127, 83, 94, 185, 66, 125, 150, 114, 24, 163, 110, 160, 20, 183, 10, 215, 4, 188, 108, 141, 28]",61,669a702db1122fc5150a13ce,65dcca0d187f1e33aa00fca1,669b0d61eb343f4f19596040,1,1,0,False,3,100,"[{""page_index"":0,""viewing_time"":7138}]",7142.0,,,,,,,,,,,,,,,,,,,,
,Hangman,5,298260,0.0-4.0,,122,"[208, 41, 250, 58, 149, 225, 116, 161, 153, 52, 133, 127, 83, 94, 185, 66, 125, 150, 114, 24, 163, 110, 160, 20, 183, 10, 215, 4, 188, 108, 141, 28]",61,669a702db1122fc5150a13ce,65dcca0d187f1e33aa00fca1,669b0d61eb343f4f19596040,1,1,0,False,3,100,,,,,,,ZEBRA,"{'letter': ['', 'T', 'S', 'C', 'K', 'N', 'E', 'F', 'G', 'R', 'Y', 'V', 'X', 'B', 'A', 'L', 'P', 'Z'], 't': [0, 40931, 60606, 99589, 101454, 103116, 105256, 106917, 108722, 115018, 117220, 124687, 126752, 129237, 133267, 136882, 139026, 144717], 'hit': [None, 0, 0, 0, 0, 0, 1, 0, 0, 1, 0, 0, 0, 1, 1, 0, 0, 1], 'asked': ['', 'T', 'TS', 'TSC', 'TSCK', 'TSCKN', 'TSCKNE', 'TSCKNEF', 'TSCKNEFG', 'TSCKNEFGR', 'TSCKNEFGRY', 'TSCKNEFGRYV', 'TSCKNEFGRYVX', 'TSCKNEFGRYVXB', 'TSCKNEFGRYVXBA', 'TSCKNEFGRYVXBAL', 'TSCKNEFGRYVXBALP', 'TSCKNEFGRYVXBALPZ'], 'word_state': ['_____', '_____', '_____', '_____', '_____', '_____', '_E___', '_E___', '_E___', '_E_R_', '_E_R_', '_E_R_', '_E_R_', '_EBR_', '_EBRA', '_EBRA', '_EBRA', 'ZEBRA']}","['T', 'S', 'C', 'K', 'N', 'E', 'F', 'G', 'R', 'Y', 'V', 'X', 'B', 'A', 'L', 'P', 'Z']",17.0,3.0,0.0,,,,,,,,,,
,instructions,6,348285,0.0-5.0,,122,"[208, 41, 250, 58, 149, 225, 116, 161, 153, 52, 133, 127, 83, 94, 185, 66, 125, 150, 114, 24, 163, 110, 160, 20, 183, 10, 215, 4, 188, 108, 141, 28]",61,669a702db1122fc5150a13ce,65dcca0d187f1e33aa00fca1,669b0d61eb343f4f19596040,1,1,0,False,3,100,"[{""page_index"":0,""viewing_time"":12383},{""page_index"":1,""viewing_time"":37638}]",50021.0,,,,,,,,,,,,,,,,,,,,
,survey-multi-choice,7,456114,0.0-6.0,,122,"[208, 41, 250, 58, 149, 225, 116, 161, 153, 52, 133, 127, 83, 94, 185, 66, 125, 150, 114, 24, 163, 110, 160, 20, 183, 10, 215, 4, 188, 108, 141, 28]",61,669a702db1122fc5150a13ce,65dcca0d187f1e33aa00fca1,669b0d61eb343f4f19596040,1,1,0,False,3,100,,107828.0,"{""Q0"":""...from <b>a previous session</b> that is not part of the upcoming tournament.""}",[0],1.0,multichoice_leaderboard,,,,,,,,,,,,,,,,
,instructions,8,484401,0.0-8.0,,122,"[208, 41, 250, 58, 149, 225, 116, 161, 153, 52, 133, 127, 83, 94, 185, 66, 125, 150, 114, 24, 163, 110, 160, 20, 183, 10, 215, 4, 188, 108, 141, 28]",61,669a702db1122fc5150a13ce,65dcca0d187f1e33aa00fca1,669b0d61eb343f4f19596040,1,1,0,False,3,100,"[{""page_index"":0,""viewing_time"":28279}]",28280.0,,,,,,,,,,,,,,,,,,,,
,survey-multi-choice,9,508449,0.0-9.0,,122,"[208, 41, 250, 58, 149, 225, 116, 161, 153, 52, 133, 127, 83, 94, 185, 66, 125, 150, 114, 24, 163, 110, 160, 20, 183, 10, 215, 4, 188, 108, 141, 28]",61,669a702db1122fc5150a13ce,65dcca0d187f1e33aa00fca1,669b0d61eb343f4f19596040,1,1,0,False,3,100,,24043.0,"{""Q0"":""...how well players did (in terms of <b>points</b>) in <b>previous games.</b>""}",[0],0.0,multichoice_tournament,,,,,,,,,,,,,,,,
,instructions,10,530310,0.0-10.0-0.0,,122,"[208, 41, 250, 58, 149, 225, 116, 161, 153, 52, 133, 127, 83, 94, 185, 66, 125, 150, 114, 24, 163, 110, 160, 20, 183, 10, 215, 4, 188, 108, 141, 28]",61,669a702db1122fc5150a13ce,65dcca0d187f1e33aa00fca1,669b0d61eb343f4f19596040,1,1,0,False,3,100,"[{""page_index"":0,""viewing_time"":21856}]",21858.0,,,,,,,,,,,,,,,,,,,,
,survey-multi-choice,11,543663,0.0-10.0-1.0,,122,"[208, 41, 250, 58, 149, 225, 116, 161, 153, 52, 133, 127, 83, 94, 185, 66, 125, 150, 114, 24, 163, 110, 160, 20, 183, 10, 215, 4, 188, 108, 141, 28]",61,669a702db1122fc5150a13ce,65dcca0d187f1e33aa00fca1,669b0d61eb343f4f19596040,1,1,0,False,3,100,,13348.0,"{""Q0"":""...players' leaderboard position (in terms of <b>points</b>) in an <b>upcoming tournament.</b>""}",[0],1.0,multichoice_tournament,,,,,,,,,,,,,,,,
,instructions,12,575540,0.0-11.0,,122,"[208, 41, 250, 58, 149, 225, 116, 161, 153, 52, 133, 127, 83, 94, 185, 66, 125, 150, 114, 24, 163, 110, 160, 20, 183, 10, 215, 4, 188, 108, 141, 28]",61,669a702db1122fc5150a13ce,65dcca0d187f1e33aa00fca1,669b0d61eb343f4f19596040,1,1,0,False,3,100,"[{""page_index"":0,""viewing_time"":31864}]",31865.0,,,,,,,,,,,,,,,,,,,,
,instructions,13,611849,0.0-12.0-0.0,,122,"[208, 41, 250, 58, 149, 225, 116, 161, 153, 52, 133, 127, 83, 94, 185, 66, 125, 150, 114, 24, 163, 110, 160, 20, 183, 10, 215, 4, 188, 108, 141, 28]",61,669a702db1122fc5150a13ce,65dcca0d187f1e33aa00fca1,669b0d61eb343f4f19596040,1,1,0,False,3,100,"[{""page_index"":0,""viewing_time"":36304}]",36305.0,,,,,,,,,,,,,,,,,,,,
,Hangman_replay,14,631401,0.0-12.0-1.0,,122,"[208, 41, 250, 58, 149, 225, 116, 161, 153, 52, 133, 127, 83, 94, 185, 66, 125, 150, 114, 24, 163, 110, 160, 20, 183, 10, 215, 4, 188, 108, 141, 28]",61,669a702db1122fc5150a13ce,65dcca0d187f1e33aa00fca1,669b0d61eb343f4f19596040,1,1,0,False,3,100,,,,,,,FIG,"{'letter': ['', 'F', 'I', 'G'], 't': [0, 15345, 16728, 17494], 'hit': [None, 1, 1, 1], 'asked': ['', 'F', 'FI', 'FIG'], 'word_state': ['___', 'F__', 'FI_', 'FIG']}","['F', 'I', 'G']",3.0,15.0,0.0,,,,,,,,,,
,instructions,15,640736,0.0-12.0-2.0,,122,"[208, 41, 250, 58, 149, 225, 116, 161, 153, 52, 133, 127, 83, 94, 185, 66, 125, 150, 114, 24, 163, 110, 160, 20, 183, 10, 215, 4, 188, 108, 141, 28]",61,669a702db1122fc5150a13ce,65dcca0d187f1e33aa00fca1,669b0d61eb343f4f19596040,1,1,0,False,3,100,"[{""page_index"":0,""viewing_time"":9326}]",9332.0,,,,,,,,,,,,,,,,,,,,
,Guess_leaderboard,16,673775,0.0-12.0-3.0,,122,"[208, 41, 250, 58, 149, 225, 116, 161, 153, 52, 133, 127, 83, 94, 185, 66, 125, 150, 114, 24, 163, 110, 160, 20, 183, 10, 215, 4, 188, 108, 141, 28]",61,669a702db1122fc5150a13ce,65dcca0d187f1e33aa00fca1,669b0d61eb343f4f19596040,1,1,0,False,3,100,,,,,,,FIG,,,,,,32251.0,8.0,12.0,0.0,72.0,64.0,,,,
,instructions,17,685362,0.0-12.0-0.1,,122,"[208, 41, 250, 58, 149, 225, 116, 161, 153, 52, 133, 127, 83, 94, 185, 66, 125, 150, 114, 24, 163, 110, 160, 20, 183, 10, 215, 4, 188, 108, 141, 28]",61,669a702db1122fc5150a13ce,65dcca0d187f1e33aa00fca1,669b0d61eb343f4f19596040,1,1,0,False,3,100,"[{""page_index"":0,""viewing_time"":11580}]",11581.0,,,,,,,,,,,,,,,,,,,,
,Hangman_replay,18,770379,0.0-12.0-1.1,,122,"[208, 41, 250, 58, 149, 225, 116, 161, 153, 52, 133, 127, 83, 94, 185, 66, 125, 150, 114, 24, 163, 110, 160, 20, 183, 10, 215, 4, 188, 108, 141, 28]",61,669a702db1122fc5150a13ce,65dcca0d187f1e33aa00fca1,669b0d61eb343f4f19596040,1,1,0,False,3,100,,,,,,,KENTUCKY,"{'letter': ['', 'A', 'E', 'I', 'K', 'N', 'T', 'U', 'C', 'Y'], 't': [0, 2741, 4924, 45303, 73768, 76615, 77813, 78713, 81037, 82992], 'hit': [None, 0, 1, 0, 2, 1, 1, 1, 1, 1], 'asked': ['', 'A', 'AE', 'AEI', 'AEIK', 'AEIKN', 'AEIKNT', 'AEIKNTU', 'AEIKNTUC', 'AEIKNTUCY'], 'word_state': ['________', '________', '_E______', '_E______', 'KE____K_', 'KEN___K_', 'KENT__K_', 'KENTU_K_', 'KENTUCK_', 'KENTUCKY']}","['A', 'E', 'I', 'K', 'N', 'T', 'U', 'C', 'Y']",9.0,13.0,0.0,,,,,,,,,,
,instructions,19,780372,0.0-12.0-2.1,,122,"[208, 41, 250, 58, 149, 225, 116, 161, 153, 52, 133, 127, 83, 94, 185, 66, 125, 150, 114, 24, 163, 110, 160, 20, 183, 10, 215, 4, 188, 108, 141, 28]",61,669a702db1122fc5150a13ce,65dcca0d187f1e33aa00fca1,669b0d61eb343f4f19596040,1,1,0,False,3,100,"[{""page_index"":0,""viewing_time"":9987}]",9991.0,,,,,,,,,,,,,,,,,,,,
,Guess_leaderboard,20,786660,0.0-12.0-3.1,,122,"[208, 41, 250, 58, 149, 225, 116, 161, 153, 52, 133, 127, 83, 94, 185, 66, 125, 150, 114, 24, 163, 110, 160, 20, 183, 10, 215, 4, 188, 108, 141, 28]",61,669a702db1122fc5150a13ce,65dcca0d187f1e33aa00fca1,669b0d61eb343f4f19596040,1,1,0,False,3,100,,,,,,,KENTUCKY,,,,,,5500.0,38.0,15.0,1.0,6.0,32.0,,,,
,instructions,21,791175,0.0-12.0-0.2,,122,"[208, 41, 250, 58, 149, 225, 116, 161, 153, 52, 133, 127, 83, 94, 185, 66, 125, 150, 114, 24, 163, 110, 160, 20, 183, 10, 215, 4, 188, 108, 141, 28]",61,669a702db1122fc5150a13ce,65dcca0d187f1e33aa00fca1,669b0d61eb343f4f19596040,1,1,0,False,3,100,"[{""page_index"":0,""viewing_time"":4512}]",4513.0,,,,,,,,,,,,,,,,,,,,
,Hangman_replay,22,801446,0.0-12.0-1.2,,122,"[208, 41, 250, 58, 149, 225, 116, 161, 153, 52, 133, 127, 83, 94, 185, 66, 125, 150, 114, 24, 163, 110, 160, 20, 183, 10, 215, 4, 188, 108, 141, 28]",61,669a702db1122fc5150a13ce,65dcca0d187f1e33aa00fca1,669b0d61eb343f4f19596040,1,1,0,False,3,100,,,,,,,WRIST,"{'letter': ['', 'S', 'T', 'W', 'A', 'R', 'I'], 't': [0, 2289, 3573, 4724, 5906, 7787, 8236], 'hit': [None, 1, 1, 1, 0, 1, 1], 'asked': ['', 'S', 'ST', 'STW', 'STWA', 'STWAR', 'STWARI'], 'word_state': ['_____', '___S_', '___ST', 'W__ST', 'W__ST', 'WR_ST', 'WRIST']}","['S', 'T', 'W', 'A', 'R', 'I']",6.0,14.0,0.0,,,,,,,,,,
,instructions,23,806190,0.0-12.0-2.2,,122,"[208, 41, 250, 58, 149, 225, 116, 161, 153, 52, 133, 127, 83, 94, 185, 66, 125, 150, 114, 24, 163, 110, 160, 20, 183, 10, 215, 4, 188, 108, 141, 28]",61,669a702db1122fc5150a13ce,65dcca0d187f1e33aa00fca1,669b0d61eb343f4f19596040,1,1,0,False,3,100,"[{""page_index"":0,""viewing_time"":4735}]",4739.0,,,,,,,,,,,,,,,,,,,,
,Guess_leaderboard,24,814199,0.0-12.0-3.2,,122,"[208, 41, 250, 58, 149, 225, 116, 161, 153, 52, 133, 127, 83, 94, 185, 66, 125, 150, 114, 24, 163, 110, 160, 20, 183, 10, 215, 4, 188, 108, 141, 28]",61,669a702db1122fc5150a13ce,65dcca0d187f1e33aa00fca1,669b0d61eb343f4f19596040,1,1,0,False,3,100,,,,,,,WRIST,,,,,,7199.0,7.0,25.0,2.0,46.0,39.0,,,,
,instructions,25,817823,0.0-12.0-0.3,,122,"[208, 41, 250, 58, 149, 225, 116, 161, 153, 52, 133, 127, 83, 94, 185, 66, 125, 150, 114, 24, 163, 110, 160, 20, 183, 10, 215, 4, 188, 108, 141, 28]",61,669a702db1122fc5150a13ce,65dcca0d187f1e33aa00fca1,669b0d61eb343f4f19596040,1,1,0,False,3,100,"[{""page_index"":0,""viewing_time"":3614}]",3615.0,,,,,,,,,,,,,,,,,,,,
,Hangman_replay,26,868090,0.0-12.0-1.3,,122,"[208, 41, 250, 58, 149, 225, 116, 161, 153, 52, 133, 127, 83, 94, 185, 66, 125, 150, 114, 24, 163, 110, 160, 20, 183, 10, 215, 4, 188, 108, 141, 28]",61,669a702db1122fc5150a13ce,65dcca0d187f1e33aa00fca1,669b0d61eb343f4f19596040,1,1,0,False,3,100,,,,,,,USAIN BOLT,"{'letter': ['', 'A', 'E', 'I', 'O', 'R', 'P', 'T', 'S', 'U', 'N', 'B', 'L'], 't': [0, 6413, 8428, 10762, 12545, 25478, 27225, 31376, 38877, 43626, 45475, 46974, 48224], 'hit': [None, 1, 0, 1, 1, 0, 0, 1, 1, 1, 1, 1, 1], 'asked': ['', 'A', 'AE', 'AEI', 'AEIO', 'AEIOR', 'AEIORP', 'AEIORPT', 'AEIORPTS', 'AEIORPTSU', 'AEIORPTSUN', 'AEIORPTSUNB', 'AEIORPTSUNBL'], 'word_state': ['_____ ____', '__A__ ____', '__A__ ____', '__AI_ ____', '__AI_ _O__', '__AI_ _O__', '__AI_ _O__', '__AI_ _O_T', '_SAI_ _O_T', 'USAI_ _O_T', 'USAIN _O_T', 'USAIN BO_T', 'USAIN BOLT']}","['A', 'E', 'I', 'O', 'R', 'P', 'T', 'S', 'U', 'N', 'B', 'L']",12.0,12.0,0.0,,,,,,,,,,
,instructions,27,871108,0.0-12.0-2.3,,122,"[208, 41, 250, 58, 149, 225, 116, 161, 153, 52, 133, 127, 83, 94, 185, 66, 125, 150, 114, 24, 163, 110, 160, 20, 183, 10, 215, 4, 188, 108, 141, 28]",61,669a702db1122fc5150a13ce,65dcca0d187f1e33aa00fca1,669b0d61eb343f4f19596040,1,1,0,False,3,100,"[{""page_index"":0,""viewing_time"":3015}]",3017.0,,,,,,,,,,,,,,,,,,,,
,Guess_leaderboard,28,881079,0.0-12.0-3.3,,122,"[208, 41, 250, 58, 149, 225, 116, 161, 153, 52, 133, 127, 83, 94, 185, 66, 125, 150, 114, 24, 163, 110, 160, 20, 183, 10, 215, 4, 188, 108, 141, 28]",61,669a702db1122fc5150a13ce,65dcca0d187f1e33aa00fca1,669b0d61eb343f4f19596040,1,1,0,False,3,100,,,,,,,USAIN BOLT,,,,,,9193.0,14.0,22.0,3.0,16.0,2.0,,,,
,instructions,29,885911,0.0-12.0-0.4,,122,"[208, 41, 250, 58, 149, 225, 116, 161, 153, 52, 133, 127, 83, 94, 185, 66, 125, 150, 114, 24, 163, 110, 160, 20, 183, 10, 215, 4, 188, 108, 141, 28]",61,669a702db1122fc5150a13ce,65dcca0d187f1e33aa00fca1,669b0d61eb343f4f19596040,1,1,0,False,3,100,"[{""page_index"":0,""viewing_time"":4827}]",4827.0,,,,,,,,,,,,,,,,,,,,
,Hangman_replay,30,910032,0.0-12.0-1.4,,122,"[208, 41, 250, 58, 149, 225, 116, 161, 153, 52, 133, 127, 83, 94, 185, 66, 125, 150, 114, 24, 163, 110, 160, 20, 183, 10, 215, 4, 188, 108, 141, 28]",61,669a702db1122fc5150a13ce,65dcca0d187f1e33aa00fca1,669b0d61eb343f4f19596040,1,1,0,False,3,100,,,,,,,THIRTY FOUR,"{'letter': ['', 'F', 'O', 'U', 'R', 'T', 'H', 'I', 'Y'], 't': [0, 7784, 9364, 10918, 13196, 17594, 19024, 19877, 22095], 'hit': [None, 1, 1, 1, 2, 2, 1, 1, 1], 'asked': ['', 'F', 'FO', 'FOU', 'FOUR', 'FOURT', 'FOURTH', 'FOURTHI', 'FOURTHIY'], 'word_state': ['______ ____', '______ F___', '______ FO__', '______ FOU_', '___R__ FOUR', 'T__RT_ FOUR', 'TH_RT_ FOUR', 'THIRT_ FOUR', 'THIRTY FOUR']}","['F', 'O', 'U', 'R', 'T', 'H', 'I', 'Y']",8.0,15.0,0.0,,,,,,,,,,
,instructions,31,913230,0.0-12.0-2.4,,122,"[208, 41, 250, 58, 149, 225, 116, 161, 153, 52, 133, 127, 83, 94, 185, 66, 125, 150, 114, 24, 163, 110, 160, 20, 183, 10, 215, 4, 188, 108, 141, 28]",61,669a702db1122fc5150a13ce,65dcca0d187f1e33aa00fca1,669b0d61eb343f4f19596040,1,1,0,False,3,100,"[{""page_index"":0,""viewing_time"":3195}]",3196.0,,,,,,,,,,,,,,,,,,,,
,Guess_leaderboard,32,917326,0.0-12.0-3.4,,122,"[208, 41, 250, 58, 149, 225, 116, 161, 153, 52, 133, 127, 83, 94, 185, 66, 125, 150, 114, 24, 163, 110, 160, 20, 183, 10, 215, 4, 188, 108, 141, 28]",61,669a702db1122fc5150a13ce,65dcca0d187f1e33aa00fca1,669b0d61eb343f4f19596040,1,1,0,False,3,100,,,,,,,THIRTY FOUR,,,,,,3314.0,11.0,83.0,4.0,33.0,22.0,,,,
,survey-text,33,932915,0.0-13.0,,122,"[208, 41, 250, 58, 149, 225, 116, 161, 153, 52, 133, 127, 83, 94, 185, 66, 125, 150, 114, 24, 163, 110, 160, 20, 183, 10, 215, 4, 188, 108, 141, 28]",61,669a702db1122fc5150a13ce,65dcca0d187f1e33aa00fca1,669b0d61eb343f4f19596040,1,1,0,False,3,100,,15577.0,"{""Q0"":""thirty four""}",,,,,,,,,,,,,,,,thirty four,,,
,survey-multi-choice,34,963710,0.0-14.0,,122,"[208, 41, 250, 58, 149, 225, 116, 161, 153, 52, 133, 127, 83, 94, 185, 66, 125, 150, 114, 24, 163, 110, 160, 20, 183, 10, 215, 4, 188, 108, 141, 28]",61,669a702db1122fc5150a13ce,65dcca0d187f1e33aa00fca1,669b0d61eb343f4f19596040,1,1,0,False,3,100,,30777.0,"{""Q0"":""3. I would be <b>third</b> out of the six of us.""}",[0],,self-rating,,,,,,,,3.0,,,,,,,,
,html-slider-response,35,976409,0.0-15.0,,122,"[208, 41, 250, 58, 149, 225, 116, 161, 153, 52, 133, 127, 83, 94, 185, 66, 125, 150, 114, 24, 163, 110, 160, 20, 183, 10, 215, 4, 188, 108, 141, 28]",61,669a702db1122fc5150a13ce,65dcca0d187f1e33aa00fca1,669b0d61eb343f4f19596040,1,1,0,False,3,100,,12690.0,,,,,,,,,,,,,,,,,,100.0,"<p>Overall, how confident were you in your answer to this last question?</p>",100.0
,survey-text,36,1051987,0.0-16.0,,122,"[208, 41, 250, 58, 149, 225, 116, 161, 153, 52, 133, 127, 83, 94, 185, 66, 125, 150, 114, 24, 163, 110, 160, 20, 183, 10, 215, 4, 188, 108, 141, 28]",61,669a702db1122fc5150a13ce,65dcca0d187f1e33aa00fca1,669b0d61eb343f4f19596040,1,1,0,False,3,100,,75562.0,"{""Q0"":""the task is trying to evaluation how fast people can use letters to form a word""}",,,,,,,,,,,,,,,,,,,
,survey-text,37,1064127,0.0-17.0,,122,"[208, 41, 250, 58, 149, 225, 116, 161, 153, 52, 133, 127, 83, 94, 185, 66, 125, 150, 114, 24, 163, 110, 160, 20, 183, 10, 215, 4, 188, 108, 141, 28]",61,669a702db1122fc5150a13ce,65dcca0d187f1e33aa00fca1,669b0d61eb343f4f19596040,1,1,0,False,3,100,,12126.0,"{""Q0"":""nothing""}",,,,,,,,,,,,,,,,,,,
,instructions,38,1086314,0.0-18.0,,122,"[208, 41, 250, 58, 149, 225, 116, 161, 153, 52, 133, 127, 83, 94, 185, 66, 125, 150, 114, 24, 163, 110, 160, 20, 183, 10, 215, 4, 188, 108, 141, 28]",61,669a702db1122fc5150a13ce,65dcca0d187f1e33aa00fca1,669b0d61eb343f4f19596040,1,1,0,False,3,100,"[{""page_index"":0,""viewing_time"":22181}]",22181.0,,,,,,,,,,,,,,,,,,,,
