"success","trial_type","trial_index","time_elapsed","internal_node_id","protocol_sum","subject_identifier","subject_sum","subject_pair","STUDY_ID","PROLIFIC_PID","SESSION_ID","practice_instructions","leaderboard_instructions","bonus","reveal_word","self_rating","confidence","view_history","rt","responses","question_order","correct","test_part","word","final_keyboard_state","num_clicks","points","cheat","response","position_RT","position","player","i_game","true_position","distance","last_word","stimulus","confidence_slider_self_response"
"true","fullscreen",0,6196,"0.0-0.0",NA,427,"212,143,244,178,246,138,16,253,124,134,241,133,166,204,237,224,220,15,44,72,83,141,105,124,179,59,106,218,63,30,133,219",213,"66a22c0758a3d5c9d26873c6","6690464404e2d3a5271a608d","66a2c6423a2b6bab72a32ca0",1,0,0,"true",3,80,"",NA,"","","","","","",NA,NA,"","",NA,NA,NA,NA,NA,NA,"","",NA
"","instructions",1,14475,"0.0-1.0",NA,427,"212,143,244,178,246,138,16,253,124,134,241,133,166,204,237,224,220,15,44,72,83,141,105,124,179,59,106,218,63,30,133,219",213,"66a22c0758a3d5c9d26873c6","6690464404e2d3a5271a608d","66a2c6423a2b6bab72a32ca0",1,0,0,"true",3,80,"[{""page_index"":0,""viewing_time"":8276.899999976158}]",8277.79999995232,"","","","","","",NA,NA,"","",NA,NA,NA,NA,NA,NA,"","",NA
"","instructions",2,49433,"0.0-2.0-0.0",NA,427,"212,143,244,178,246,138,16,253,124,134,241,133,166,204,237,224,220,15,44,72,83,141,105,124,179,59,106,218,63,30,133,219",213,"66a22c0758a3d5c9d26873c6","6690464404e2d3a5271a608d","66a2c6423a2b6bab72a32ca0",1,0,0,"true",3,80,"[{""page_index"":0,""viewing_time"":34957}]",34957.2999999523,"","","","","","",NA,NA,"","",NA,NA,NA,NA,NA,NA,"","",NA
"","survey-multi-choice",3,64793,"0.0-2.0-1.0",NA,427,"212,143,244,178,246,138,16,253,124,134,241,133,166,204,237,224,220,15,44,72,83,141,105,124,179,59,106,218,63,30,133,219",213,"66a22c0758a3d5c9d26873c6","6690464404e2d3a5271a608d","66a2c6423a2b6bab72a32ca0",1,0,0,"true",3,80,"",15357,"{""Q0"":""... reveal the word with as <b>few letter guesses</b> as possible""}","[0]","true","multichoice_nonpretend","","",NA,NA,"","",NA,NA,NA,NA,NA,NA,"","",NA
"","instructions",4,68353,"0.0-3.0",NA,427,"212,143,244,178,246,138,16,253,124,134,241,133,166,204,237,224,220,15,44,72,83,141,105,124,179,59,106,218,63,30,133,219",213,"66a22c0758a3d5c9d26873c6","6690464404e2d3a5271a608d","66a2c6423a2b6bab72a32ca0",1,0,0,"true",3,80,"[{""page_index"":0,""viewing_time"":3559}]",3559.20000004768,"","","","","","",NA,NA,"","",NA,NA,NA,NA,NA,NA,"","",NA
"","Hangman",5,104065,"0.0-4.0",NA,427,"212,143,244,178,246,138,16,253,124,134,241,133,166,204,237,224,220,15,44,72,83,141,105,124,179,59,106,218,63,30,133,219",213,"66a22c0758a3d5c9d26873c6","6690464404e2d3a5271a608d","66a2c6423a2b6bab72a32ca0",1,0,0,"true",3,80,"",NA,"","","","","ZEBRA","A,Z,E,B,R",5,15,"false","",NA,NA,NA,NA,NA,NA,"","",NA
"","instructions",6,138606,"0.0-5.0",NA,427,"212,143,244,178,246,138,16,253,124,134,241,133,166,204,237,224,220,15,44,72,83,141,105,124,179,59,106,218,63,30,133,219",213,"66a22c0758a3d5c9d26873c6","6690464404e2d3a5271a608d","66a2c6423a2b6bab72a32ca0",1,0,0,"true",3,80,"[{""page_index"":0,""viewing_time"":4989.800000071526},{""page_index"":1,""viewing_time"":29549}]",34539.8000000715,"","","","","","",NA,NA,"","",NA,NA,NA,NA,NA,NA,"","",NA
"","survey-multi-choice",7,179053,"0.0-6.0",NA,427,"212,143,244,178,246,138,16,253,124,134,241,133,166,204,237,224,220,15,44,72,83,141,105,124,179,59,106,218,63,30,133,219",213,"66a22c0758a3d5c9d26873c6","6690464404e2d3a5271a608d","66a2c6423a2b6bab72a32ca0",1,0,0,"true",3,80,"",40446.5,"{""Q0"":""...from <b>a previous session</b> that is part of the upcoming tournament.""}","[0]","false","multichoice_leaderboard","","",NA,NA,"","",NA,NA,NA,NA,NA,NA,"","",NA
"","instructions",8,182434,"0.0-7.0-0.0",NA,427,"212,143,244,178,246,138,16,253,124,134,241,133,166,204,237,224,220,15,44,72,83,141,105,124,179,59,106,218,63,30,133,219",213,"66a22c0758a3d5c9d26873c6","6690464404e2d3a5271a608d","66a2c6423a2b6bab72a32ca0",1,0,0,"true",3,80,"[{""page_index"":0,""viewing_time"":3379.7999999523163}]",3380.10000002384,"","","","","","",NA,NA,"","",NA,NA,NA,NA,NA,NA,"","",NA
"","survey-multi-choice",9,215786,"0.0-7.0-1.0",NA,427,"212,143,244,178,246,138,16,253,124,134,241,133,166,204,237,224,220,15,44,72,83,141,105,124,179,59,106,218,63,30,133,219",213,"66a22c0758a3d5c9d26873c6","6690464404e2d3a5271a608d","66a2c6423a2b6bab72a32ca0",1,0,0,"true",3,80,"",33351.2999999523,"{""Q0"":""...from <b>a previous session</b> that is part of the upcoming tournament.""}","[0]","false","multichoice_leaderboard","","",NA,NA,"","",NA,NA,NA,NA,NA,NA,"","",NA
"","instructions",10,217896,"0.0-7.1-0.1",NA,427,"212,143,244,178,246,138,16,253,124,134,241,133,166,204,237,224,220,15,44,72,83,141,105,124,179,59,106,218,63,30,133,219",213,"66a22c0758a3d5c9d26873c6","6690464404e2d3a5271a608d","66a2c6423a2b6bab72a32ca0",1,0,0,"true",3,80,"[{""page_index"":0,""viewing_time"":2107.399999976158}]",2107.60000002384,"","","","","","",NA,NA,"","",NA,NA,NA,NA,NA,NA,"","",NA
"","survey-multi-choice",11,225500,"0.0-7.1-1.1",NA,427,"212,143,244,178,246,138,16,253,124,134,241,133,166,204,237,224,220,15,44,72,83,141,105,124,179,59,106,218,63,30,133,219",213,"66a22c0758a3d5c9d26873c6","6690464404e2d3a5271a608d","66a2c6423a2b6bab72a32ca0",1,0,0,"true",3,80,"",7602.80000007153,"{""Q0"":""...from <b>a previous session</b> that is not part of the upcoming tournament.""}","[0]","true","multichoice_leaderboard","","",NA,NA,"","",NA,NA,NA,NA,NA,NA,"","",NA
"","instructions",12,248093,"0.0-8.0",NA,427,"212,143,244,178,246,138,16,253,124,134,241,133,166,204,237,224,220,15,44,72,83,141,105,124,179,59,106,218,63,30,133,219",213,"66a22c0758a3d5c9d26873c6","6690464404e2d3a5271a608d","66a2c6423a2b6bab72a32ca0",1,0,0,"true",3,80,"[{""page_index"":0,""viewing_time"":22592.299999952316}]",22592.6999999285,"","","","","","",NA,NA,"","",NA,NA,NA,NA,NA,NA,"","",NA
"","survey-multi-choice",13,294718,"0.0-9.0",NA,427,"212,143,244,178,246,138,16,253,124,134,241,133,166,204,237,224,220,15,44,72,83,141,105,124,179,59,106,218,63,30,133,219",213,"66a22c0758a3d5c9d26873c6","6690464404e2d3a5271a608d","66a2c6423a2b6bab72a32ca0",1,0,0,"true",3,80,"",46623.2000000477,"{""Q0"":""...players' leaderboard position (in terms of <b>points</b>) in an <b>upcoming tournament.</b>""}","[0]","true","multichoice_tournament","","",NA,NA,"","",NA,NA,NA,NA,NA,NA,"","",NA
"","instructions",14,306329,"0.0-11.0",NA,427,"212,143,244,178,246,138,16,253,124,134,241,133,166,204,237,224,220,15,44,72,83,141,105,124,179,59,106,218,63,30,133,219",213,"66a22c0758a3d5c9d26873c6","6690464404e2d3a5271a608d","66a2c6423a2b6bab72a32ca0",1,0,0,"true",3,80,"[{""page_index"":0,""viewing_time"":11609.5}]",11609.7999999523,"","","","","","",NA,NA,"","",NA,NA,NA,NA,NA,NA,"","",NA
"","instructions",15,339253,"0.0-12.0-0.0",NA,427,"212,143,244,178,246,138,16,253,124,134,241,133,166,204,237,224,220,15,44,72,83,141,105,124,179,59,106,218,63,30,133,219",213,"66a22c0758a3d5c9d26873c6","6690464404e2d3a5271a608d","66a2c6423a2b6bab72a32ca0",1,0,0,"true",3,80,"[{""page_index"":0,""viewing_time"":32923.39999997616}]",32923.6999999285,"","","","","","",NA,NA,"","",NA,NA,NA,NA,NA,NA,"","",NA
"","type-this",16,351266,"0.0-12.0-1.0",NA,427,"212,143,244,178,246,138,16,253,124,134,241,133,166,204,237,224,220,15,44,72,83,141,105,124,179,59,106,218,63,30,133,219",213,"66a22c0758a3d5c9d26873c6","6690464404e2d3a5271a608d","66a2c6423a2b6bab72a32ca0",1,0,0,"true",3,80,"",11509.7000000477,"THIRTY FOUR","","","","","",NA,NA,"","THIRTY FOUR",NA,NA,NA,NA,NA,NA,"","",NA
"","Hangman_replay",17,391891,"0.0-12.0-2.0",NA,427,"212,143,244,178,246,138,16,253,124,134,241,133,166,204,237,224,220,15,44,72,83,141,105,124,179,59,106,218,63,30,133,219",213,"66a22c0758a3d5c9d26873c6","6690464404e2d3a5271a608d","66a2c6423a2b6bab72a32ca0",1,0,0,"true",3,80,"",NA,"","","","","THIRTY FOUR","A,E,I,G,H,O,N,W,M,D,C,S,T,R,Y,F,U",17,6,"false","",NA,NA,NA,NA,NA,NA,"","",NA
"","instructions",18,396959,"0.0-12.0-3.0",NA,427,"212,143,244,178,246,138,16,253,124,134,241,133,166,204,237,224,220,15,44,72,83,141,105,124,179,59,106,218,63,30,133,219",213,"66a22c0758a3d5c9d26873c6","6690464404e2d3a5271a608d","66a2c6423a2b6bab72a32ca0",1,0,0,"true",3,80,"[{""page_index"":0,""viewing_time"":5066.100000023842}]",5067.20000004768,"","","","","","",NA,NA,"","",NA,NA,NA,NA,NA,NA,"","",NA
"","Guess_leaderboard",19,407137,"0.0-12.0-4.0",NA,427,"212,143,244,178,246,138,16,253,124,134,241,133,166,204,237,224,220,15,44,72,83,141,105,124,179,59,106,218,63,30,133,219",213,"66a22c0758a3d5c9d26873c6","6690464404e2d3a5271a608d","66a2c6423a2b6bab72a32ca0",1,0,0,"true",3,80,"",NA,"","","","","THIRTY FOUR","",NA,NA,"","",9419.20000004768,75,75,0,84,9,"","",NA
"","instructions",20,420151,"0.0-12.0-0.1",NA,427,"212,143,244,178,246,138,16,253,124,134,241,133,166,204,237,224,220,15,44,72,83,141,105,124,179,59,106,218,63,30,133,219",213,"66a22c0758a3d5c9d26873c6","6690464404e2d3a5271a608d","66a2c6423a2b6bab72a32ca0",1,0,0,"true",3,80,"[{""page_index"":0,""viewing_time"":13013}]",13013.3000000715,"","","","","","",NA,NA,"","",NA,NA,NA,NA,NA,NA,"","",NA
"","type-this",21,446253,"0.0-12.0-1.1",NA,427,"212,143,244,178,246,138,16,253,124,134,241,133,166,204,237,224,220,15,44,72,83,141,105,124,179,59,106,218,63,30,133,219",213,"66a22c0758a3d5c9d26873c6","6690464404e2d3a5271a608d","66a2c6423a2b6bab72a32ca0",1,0,0,"true",3,80,"",25597.5,"USAIN BOLT","","","","","",NA,NA,"","USAIN BOLT",NA,NA,NA,NA,NA,NA,"","",NA
"","Hangman_replay",22,467608,"0.0-12.0-2.1",NA,427,"212,143,244,178,246,138,16,253,124,134,241,133,166,204,237,224,220,15,44,72,83,141,105,124,179,59,106,218,63,30,133,219",213,"66a22c0758a3d5c9d26873c6","6690464404e2d3a5271a608d","66a2c6423a2b6bab72a32ca0",1,0,0,"true",3,80,"",NA,"","","","","USAIN BOLT","A,E,I,O,U,S,N,B,L,T",10,14,"false","",NA,NA,NA,NA,NA,NA,"","",NA
"","instructions",23,471810,"0.0-12.0-3.1",NA,427,"212,143,244,178,246,138,16,253,124,134,241,133,166,204,237,224,220,15,44,72,83,141,105,124,179,59,106,218,63,30,133,219",213,"66a22c0758a3d5c9d26873c6","6690464404e2d3a5271a608d","66a2c6423a2b6bab72a32ca0",1,0,0,"true",3,80,"[{""page_index"":0,""viewing_time"":4201.200000047684}]",4202.10000002384,"","","","","","",NA,NA,"","",NA,NA,NA,NA,NA,NA,"","",NA
"","Guess_leaderboard",24,483471,"0.0-12.0-4.1",NA,427,"212,143,244,178,246,138,16,253,124,134,241,133,166,204,237,224,220,15,44,72,83,141,105,124,179,59,106,218,63,30,133,219",213,"66a22c0758a3d5c9d26873c6","6690464404e2d3a5271a608d","66a2c6423a2b6bab72a32ca0",1,0,0,"true",3,80,"",NA,"","","","","USAIN BOLT","",NA,NA,"","",10899.1999999285,2,62,1,68,66,"","",NA
"","instructions",25,495639,"0.0-12.0-0.2",NA,427,"212,143,244,178,246,138,16,253,124,134,241,133,166,204,237,224,220,15,44,72,83,141,105,124,179,59,106,218,63,30,133,219",213,"66a22c0758a3d5c9d26873c6","6690464404e2d3a5271a608d","66a2c6423a2b6bab72a32ca0",1,0,0,"true",3,80,"[{""page_index"":0,""viewing_time"":12166.399999976158}]",12166.7999999523,"","","","","","",NA,NA,"","",NA,NA,NA,NA,NA,NA,"","",NA
"","type-this",26,502218,"0.0-12.0-1.2",NA,427,"212,143,244,178,246,138,16,253,124,134,241,133,166,204,237,224,220,15,44,72,83,141,105,124,179,59,106,218,63,30,133,219",213,"66a22c0758a3d5c9d26873c6","6690464404e2d3a5271a608d","66a2c6423a2b6bab72a32ca0",1,0,0,"true",3,80,"",6075.10000002384,"THUMB","","","","","",NA,NA,"","THUMB",NA,NA,NA,NA,NA,NA,"","",NA
"","Hangman_replay",27,570343,"0.0-12.0-2.2",NA,427,"212,143,244,178,246,138,16,253,124,134,241,133,166,204,237,224,220,15,44,72,83,141,105,124,179,59,106,218,63,30,133,219",213,"66a22c0758a3d5c9d26873c6","6690464404e2d3a5271a608d","66a2c6423a2b6bab72a32ca0",1,0,0,"true",3,80,"",NA,"","","","","THUMB","A,E,I,O,U,T,S,R,P,W,N,M,H,B",14,6,"false","",NA,NA,NA,NA,NA,NA,"","",NA
"","instructions",28,574630,"0.0-12.0-3.2",NA,427,"212,143,244,178,246,138,16,253,124,134,241,133,166,204,237,224,220,15,44,72,83,141,105,124,179,59,106,218,63,30,133,219",213,"66a22c0758a3d5c9d26873c6","6690464404e2d3a5271a608d","66a2c6423a2b6bab72a32ca0",1,0,0,"true",3,80,"[{""page_index"":0,""viewing_time"":4284.300000071526}]",4285,"","","","","","",NA,NA,"","",NA,NA,NA,NA,NA,NA,"","",NA
"","Guess_leaderboard",29,583406,"0.0-12.0-4.2",NA,427,"212,143,244,178,246,138,16,253,124,134,241,133,166,204,237,224,220,15,44,72,83,141,105,124,179,59,106,218,63,30,133,219",213,"66a22c0758a3d5c9d26873c6","6690464404e2d3a5271a608d","66a2c6423a2b6bab72a32ca0",1,0,0,"true",3,80,"",NA,"","","","","THUMB","",NA,NA,"","",8004.89999997616,93,99,2,78,15,"","",NA
"","instructions",30,593375,"0.0-12.0-0.3",NA,427,"212,143,244,178,246,138,16,253,124,134,241,133,166,204,237,224,220,15,44,72,83,141,105,124,179,59,106,218,63,30,133,219",213,"66a22c0758a3d5c9d26873c6","6690464404e2d3a5271a608d","66a2c6423a2b6bab72a32ca0",1,0,0,"true",3,80,"[{""page_index"":0,""viewing_time"":9966.699999928474}]",9967.09999990463,"","","","","","",NA,NA,"","",NA,NA,NA,NA,NA,NA,"","",NA
"","type-this",31,603125,"0.0-12.0-1.3",NA,427,"212,143,244,178,246,138,16,253,124,134,241,133,166,204,237,224,220,15,44,72,83,141,105,124,179,59,106,218,63,30,133,219",213,"66a22c0758a3d5c9d26873c6","6690464404e2d3a5271a608d","66a2c6423a2b6bab72a32ca0",1,0,0,"true",3,80,"",9245.89999997616,"HAWAII","","","","","",NA,NA,"","HAWAII",NA,NA,NA,NA,NA,NA,"","",NA
"","Hangman_replay",32,631228,"0.0-12.0-2.3",NA,427,"212,143,244,178,246,138,16,253,124,134,241,133,166,204,237,224,220,15,44,72,83,141,105,124,179,59,106,218,63,30,133,219",213,"66a22c0758a3d5c9d26873c6","6690464404e2d3a5271a608d","66a2c6423a2b6bab72a32ca0",1,0,0,"true",3,80,"",NA,"","","","","HAWAII","A,N,H,W,I",5,14,"false","",NA,NA,NA,NA,NA,NA,"","",NA
"","instructions",33,634132,"0.0-12.0-3.3",NA,427,"212,143,244,178,246,138,16,253,124,134,241,133,166,204,237,224,220,15,44,72,83,141,105,124,179,59,106,218,63,30,133,219",213,"66a22c0758a3d5c9d26873c6","6690464404e2d3a5271a608d","66a2c6423a2b6bab72a32ca0",1,0,0,"true",3,80,"[{""page_index"":0,""viewing_time"":2902.899999976158}]",2903.19999992847,"","","","","","",NA,NA,"","",NA,NA,NA,NA,NA,NA,"","",NA
"","Guess_leaderboard",34,640290,"0.0-12.0-4.3",NA,427,"212,143,244,178,246,138,16,253,124,134,241,133,166,204,237,224,220,15,44,72,83,141,105,124,179,59,106,218,63,30,133,219",213,"66a22c0758a3d5c9d26873c6","6690464404e2d3a5271a608d","66a2c6423a2b6bab72a32ca0",1,0,0,"true",3,80,"",NA,"","","","","HAWAII","",NA,NA,"","",5401.10000002384,9,28,3,83,74,"","",NA
"","instructions",35,646235,"0.0-12.0-0.4",NA,427,"212,143,244,178,246,138,16,253,124,134,241,133,166,204,237,224,220,15,44,72,83,141,105,124,179,59,106,218,63,30,133,219",213,"66a22c0758a3d5c9d26873c6","6690464404e2d3a5271a608d","66a2c6423a2b6bab72a32ca0",1,0,0,"true",3,80,"[{""page_index"":0,""viewing_time"":5943}]",5943.20000004768,"","","","","","",NA,NA,"","",NA,NA,NA,NA,NA,NA,"","",NA
"","type-this",36,653699,"0.0-12.0-1.4",NA,427,"212,143,244,178,246,138,16,253,124,134,241,133,166,204,237,224,220,15,44,72,83,141,105,124,179,59,106,218,63,30,133,219",213,"66a22c0758a3d5c9d26873c6","6690464404e2d3a5271a608d","66a2c6423a2b6bab72a32ca0",1,0,0,"true",3,80,"",6961.70000004768,"FIG","","","","","",NA,NA,"","FIG",NA,NA,NA,NA,NA,NA,"","",NA
"","Hangman_replay",37,685045,"0.0-12.0-2.4",NA,427,"212,143,244,178,246,138,16,253,124,134,241,133,166,204,237,224,220,15,44,72,83,141,105,124,179,59,106,218,63,30,133,219",213,"66a22c0758a3d5c9d26873c6","6690464404e2d3a5271a608d","66a2c6423a2b6bab72a32ca0",1,0,0,"true",3,80,"",NA,"","","","","FIG","A,E,I,F,G",5,13,"false","",NA,NA,NA,NA,NA,NA,"","",NA
"","instructions",38,695509,"0.0-12.0-3.4",NA,427,"212,143,244,178,246,138,16,253,124,134,241,133,166,204,237,224,220,15,44,72,83,141,105,124,179,59,106,218,63,30,133,219",213,"66a22c0758a3d5c9d26873c6","6690464404e2d3a5271a608d","66a2c6423a2b6bab72a32ca0",1,0,0,"true",3,80,"[{""page_index"":0,""viewing_time"":10463}]",10464.1000000238,"","","","","","",NA,NA,"","",NA,NA,NA,NA,NA,NA,"","",NA
"","Guess_leaderboard",39,700208,"0.0-12.0-4.4",NA,427,"212,143,244,178,246,138,16,253,124,134,241,133,166,204,237,224,220,15,44,72,83,141,105,124,179,59,106,218,63,30,133,219",213,"66a22c0758a3d5c9d26873c6","6690464404e2d3a5271a608d","66a2c6423a2b6bab72a32ca0",1,0,0,"true",3,80,"",NA,"","","","","FIG","",NA,NA,"","",3928.30000007153,18,74,4,36,18,"","",NA
"","survey-text",40,708992,"0.0-13.0",NA,427,"212,143,244,178,246,138,16,253,124,134,241,133,166,204,237,224,220,15,44,72,83,141,105,124,179,59,106,218,63,30,133,219",213,"66a22c0758a3d5c9d26873c6","6690464404e2d3a5271a608d","66a2c6423a2b6bab72a32ca0",1,0,0,"true",3,80,"",8781.60000002384,"{""Q0"":""FIG""}","","","","","",NA,NA,"","",NA,NA,NA,NA,NA,NA,"fig","",NA
"","survey-multi-choice",41,723655,"0.0-14.0",NA,427,"212,143,244,178,246,138,16,253,124,134,241,133,166,204,237,224,220,15,44,72,83,141,105,124,179,59,106,218,63,30,133,219",213,"66a22c0758a3d5c9d26873c6","6690464404e2d3a5271a608d","66a2c6423a2b6bab72a32ca0",1,0,0,"true",3,80,"",14662,"{""Q0"":""3. I would be <b>third</b> out of the six of us.""}","[0]","","self-rating","","",NA,NA,"","",NA,3,NA,NA,NA,NA,"","",NA
"","html-slider-response",42,730956,"0.0-15.0",NA,427,"212,143,244,178,246,138,16,253,124,134,241,133,166,204,237,224,220,15,44,72,83,141,105,124,179,59,106,218,63,30,133,219",213,"66a22c0758a3d5c9d26873c6","6690464404e2d3a5271a608d","66a2c6423a2b6bab72a32ca0",1,0,0,"true",3,80,"",7298.39999997616,"","","","","","",NA,NA,"","80",NA,NA,NA,NA,NA,NA,"","<p>Overall, how confident were you in your answer to this last question?</p>",80
"","survey-text",43,813166,"0.0-16.0",NA,427,"212,143,244,178,246,138,16,253,124,134,241,133,166,204,237,224,220,15,44,72,83,141,105,124,179,59,106,218,63,30,133,219",213,"66a22c0758a3d5c9d26873c6","6690464404e2d3a5271a608d","66a2c6423a2b6bab72a32ca0",1,0,0,"true",3,80,"",82208,"{""Q0"":""The study said it was about the mental operations of successful decision making. ""}","","","","","",NA,NA,"","",NA,NA,NA,NA,NA,NA,"","",NA
"","survey-text",44,826372,"0.0-17.0",NA,427,"212,143,244,178,246,138,16,253,124,134,241,133,166,204,237,224,220,15,44,72,83,141,105,124,179,59,106,218,63,30,133,219",213,"66a22c0758a3d5c9d26873c6","6690464404e2d3a5271a608d","66a2c6423a2b6bab72a32ca0",1,0,0,"true",3,80,"",13203.3999999762,"{""Q0"":""No""}","","","","","",NA,NA,"","",NA,NA,NA,NA,NA,NA,"","",NA
"","instructions",45,836340,"0.0-18.0",NA,427,"212,143,244,178,246,138,16,253,124,134,241,133,166,204,237,224,220,15,44,72,83,141,105,124,179,59,106,218,63,30,133,219",213,"66a22c0758a3d5c9d26873c6","6690464404e2d3a5271a608d","66a2c6423a2b6bab72a32ca0",1,0,0,"true",3,80,"[{""page_index"":0,""viewing_time"":9967.5}]",9967.80000007153,"","","","","","",NA,NA,"","",NA,NA,NA,NA,NA,NA,"","",NA
