[{"success":true,"trial_type":"fullscreen","trial_index":0,"time_elapsed":4288,"internal_node_id":"0.0-0.0","protocol_sum":"","subject_identifier":124,"subject_sum":[129,184,160,63,151,232,120,124,83,254,26,134,189,160,66,182,240,222,155,14,201,192,147,87,225,7,201,155,164,214,148,138],"subject_pair":62,"STUDY_ID":"669a702db1122fc5150a13ce","PROLIFIC_PID":"6646c1176f77d54e29544b9e","SESSION_ID":"669b16164d4ec58d52b6262d","practice_instructions":1,"leaderboard_instructions":0,"bonus":0,"reveal_word":false,"self_rating":"2","confidence":"94"},{"view_history":"[{\"page_index\":0,\"viewing_time\":5355.4000000059605}]","rt":5355.5999999940395,"trial_type":"instructions","trial_index":1,"time_elapsed":9644,"internal_node_id":"0.0-1.0","protocol_sum":"","subject_identifier":124,"subject_sum":[129,184,160,63,151,232,120,124,83,254,26,134,189,160,66,182,240,222,155,14,201,192,147,87,225,7,201,155,164,214,148,138],"subject_pair":62,"STUDY_ID":"669a702db1122fc5150a13ce","PROLIFIC_PID":"6646c1176f77d54e29544b9e","SESSION_ID":"669b16164d4ec58d52b6262d","practice_instructions":1,"leaderboard_instructions":0,"bonus":0,"reveal_word":false,"self_rating":"2","confidence":"94"},{"view_history":"[{\"page_index\":0,\"viewing_time\":31629.30000001192}]","rt":31629.40000000596,"trial_type":"instructions","trial_index":2,"time_elapsed":41275,"internal_node_id":"0.0-2.0-0.0","protocol_sum":"","subject_identifier":124,"subject_sum":[129,184,160,63,151,232,120,124,83,254,26,134,189,160,66,182,240,222,155,14,201,192,147,87,225,7,201,155,164,214,148,138],"subject_pair":62,"STUDY_ID":"669a702db1122fc5150a13ce","PROLIFIC_PID":"6646c1176f77d54e29544b9e","SESSION_ID":"669b16164d4ec58d52b6262d","practice_instructions":1,"leaderboard_instructions":0,"bonus":0,"reveal_word":false,"self_rating":"2","confidence":"94"},{"rt":35356.20000001788,"responses":"{\"Q0\":\"... reveal the word with as <b>few letter guesses</b> as possible\"}","question_order":"[0]","trial_type":"survey-multi-choice","trial_index":3,"time_elapsed":76633,"internal_node_id":"0.0-2.0-1.0","protocol_sum":"","subject_identifier":124,"subject_sum":[129,184,160,63,151,232,120,124,83,254,26,134,189,160,66,182,240,222,155,14,201,192,147,87,225,7,201,155,164,214,148,138],"subject_pair":62,"correct":true,"test_part":"multichoice_nonpretend","STUDY_ID":"669a702db1122fc5150a13ce","PROLIFIC_PID":"6646c1176f77d54e29544b9e","SESSION_ID":"669b16164d4ec58d52b6262d","practice_instructions":1,"leaderboard_instructions":0,"bonus":0,"reveal_word":false,"self_rating":"2","confidence":"94"},{"view_history":"[{\"page_index\":0,\"viewing_time\":1227.699999988079}]","rt":1227.7999999821186,"trial_type":"instructions","trial_index":4,"time_elapsed":77862,"internal_node_id":"0.0-3.0","protocol_sum":"","subject_identifier":124,"subject_sum":[129,184,160,63,151,232,120,124,83,254,26,134,189,160,66,182,240,222,155,14,201,192,147,87,225,7,201,155,164,214,148,138],"subject_pair":62,"STUDY_ID":"669a702db1122fc5150a13ce","PROLIFIC_PID":"6646c1176f77d54e29544b9e","SESSION_ID":"669b16164d4ec58d52b6262d","practice_instructions":1,"leaderboard_instructions":0,"bonus":0,"reveal_word":false,"self_rating":"2","confidence":"94"},{"word":"ZEBRA","click_log":{"letter":["","S","E","A","Z","B","R"],"t":[0,8110,10745.09999999404,17646.59999999404,25873.19999998808,27205.09999999404,28558.5],"hit":[null,0,1,1,1,1,1],"asked":["","S","SE","SEA","SEAZ","SEAZB","SEAZBR"],"word_state":["_____","_____","_E___","_E__A","ZE__A","ZEB_A","ZEBRA"]},"hover_log":{"letter":["?","?","?","?","?","?","?","S","S","S","S","S","?","?","?","?","?","?","?","?","?","?","?","?","?","?","?","?","?","?","?","?","?","?","?","?","?","?","?","?","?","?","?","?","?","?","?","?","?","?","?","?","?","?","?","?","?","?","?","?","?","?","?","?","?","?","?","?","?","?","?","?","?","?","?","?","?","?","?","?","?","?","?","?","?","?","?","?","?","?","?","?","?","?","?","?","?","?","?","?","?","?","?","?","?","?","?","?","?","?","?","?","?","?","?","?","?","?","?","?","?","?","?","?","?","?","?","?","?","?","?","?","?","?","?","?","?","?","?","?","?","?","?","?","?","?","?","?","?","?","?","?","?","?","?","?","?","?","?","?","?","?","?","?","?","?","?","?","?","?","?","?","?","?","?","?","?","?","?","?","?","?","?","?","?","?","?","?","K","?","?","?","?","?","?","?","?","?","?","?","?","?","?","?","?","?","?","?","?","?","?","?","?","?","?","?","?","?","?","?","?","?","?","?","?","?","?","?","?","?","?","?","?","?","?","?","?","?","?","?","?","?","?","?","?","?","?","?","?","?","?","?","?","?","?","?","?","?","?","?","?","?","?","?","?","?","?","?","?","?","?","?","?","?","?","?","?","?","?","?","?","?","?","?","?","?","?","?","?","?","?","?","?","?","?","?","?","?","?","?","?","?","?","?","?","?","?","?","?","?","?","?","?","?","?","?","?","?","?","?","?","?","?","?","?","?","?","?","?","?","?","?","?","?","?","?","?","?","?","?","?","?","?","?","?","?","?","?","?","?","?","?","?","?","?","?","?","?","?","?","?","?","?","?","?","?","?","?","?","?","?","?","?","?","?","?","?","?","?","?","?","?","?","?","?","?","?","?","?","?","?","?","?","?","?","?","?","?","?","?","?","?","?","?","?","?","?","?","?","?","?","?","?","?","?","?","?","?","?","?","?","?","?","?","?","?","?","?","?","?","?","?","?","?","?","?","?","?","?","?","?","?","?","?","?","?","?","?","?","?","?","?","?","?","?","?","?","?","?","?","?","?","?","?","?","?","?","?","?","?","?","?","?","?","?","?","?","?","?","?","?","?","?","?","?","?","?","?","?","?","?","?","?","?","?","?","?","?","?","?","?","?","?","?","?","?","?","?","?","?","?","?","?","?","?","?","?","?","?","?","?","?","?","?","?","?","?","?","?","?","?","?","?","?","?","?","?","?","?","?","?","?","?","?","?","?","?","?","?","?","?","?","?","?","?","?","?","?","?","?","?","?","?","?","?","?","?","?","?","?","?","?","?","?","?","?","?","?","?","?","?","?","?","?","?","?","?","?","?","?","?","?","?","?","?","?","?","?","?","?","?","?","?","?","?","B","B","?","?","?","?","?","?","?","?","?","?","?","?","?","?","?","?","?","?","?","?","?","?","S","?","?","?","?","?","?","S","S","S","S","S","S","S","S","S","S","S","S","S","S","S","S","S","S","S","S","S","S","S","S","S","S","S","S","S","S","S","S","S","S","S","S","S","S","S","S","S","S","S","S","S","S","S","S","S","S","S","S","S","S","S","S","S","S","S","S","S","S","S","S","S","S","S","S","S","S","S","S","S","T","T","T","T","T","T","T","T","?","?","?","?","?","?","?","?","?","?","?","?","?","?","?","?","?","?","?","?","?","?","?","?","?","?","?","?","?","?","?","?","?","?","?","?","?","?","?","?","?","?","?","?","?","?","?","?","?","?","?","?","?","?","?","?","?","?","?","?","?","?","?","?","?","?","?","?","?","?","?","?","?","?","?","?","?","?","?","?","?","?","?","?","?","?","?","?","?","?","?","?","?","?","?","?","?","?","?","?","?","?","?","?","?","?","?","?","?","V","V","V","V","V","V","V","M","M","?","?","?","?","?","?","?","?","?","?","?","?","?","?","?","?","?","E","E","E","E","E","E","E","E","E","E","E","E","E","E","E","E","E","E","E","E","E","E","E","E","E","E","E","E","E","E","E","?","?","?","?","?","Y","Y","Y","?","?","?","?","?","?","?","?","?","?","?","?","?","?","?","?","?","?","?","?","?","?","?","?","?","?","?","?","?","?","?","?","?","?","?","?","?","?","?","?","?","?","?","?","?","?","?","?","?","?","?","?","?","?","?","?","?","?","?","?","?","?","?","?","?","?","?","?","?","?","?","?","?","?","?","?","?","?","?","?","?","?","?","?","?","?","?","?","?","?","?","?","?","?","?","?","?","?","?","?","?","?","?","?","?","?","?","?","?","?","?","?","?","?","?","?","?","?","?","?","?","?","?","?","?","?","?","?","?","?","?","?","?","?","?","?","?","?","?","?","?","?","?","?","?","?","?","?","?","?","?","?","?","?","?","?","?","?","?","?","?","?","?","?","?","?","?","?","?","?","?","?","?","?","?","?","?","?","?","?","?","?","?","?","?","?","?","?","?","?","?","?","?","?","?","?","?","?","?","?","?","?","?","?","?","?","?","?","?","?","?","?","?","?","?","?","?","?","?","?","?","?","?","?","?","?","?","?","?","?","?","?","?","?","?","?","?","?","?","?","?","?","?","?","?","?","?","?","?","?","?","?","?","?","?","?","?","?","?","?","?","?","?","?","?","?","?","?","?","?","?","?","?","?","?","?","?","?","?","?","?","?","?","?","?","?","?","?","?","?","?","?","?","?","?","?","?","?","?","?","?","?","?","?","?","?","?","?","?","?","?","?","?","?","?","?","?","?","?","?","?","?","?","?","?","?","?","?","?","?","?","?","?","?","?","?","?","?","?","?","?","?","?","?","?","?","?","?","?","?","?","?","?","?","?","?","?","?","?","?","?","?","?","?","?","?","?","?","?","?","?","?","Z","Z","Z","Z","Z","Z","Z","Z","Z","Z","Z","Z","Z","Z","Z","Z","Z","Z","Z","Z","?","?","?","?","?","?","?","?","Q","Q","Q","Q","Q","Q","Q","Q","Q","?","?","P","P","P","P","P","?","O","O","O","O","O","O","O","O","?","?","?","?","?","?","?","?","?","?","?","?","?","?","?","?","?","?","?","?","?","?","?","?","?","?","?","?","?","?","?","?","?","?","?","?","?","?","?","?","?","?","?","?","?","?","?","?","?","?","?","?","?","?","?","?","?","?","?","?","?","?","?","?","K","K","K","K","K","K","K","K","?","?","?","?","?","?","?","?","?","?","?","?","?","?","?","?","?","A","A","A","A","A","A","A","A","A","A","A","A","A","A","A","A","A","A","A","A","A","A","A","A","A","A","A","A","A","A","A","A","A","A","A","A","A","A","A","A","A","A","A","A","A","A","A","A","K","?","?","?","?","?","?","?","?","?","?","?","?","?","?","?","?","?","?","?","?","?","?","?","?","?","?","?","?","?","?","?","?","?","?","?","?","?","?","?","?","?","?","?","?","?","?","?","?","?","?","?","?","?","?","?","?","?","?","?","?","?","?","?","?","?","?","?","?","?","?","?","?","?","?","?","?","?","?","?","?","?","?","?","?","?","?","?","?","?","?","?","?","?","?","?","?","?","?","?","?","?","?","?","?","?","?","?","?","?","?","?","?","?","?","?","?","?","?","?","?","?","?","?","?","?","?","?","?","?","?","?","?","?","?","?","?","?","?","?","?","?","?","?","?","?","?","?","?","?","?","?","?","?","?","?","?","?","?","?","?","?","?","?","?","?","?","?","?","?","?","?","?","?","?","?","?","?","?","?","?","?","?","?","?","?","?","?","?","?","?","?","?","?","?","?","?","?","?","?","?","?","?","?","?","?","?","?","?","?","?","?","?","?","?","?","?","?","?","?","?","?","?","?","?","?","?","?","?","?","?","?","?","?","?","?","?","?","?","?","?","?","?","?","?","?","?","?","?","?","?","?","?","?","?","?","?","?","?","?","?","?","?","?","?","?","?","?","?","?","?","?","?","?","?","?","?","?","?","?","?","?","?","?","?","?","?","?","?","?","?","?","?","?","?","?","?","?","?","?","?","?","?","?","?","?","?","?","?","?","?","?","?","?","?","?","?","?","?","?","?","?","?","?","?","?","?","?","?","?","?","?","?","?","?","?","?","?","?","?","?","?","?","?","?","?","?","?","?","?","?","?","?","?","?","?","?","?","?","?","?","?","?","?","?","?","?","?","?","?","?","?","?","?","?","?","?","?","?","?","?","?","?","?","?","?","?","?","?","?","?","?","?","?","?","?","?","?","?","?","?","?","?","?","?","?","?","?","?","?","?","?","?","?","?","?","?","?","?","?","?","?","?","?","?","?","?","?","?","?","?","?","?","?","?","?","?","?","?","?","?","?","?","?","?","?","?","?","?","?","?","?","?","?","?","?","?","?","?","?","?","?","?","?","?","?","?","?","?","?","?","?","?","?","?","?","?","?","?","?","?","?","?","?","?","?","?","?","?","?","?","?","?","?","?","?","?","?","?","?","?","?","?","?","?","?","?","?","?","?","?","?","?","?","?","?","?","?","?","?","?","?","?","?","?","?","?","?","?","?","?","?","?","?","?","?","?","?","?","?","?","V","V","V","V","V","V","V","?","X","X","X","X","X","X","X","?","?","Y","Y","Y","Y","Y","Y","?","?","?","?","?","?","?","?","?","?","?","?","?","?","?","?","?","?","?","?","?","?","?","?","?","?","?","?","?","?","?","?","?","Z","Z","Z","Z","Z","Z","Z","?","?","?","?","?","?","?","?","?","?","?","?","?","?","?","?","?","?","?","?","?","?","?","?","?","Z","Z","Z","Z","Z","Z","Z","Z","Z","Z","Z","Z","Z","Z","Z","Z","Z","Z","Z","Z","Z","Z","Z","Z","Z","Z","Z","Z","Z","Z","Z","Z","Z","Z","Z","Z","Z","Z","Z","Z","?","X","X","X","X","X","X","X","V","V","?","?","?","?","?","?","L","L","L","L","L","L","L","?","?","?","?","?","?","?","?","?","?","?","?","?","?","L","L","L","L","L","L","L","L","?","?","?","?","?","?","?","?","?","?","?","?","?","?","B","B","B","B","B","B","B","B","B","B","B","B","B","B","B","B","B","B","B","B","B","B","B","B","B","B","B","B","B","B","B","B","B","B","B","B","B","B","B","B","B","B","B","B","B","B","B","B","B","B","?","?","?","?","L","L","?","?","?","?","?","?","?","?","?","?","?","?","?","?","?","?","?","?","?","N","N","N","N","N","N","N","O","O","O","O","O","O","O","?","?","?","?","?","?","?","P","P","P","P","P","P","P","?","?","?","?","?","?","?","?","?","?","?","?","?","?","Q","Q","Q","Q","Q","R","R","R","R","R","R","R","R","R","R","R","R","R","R","R","R","R","R","R","R","R","R","R","R","R","R","R","R","R","R","R","R","R","R","R","R","?","?","?","?","?","?","?","?","?","?","?","?","?","?","?","?","?","?","?","?","?","?","?","?","?","?","?","?","?","?","?","?","?","?","?","?","?","?","?","?","?","?","?","?","?","?","?","?","?","?","?","?","?","?","?","?","?","?","?","?","?","?","?","?","?","?","?","?","?","?","?","?","?","?","?","?","?","?","?","?","?","?","?","?","?","?","?","?","?","?","?","?","?","?","?","?","?","?","?","?","?","?","?","?","?","?","?","?","?","?","?","?","?","?","?","?","?","?","?","?","?","?","?","?","?","?","?","?","?","?","?","?","?","?","?","?","?","?","?","?","?","?","?","?","?","?","?","?","?","?"],"t":[30,36,48,61,72,85,97,109,121,133,145,157,169,181,194,206,218,230,242,254,266,278,290,303,315,327,339,351,363,375,387,399,411,424,436,448,460,472,485,497,509,521,533,545,557,569,581,594,606,618,630,642,654,666,678,691,703,715,727,739,751,763,775,787,799,812,824,836,848,860,872,885,897,909,921,933,945,957,969,981,997,1012,1024,1036,1048,1060,1072,1084,1097,1109,1121,1133,1145,1157,1169,1181,1193,1205,1218,1230,1242,1254,1266,1278,1290,1302,1315,1327,1339,1351,1363,1375,1387,1400,1411,1424,1436,1448,1460,1472,1484,1496,1509,1521,1533,1545,1557,1569,1581,1594,1606,1618,1630,1642,1654,1667,1684,1696,1708,1721,1733,1745,1757,1769,1781,1793,1806,1819,1837,1854,1866,1878,1890,1902,1915,1927,1939,1952,1970,1988,2000,2012,2024,2036,2048,2062,2079,2096,2109,2121,2133,2145,2157,2169,2181,2193,2206,2218,2230,2242,2254,2266,2279,2291,2303,2315,2327,2339,2351,2363,2375,2387,2399,2412,2424,2436,2448,2460,2472,2484,2497,2508,2521,2533,2545,2557,2569,2581,2593,2606,2618,2632,2648,2660,2672,2684,2697,2716,2733,2745,2757,2769,2781,2793,2806,2817,2830,2842,2854,2866,2878,2890,2902,2915,2927,2939,2951,2963,2975,2990,3005,3018,3030,3042,3054,3066,3078,3090,3102,3115,3127,3139,3151,3163,3175,3188,3199,3212,3224,3236,3248,3260,3272,3284,3296,3308,3321,3333,3345,3357,3369,3381,3393,3406,3418,3430,3442,3454,3476,3490,3502,3515,3527,3539,3551,3563,3575,3587,3599,3612,3624,3636,3648,3660,3672,3684,3696,3708,3721,3733,3745,3757,3769,3782,3799,3812,3824,3836,3848,3860,3872,3887,3902,3916,3933,3945,3957,3969,3981,3993,4005,4018,4030,4042,4054,4066,4078,4090,4102,4115,4127,4139,4151,4163,4175,4187,4200,4212,4224,4236,4248,4260,4272,4284,4296,4309,4321,4333,4345,4357,4369,4381,4393,4406,4418,4430,4442,4455,4467,4479,4491,4503,4515,4527,4539,4551,4563,4575,4587,4600,4612,4624,4636,4648,4660,4672,4684,4696,4709,4721,4733,4745,4757,4769,4781,4793,4805,4818,4830,4842,4854,4866,4878,4890,4902,4914,4927,4940,4957,4969,4981,4994,5011,5024,5036,5048,5060,5072,5084,5096,5109,5121,5133,5145,5157,5169,5181,5193,5206,5218,5230,5242,5254,5266,5278,5290,5302,5314,5327,5339,5351,5363,5375,5387,5399,5412,5424,5436,5448,5460,5472,5484,5497,5509,5521,5533,5545,5557,5569,5581,5593,5605,5617,5630,5642,5654,5666,5678,5690,5703,5715,5727,5739,5751,5763,5775,5787,5799,5811,5824,5836,5848,5860,5872,5884,5897,5909,5921,5933,5945,5957,5969,5981,5993,6006,6017,6030,6042,6054,6066,6078,6090,6102,6115,6127,6139,6151,6163,6175,6187,6199,6212,6224,6236,6248,6260,6272,6284,6296,6309,6321,6333,6345,6357,6369,6381,6393,6405,6418,6430,6442,6454,6466,6478,6490,6503,6515,6527,6539,6551,6563,6576,6587,6599,6612,6624,6636,6648,6660,6672,6684,6696,6709,6721,6733,6745,6757,6771,6788,6800,6812,6824,6836,6848,6860,6872,6884,6897,6909,6921,6933,6945,6957,6969,6981,6994,7006,7018,7030,7042,7054,7066,7078,7091,7103,7115,7127,7139,7151,7163,7176,7188,7200,7212,7224,7236,7248,7261,7272,7284,7297,7309,7321,7333,7345,7357,7369,7382,7394,7406,7418,7430,7442,7455,7466,7479,7491,7503,7515,7527,7539,7551,7563,7575,7588,7600,7612,7624,7636,7648,7660,7672,7685,7697,7709,7721,7733,7745,7757,7769,7781,7793,7806,7818,7830,7842,7854,7866,7878,7890,7903,7915,7927,7939,7951,7963,7975,7987,7999,8012,8024,8036,8048,8060,8073,8084,8097,8109,8122,8133,8145,8157,8170,8182,8194,8206,8218,8230,8242,8254,8266,8278,8290,8303,8315,8327,8339,8351,8363,8376,8387,8399,8412,8424,8436,8448,8460,8472,8484,8496,8509,8521,8535,8551,8563,8576,8587,8600,8612,8624,8636,8648,8660,8672,8685,8696,8709,8721,8733,8746,8757,8769,8782,8794,8806,8818,8830,8842,8854,8866,8878,8890,8903,8915,8927,8939,8951,8963,8975,8988,9000,9012,9024,9036,9048,9060,9072,9084,9097,9109,9121,9133,9145,9157,9169,9181,9194,9206,9218,9230,9242,9254,9266,9279,9291,9303,9315,9327,9339,9351,9363,9376,9387,9400,9412,9424,9436,9448,9460,9472,9484,9497,9509,9521,9533,9545,9557,9569,9581,9593,9606,9618,9630,9642,9654,9666,9678,9690,9702,9715,9727,9739,9751,9763,9775,9787,9800,9812,9824,9836,9848,9860,9872,9884,9896,9909,9921,9933,9945,9957,9969,9981,9993,10006,10018,10030,10042,10054,10066,10078,10090,10103,10115,10127,10139,10151,10163,10175,10187,10199,10212,10224,10236,10248,10260,10273,10290,10303,10315,10327,10339,10351,10363,10375,10387,10400,10412,10424,10436,10448,10460,10472,10485,10496,10509,10521,10533,10545,10557,10569,10581,10594,10606,10618,10630,10642,10654,10666,10678,10691,10703,10715,10727,10739,10751,10763,10776,10788,10800,10812,10824,10837,10848,10860,10872,10885,10897,10909,10921,10933,10945,10957,10969,10982,10994,11006,11018,11030,11042,11054,11066,11078,11091,11103,11116,11133,11145,11157,11169,11181,11194,11206,11218,11230,11242,11254,11266,11278,11290,11303,11315,11327,11339,11351,11363,11375,11387,11400,11412,11424,11436,11448,11460,11472,11485,11496,11509,11521,11533,11545,11557,11569,11581,11593,11606,11618,11630,11642,11654,11666,11682,11697,11709,11721,11733,11745,11758,11769,11781,11794,11806,11818,11830,11842,11854,11866,11878,11891,11903,11915,11927,11939,11951,11964,11977,11993,12006,12018,12030,12042,12054,12066,12078,12091,12103,12115,12127,12139,12151,12163,12176,12188,12200,12212,12224,12236,12248,12261,12273,12285,12297,12309,12321,12333,12345,12357,12369,12382,12400,12412,12424,12436,12448,12460,12473,12485,12497,12509,12521,12533,12545,12558,12569,12582,12594,12606,12618,12630,12642,12654,12666,12678,12691,12703,12715,12727,12739,12751,12765,12781,12794,12806,12818,12830,12843,12854,12866,12879,12891,12903,12915,12927,12939,12951,12963,12976,12988,13000,13012,13024,13038,13056,13072,13085,13097,13109,13121,13133,13145,13157,13169,13182,13193,13206,13218,13230,13242,13254,13266,13279,13291,13303,13315,13327,13339,13351,13363,13375,13388,13400,13412,13424,13436,13448,13460,13472,13484,13497,13509,13521,13533,13545,13557,13569,13581,13594,13606,13618,13630,13642,13654,13666,13679,13690,13703,13715,13727,13739,13751,13763,13776,13788,13800,13818,13830,13842,13854,13866,13878,13891,13903,13915,13927,13939,13951,13963,13976,13988,14000,14012,14024,14036,14048,14060,14072,14085,14097,14109,14121,14133,14145,14157,14169,14181,14194,14206,14218,14230,14242,14254,14266,14278,14290,14303,14315,14327,14339,14351,14363,14375,14387,14400,14412,14424,14436,14449,14460,14472,14484,14496,14509,14522,14533,14545,14557,14569,14581,14593,14606,14618,14630,14642,14654,14666,14678,14690,14703,14715,14727,14739,14751,14763,14779,14791,14806,14818,14830,14842,14854,14866,14879,14890,14903,14915,14927,14939,14951,14963,14975,14987,15000,15012,15024,15036,15048,15060,15072,15085,15097,15109,15121,15133,15145,15157,15169,15181,15194,15206,15218,15230,15242,15254,15266,15278,15290,15303,15315,15327,15339,15351,15363,15375,15388,15400,15412,15424,15436,15448,15460,15472,15484,15497,15509,15521,15533,15545,15557,15569,15581,15594,15606,15618,15630,15642,15654,15666,15678,15691,15703,15715,15727,15739,15753,15769,15781,15794,15806,15818,15830,15842,15854,15867,15878,15891,15903,15915,15928,15939,15951,15964,15975,15988,16000,16012,16024,16036,16048,16060,16073,16085,16097,16109,16121,16133,16145,16157,16169,16182,16193,16206,16218,16230,16242,16254,16266,16278,16291,16303,16315,16327,16339,16351,16363,16376,16388,16400,16412,16424,16436,16448,16460,16472,16485,16497,16509,16521,16533,16545,16557,16571,16587,16599,16612,16624,16636,16648,16660,16672,16684,16696,16709,16721,16733,16745,16757,16769,16781,16794,16806,16818,16830,16842,16854,16866,16878,16890,16903,16915,16927,16939,16952,16969,16982,16994,17006,17018,17030,17042,17054,17067,17079,17091,17103,17115,17127,17139,17151,17163,17175,17188,17200,17212,17224,17236,17248,17261,17273,17285,17297,17309,17321,17333,17345,17357,17370,17381,17395,17412,17424,17436,17448,17460,17472,17485,17497,17509,17521,17533,17545,17557,17569,17581,17593,17606,17618,17630,17643,17654,17666,17678,17691,17703,17715,17727,17739,17751,17763,17779,17794,17806,17818,17830,17842,17854,17866,17878,17891,17903,17915,17927,17940,17957,17969,17982,17994,18006,18018,18030,18042,18054,18066,18078,18091,18103,18115,18127,18139,18151,18163,18175,18187,18200,18212,18224,18237,18254,18266,18278,18291,18303,18316,18333,18345,18357,18369,18381,18393,18406,18418,18430,18442,18454,18466,18478,18490,18503,18515,18527,18539,18551,18563,18575,18587,18600,18612,18624,18636,18648,18660,18672,18684,18697,18709,18721,18739,18751,18764,18781,18794,18806,18818,18830,18842,18854,18866,18878,18892,18909,18921,18933,18945,18957,18969,18982,18994,19006,19018,19030,19042,19054,19068,19084,19097,19109,19121,19133,19145,19157,19169,19181,19194,19206,19218,19230,19242,19254,19266,19278,19290,19303,19315,19327,19339,19351,19363,19375,19388,19400,19412,19424,19436,19448,19460,19473,19485,19496,19509,19521,19533,19545,19557,19569,19581,19594,19606,19618,19630,19642,19654,19666,19678,19690,19703,19715,19727,19739,19751,19763,19775,19787,19799,19812,19824,19836,19848,19860,19872,19884,19896,19909,19921,19933,19945,19957,19969,19981,19994,20006,20018,20030,20042,20054,20066,20079,20093,20110,20127,20139,20151,20163,20175,20187,20199,20211,20224,20236,20248,20260,20272,20284,20296,20309,20321,20333,20345,20357,20369,20381,20393,20406,20418,20430,20442,20454,20466,20478,20490,20502,20515,20527,20539,20551,20563,20575,20587,20600,20612,20624,20636,20648,20660,20672,20684,20697,20709,20721,20733,20745,20757,20769,20781,20793,20805,20818,20830,20842,20854,20866,20878,20891,20903,20915,20927,20939,20951,20963,20975,20987,20999,21012,21024,21036,21048,21060,21072,21084,21096,21108,21121,21133,21145,21157,21169,21181,21193,21205,21218,21236,21249,21266,21278,21290,21303,21315,21327,21339,21351,21363,21375,21387,21400,21412,21424,21436,21448,21460,21472,21485,21496,21509,21521,21533,21545,21557,21569,21582,21594,21606,21618,21630,21642,21654,21666,21678,21690,21703,21714,21727,21739,21751,21763,21775,21788,21800,21812,21824,21836,21848,21860,21872,21884,21896,21909,21921,21933,21945,21957,21969,21981,21995,22012,22024,22036,22048,22060,22072,22084,22097,22109,22121,22133,22145,22157,22169,22181,22194,22206,22218,22230,22242,22254,22266,22278,22291,22303,22315,22327,22339,22351,22363,22376,22387,22400,22412,22424,22436,22448,22460,22472,22485,22497,22509,22521,22533,22545,22557,22569,22581,22594,22606,22618,22630,22642,22654,22666,22678,22690,22703,22714,22727,22739,22751,22763,22775,22787,22799,22812,22824,22836,22848,22860,22872,22884,22897,22909,22921,22933,22945,22957,22969,22981,22994,23005,23018,23030,23042,23054,23066,23078,23091,23103,23115,23127,23139,23151,23163,23175,23188,23200,23212,23224,23236,23248,23260,23272,23284,23297,23309,23321,23333,23345,23358,23375,23387,23400,23412,23425,23442,23454,23466,23478,23490,23502,23515,23527,23539,23551,23563,23575,23587,23600,23612,23624,23636,23648,23660,23672,23684,23696,23709,23721,23733,23745,23757,23769,23782,23794,23806,23818,23830,23842,23854,23867,23879,23891,23903,23915,23927,23939,23951,23963,23975,23987,24000,24012,24024,24036,24048,24060,24073,24085,24097,24109,24121,24133,24147,24164,24175,24188,24200,24212,24224,24236,24248,24260,24272,24285,24303,24321,24333,24345,24357,24369,24381,24394,24406,24418,24430,24442,24454,24466,24479,24490,24503,24515,24527,24539,24551,24564,24575,24588,24600,24612,24624,24636,24648,24660,24672,24685,24696,24709,24721,24733,24745,24757,24769,24782,24794,24806,24818,24830,24842,24854,24866,24878,24891,24903,24915,24927,24939,24951,24963,24976,24988,25000,25012,25024,25036,25048,25060,25072,25084,25097,25109,25121,25133,25145,25157,25170,25181,25194,25206,25218,25230,25242,25254,25267,25279,25291,25303,25315,25327,25339,25351,25363,25375,25388,25400,25412,25424,25436,25448,25460,25472,25485,25497,25509,25521,25533,25545,25557,25569,25581,25594,25606,25618,25630,25642,25654,25666,25678,25691,25703,25715,25727,25739,25751,25763,25775,25787,25800,25812,25824,25836,25848,25860,25873,25885,25897,25909,25921,25933,25945,25958,25970,25982,25994,26006,26018,26030,26042,26054,26067,26078,26091,26103,26115,26131,26145,26157,26169,26181,26194,26206,26218,26230,26242,26254,26266,26279,26291,26309,26321,26333,26345,26357,26369,26382,26393,26406,26418,26430,26442,26454,26466,26478,26491,26503,26515,26527,26539,26551,26563,26575,26588,26599,26612,26624,26636,26648,26660,26672,26685,26696,26709,26721,26733,26745,26757,26769,26781,26794,26806,26818,26831,26848,26860,26872,26884,26896,26909,26921,26933,26945,26957,26969,26981,26994,27007,27024,27036,27048,27060,27072,27085,27097,27109,27121,27133,27145,27157,27169,27181,27194,27206,27218,27230,27242,27254,27267,27279,27291,27303,27315,27327,27339,27351,27363,27375,27388,27400,27412,27424,27436,27448,27460,27472,27484,27497,27509,27521,27533,27545,27557,27569,27581,27594,27606,27618,27630,27642,27654,27666,27678,27690,27703,27715,27727,27739,27751,27763,27775,27788,27800,27812,27824,27836,27848,27860,27872,27884,27896,27909,27921,27933,27945,27957,27969,27981,27993,28006,28018,28030,28042,28054,28066,28078,28090,28102,28115,28127,28139,28151,28163,28175,28187,28200,28212,28224,28236,28248,28260,28272,28285,28296,28309,28321,28333,28345,28357,28369,28381,28393,28406,28418,28430,28442,28454,28466,28479,28491,28502,28515,28527,28539,28551,28563,28576,28588,28600,28612,28624,28636,28648,28660,28672,28684,28697,28709,28721,28733,28745,28757,28769,28781,28794,28806,28818,28830,28844,28860,28872,28884,28896,28909,28921,28933,28951,28963,28975,28987,29001,29018,29030,29042,29054,29066,29079,29091,29103,29115,29127,29139,29151,29163,29175,29188,29200,29212,29224,29236,29248,29260,29272,29284,29297,29309,29321,29333,29345,29357,29369,29381,29393,29406,29418,29430,29442,29454,29466,29478,29491,29503,29515,29527,29539,29551,29563,29575,29587,29600,29612,29624,29638,29654,29666,29679,29691,29703,29715,29727,29739,29751,29763,29775,29787,29800,29812,29824,29836,29848,29860,29873,29885,29897,29909,29921,29933,29945,29957,29969,29983,30000,30012,30024,30036,30048,30062,30078,30091,30103,30115,30127,30139,30151,30163,30176,30187,30200,30212,30224,30236,30248,30260,30272,30284,30297,30309,30321,30333,30345,30357,30369,30382,30394,30406,30418,30430,30442,30454,30466,30479,30492,30509,30521,30533,30545,30557,30571],"hit":[null],"x":[-2.3316326530612246,-2.3316326530612246,-2.3316326530612246,-2.3316326530612246,-2.3316326530612246,-2.3316326530612246,-2.3316326530612246,0.01473922900804857,0.01473922900804857,0.01473922900804857,0.01473922900804857,0.01473922900804857,0.04195011336179007,0.04875283445022544,0.04875283445022544,0.04875283445022544,0.04875283445022544,0.04875283445022544,0.04875283445022544,0.0589569160828785,0.0589569160828785,0.0589569160828785,0.0589569160828785,0.0589569160828785,0.0589569160828785,0.0589569160828785,0.0589569160828785,0.0589569160828785,0.0589569160828785,0.0589569160828785,0.0589569160828785,0.0589569160828785,0.0589569160828785,0.0589569160828785,0.0589569160828785,0.0589569160828785,0.0589569160828785,0.0589569160828785,0.0589569160828785,0.0589569160828785,0.0589569160828785,0.0589569160828785,0.0589569160828785,0.0589569160828785,0.0589569160828785,0.0589569160828785,0.0589569160828785,0.0589569160828785,0.0589569160828785,0.0589569160828785,0.0589569160828785,0.0589569160828785,0.0589569160828785,0.05555555553866082,0.04875283445022544,0.04195011336179007,0.03514739227335469,0.03514739227335469,0.03514739227335469,0.03514739227335469,-0.00907029480147524,-0.019274376434128302,-0.026077097522563673,-0.026077097522563673,-0.026077097522563673,-0.026077097522563673,-0.026077097522563673,-0.03287981861099905,-0.03287981861099905,-0.03287981861099905,-0.03287981861099905,-0.03287981861099905,-0.03287981861099905,-0.03287981861099905,-0.03287981861099905,-0.03287981861099905,-0.03287981861099905,-0.03287981861099905,-0.03287981861099905,-0.03287981861099905,-0.03287981861099905,-0.03287981861099905,-0.03287981861099905,-0.03287981861099905,-0.03287981861099905,-0.03287981861099905,-0.03287981861099905,-0.03287981861099905,-0.03287981861099905,-0.03287981861099905,-0.03287981861099905,-0.03287981861099905,-0.03287981861099905,-0.03287981861099905,-0.03287981861099905,-0.03287981861099905,-0.03287981861099905,-0.03287981861099905,-0.03287981861099905,-0.03287981861099905,-0.03287981861099905,-0.03287981861099905,-0.03287981861099905,-0.03287981861099905,-0.03287981861099905,-0.03287981861099905,-0.03287981861099905,-0.03287981861099905,-0.03287981861099905,-0.03287981861099905,-0.03287981861099905,-0.03287981861099905,-0.03287981861099905,-0.03287981861099905,-0.03287981861099905,-0.03287981861099905,-0.03287981861099905,-0.03287981861099905,-0.03287981861099905,-0.03287981861099905,-0.03287981861099905,-0.03287981861099905,-0.03287981861099905,-0.03287981861099905,-0.03287981861099905,-0.03287981861099905,-0.03287981861099905,-0.03287981861099905,-0.03287981861099905,-0.03287981861099905,-0.03287981861099905,-0.03287981861099905,-0.03287981861099905,-0.03287981861099905,-0.03287981861099905,-0.02947845806678136,-0.0056689342572575525,-0.0056689342572575525,-0.0056689342572575525,-0.0056689342572575525,-0.0056689342572575525,0.22562358274954517,0.22562358274954517,0.22562358274954517,0.22562358274954517,0.22562358274954517,0.22562358274954517,0.22562358274954517,0.22562358274954517,0.22562358274954517,0.22562358274954517,0.22562358274954517,0.22562358274954517,0.22562358274954517,0.22562358274954517,0.22562358274954517,0.22562358274954517,0.22562358274954517,0.22562358274954517,0.22562358274954517,0.22562358274954517,0.22562358274954517,0.22562358274954517,0.22562358274954517,0.22562358274954517,0.22562358274954517,0.22562358274954517,0.22562358274954517,0.22562358274954517,0.22562358274954517,0.22562358274954517,0.22562358274954517,0.22562358274954517,0.22562358274954517,0.22562358274954517,0.22562358274954517,0.22562358274954517,0.22562358274954517,0.22562358274954517,0.22562358274954517,0.22562358274954517,0.23582766438219824,0.23582766438219824,0.23922902492641593,0.23922902492641593,0.23922902492641593,0.23922902492641593,0.23922902492641593,0.140589569144103,0.10317460315770843,0.07936507934818463,0.028344671184919318,0.028344671184919318,0.028344671184919318,0.028344671184919318,-0.08049886623004666,-0.08730158731848205,-0.08730158731848205,-0.08730158731848205,-0.08730158731848205,-0.08730158731848205,-0.08730158731848205,-0.08730158731848205,-0.06349206350895824,-0.06009070296474055,-0.05328798187630517,-0.05328798187630517,-0.05328798187630517,-0.05328798187630517,-0.05328798187630517,0.03174603172913701,0.03514739227335469,0.052154194994443126,0.052154194994443126,0.052154194994443126,0.052154194994443126,0.12698412696723224,0.15759637186519143,0.17120181404206217,0.17120181404206217,0.17120181404206217,0.17120181404206217,0.22562358274954517,0.22902494329376286,0.23242630383798055,0.23242630383798055,0.23242630383798055,0.23242630383798055,0.23242630383798055,0.23582766438219824,0.23582766438219824,0.23582766438219824,0.23582766438219824,0.23582766438219824,0.23582766438219824,0.23582766438219824,0.2766439909128105,0.30385487526655197,0.38208616778355875,0.38208616778355875,0.38208616778355875,0.38208616778355875,0.6269841269672323,0.640589569144103,0.640589569144103,0.640589569144103,0.640589569144103,0.640589569144103,0.640589569144103,0.640589569144103,0.640589569144103,0.640589569144103,0.640589569144103,0.640589569144103,0.640589569144103,0.6337868480556677,0.6337868480556677,0.58616780043662,0.5589569160828785,0.5589569160828785,0.5589569160828785,0.5589569160828785,0.3922902494162118,0.38208616778355875,0.36507936506247035,0.36167800451825266,0.36167800451825266,0.36167800451825266,0.36167800451825266,0.36167800451825266,0.36167800451825266,0.36167800451825266,0.36167800451825266,0.36167800451825266,0.36167800451825266,0.36167800451825266,0.36167800451825266,0.36167800451825266,0.36167800451825266,0.36167800451825266,0.36167800451825266,0.3786848072393411,0.38208616778355875,0.38208616778355875,0.3956916099604295,0.3956916099604295,0.3956916099604295,0.3956916099604295,0.42970521540260637,0.4467120181236948,0.4569160997563479,0.4569160997563479,0.4569160997563479,0.4569160997563479,0.4569160997563479,0.47392290247743635,0.47392290247743635,0.47732426302165404,0.47732426302165404,0.47732426302165404,0.47732426302165404,0.47732426302165404,0.48752834465430706,0.49433106574274244,0.49773242628696013,0.49773242628696013,0.49773242628696013,0.49773242628696013,0.5147392290080486,0.5147392290080486,0.5147392290080486,0.5181405895522663,0.5181405895522663,0.5181405895522663,0.5181405895522663,0.5181405895522663,0.5181405895522663,0.5181405895522663,0.5181405895522663,0.5181405895522663,0.5181405895522663,0.5283446711849193,0.5351473922733547,0.5453514739060078,0.5453514739060078,0.5453514739060078,0.5453514739060078,0.6269841269672323,0.6678004534978444,0.6746031745862798,0.6814058956747152,0.6814058956747152,0.6814058956747152,0.6814058956747152,0.695011337851586,0.695011337851586,0.695011337851586,0.6984126983958037,0.6984126983958037,0.6984126983958037,0.6984126983958037,0.705215419484239,0.705215419484239,0.7086167800284567,0.7086167800284567,0.7086167800284567,0.7086167800284567,0.7086167800284567,0.7188208616611098,0.7222222222053275,0.7290249432937629,0.7290249432937629,0.7290249432937629,0.7290249432937629,0.8174603174434227,0.8276643990760758,0.848072562341382,0.8548752834298172,0.8548752834298172,0.8548752834298172,0.8548752834298172,0.8548752834298172,0.8548752834298172,0.8786848072393411,0.8786848072393411,0.8786848072393411,0.8786848072393411,0.8786848072393411,0.8786848072393411,0.8786848072393411,0.8786848072393411,0.8786848072393411,0.8786848072393411,0.8786848072393411,0.8786848072393411,0.8786848072393411,0.8786848072393411,0.8786848072393411,0.9058956915930826,0.9058956915930826,0.9058956915930826,0.9058956915930826,0.9058956915930826,0.9739229024774363,0.9739229024774363,0.9739229024774363,0.9739229024774363,0.9739229024774363,0.9739229024774363,0.9739229024774363,0.9739229024774363,0.9739229024774363,0.9739229024774363,0.9739229024774363,0.9739229024774363,0.9739229024774363,0.9739229024774363,0.9739229024774363,0.9739229024774363,0.9739229024774363,0.9739229024774363,0.9739229024774363,0.9739229024774363,0.9739229024774363,0.9739229024774363,0.9739229024774363,0.9739229024774363,0.9739229024774363,0.9739229024774363,0.9739229024774363,0.9739229024774363,1.195011337851586,1.715419501116892,1.715419501116892,1.715419501116892,1.715419501116892,1.715419501116892,2.552154194994443,2.552154194994443,2.552154194994443,2.5589569160828787,2.5589569160828787,2.5589569160828787,2.5589569160828787,3.4705215419332185,3.4705215419332185,3.4705215419332185,3.4705215419332185,3.4705215419332185,3.4705215419332185,3.4705215419332185,3.4705215419332185,3.4705215419332185,3.4705215419332185,3.4705215419332185,3.4705215419332185,3.4705215419332185,3.4705215419332185,3.4705215419332185,3.4705215419332185,3.4705215419332185,3.4705215419332185,3.4705215419332185,3.4705215419332185,3.4705215419332185,3.4705215419332185,3.4705215419332185,3.4705215419332185,3.4705215419332185,3.4705215419332185,3.4705215419332185,3.4705215419332185,3.4705215419332185,3.4705215419332185,3.4705215419332185,3.4705215419332185,3.4705215419332185,3.4705215419332185,3.4705215419332185,3.4705215419332185,3.4705215419332185,3.4705215419332185,3.4705215419332185,3.4705215419332185,3.4705215419332185,3.4705215419332185,3.4705215419332185,3.4705215419332185,3.4705215419332185,3.4705215419332185,3.4705215419332185,3.4705215419332185,3.4705215419332185,3.4705215419332185,3.4705215419332185,3.4705215419332185,3.4705215419332185,3.4705215419332185,3.4705215419332185,3.4705215419332185,3.4705215419332185,3.4705215419332185,3.4705215419332185,3.4705215419332185,3.4705215419332185,3.4705215419332185,3.4705215419332185,3.4705215419332185,3.4705215419332185,3.4705215419332185,3.4705215419332185,3.4705215419332185,3.4705215419332185,3.4705215419332185,3.4705215419332185,3.4705215419332185,3.4705215419332185,3.4705215419332185,3.4705215419332185,3.4705215419332185,3.4705215419332185,3.4705215419332185,3.4705215419332185,3.4705215419332185,3.4705215419332185,3.4705215419332185,3.4705215419332185,3.4705215419332185,3.4705215419332185,3.4705215419332185,3.4705215419332185,3.4705215419332185,3.4705215419332185,3.4705215419332185,3.4705215419332185,3.4705215419332185,3.4705215419332185,3.4705215419332185,3.4705215419332185,3.4705215419332185,3.4705215419332185,3.4705215419332185,3.4705215419332185,3.4705215419332185,3.4705215419332185,3.4705215419332185,3.4705215419332185,3.4705215419332185,3.4705215419332185,3.4705215419332185,3.4705215419332185,3.4705215419332185,3.4705215419332185,3.4705215419332185,3.4705215419332185,3.4705215419332185,3.4705215419332185,3.4705215419332185,3.4705215419332185,3.4705215419332185,3.4705215419332185,3.4705215419332185,3.4705215419332185,3.4705215419332185,3.4705215419332185,3.4705215419332185,3.4705215419332185,3.4705215419332185,3.4705215419332185,3.4705215419332185,3.4705215419332185,3.4705215419332185,3.4705215419332185,3.4705215419332185,3.4705215419332185,3.4705215419332185,3.4705215419332185,3.467120181389001,3.422902494314171,3.348072562341382,3.348072562341382,3.348072562341382,3.348072562341382,3.348072562341382,2.3888888888719944,2.3888888888719944,2.3888888888719944,2.3888888888719944,2.3888888888719944,2.3888888888719944,2.3888888888719944,2.3888888888719944,2.3888888888719944,2.3888888888719944,2.3888888888719944,2.3888888888719944,2.3888888888719944,2.3888888888719944,2.3888888888719944,2.3888888888719944,2.3888888888719944,2.3888888888719944,2.3888888888719944,2.3888888888719944,2.378684807239341,2.378684807239341,2.378684807239341,2.378684807239341,2.378684807239341,1.814058956899205,1.695011337851586,1.4705215419332187,1.3820861677835587,1.3820861677835587,1.3820861677835587,1.3820861677835587,1.3820861677835587,0.6712018140420621,0.5725623582597492,0.5351473922733547,0.47052154193321866,0.43990929703525944,0.43990929703525944,0.43990929703525944,0.43990929703525944,0.19841269839580367,0.14739229023253836,0.12358276642301455,0.08956916098083768,0.08956916098083768,0.08956916098083768,0.08956916098083768,0.08956916098083768,0.07256235825974926,0.08276643989240232,0.09297052152505537,0.10317460315770843,0.10317460315770843,0.10317460315770843,0.10317460315770843,0.10317460315770843,0.11678004533457918,0.11337868479036149,0.10997732424614381,0.10317460315770843,0.10317460315770843,0.10317460315770843,0.10317460315770843,0.10317460315770843,-0.012471655345692927,-0.026077097522563673,-0.03968253969943442,-0.03968253969943442,-0.03968253969943442,-0.03968253969943442,-0.03968253969943442,-0.04308390024365211,-0.04308390024365211,-0.04308390024365211,-0.03968253969943442,-0.03968253969943442,-0.03968253969943442,-0.03968253969943442,-0.03287981861099905,-0.02947845806678136,-0.026077097522563673,-0.026077097522563673,-0.026077097522563673,-0.026077097522563673,-0.026077097522563673,-0.015873015889910615,-0.015873015889910615,-0.015873015889910615,-0.015873015889910615,-0.015873015889910615,-0.015873015889910615,-0.015873015889910615,-0.015873015889910615,-0.015873015889910615,-0.015873015889910615,-0.015873015889910615,-0.015873015889910615,-0.015873015889910615,-0.015873015889910615,-0.015873015889910615,-0.015873015889910615,-0.015873015889910615,-0.015873015889910615,-0.015873015889910615,-0.015873015889910615,-0.012471655345692927,-0.012471655345692927,-0.00907029480147524,-0.00907029480147524,-0.00907029480147524,-0.00907029480147524,-0.002267573713039865,0.0011337868311778218,0.011337868463830883,0.021541950096483943,0.021541950096483943,0.021541950096483943,0.021541950096483943,0.04535147390600775,0.04535147390600775,0.04535147390600775,0.04535147390600775,0.04535147390600775,0.04535147390600775,0.04535147390600775,0.04535147390600775,0.04535147390600775,0.04535147390600775,0.04535147390600775,0.04535147390600775,0.04535147390600775,0.04535147390600775,0.04535147390600775,0.04535147390600775,0.04535147390600775,0.04535147390600775,0.04535147390600775,0.04535147390600775,0.04535147390600775,0.04535147390600775,0.04535147390600775,0.04535147390600775,0.04535147390600775,0.04535147390600775,0.12018140587879687,0.12698412696723224,0.14399092968832067,0.14739229023253836,0.14739229023253836,0.14739229023253836,0.14739229023253836,0.14739229023253836,0.19841269839580367,0.19841269839580367,0.20521541948423905,0.20521541948423905,0.20521541948423905,0.20521541948423905,0.20521541948423905,0.20521541948423905,0.22562358274954517,0.22902494329376286,0.23242630383798055,0.23242630383798055,0.23242630383798055,0.23242630383798055,0.23242630383798055,0.23242630383798055,0.23242630383798055,0.23242630383798055,0.23582766438219824,0.23582766438219824,0.23582766438219824,0.23582766438219824,0.23582766438219824,0.23582766438219824,0.23582766438219824,0.23582766438219824,0.23582766438219824,0.23582766438219824,0.23582766438219824,0.23582766438219824,0.23582766438219824,0.23582766438219824,0.23582766438219824,0.23582766438219824,0.23582766438219824,0.23582766438219824,0.23582766438219824,0.23582766438219824,0.23582766438219824,0.23582766438219824,0.23582766438219824,0.23582766438219824,0.23582766438219824,0.23582766438219824,0.23582766438219824,0.23582766438219824,0.23582766438219824,0.23582766438219824,0.23582766438219824,0.23582766438219824,0.23582766438219824,0.2426303854706336,0.24603174601485128,0.24603174601485128,0.24603174601485128,0.24603174601485128,0.24603174601485128,0.25283446710328666,0.25283446710328666,0.25283446710328666,0.25283446710328666,0.25283446710328666,0.25283446710328666,0.25283446710328666,0.25283446710328666,0.25963718819172205,0.25963718819172205,0.25963718819172205,0.26303854873593974,0.26303854873593974,0.26303854873593974,0.26303854873593974,0.26303854873593974,0.28004535145702814,0.2936507936338989,0.3004535147223343,0.3242630385318581,0.3242630385318581,0.3242630385318581,0.3242630385318581,0.3242630385318581,0.36848072560668804,0.36848072560668804,0.36848072560668804,0.36848072560668804,0.36848072560668804,0.36848072560668804,0.36848072560668804,0.3786848072393411,0.3786848072393411,0.3786848072393411,0.3786848072393411,0.3786848072393411,0.3786848072393411,0.3786848072393411,0.3786848072393411,0.3786848072393411,0.3786848072393411,0.3786848072393411,0.3786848072393411,0.3786848072393411,0.3786848072393411,0.3786848072393411,0.3786848072393411,0.3786848072393411,0.3786848072393411,0.3786848072393411,0.3786848072393411,0.3786848072393411,0.41609977322573566,0.41950113376995335,0.42970521540260637,0.42970521540260637,0.42970521540260637,0.42970521540260637,0.42970521540260637,0.47052154193321866,0.47052154193321866,0.47732426302165404,0.47732426302165404,0.47732426302165404,0.47732426302165404,0.47732426302165404,0.47732426302165404,0.47732426302165404,0.47732426302165404,0.47732426302165404,0.47732426302165404,0.47732426302165404,0.49092970519852475,0.49092970519852475,0.49092970519852475,0.49092970519852475,0.49092970519852475,0.49092970519852475,0.5249433106407017,0.5249433106407017,0.5385487528175724,0.5419501133617901,0.5453514739060078,0.5453514739060078,0.5453514739060078,0.5453514739060078,0.5453514739060078,0.5453514739060078,0.5453514739060078,0.5453514739060078,0.5453514739060078,0.5453514739060078,0.5453514739060078,0.5453514739060078,0.5453514739060078,0.5453514739060078,0.5453514739060078,0.5453514739060078,0.5453514739060078,0.5453514739060078,0.5453514739060078,0.5453514739060078,0.5453514739060078,0.5453514739060078,0.5453514739060078,0.5453514739060078,0.5453514739060078,0.5521541949944432,0.5793650793481846,0.6201814058787969,0.6201814058787969,0.6201814058787969,0.6201814058787969,0.6201814058787969,0.8174603174434227,0.8582766439740349,0.868480725606688,0.8956916099604295,0.9058956915930826,0.9058956915930826,0.9058956915930826,0.9058956915930826,0.9807256235658717,0.9943310657427424,0.9943310657427424,0.9943310657427424,0.9943310657427424,0.9943310657427424,0.9943310657427424,0.9943310657427424,0.9943310657427424,0.9943310657427424,0.9943310657427424,0.9943310657427424,0.9943310657427424,0.9943310657427424,0.9943310657427424,0.9943310657427424,0.9943310657427424,0.9943310657427424,0.9943310657427424,0.9943310657427424,0.9943310657427424,0.9943310657427424,0.9943310657427424,0.9943310657427424,1.0181405895522662,1.0283446711849193,1.031746031729137,1.031746031729137,1.031746031729137,1.031746031729137,1.031746031729137,1.031746031729137,1.0351473922733547,1.0351473922733547,1.0351473922733547,1.0351473922733547,1.0351473922733547,1.0351473922733547,1.0351473922733547,1.0351473922733547,1.0351473922733547,1.0351473922733547,1.0351473922733547,1.0351473922733547,1.0351473922733547,1.0351473922733547,1.0351473922733547,1.0351473922733547,1.0351473922733547,1.0351473922733547,1.0351473922733547,1.0351473922733547,1.0351473922733547,1.0351473922733547,1.0351473922733547,1.0351473922733547,1.0351473922733547,1.0351473922733547,1.0351473922733547,1.0351473922733547,1.0351473922733547,1.0351473922733547,1.0351473922733547,1.0351473922733547,1.0351473922733547,1.0351473922733547,1.0351473922733547,1.0351473922733547,1.0351473922733547,1.0351473922733547,1.0351473922733547,1.0351473922733547,1.0351473922733547,1.0351473922733547,1.0351473922733547,1.0351473922733547,1.0351473922733547,1.0351473922733547,1.0351473922733547,1.0351473922733547,1.0351473922733547,1.0351473922733547,1.0351473922733547,1.0351473922733547,1.0351473922733547,1.0351473922733547,1.0351473922733547,1.0351473922733547,1.0351473922733547,1.0351473922733547,1.0351473922733547,1.0351473922733547,1.0351473922733547,1.0351473922733547,1.0351473922733547,1.0351473922733547,1.0351473922733547,1.0351473922733547,1.0351473922733547,1.0351473922733547,1.0351473922733547,1.0351473922733547,1.0351473922733547,1.0351473922733547,1.0351473922733547,1.0351473922733547,1.0351473922733547,1.0351473922733547,1.0351473922733547,1.0351473922733547,1.0351473922733547,1.0351473922733547,1.0351473922733547,1.0351473922733547,1.0351473922733547,1.0351473922733547,1.0351473922733547,1.0351473922733547,1.0351473922733547,1.0351473922733547,1.0351473922733547,1.0351473922733547,1.0351473922733547,1.0351473922733547,1.0351473922733547,1.0351473922733547,1.0351473922733547,1.0351473922733547,1.0351473922733547,1.0351473922733547,1.0351473922733547,1.0351473922733547,1.0351473922733547,1.0351473922733547,1.0351473922733547,1.0351473922733547,1.0351473922733547,1.0351473922733547,1.0351473922733547,1.0351473922733547,1.0351473922733547,1.0351473922733547,1.0351473922733547,1.0351473922733547,1.0351473922733547,1.0351473922733547,1.0351473922733547,1.0351473922733547,1.0351473922733547,1.0351473922733547,1.0351473922733547,1.0351473922733547,1.0351473922733547,1.0351473922733547,1.0351473922733547,1.0351473922733547,1.0351473922733547,1.0351473922733547,1.0351473922733547,1.0351473922733547,1.0351473922733547,1.0351473922733547,1.0351473922733547,1.0351473922733547,1.0351473922733547,1.0351473922733547,1.0351473922733547,1.0351473922733547,1.0351473922733547,1.0351473922733547,1.0351473922733547,1.0351473922733547,1.0351473922733547,1.0351473922733547,1.0351473922733547,1.0351473922733547,1.0351473922733547,1.0351473922733547,1.0351473922733547,1.0351473922733547,1.0351473922733547,1.0351473922733547,1.0351473922733547,1.0351473922733547,1.0351473922733547,1.0351473922733547,1.0351473922733547,1.0351473922733547,1.0351473922733547,1.0351473922733547,1.0351473922733547,1.0351473922733547,1.0351473922733547,1.0351473922733547,1.0351473922733547,1.0351473922733547,1.0351473922733547,1.0351473922733547,1.0351473922733547,1.0351473922733547,1.0351473922733547,1.0351473922733547,1.0351473922733547,1.0351473922733547,1.0351473922733547,1.0351473922733547,1.0351473922733547,1.0351473922733547,1.0351473922733547,1.0351473922733547,1.0351473922733547,1.0351473922733547,1.0351473922733547,1.0351473922733547,1.0351473922733547,1.0351473922733547,1.0351473922733547,1.0351473922733547,1.0351473922733547,1.0351473922733547,1.0351473922733547,1.0351473922733547,1.0351473922733547,1.0351473922733547,1.0351473922733547,1.0351473922733547,1.0351473922733547,1.0351473922733547,1.0351473922733547,1.0351473922733547,1.0351473922733547,1.0351473922733547,1.0351473922733547,1.0351473922733547,1.0351473922733547,1.0351473922733547,1.0351473922733547,1.0351473922733547,1.0351473922733547,1.0351473922733547,1.0351473922733547,1.0351473922733547,1.0351473922733547,1.0351473922733547,1.0351473922733547,1.0351473922733547,1.0351473922733547,1.0351473922733547,1.0351473922733547,1.0351473922733547,1.0351473922733547,1.0351473922733547,1.0351473922733547,1.0351473922733547,1.0351473922733547,1.0351473922733547,1.0351473922733547,1.0351473922733547,1.0351473922733547,1.0351473922733547,1.0351473922733547,1.0351473922733547,1.0351473922733547,1.0351473922733547,1.0351473922733547,1.0351473922733547,1.0351473922733547,1.0351473922733547,1.0351473922733547,1.0351473922733547,1.0351473922733547,1.0351473922733547,1.0351473922733547,1.0351473922733547,1.0351473922733547,1.0351473922733547,1.0351473922733547,1.0351473922733547,1.0351473922733547,1.0351473922733547,1.0351473922733547,1.0351473922733547,1.0351473922733547,1.0351473922733547,1.0351473922733547,1.0351473922733547,1.0351473922733547,1.0351473922733547,1.0351473922733547,1.0351473922733547,1.0351473922733547,1.0351473922733547,1.0351473922733547,1.0351473922733547,1.0351473922733547,1.0351473922733547,1.0351473922733547,1.0351473922733547,1.0351473922733547,1.0351473922733547,1.0351473922733547,1.0351473922733547,1.0351473922733547,1.0351473922733547,1.0351473922733547,1.0351473922733547,1.0351473922733547,1.0351473922733547,1.0351473922733547,1.0351473922733547,1.0351473922733547,1.0351473922733547,1.0351473922733547,1.0351473922733547,1.0351473922733547,1.0351473922733547,1.0351473922733547,1.0351473922733547,1.0351473922733547,1.0351473922733547,1.0351473922733547,1.0351473922733547,1.0351473922733547,1.0351473922733547,1.0351473922733547,1.0351473922733547,1.0351473922733547,1.0351473922733547,1.0351473922733547,1.0351473922733547,1.0351473922733547,1.0351473922733547,1.0351473922733547,1.0351473922733547,1.0351473922733547,1.0351473922733547,1.0351473922733547,1.0351473922733547,1.0351473922733547,1.0351473922733547,1.0351473922733547,1.0351473922733547,1.0351473922733547,1.0351473922733547,1.0351473922733547,1.0351473922733547,1.0351473922733547,1.0351473922733547,1.0351473922733547,1.0351473922733547,1.0351473922733547,1.0351473922733547,1.0351473922733547,1.0351473922733547,1.0351473922733547,1.0351473922733547,1.031746031729137,1.0283446711849193,1.021541950096484,1.0147392290080486,1.0147392290080486,1.0147392290080486,1.0147392290080486,1.0147392290080486,0.987528344654307,0.9807256235658717,0.9807256235658717,0.9807256235658717,0.9807256235658717,0.9807256235658717,0.9807256235658717,0.9807256235658717,0.9671201813890009,0.9671201813890009,0.9671201813890009,0.9671201813890009,0.9671201813890009,0.9671201813890009,0.9671201813890009,0.9671201813890009,0.9671201813890009,0.9671201813890009,0.9671201813890009,0.9671201813890009,0.9671201813890009,0.9671201813890009,0.9671201813890009,0.9739229024774363,0.9739229024774363,0.9807256235658717,0.9807256235658717,0.9807256235658717,0.9807256235658717,0.9807256235658717,0.9807256235658717,0.9909297051985247,0.9909297051985247,0.9909297051985247,0.9909297051985247,0.9909297051985247,0.9909297051985247,0.9909297051985247,0.9909297051985247,0.9569160997563478,0.9297052154026064,0.922902494314171,0.8820861677835587,0.8820861677835587,0.8820861677835587,0.8820861677835587,0.8820861677835587,0.7698412698243751,0.7562358276475043,0.7324263038379806,0.7256235827495452,0.7154195011168921,0.7154195011168921,0.7154195011168921,0.7154195011168921,0.7154195011168921,0.6746031745862798,0.6678004534978444,0.6678004534978444,0.6609977324094091,0.6609977324094091,0.6609977324094091,0.6609977324094091,0.6609977324094091,0.6473922902325384,0.6473922902325384,0.6473922902325384,0.6439909296883207,0.6439909296883207,0.6439909296883207,0.6439909296883207,0.6439909296883207,0.640589569144103,0.640589569144103,0.640589569144103,0.640589569144103,0.640589569144103,0.640589569144103,0.640589569144103,0.640589569144103,0.640589569144103,0.6201814058787969,0.6133786847903615,0.6065759637019261,0.5997732426134907,0.5997732426134907,0.5997732426134907,0.5997732426134907,0.5997732426134907,0.5249433106407017,0.5147392290080486,0.5079365079196132,0.5079365079196132,0.5079365079196132,0.5079365079196132,0.5079365079196132,0.47392290247743635,0.46712018138900097,0.46712018138900097,0.4637188208447833,0.4637188208447833,0.4637188208447833,0.4637188208447833,0.4637188208447833,0.43650793649104175,0.42290249431417104,0.41609977322573566,0.4092970521373003,0.4092970521373003,0.4092970521373003,0.4092970521373003,0.4092970521373003,0.36848072560668804,0.35827664397403497,0.3378684807087288,0.31746031744342273,0.31746031744342273,0.31746031744342273,0.31746031744342273,0.31746031744342273,0.19160997730736828,0.17460317458627986,0.15759637186519143,0.15079365077675605,0.15079365077675605,0.15079365077675605,0.15079365077675605,0.15079365077675605,0.10657596370192612,0.09637188206927307,0.08956916098083768,0.08276643989240232,0.08276643989240232,0.08276643989240232,0.08276643989240232,0.08276643989240232,0.06235827662709619,0.05555555553866082,0.052154194994443126,0.04535147390600775,0.04535147390600775,0.04535147390600775,0.04535147390600775,0.04535147390600775,0.04535147390600775,0.03514739227335469,0.03514739227335469,0.03514739227335469,0.03174603172913701,0.03174603172913701,0.03174603172913701,0.03174603172913701,0.03174603172913701,0.028344671184919318,0.028344671184919318,0.028344671184919318,0.02494331064070163,0.02494331064070163,0.02494331064070163,0.02494331064070163,0.02494331064070163,0.004535147375395509,0.004535147375395509,0.004535147375395509,0.0011337868311778218,0.0011337868311778218,0.0011337868311778218,0.0011337868311778218,0.0011337868311778218,0.0011337868311778218,0.0011337868311778218,0.0011337868311778218,0.0011337868311778218,0.0011337868311778218,0.0011337868311778218,0.0011337868311778218,0.0011337868311778218,0.0011337868311778218,0.0011337868311778218,0.0011337868311778218,0.0011337868311778218,0.0011337868311778218,0.0011337868311778218,0.0011337868311778218,0.0011337868311778218,0.0011337868311778218,0.0011337868311778218,0.0011337868311778218,0.007936507919613195,0.007936507919613195,0.007936507919613195,0.007936507919613195,0.007936507919613195,0.18140589567471524,0.22562358274954517,0.24603174601485128,0.2664399092801574,0.2664399092801574,0.2664399092801574,0.2664399092801574,0.38548752832777644,0.3990929705046472,0.4024943310488649,0.4092970521373003,0.4092970521373003,0.4092970521373003,0.4092970521373003,0.4092970521373003,0.4092970521373003,0.4092970521373003,0.4092970521373003,0.4092970521373003,0.4092970521373003,0.4092970521373003,0.4092970521373003,0.4092970521373003,0.41950113376995335,0.42290249431417104,0.42630385485838873,0.42970521540260637,0.42970521540260637,0.42970521540260637,0.42970521540260637,0.42970521540260637,0.46712018138900097,0.47732426302165404,0.47732426302165404,0.4807256235658717,0.4807256235658717,0.4807256235658717,0.4807256235658717,0.4807256235658717,0.4807256235658717,0.4807256235658717,0.4807256235658717,0.4807256235658717,0.4807256235658717,0.4807256235658717,0.4807256235658717,0.4807256235658717,0.4807256235658717,0.4807256235658717,0.4807256235658717,0.4807256235658717,0.4807256235658717,0.4807256235658717,0.4807256235658717,0.4807256235658717,0.4807256235658717,0.4807256235658717,0.4807256235658717,0.4807256235658717,0.4807256235658717,0.4807256235658717,0.4807256235658717,0.4807256235658717,0.4807256235658717,0.4807256235658717,0.4807256235658717,0.4807256235658717,0.4807256235658717,0.4807256235658717,0.4807256235658717,0.4807256235658717,0.4807256235658717,0.4807256235658717,0.4807256235658717,0.4807256235658717,0.4807256235658717,0.4807256235658717,0.4807256235658717,0.4807256235658717,0.4807256235658717,0.4807256235658717,0.4807256235658717,0.4807256235658717,0.4807256235658717,0.4807256235658717,0.4807256235658717,0.4807256235658717,0.4807256235658717,0.4807256235658717,0.4807256235658717,0.4807256235658717,0.4807256235658717,0.4807256235658717,0.4807256235658717,0.4807256235658717,0.4807256235658717,0.4807256235658717,0.4807256235658717,0.4807256235658717,0.4807256235658717,0.4807256235658717,0.4807256235658717,0.4807256235658717,0.4807256235658717,0.4807256235658717,0.4807256235658717,0.4807256235658717,0.4807256235658717,0.4807256235658717,0.4807256235658717,0.4807256235658717,0.4807256235658717,0.4807256235658717,0.4807256235658717,0.4807256235658717,0.4807256235658717,0.4807256235658717,0.4807256235658717,0.4807256235658717,0.4807256235658717,0.4807256235658717,0.4807256235658717,0.4807256235658717,0.4807256235658717,0.4807256235658717,0.4807256235658717,0.4807256235658717,0.4807256235658717,0.4807256235658717,0.4807256235658717,0.4807256235658717,0.4807256235658717,0.4807256235658717,0.4807256235658717,0.4807256235658717,0.4807256235658717,0.4807256235658717,0.4807256235658717,0.4807256235658717,0.4807256235658717,0.4807256235658717,0.4807256235658717,0.4807256235658717,0.4807256235658717,0.4807256235658717,0.4807256235658717,0.4807256235658717,0.4807256235658717,0.4807256235658717,0.4807256235658717,0.4807256235658717,0.4807256235658717,0.4807256235658717,0.4807256235658717,0.4807256235658717,0.4807256235658717,0.4807256235658717,0.4807256235658717,0.4807256235658717,0.4807256235658717,0.4807256235658717,0.4807256235658717,0.4807256235658717,0.4807256235658717,0.4807256235658717,0.4807256235658717,0.4807256235658717,0.4807256235658717,0.4807256235658717,0.4807256235658717,0.4807256235658717,0.4807256235658717,0.4807256235658717,0.4807256235658717,0.4807256235658717,0.4807256235658717,0.4807256235658717,0.4807256235658717,0.4807256235658717,0.4807256235658717,0.4807256235658717,0.4807256235658717,0.4807256235658717,0.4807256235658717,0.4807256235658717,0.4807256235658717,0.4807256235658717,0.4807256235658717,0.4807256235658717,0.4807256235658717,0.4807256235658717,0.4807256235658717,0.4807256235658717,0.4807256235658717,0.4807256235658717,0.4807256235658717,0.4807256235658717,0.4807256235658717,0.4807256235658717,0.4807256235658717,0.4807256235658717,0.4807256235658717,0.4807256235658717,0.4807256235658717,0.4807256235658717,0.4807256235658717,0.4807256235658717,0.4807256235658717,0.4807256235658717,0.4807256235658717,0.4807256235658717,0.4807256235658717,0.4807256235658717,0.4807256235658717,0.4807256235658717,0.4807256235658717,0.4807256235658717,0.4807256235658717,0.4807256235658717,0.4807256235658717,0.4807256235658717,0.4807256235658717,0.4807256235658717,0.4807256235658717,0.4807256235658717,0.4807256235658717,0.4807256235658717,0.4807256235658717,0.4807256235658717,0.4807256235658717,0.4807256235658717,0.4807256235658717,0.4807256235658717,0.4807256235658717,0.4807256235658717,0.4807256235658717,0.4807256235658717,0.4807256235658717,0.4807256235658717,0.4807256235658717,0.4807256235658717,0.4807256235658717,0.4807256235658717,0.4807256235658717,0.4807256235658717,0.4807256235658717,0.4807256235658717,0.4807256235658717,0.4807256235658717,0.4807256235658717,0.4807256235658717,0.4807256235658717,0.4807256235658717,0.4807256235658717,0.4807256235658717,0.4807256235658717,0.4807256235658717,0.4807256235658717,0.4807256235658717,0.4807256235658717,0.4807256235658717,0.4807256235658717,0.4807256235658717,0.4807256235658717,0.4807256235658717,0.4807256235658717,0.4807256235658717,0.4807256235658717,0.4807256235658717,0.4807256235658717,0.4807256235658717,0.4807256235658717,0.4807256235658717,0.4807256235658717,0.4807256235658717,0.4807256235658717,0.4807256235658717,0.4807256235658717,0.4807256235658717,0.4807256235658717,0.4807256235658717,0.4807256235658717,0.4807256235658717,0.4807256235658717,0.4807256235658717,0.4807256235658717,0.4807256235658717,0.4807256235658717,0.4807256235658717,0.4807256235658717,0.4807256235658717,0.4807256235658717,0.4807256235658717,0.4807256235658717,0.4807256235658717,0.4807256235658717,0.4807256235658717,0.4807256235658717,0.4807256235658717,0.4807256235658717,0.4807256235658717,0.4807256235658717,0.4807256235658717,0.4807256235658717,0.4807256235658717,0.4807256235658717,0.4807256235658717,0.4807256235658717,0.4807256235658717,0.4807256235658717,0.4807256235658717,0.4807256235658717,0.4807256235658717,0.4807256235658717,0.4807256235658717,0.4807256235658717,0.4807256235658717,0.4807256235658717,0.4807256235658717,0.4807256235658717,0.4807256235658717,0.4807256235658717,0.4807256235658717,0.4807256235658717,0.4807256235658717,0.4807256235658717,0.4807256235658717,0.4807256235658717,0.4807256235658717,0.4807256235658717,0.4807256235658717,0.4807256235658717,0.4807256235658717,0.4807256235658717,0.4807256235658717,0.4807256235658717,0.4807256235658717,0.4807256235658717,0.4807256235658717,0.4807256235658717,0.4807256235658717,0.4807256235658717,0.4807256235658717,0.4807256235658717,0.4807256235658717,0.4807256235658717,0.4807256235658717,0.4807256235658717,0.4807256235658717,0.4807256235658717,0.4807256235658717,0.4807256235658717,0.4807256235658717,0.4807256235658717,0.4807256235658717,0.4807256235658717,0.4807256235658717,0.4807256235658717,0.4807256235658717,0.4807256235658717,0.4807256235658717,0.4807256235658717,0.4807256235658717,0.4807256235658717,0.4807256235658717,0.4807256235658717,0.4807256235658717,0.4807256235658717,0.4807256235658717,0.4807256235658717,0.4807256235658717,0.4807256235658717,0.4807256235658717,0.4807256235658717,0.4807256235658717,0.4807256235658717,0.4807256235658717,0.4807256235658717,0.4807256235658717,0.4807256235658717,0.4807256235658717,0.4807256235658717,0.4807256235658717,0.4807256235658717,0.4807256235658717,0.4807256235658717,0.4807256235658717,0.4807256235658717,0.4807256235658717,0.4807256235658717,0.4807256235658717,0.4807256235658717,0.4807256235658717,0.4807256235658717,0.4807256235658717,0.4807256235658717,0.4807256235658717,0.4807256235658717,0.4807256235658717,0.4807256235658717,0.4807256235658717,0.4807256235658717,0.4807256235658717,0.4807256235658717,0.4807256235658717,0.4807256235658717,0.4807256235658717,0.4807256235658717,0.4807256235658717,0.4807256235658717,0.4807256235658717,0.4807256235658717,0.4807256235658717,0.4807256235658717,0.4807256235658717,0.4807256235658717,0.4807256235658717,0.4807256235658717,0.4807256235658717,0.4807256235658717,0.4807256235658717,0.4807256235658717,0.4807256235658717,0.4807256235658717,0.4807256235658717,0.4807256235658717,0.4807256235658717,0.4807256235658717,0.4807256235658717,0.4807256235658717,0.4807256235658717,0.4807256235658717,0.4807256235658717,0.4807256235658717,0.4807256235658717,0.4807256235658717,0.4807256235658717,0.4807256235658717,0.4807256235658717,0.4807256235658717,0.4807256235658717,0.4807256235658717,0.4807256235658717,0.4807256235658717,0.4807256235658717,0.4807256235658717,0.4807256235658717,0.4807256235658717,0.4807256235658717,0.4807256235658717,0.4807256235658717,0.4807256235658717,0.4807256235658717,0.4807256235658717,0.4807256235658717,0.4807256235658717,0.4807256235658717,0.4807256235658717,0.4807256235658717,0.4807256235658717,0.4807256235658717,0.4807256235658717,0.4807256235658717,0.4807256235658717,0.4807256235658717,0.4807256235658717,0.4807256235658717,0.4807256235658717,0.4807256235658717,0.4807256235658717,0.4807256235658717,0.4807256235658717,0.4807256235658717,0.4807256235658717,0.4807256235658717,0.4807256235658717,0.4807256235658717,0.4807256235658717,0.4807256235658717,0.4807256235658717,0.4807256235658717,0.4807256235658717,0.4807256235658717,0.4807256235658717,0.4807256235658717,0.4807256235658717,0.4807256235658717,0.4807256235658717,0.4807256235658717,0.4807256235658717,0.4807256235658717,0.4807256235658717,0.4807256235658717,0.4807256235658717,0.4807256235658717,0.4807256235658717,0.4807256235658717,0.4807256235658717,0.4807256235658717,0.4807256235658717,0.4807256235658717,0.4807256235658717,0.4807256235658717,0.4807256235658717,0.4807256235658717,0.4807256235658717,0.4807256235658717,0.4807256235658717,0.4807256235658717,0.4807256235658717,0.4807256235658717,0.4807256235658717,0.4807256235658717,0.4807256235658717,0.4807256235658717,0.4807256235658717,0.4807256235658717,0.4807256235658717,0.4807256235658717,0.4807256235658717,0.4807256235658717,0.4807256235658717,0.4807256235658717,0.4807256235658717,0.44331065757947713,0.41950113376995335,0.3956916099604295,0.3956916099604295,0.3956916099604295,0.3956916099604295,0.3956916099604295,0.3004535147223343,0.3004535147223343,0.3004535147223343,0.3004535147223343,0.3004535147223343,0.3004535147223343,0.3004535147223343,0.3004535147223343,0.3004535147223343,0.38548752832777644,0.41609977322573566,0.43650793649104175,0.4501133786679125,0.4501133786679125,0.4501133786679125,0.4501133786679125,0.4501133786679125,0.640589569144103,0.6609977324094091,0.7018140589400214,0.7154195011168921,0.7154195011168921,0.7154195011168921,0.7154195011168921,0.7154195011168921,0.7766439909128104,0.7970521541781166,0.8106575963549874,0.8208616779876404,0.8208616779876404,0.8208616779876404,0.8208616779876404,0.8208616779876404,0.9058956915930826,0.9195011337699533,0.9195011337699533,0.9263038548583887,0.9263038548583887,0.9263038548583887,0.9263038548583887,0.9263038548583887,0.9365079364910418,0.9399092970352595,0.9467120181236949,0.9467120181236949,0.9467120181236949,0.9467120181236949,0.9467120181236949,0.9467120181236949,0.9535147392121303,0.9535147392121303,0.9535147392121303,0.9535147392121303,0.9535147392121303,0.9535147392121303,0.9535147392121303,0.9535147392121303,0.9535147392121303,0.9535147392121303,0.9535147392121303,0.9535147392121303,0.9535147392121303,0.9535147392121303,0.9535147392121303,0.9535147392121303,0.9535147392121303,0.9603174603005655,0.9671201813890009,0.9807256235658717,0.9807256235658717,0.9807256235658717,0.9807256235658717,0.9807256235658717,1.0453514739060077,1.0487528344502255,1.0487528344502255,1.0487528344502255,1.0487528344502255,1.0487528344502255,1.0487528344502255,1.0487528344502255,1.0487528344502255,1.0487528344502255,1.0487528344502255,1.0487528344502255,1.0487528344502255,1.0487528344502255,1.0487528344502255,1.0487528344502255,1.0487528344502255,1.0487528344502255,1.04195011336179,1.04195011336179,1.0351473922733547,1.0351473922733547,1.0351473922733547,1.0351473922733547,1.0351473922733547,1.0079365079196132,1.0045351473753954,1.0045351473753954,1.0045351473753954,1.0045351473753954,1.0045351473753954,1.0045351473753954,1.0045351473753954,1.0045351473753954,1.0045351473753954,1.0045351473753954,1.0045351473753954,1.0045351473753954,1.0045351473753954,1.0045351473753954,1.0045351473753954,1.0045351473753954,1.0045351473753954,1.0045351473753954,1.0045351473753954,1.0045351473753954,1.0045351473753954,1.0045351473753954,1.0045351473753954,1.0045351473753954,1.0045351473753954,1.0045351473753954,1.0045351473753954,1.0045351473753954,1.0045351473753954,1.0045351473753954,1.0045351473753954,1.0011337868311778,0.9943310657427424,0.9807256235658717,0.9705215419332186,0.9705215419332186,0.9705215419332186,0.9705215419332186,0.9705215419332186,0.7800453514570281,0.7664399092801574,0.7018140589400214,0.6575963718651914,0.6575963718651914,0.6575963718651914,0.6575963718651914,0.6575963718651914,0.4807256235658717,0.42970521540260637,0.4092970521373003,0.3752834466951234,0.3752834466951234,0.3752834466951234,0.3752834466951234,0.3752834466951234,0.2936507936338989,0.28004535145702814,0.2732426303685928,0.2732426303685928,0.2732426303685928,0.2732426303685928,0.2732426303685928,0.24943310655906897,0.2426303854706336,0.23922902492641593,0.23922902492641593,0.23922902492641593,0.23922902492641593,0.23922902492641593,0.23582766438219824,0.23582766438219824,0.23582766438219824,0.23582766438219824,0.23582766438219824,0.23582766438219824,0.23582766438219824,0.25283446710328666,0.25623582764750436,0.26303854873593974,0.26303854873593974,0.26303854873593974,0.26303854873593974,0.26303854873593974,0.25963718819172205,0.23922902492641593,0.22222222220532747,0.21201814057267443,0.21201814057267443,0.21201814057267443,0.21201814057267443,0.21201814057267443,0.17800453513049755,0.17800453513049755,0.17800453513049755,0.17800453513049755,0.17800453513049755,0.17800453513049755,0.17800453513049755,0.17460317458627986,0.17120181404206217,0.17120181404206217,0.17120181404206217,0.17120181404206217,0.17120181404206217,0.16780045349784448,0.16780045349784448,0.16780045349784448,0.16780045349784448,0.16780045349784448,0.16780045349784448,0.16780045349784448,0.1643990929536268,0.1643990929536268,0.16099773240940912,0.16099773240940912,0.16099773240940912,0.16099773240940912,0.15079365077675605,0.15079365077675605,0.15079365077675605,0.15079365077675605,0.15079365077675605,0.15079365077675605,0.15079365077675605,0.15079365077675605,0.15079365077675605,0.15079365077675605,0.15079365077675605,0.15079365077675605,0.15079365077675605,0.15079365077675605,0.15079365077675605,0.15079365077675605,0.15079365077675605,0.15079365077675605,0.15079365077675605,0.15079365077675605,0.15079365077675605,0.15079365077675605,0.15079365077675605,0.15079365077675605,0.15079365077675605,0.15079365077675605,0.15079365077675605,0.15079365077675605,0.15419501132097374,0.15759637186519143,0.17120181404206217,0.18140589567471524,0.18140589567471524,0.18140589567471524,0.18140589567471524,0.3004535147223343,0.31405895689920504,0.33446712016451113,0.36167800451825266,0.36167800451825266,0.36167800451825266,0.36167800451825266,0.42290249431417104,0.43990929703525944,0.4501133786679125,0.4569160997563479,0.4569160997563479,0.4569160997563479,0.4569160997563479,0.5079365079196132,0.521541950096484,0.5249433106407017,0.531746031729137,0.531746031729137,0.531746031729137,0.531746031729137,0.5725623582597492,0.58616780043662,0.6065759637019261,0.6065759637019261,0.6065759637019261,0.6065759637019261,0.6065759637019261,0.739229024926416,0.749433106559069,0.7664399092801574,0.7664399092801574,0.7664399092801574,0.7664399092801574,0.7664399092801574,0.7834467120012458,0.7834467120012458,0.7834467120012458,0.7834467120012458,0.7834467120012458,0.7834467120012458,0.8004535147223343,0.803854875266552,0.8242630385318581,0.8344671201645112,0.8344671201645112,0.8344671201645112,0.8344671201645112,0.8956916099604295,0.9024943310488649,0.9024943310488649,0.9024943310488649,0.9024943310488649,0.9024943310488649,0.9024943310488649,0.9024943310488649,0.9024943310488649,0.9024943310488649,0.9024943310488649,0.9024943310488649,0.9024943310488649,0.9195011337699533,0.9331065759468241,0.9637188208447832,0.977324263021654,0.977324263021654,0.977324263021654,0.977324263021654,1.1235827664230145,1.150793650776756,1.1575963718651914,1.1609977324094092,1.1609977324094092,1.1609977324094092,1.1609977324094092,1.1643990929536268,1.1643990929536268,1.1643990929536268,1.1643990929536268,1.1643990929536268,1.1643990929536268,1.1643990929536268,1.1643990929536268,1.1643990929536268,1.1643990929536268,1.1643990929536268,1.1643990929536268,1.1643990929536268,1.1643990929536268,1.1643990929536268,1.1643990929536268,1.1643990929536268,1.1643990929536268,1.1643990929536268,1.1643990929536268,1.1643990929536268,1.1541950113209738,1.150793650776756,1.1473922902325384,1.1473922902325384,1.1473922902325384,1.1473922902325384,1.1439909296883206,1.140589569144103,1.140589569144103,1.140589569144103,1.140589569144103,1.140589569144103,1.140589569144103,1.140589569144103,1.140589569144103,1.140589569144103,1.140589569144103,1.140589569144103,1.140589569144103,1.1371882085998852,1.1371882085998852,1.1371882085998852,1.1371882085998852,1.1371882085998852,1.1371882085998852,1.1371882085998852,1.1337868480556677,1.1303854875114498,1.1235827664230145,1.1235827664230145,1.1235827664230145,1.1235827664230145,1.0691609977155316,1.04195011336179,1.0011337868311778,1.0011337868311778,1.0011337868311778,1.0011337868311778,0.912698412681518,0.9024943310488649,0.9024943310488649,0.9024943310488649,0.9024943310488649,0.9024943310488649,0.9024943310488649,0.9024943310488649,0.9024943310488649,0.9024943310488649,0.9024943310488649,0.9024943310488649,0.9024943310488649,0.9024943310488649,0.9024943310488649,0.9024943310488649,0.9024943310488649,0.9024943310488649,0.9024943310488649,0.9024943310488649,0.9024943310488649,0.9024943310488649,0.9024943310488649,0.9024943310488649,0.9024943310488649,0.9024943310488649,0.9024943310488649,0.9024943310488649,0.8990929705046472,0.8990929705046472,0.8922902494162118,0.8922902494162118,0.8922902494162118,0.8922902494162118,0.8922902494162118,0.8922902494162118,0.8888888888719941,0.8888888888719941,0.8888888888719941,0.8888888888719941,0.8888888888719941,0.8888888888719941,0.8888888888719941,0.8888888888719941,0.8888888888719941,0.8888888888719941,0.8888888888719941,0.8888888888719941,0.8888888888719941,0.8888888888719941,0.8888888888719941,0.8888888888719941,0.8888888888719941,0.8888888888719941,0.8888888888719941,0.8888888888719941,0.8888888888719941,0.8888888888719941,0.8888888888719941,0.8888888888719941,0.8888888888719941,0.8888888888719941,0.8888888888719941,0.8888888888719941,0.8888888888719941,0.8888888888719941,0.8888888888719941,0.8786848072393411,0.8786848072393411,0.8752834466951234,0.8752834466951234,0.8718820861509057,0.8718820861509057,0.8718820861509057,0.8718820861509057,0.8616780045182526,0.8616780045182526,0.8582766439740349,0.8582766439740349,0.8582766439740349,0.8582766439740349,0.8582766439740349,0.8582766439740349,0.8446712017971643,0.8446712017971643,0.8446712017971643,0.8412698412529466,0.8412698412529466,0.8412698412529466,0.8412698412529466,0.8412698412529466,0.8378684807087289,0.8378684807087289,0.8378684807087289,0.8378684807087289,0.8378684807087289,0.8378684807087289,0.8378684807087289,0.8378684807087289,0.8344671201645112,0.8344671201645112,0.8344671201645112,0.8344671201645112,0.8344671201645112,0.8344671201645112,0.8344671201645112,0.8344671201645112,0.8344671201645112,0.8344671201645112,0.8344671201645112,0.8344671201645112,0.8344671201645112,0.8344671201645112,0.8344671201645112,0.8344671201645112,0.8378684807087289,0.8378684807087289,0.8378684807087289,0.8378684807087289,0.8378684807087289],"y":[-4.234126984126986,-4.234126984126986,-4.234126984126986,-4.234126984126986,-4.234126984126986,-4.234126984126986,-4.234126984126986,0.9357142736041364,0.964285702175565,0.964285702175565,0.964285702175565,0.964285702175565,1.2880952259850889,1.3833333212231842,1.4023809402708032,1.4023809402708032,1.4023809402708032,1.4023809402708032,1.4023809402708032,1.5261904640803272,1.5261904640803272,1.5261904640803272,1.5261904640803272,1.5261904640803272,1.5261904640803272,1.5261904640803272,1.5261904640803272,1.5261904640803272,1.5261904640803272,1.5261904640803272,1.5261904640803272,1.5261904640803272,1.5261904640803272,1.5261904640803272,1.5261904640803272,1.5261904640803272,1.5261904640803272,1.5261904640803272,1.5261904640803272,1.5261904640803272,1.5261904640803272,1.5261904640803272,1.5261904640803272,1.5261904640803272,1.5261904640803272,1.5261904640803272,1.5261904640803272,1.5261904640803272,1.5261904640803272,1.5261904640803272,1.5261904640803272,1.5261904640803272,1.5261904640803272,1.5261904640803272,1.5357142736041367,1.5357142736041367,1.5357142736041367,1.5357142736041367,1.5357142736041367,1.5357142736041367,1.5547618926517557,1.5547618926517557,1.5642857021755652,1.5642857021755652,1.5642857021755652,1.5642857021755652,1.5642857021755652,1.5738095116993749,1.5738095116993749,1.5738095116993749,1.5738095116993749,1.5738095116993749,1.5738095116993749,1.5738095116993749,1.5738095116993749,1.5738095116993749,1.5738095116993749,1.5738095116993749,1.5738095116993749,1.5738095116993749,1.5738095116993749,1.5738095116993749,1.5738095116993749,1.5738095116993749,1.5738095116993749,1.5738095116993749,1.5738095116993749,1.5738095116993749,1.5738095116993749,1.5738095116993749,1.5738095116993749,1.5738095116993749,1.5738095116993749,1.5738095116993749,1.5738095116993749,1.5738095116993749,1.5738095116993749,1.5738095116993749,1.5738095116993749,1.5738095116993749,1.5738095116993749,1.5738095116993749,1.5738095116993749,1.5738095116993749,1.5738095116993749,1.5738095116993749,1.5738095116993749,1.5738095116993749,1.5738095116993749,1.5738095116993749,1.5738095116993749,1.5738095116993749,1.5738095116993749,1.5738095116993749,1.5738095116993749,1.5738095116993749,1.5738095116993749,1.5738095116993749,1.5738095116993749,1.5738095116993749,1.5738095116993749,1.5738095116993749,1.5738095116993749,1.5738095116993749,1.5738095116993749,1.5738095116993749,1.5738095116993749,1.5738095116993749,1.5738095116993749,1.5738095116993749,1.5738095116993749,1.5738095116993749,1.5738095116993749,1.5738095116993749,1.5738095116993749,1.5738095116993749,1.5547618926517557,1.5547618926517557,1.5547618926517557,1.5547618926517557,1.5547618926517557,1.4595237974136603,1.46904760693747,1.46904760693747,1.46904760693747,1.46904760693747,1.46904760693747,1.46904760693747,1.46904760693747,1.46904760693747,1.46904760693747,1.46904760693747,1.46904760693747,1.46904760693747,1.46904760693747,1.46904760693747,1.46904760693747,1.46904760693747,1.46904760693747,1.46904760693747,1.46904760693747,1.46904760693747,1.46904760693747,1.46904760693747,1.46904760693747,1.46904760693747,1.46904760693747,1.46904760693747,1.46904760693747,1.46904760693747,1.46904760693747,1.46904760693747,1.46904760693747,1.46904760693747,1.46904760693747,1.46904760693747,1.46904760693747,1.46904760693747,1.46904760693747,1.46904760693747,1.46904760693747,1.4023809402708032,1.3833333212231842,1.2880952259850889,1.2880952259850889,1.2880952259850889,1.2880952259850889,1.2880952259850889,0.5547618926517552,0.24047617836604074,0.049999987889850155,-0.2833333454434834,-0.2833333454434834,-0.2833333454434834,-0.2833333454434834,-1.016666678776817,-1.15952382163396,-1.1976190597291982,-1.2452381073482457,-1.264285726395865,-1.264285726395865,-1.264285726395865,-1.264285726395865,-1.3309523930625315,-1.340476202586341,-1.3880952502053887,-1.3880952502053887,-1.3880952502053887,-1.3880952502053887,-1.3880952502053887,-1.664285726395865,-1.664285726395865,-1.664285726395865,-1.664285726395865,-1.664285726395865,-1.664285726395865,-1.664285726395865,-1.664285726395865,-1.664285726395865,-1.664285726395865,-1.664285726395865,-1.664285726395865,-1.664285726395865,-1.664285726395865,-1.664285726395865,-1.664285726395865,-1.664285726395865,-1.664285726395865,-1.664285726395865,-1.6738095359196745,-1.6738095359196745,-1.6738095359196745,-1.6738095359196745,-1.6738095359196745,-1.6738095359196745,-1.6738095359196745,-1.645238107348246,-1.6261904883006268,-1.5690476311577697,-1.5690476311577697,-1.5690476311577697,-1.5690476311577697,-1.4738095359196746,-1.4738095359196746,-1.483333345443484,-1.483333345443484,-1.483333345443484,-1.483333345443484,-1.483333345443484,-1.483333345443484,-1.483333345443484,-1.483333345443484,-1.483333345443484,-1.483333345443484,-1.483333345443484,-1.4928571549672935,-1.4928571549672935,-1.5404762025863412,-1.5595238216339602,-1.5595238216339602,-1.5595238216339602,-1.5595238216339602,-1.5880952502053889,-1.5880952502053889,-1.5880952502053889,-1.5880952502053889,-1.5880952502053889,-1.5880952502053889,-1.5880952502053889,-1.5880952502053889,-1.5880952502053889,-1.5880952502053889,-1.5880952502053889,-1.5880952502053889,-1.5880952502053889,-1.5880952502053889,-1.5880952502053889,-1.5880952502053889,-1.5880952502053889,-1.5880952502053889,-1.5880952502053889,-1.5880952502053889,-1.5880952502053889,-1.5880952502053889,-1.5880952502053889,-1.5880952502053889,-1.5880952502053889,-1.5880952502053889,-1.5880952502053889,-1.5880952502053889,-1.5880952502053889,-1.5880952502053889,-1.5880952502053889,-1.5880952502053889,-1.5880952502053889,-1.5880952502053889,-1.5880952502053889,-1.5880952502053889,-1.5880952502053889,-1.5880952502053889,-1.5880952502053889,-1.5880952502053889,-1.5976190597291984,-1.6071428692530079,-1.6071428692530079,-1.6071428692530079,-1.6071428692530079,-1.6071428692530079,-1.6261904883006268,-1.6261904883006268,-1.6261904883006268,-1.6261904883006268,-1.6261904883006268,-1.6261904883006268,-1.6261904883006268,-1.6261904883006268,-1.6261904883006268,-1.6261904883006268,-1.6261904883006268,-1.6261904883006268,-1.6261904883006268,-1.6261904883006268,-1.6261904883006268,-1.6261904883006268,-1.6261904883006268,-1.6261904883006268,-1.6261904883006268,-1.645238107348246,-1.664285726395865,-1.664285726395865,-1.664285726395865,-1.664285726395865,-1.664285726395865,-1.664285726395865,-1.6738095359196745,-1.683333345443484,-1.683333345443484,-1.683333345443484,-1.683333345443484,-1.683333345443484,-1.683333345443484,-1.683333345443484,-1.683333345443484,-1.683333345443484,-1.683333345443484,-1.683333345443484,-1.683333345443484,-1.683333345443484,-1.7023809644911032,-1.7023809644911032,-1.7023809644911032,-1.7023809644911032,-1.7023809644911032,-1.7023809644911032,-1.7023809644911032,-1.7023809644911032,-1.7023809644911032,-1.7023809644911032,-1.7023809644911032,-1.7023809644911032,-1.7023809644911032,-1.7023809644911032,-1.7023809644911032,-1.7023809644911032,-1.7023809644911032,-1.7023809644911032,-1.7023809644911032,-1.7023809644911032,-1.7023809644911032,-1.7023809644911032,-1.7023809644911032,-1.7023809644911032,-1.7023809644911032,-1.7023809644911032,-1.7023809644911032,-1.7023809644911032,-1.7023809644911032,-1.7023809644911032,-1.7023809644911032,-1.7023809644911032,-1.7023809644911032,-1.7023809644911032,-1.7023809644911032,-1.683333345443484,-1.683333345443484,-1.683333345443484,-1.683333345443484,-1.683333345443484,-1.683333345443484,-1.683333345443484,-1.683333345443484,-1.683333345443484,-1.683333345443484,-1.683333345443484,-1.683333345443484,-1.683333345443484,-1.683333345443484,-1.683333345443484,-1.683333345443484,-1.683333345443484,-1.683333345443484,-1.683333345443484,-1.683333345443484,-1.683333345443484,-1.683333345443484,-1.683333345443484,-1.683333345443484,-1.683333345443484,-1.683333345443484,-1.683333345443484,-1.683333345443484,-1.5880952502053889,-1.3023809644911029,-1.3023809644911029,-1.3023809644911029,-1.3023809644911029,-1.3023809644911029,-0.7976190597291979,-0.7976190597291979,-0.7976190597291979,-0.7976190597291979,-0.7976190597291979,-0.7976190597291979,-0.7976190597291979,-0.22619048830062619,-0.08333334544348325,-0.045238107348245134,-0.045238107348245134,-0.045238107348245134,-0.045238107348245134,-0.045238107348245134,0.23095236884223122,0.23095236884223122,0.23095236884223122,0.23095236884223122,0.23095236884223122,0.23095236884223122,0.23095236884223122,0.23095236884223122,0.23095236884223122,0.23095236884223122,0.23095236884223122,0.23095236884223122,0.23095236884223122,0.23095236884223122,0.23095236884223122,0.23095236884223122,0.23095236884223122,0.23095236884223122,0.23095236884223122,0.23095236884223122,0.23095236884223122,0.23095236884223122,0.23095236884223122,0.23095236884223122,0.23095236884223122,0.23095236884223122,0.23095236884223122,0.23095236884223122,0.23095236884223122,0.23095236884223122,0.23095236884223122,0.23095236884223122,0.23095236884223122,0.23095236884223122,0.23095236884223122,0.23095236884223122,0.23095236884223122,0.23095236884223122,0.23095236884223122,0.23095236884223122,0.23095236884223122,0.23095236884223122,0.23095236884223122,0.23095236884223122,0.23095236884223122,0.23095236884223122,0.23095236884223122,0.23095236884223122,0.23095236884223122,0.23095236884223122,0.23095236884223122,0.23095236884223122,0.23095236884223122,0.23095236884223122,0.23095236884223122,0.23095236884223122,0.23095236884223122,0.23095236884223122,0.23095236884223122,0.23095236884223122,0.23095236884223122,0.23095236884223122,0.23095236884223122,0.23095236884223122,0.23095236884223122,0.23095236884223122,0.23095236884223122,0.23095236884223122,0.23095236884223122,0.23095236884223122,0.23095236884223122,0.23095236884223122,0.23095236884223122,0.23095236884223122,0.23095236884223122,0.23095236884223122,0.23095236884223122,0.23095236884223122,0.23095236884223122,0.23095236884223122,0.23095236884223122,0.23095236884223122,0.23095236884223122,0.23095236884223122,0.23095236884223122,0.23095236884223122,0.23095236884223122,0.23095236884223122,0.23095236884223122,0.23095236884223122,0.23095236884223122,0.23095236884223122,0.23095236884223122,0.23095236884223122,0.23095236884223122,0.23095236884223122,0.23095236884223122,0.23095236884223122,0.23095236884223122,0.23095236884223122,0.23095236884223122,0.23095236884223122,0.23095236884223122,0.23095236884223122,0.23095236884223122,0.23095236884223122,0.23095236884223122,0.23095236884223122,0.23095236884223122,0.23095236884223122,0.23095236884223122,0.23095236884223122,0.23095236884223122,0.23095236884223122,0.23095236884223122,0.23095236884223122,0.23095236884223122,0.23095236884223122,0.23095236884223122,0.23095236884223122,0.23095236884223122,0.23095236884223122,0.23095236884223122,0.23095236884223122,0.23095236884223122,0.23095236884223122,0.24047617836604074,0.27857141646127886,0.316666654556517,0.316666654556517,0.316666654556517,0.316666654556517,0.316666654556517,0.35476189265175506,0.35476189265175506,0.35476189265175506,0.35476189265175506,0.35476189265175506,0.35476189265175506,0.35476189265175506,0.35476189265175506,0.35476189265175506,0.35476189265175506,0.35476189265175506,0.35476189265175506,0.35476189265175506,0.35476189265175506,0.35476189265175506,0.35476189265175506,0.35476189265175506,0.35476189265175506,0.35476189265175506,0.35476189265175506,0.34523808312794557,0.34523808312794557,0.34523808312794557,0.34523808312794557,0.34523808312794557,0.002380940270802513,-0.06428572639586419,-0.17857144068157854,-0.21666667877681664,-0.21666667877681664,-0.21666667877681664,-0.21666667877681664,-0.21666667877681664,-0.5023809644911025,-0.492857154967293,-0.48333334544348344,-0.4357142978244358,-0.41666667877681673,-0.41666667877681673,-0.41666667877681673,-0.41666667877681673,-0.026190488300626074,0.1261904640803264,0.21190474979461216,0.335714273604136,0.335714273604136,0.335714273604136,0.335714273604136,0.335714273604136,0.5833333212231838,0.6214285593184219,0.640476178366041,0.65952379741366,0.65952379741366,0.65952379741366,0.65952379741366,0.65952379741366,0.7071428450327076,0.7357142736041362,0.7452380831279458,0.7547618926517553,0.7547618926517553,0.7547618926517553,0.7547618926517553,0.7547618926517553,0.840476178366041,0.8499999878898505,0.8595237974136601,0.8595237974136601,0.8595237974136601,0.8595237974136601,0.8595237974136601,0.9261904640803268,0.9547618926517554,0.964285702175565,0.983333321223184,0.983333321223184,0.983333321223184,0.983333321223184,1.021428559318422,1.021428559318422,1.021428559318422,1.021428559318422,1.021428559318422,1.021428559318422,1.021428559318422,1.021428559318422,1.021428559318422,1.021428559318422,1.021428559318422,1.021428559318422,1.021428559318422,1.021428559318422,1.021428559318422,1.021428559318422,1.021428559318422,1.021428559318422,1.021428559318422,1.021428559318422,1.021428559318422,1.021428559318422,1.021428559318422,1.021428559318422,1.021428559318422,1.021428559318422,1.021428559318422,1.021428559318422,1.021428559318422,1.021428559318422,1.021428559318422,1.021428559318422,1.021428559318422,1.021428559318422,1.0309523688422317,1.0499999878898507,1.0595237974136602,1.0595237974136602,1.0595237974136602,1.0595237974136602,1.0785714164612792,1.0785714164612792,1.0785714164612792,1.0785714164612792,1.0785714164612792,1.0785714164612792,1.0785714164612792,1.0785714164612792,1.0785714164612792,1.0785714164612792,1.0785714164612792,1.0785714164612792,1.0785714164612792,1.0785714164612792,1.0785714164612792,1.0785714164612792,1.0785714164612792,1.0785714164612792,1.0785714164612792,1.0785714164612792,1.0785714164612792,1.0785714164612792,1.0785714164612792,1.0785714164612792,1.0785714164612792,1.0785714164612792,1.1261904640803269,1.1357142736041366,1.1547618926517556,1.1547618926517556,1.1547618926517556,1.1547618926517556,1.1547618926517556,1.1547618926517556,1.2690476069374699,1.2785714164612794,1.307142845032708,1.3166666545565175,1.3166666545565175,1.3166666545565175,1.3166666545565175,1.3166666545565175,1.4214285593184224,1.4309523688422319,1.4404761783660414,1.4499999878898508,1.4499999878898508,1.4499999878898508,1.4499999878898508,1.4499999878898508,1.4595237974136603,1.4595237974136603,1.4595237974136603,1.4595237974136603,1.4595237974136603,1.4595237974136603,1.4595237974136603,1.4595237974136603,1.4595237974136603,1.4595237974136603,1.4595237974136603,1.4595237974136603,1.4595237974136603,1.4595237974136603,1.4595237974136603,1.4595237974136603,1.4595237974136603,1.4595237974136603,1.4595237974136603,1.46904760693747,1.46904760693747,1.46904760693747,1.46904760693747,1.46904760693747,1.46904760693747,1.4785714164612795,1.4785714164612795,1.4785714164612795,1.4785714164612795,1.4785714164612795,1.4785714164612795,1.4785714164612795,1.4785714164612795,1.4785714164612795,1.4785714164612795,1.4595237974136603,1.4595237974136603,1.4595237974136603,1.4595237974136603,1.4595237974136603,1.4595237974136603,1.4214285593184224,1.4214285593184224,1.4214285593184224,1.4214285593184224,1.4214285593184224,1.4214285593184224,1.4214285593184224,1.4214285593184224,1.3928571307469937,1.3833333212231842,1.3833333212231842,1.3738095116993747,1.3738095116993747,1.3738095116993747,1.3738095116993747,1.3738095116993747,1.326190464080327,1.2976190355088983,1.2785714164612794,1.249999987889851,1.249999987889851,1.249999987889851,1.249999987889851,1.249999987889851,1.2023809402708032,1.2023809402708032,1.2023809402708032,1.2023809402708032,1.2023809402708032,1.2023809402708032,1.2023809402708032,1.1928571307469937,1.1928571307469937,1.1928571307469937,1.1928571307469937,1.1928571307469937,1.1928571307469937,1.1928571307469937,1.1928571307469937,1.1928571307469937,1.1928571307469937,1.1928571307469937,1.1928571307469937,1.1928571307469937,1.1928571307469937,1.1928571307469937,1.1928571307469937,1.1357142736041366,1.0976190355088984,1.0976190355088984,1.0976190355088984,1.0976190355088984,0.9261904640803268,0.9071428450327078,0.8595237974136601,0.8595237974136601,0.8595237974136601,0.8595237974136601,0.8595237974136601,0.5166666545565171,0.46904760693746944,0.37380951169937415,0.37380951169937415,0.37380951169937415,0.37380951169937415,0.28809522598508835,0.28809522598508835,0.27857141646127886,0.27857141646127886,0.27857141646127886,0.27857141646127886,0.27857141646127886,0.22142855931842167,0.2023809402708026,0.1928571307469931,0.1928571307469931,0.1928571307469931,0.1928571307469931,0.08809522598508827,0.08809522598508827,0.02142855931842157,-0.007142869253007016,-0.016666678776816546,-0.016666678776816546,-0.016666678776816546,-0.016666678776816546,-0.045238107348245134,-0.045238107348245134,-0.045238107348245134,-0.045238107348245134,-0.045238107348245134,-0.045238107348245134,-0.045238107348245134,-0.045238107348245134,-0.045238107348245134,-0.045238107348245134,-0.045238107348245134,-0.045238107348245134,-0.045238107348245134,-0.045238107348245134,-0.045238107348245134,-0.045238107348245134,-0.045238107348245134,-0.045238107348245134,-0.045238107348245134,-0.045238107348245134,-0.045238107348245134,-0.026190488300626074,0.08809522598508827,0.23095236884223122,0.23095236884223122,0.23095236884223122,0.23095236884223122,0.23095236884223122,0.9071428450327078,1.0785714164612792,1.1357142736041366,1.249999987889851,1.2880952259850889,1.2880952259850889,1.2880952259850889,1.2880952259850889,1.411904749794613,1.4404761783660414,1.4404761783660414,1.4404761783660414,1.4404761783660414,1.4404761783660414,1.4404761783660414,1.4404761783660414,1.4404761783660414,1.4404761783660414,1.4404761783660414,1.4404761783660414,1.4404761783660414,1.4404761783660414,1.4404761783660414,1.4404761783660414,1.4404761783660414,1.4404761783660414,1.4404761783660414,1.4404761783660414,1.4404761783660414,1.4404761783660414,1.4404761783660414,1.4404761783660414,1.326190464080327,1.3166666545565175,1.307142845032708,1.307142845032708,1.307142845032708,1.307142845032708,1.307142845032708,1.307142845032708,1.2976190355088983,1.2976190355088983,1.2976190355088983,1.2976190355088983,1.2976190355088983,1.2976190355088983,1.2976190355088983,1.2976190355088983,1.2976190355088983,1.2976190355088983,1.2976190355088983,1.2976190355088983,1.2976190355088983,1.2976190355088983,1.2976190355088983,1.2976190355088983,1.2976190355088983,1.2976190355088983,1.2976190355088983,1.2976190355088983,1.2976190355088983,1.2976190355088983,1.2976190355088983,1.2976190355088983,1.2976190355088983,1.2976190355088983,1.2976190355088983,1.2976190355088983,1.2976190355088983,1.2976190355088983,1.2976190355088983,1.2976190355088983,1.2976190355088983,1.2976190355088983,1.2976190355088983,1.2976190355088983,1.2976190355088983,1.2976190355088983,1.2976190355088983,1.2976190355088983,1.2976190355088983,1.2976190355088983,1.2976190355088983,1.2976190355088983,1.2976190355088983,1.2976190355088983,1.2976190355088983,1.2976190355088983,1.2976190355088983,1.2976190355088983,1.2976190355088983,1.2976190355088983,1.2976190355088983,1.2976190355088983,1.2976190355088983,1.2976190355088983,1.2976190355088983,1.2976190355088983,1.2976190355088983,1.2976190355088983,1.2880952259850889,1.2880952259850889,1.2880952259850889,1.2880952259850889,1.2880952259850889,1.2880952259850889,1.2880952259850889,1.2880952259850889,1.2880952259850889,1.2880952259850889,1.2880952259850889,1.2880952259850889,1.2880952259850889,1.2880952259850889,1.2880952259850889,1.2880952259850889,1.2880952259850889,1.2880952259850889,1.2880952259850889,1.2880952259850889,1.2880952259850889,1.2880952259850889,1.2880952259850889,1.2880952259850889,1.2785714164612794,1.2785714164612794,1.2785714164612794,1.2785714164612794,1.2785714164612794,1.2785714164612794,1.2785714164612794,1.2785714164612794,1.2785714164612794,1.2785714164612794,1.2785714164612794,1.2785714164612794,1.2785714164612794,1.2785714164612794,1.2785714164612794,1.2785714164612794,1.2785714164612794,1.2785714164612794,1.2785714164612794,1.2785714164612794,1.2785714164612794,1.2785714164612794,1.2785714164612794,1.2785714164612794,1.2785714164612794,1.2785714164612794,1.2785714164612794,1.2785714164612794,1.2785714164612794,1.2785714164612794,1.2785714164612794,1.2785714164612794,1.2785714164612794,1.2785714164612794,1.2785714164612794,1.2785714164612794,1.2785714164612794,1.2785714164612794,1.2785714164612794,1.2785714164612794,1.2785714164612794,1.2785714164612794,1.2785714164612794,1.2785714164612794,1.2785714164612794,1.2785714164612794,1.2785714164612794,1.2785714164612794,1.2785714164612794,1.2785714164612794,1.2785714164612794,1.2785714164612794,1.2785714164612794,1.2785714164612794,1.2785714164612794,1.2785714164612794,1.2785714164612794,1.2785714164612794,1.2785714164612794,1.2785714164612794,1.2785714164612794,1.2785714164612794,1.2785714164612794,1.2785714164612794,1.2785714164612794,1.2785714164612794,1.2785714164612794,1.2785714164612794,1.2785714164612794,1.2785714164612794,1.2785714164612794,1.2785714164612794,1.2785714164612794,1.2785714164612794,1.2785714164612794,1.2785714164612794,1.2785714164612794,1.2785714164612794,1.2785714164612794,1.2785714164612794,1.2785714164612794,1.2785714164612794,1.2785714164612794,1.2785714164612794,1.2785714164612794,1.2785714164612794,1.2785714164612794,1.2785714164612794,1.2785714164612794,1.2785714164612794,1.2785714164612794,1.2785714164612794,1.2785714164612794,1.2785714164612794,1.2785714164612794,1.2785714164612794,1.2785714164612794,1.2785714164612794,1.2785714164612794,1.2785714164612794,1.2785714164612794,1.2785714164612794,1.2785714164612794,1.2785714164612794,1.2785714164612794,1.2785714164612794,1.2785714164612794,1.2785714164612794,1.2785714164612794,1.2785714164612794,1.2785714164612794,1.2785714164612794,1.2785714164612794,1.2785714164612794,1.2785714164612794,1.2785714164612794,1.2785714164612794,1.2785714164612794,1.2785714164612794,1.2785714164612794,1.2785714164612794,1.2785714164612794,1.2785714164612794,1.2785714164612794,1.2785714164612794,1.2785714164612794,1.2785714164612794,1.2785714164612794,1.2785714164612794,1.2785714164612794,1.2785714164612794,1.2785714164612794,1.2785714164612794,1.2785714164612794,1.2785714164612794,1.2785714164612794,1.2785714164612794,1.2785714164612794,1.2785714164612794,1.2785714164612794,1.2785714164612794,1.2785714164612794,1.2785714164612794,1.2785714164612794,1.2785714164612794,1.2785714164612794,1.2785714164612794,1.2785714164612794,1.2785714164612794,1.2785714164612794,1.2785714164612794,1.2785714164612794,1.2785714164612794,1.2785714164612794,1.2785714164612794,1.2785714164612794,1.2785714164612794,1.2785714164612794,1.2785714164612794,1.2785714164612794,1.2785714164612794,1.2785714164612794,1.2785714164612794,1.2785714164612794,1.2785714164612794,1.2785714164612794,1.2785714164612794,1.2785714164612794,1.2785714164612794,1.2785714164612794,1.2785714164612794,1.2785714164612794,1.2785714164612794,1.2785714164612794,1.2785714164612794,1.2785714164612794,1.2785714164612794,1.2785714164612794,1.2785714164612794,1.2785714164612794,1.2785714164612794,1.2785714164612794,1.2785714164612794,1.2785714164612794,1.2785714164612794,1.2785714164612794,1.2785714164612794,1.2785714164612794,1.2785714164612794,1.2785714164612794,1.2785714164612794,1.2785714164612794,1.2785714164612794,1.2785714164612794,1.2785714164612794,1.2785714164612794,1.2785714164612794,1.2785714164612794,1.2785714164612794,1.2785714164612794,1.2785714164612794,1.2785714164612794,1.2785714164612794,1.2785714164612794,1.2785714164612794,1.2785714164612794,1.2785714164612794,1.2785714164612794,1.2785714164612794,1.2785714164612794,1.2785714164612794,1.2785714164612794,1.2785714164612794,1.2785714164612794,1.2785714164612794,1.2785714164612794,1.2785714164612794,1.2785714164612794,1.2785714164612794,1.2785714164612794,1.2785714164612794,1.2785714164612794,1.2785714164612794,1.2785714164612794,1.2785714164612794,1.2785714164612794,1.2785714164612794,1.2785714164612794,1.2785714164612794,1.2785714164612794,1.2785714164612794,1.2785714164612794,1.2785714164612794,1.2785714164612794,1.2785714164612794,1.2785714164612794,1.2785714164612794,1.2785714164612794,1.2785714164612794,1.2785714164612794,1.2690476069374699,1.2690476069374699,1.249999987889851,1.249999987889851,1.249999987889851,1.249999987889851,1.249999987889851,1.249999987889851,1.1928571307469937,1.1738095116993745,1.1738095116993745,1.1547618926517556,1.1547618926517556,1.1547618926517556,1.154761892651