[{"success":true,"trial_type":"fullscreen","trial_index":0,"time_elapsed":3223,"internal_node_id":"0.0-0.0","protocol_sum":"","subject_identifier":230,"subject_sum":[40,218,231,200,189,226,243,202,96,143,134,208,225,106,33,77,238,116,199,75,238,1,28,223,221,70,188,4,182,85,188,20],"subject_pair":115,"STUDY_ID":"669eec2e4270c76bc184a38e","PROLIFIC_PID":"661fee35973b5ff6fa3418ef","SESSION_ID":"669feaea4d38bdcd85df54ad","practice_instructions":1,"leaderboard_instructions":0,"bonus":0,"reveal_word":false,"self_rating":"2","confidence":"83"},{"view_history":"[{\"page_index\":0,\"viewing_time\":1778.2000000476837}]","rt":1778.300000011921,"trial_type":"instructions","trial_index":1,"time_elapsed":5002,"internal_node_id":"0.0-1.0","protocol_sum":"","subject_identifier":230,"subject_sum":[40,218,231,200,189,226,243,202,96,143,134,208,225,106,33,77,238,116,199,75,238,1,28,223,221,70,188,4,182,85,188,20],"subject_pair":115,"STUDY_ID":"669eec2e4270c76bc184a38e","PROLIFIC_PID":"661fee35973b5ff6fa3418ef","SESSION_ID":"669feaea4d38bdcd85df54ad","practice_instructions":1,"leaderboard_instructions":0,"bonus":0,"reveal_word":false,"self_rating":"2","confidence":"83"},{"view_history":"[{\"page_index\":0,\"viewing_time\":1309.300000011921}]","rt":1309.5,"trial_type":"instructions","trial_index":2,"time_elapsed":6312,"internal_node_id":"0.0-2.0-0.0","protocol_sum":"","subject_identifier":230,"subject_sum":[40,218,231,200,189,226,243,202,96,143,134,208,225,106,33,77,238,116,199,75,238,1,28,223,221,70,188,4,182,85,188,20],"subject_pair":115,"STUDY_ID":"669eec2e4270c76bc184a38e","PROLIFIC_PID":"661fee35973b5ff6fa3418ef","SESSION_ID":"669feaea4d38bdcd85df54ad","practice_instructions":1,"leaderboard_instructions":0,"bonus":0,"reveal_word":false,"self_rating":"2","confidence":"83"},{"rt":1338.199999988079,"responses":"{\"Q0\":\"... reveal the word with as <b>few letter guesses</b> as possible\"}","question_order":"[0]","trial_type":"survey-multi-choice","trial_index":3,"time_elapsed":7651,"internal_node_id":"0.0-2.0-1.0","protocol_sum":"","subject_identifier":230,"subject_sum":[40,218,231,200,189,226,243,202,96,143,134,208,225,106,33,77,238,116,199,75,238,1,28,223,221,70,188,4,182,85,188,20],"subject_pair":115,"correct":true,"test_part":"multichoice_nonpretend","STUDY_ID":"669eec2e4270c76bc184a38e","PROLIFIC_PID":"661fee35973b5ff6fa3418ef","SESSION_ID":"669feaea4d38bdcd85df54ad","practice_instructions":1,"leaderboard_instructions":0,"bonus":0,"reveal_word":false,"self_rating":"2","confidence":"83"},{"view_history":"[{\"page_index\":0,\"viewing_time\":862.7999999523163}]","rt":862.8999999761581,"trial_type":"instructions","trial_index":4,"time_elapsed":8514,"internal_node_id":"0.0-3.0","protocol_sum":"","subject_identifier":230,"subject_sum":[40,218,231,200,189,226,243,202,96,143,134,208,225,106,33,77,238,116,199,75,238,1,28,223,221,70,188,4,182,85,188,20],"subject_pair":115,"STUDY_ID":"669eec2e4270c76bc184a38e","PROLIFIC_PID":"661fee35973b5ff6fa3418ef","SESSION_ID":"669feaea4d38bdcd85df54ad","practice_instructions":1,"leaderboard_instructions":0,"bonus":0,"reveal_word":false,"self_rating":"2","confidence":"83"},{"word":"ZEBRA","click_log":{"letter":["","Z","E","R","A","B"],"t":[0,2344.300000011921,3543.600000023842,5032.800000011921,5909.700000047684,10149.800000011921],"hit":[null,1,1,1,1,1],"asked":["","Z","ZE","ZER","ZERA","ZERAB"],"word_state":["_____","Z____","ZE___","ZE_R_","ZE_RA","ZEBRA"]},"hover_log":{"letter":["?","?","?","?","?","?","?","?","?","?","?","?","?","?","?","?","?","?","?","?","?","?","?","?","?","K","K","K","K","K","K","?","?","?","?","?","?","?","?","C","C","C","C","C","C","C","C","C","C","?","?","?","?","?","?","?","?","?","?","?","?","?","?","?","?","?","?","?","?","?","?","?","?","?","?","?","?","?","?","?","?","?","?","?","?","?","?","?","?","?","?","?","?","?","?","?","?","?","?","?","?","?","?","?","?","?","?","?","?","?","?","O","O","P","P","P","Q","Q","Q","Q","?","?","?","?","?","?","?","?","?","?","?","?","?","R","R","R","R","R","R","R","R","R","R","R","R","R","R","R","R","R","R","R","R","R","R","R","R","R","R","R","R","R","R","R","R","R","R","R","R","?","?","?","?","?","?","Z","Z","Z","Z","Z","Z","Z","Z","Z","Z","Z","Z","Z","Z","Z","Z","Z","Z","Z","Z","Z","Z","Z","Z","Z","?","?","Y","?","?","?","?","?","N","N","M","M","?","?","?","?","?","?","?","?","C","C","C","C","C","C","C","C","C","C","C","C","C","C","C","C","C","?","?","D","D","D","D","?","?","E","E","E","E","E","?","?","?","?","?","?","?","?","?","?","?","E","E","E","E","E","E","E","E","E","E","E","E","E","E","E","E","E","E","E","E","E","E","E","E","E","E","E","E","E","E","E","E","?","?","?","N","N","N","N","?","?","?","?","?","?","?","V","V","V","V","V","V","V","V","V","V","V","V","V","V","V","V","V","V","V","V","V","V","V","V","V","?","?","?","?","?","?","?","?","?","O","O","O","?","P","P","P","?","Q","Q","Q","Q","Q","Q","Q","Q","Q","Q","?","?","?","R","R","R","R","R","R","R","R","R","R","R","R","R","R","R","R","R","R","R","R","R","R","R","R","R","R","R","R","R","R","R","R","R","R","R","R","R","R","R","R","R","R","R","R","?","Q","Q","?","P","P","O","?","N","?","?","?","?","?","?","?","?","?","?","?","?","?","?","?","?","?","?","?","?","?","?","?","?","?","B","B","B","B","B","B","?","?","?","A","A","A","A","A","A","A","A","A","A","A","A","A","A","A","A","A","A","A","A","A","A","A","A","A","A","A","A","A","?","?","B","B","B","B","B","B","B","B","B","B","B","B","?","?","?","C","C","C","C","C","C","C","C","?","?","?","?","D","D","D","D","D","D","D","D","D","D","D","D","D","?","?","E","E","E","E","E","?","?","?","?","?","?","?","?","?","?","?","?","?","?","?","?","?","?","?","?","?","?","?","?","?","?","?","?","?","?","?","P","P","P","P","P","P","?","?","?","?","?","?","?","?","?","?","?","?","?","?","?","?","?","?","F","?","?","?","?","?","?","?","?","F","F","?","?","?","?","?","?","?","?","?","?","?","?","?","?","?","?","?","?","?","?","?","?","?","D","?","?","?","?","?","?","?","?","?","?","?","?","?","?","?","?","?","?","?","?","?","?","D","D","D","D","?","?","?","C","C","C","C","C","C","C","C","C","C","C","C","C","C","C","C","C","?","?","?","?","?","?","?","?","?","?","?","?","?","?","?","?","?","?","?","?","?","?","?","?","?","?","?","?","?","?","?","?","?","?","?","?","?","?","?","?","?","?","?","?","?","?","?","?","?","?","?","?","?","?","?","?","?","?","?","?","?","?","?","?","?","?","?","?","?","?","?","?","?","?","?","?","?","?","?","?","?","?","?","?","?","?","?","?","?","?","?","M","M","M","M","M","M","M","M","M","M","M","M","M","M","M","M","M","M","?","?","?","?","?","?","?","?","?","?","C","C","C","C","C","C","C","C","?","?","B","B","B","B","B","B","B","B","B","B","B","B","B","B","B","B","B","B","B","B","B","B","B","B","B","?","C","C","?","?","?","?","?","N","N","N","?","?","?","?","?","?","?","?","?","?","?","?","?","?","?","?","W","W","W","W","W","W","W","W","W","W","W","W","W","W","W","W","W","W","W","W","W","W","W","W","W","W","W","W","W","W","W","W","W","W","W","W","W","W","W","W","W","W","W","W","W","W","W","W","W","W","W","W","W","W","W","W","W","W","W","W","W","W","W","W","W","W","W","W","W","W","W","W","W","W","W","?","?","?","?","?","?","?","?","?","?","?","?","?","?","?","?","?","?","?","?","?","?","?","?","?","?","?","?","?","?","?","?","?","?","?","?","?","?","?","?","?","?","?","?","X","?","X","X","X"],"t":[19,25,37,49,62,74,86,98,110,122,135,147,159,171,183,195,208,220,237,249,262,274,286,298,310,323,334,346,358,371,383,395,407,419,431,443,455,467,480,499,516,528,540,552,564,577,589,601,613,625,637,649,661,674,686,698,710,722,735,746,759,771,783,795,807,820,831,844,855,868,880,892,904,916,928,940,953,966,983,995,1007,1019,1031,1043,1055,1067,1080,1092,1104,1116,1128,1142,1158,1170,1183,1195,1213,1225,1238,1255,1267,1280,1292,1303,1316,1328,1340,1352,1364,1376,1389,1401,1413,1425,1437,1450,1467,1479,1492,1504,1516,1528,1540,1552,1564,1576,1589,1601,1613,1625,1637,1649,1661,1673,1685,1697,1710,1722,1734,1746,1758,1770,1782,1794,1806,1819,1831,1843,1855,1867,1881,1898,1910,1922,1934,1946,1958,1970,1982,1994,2007,2019,2031,2043,2055,2067,2079,2091,2103,2116,2128,2140,2152,2164,2176,2188,2200,2213,2226,2243,2255,2267,2279,2292,2304,2316,2328,2340,2352,2364,2376,2389,2407,2420,2438,2449,2461,2473,2485,2497,2510,2521,2534,2546,2558,2570,2582,2594,2607,2619,2631,2643,2655,2667,2679,2691,2704,2715,2728,2747,2764,2777,2794,2808,2825,2837,2849,2861,2873,2885,2897,2910,2922,2936,2952,2964,2976,2988,3000,3012,3024,3037,3049,3061,3073,3085,3097,3110,3122,3134,3147,3164,3176,3189,3201,3213,3225,3237,3249,3261,3273,3285,3297,3309,3321,3334,3346,3358,3370,3382,3394,3406,3419,3431,3443,3455,3467,3481,3497,3509,3522,3534,3546,3558,3570,3584,3601,3613,3625,3637,3649,3661,3675,3691,3703,3716,3728,3746,3758,3771,3783,3801,3812,3824,3837,3849,3861,3873,3885,3899,3915,3928,3941,3958,3970,3984,4001,4013,4025,4037,4049,4061,4073,4086,4098,4110,4121,4133,4146,4158,4170,4182,4195,4214,4231,4243,4255,4267,4279,4291,4303,4315,4327,4339,4351,4364,4376,4388,4400,4412,4424,4436,4449,4461,4473,4485,4497,4509,4521,4534,4545,4558,4570,4582,4594,4606,4618,4630,4642,4655,4667,4679,4691,4704,4722,4734,4752,4765,4782,4794,4806,4818,4831,4843,4855,4867,4879,4891,4903,4915,4928,4940,4953,4970,4982,4994,5006,5018,5030,5043,5055,5067,5079,5091,5103,5115,5133,5145,5157,5170,5182,5194,5206,5218,5230,5242,5255,5267,5279,5291,5303,5315,5327,5339,5351,5363,5376,5388,5400,5412,5424,5437,5449,5460,5473,5485,5497,5509,5521,5533,5546,5557,5569,5582,5594,5606,5619,5637,5649,5661,5673,5685,5698,5716,5728,5740,5752,5764,5776,5788,5800,5812,5825,5837,5849,5861,5873,5885,5897,5909,5922,5934,5946,5958,5970,5982,5994,6006,6018,6030,6042,6054,6067,6079,6091,6103,6115,6127,6139,6152,6163,6176,6188,6200,6212,6224,6236,6248,6260,6273,6285,6297,6309,6321,6333,6345,6358,6370,6381,6394,6406,6418,6430,6442,6454,6466,6478,6491,6503,6515,6527,6539,6551,6563,6575,6588,6600,6612,6624,6637,6648,6660,6672,6685,6697,6709,6721,6733,6751,6765,6782,6794,6806,6818,6832,6849,6867,6879,6897,6909,6921,6933,6945,6957,6971,6988,7001,7018,7030,7042,7054,7067,7085,7097,7109,7127,7139,7151,7163,7176,7189,7206,7218,7230,7242,7254,7267,7285,7297,7309,7321,7333,7345,7357,7369,7381,7394,7406,7418,7430,7443,7456,7472,7484,7497,7509,7521,7533,7545,7557,7569,7581,7594,7613,7630,7642,7654,7666,7679,7690,7703,7715,7727,7739,7751,7763,7776,7787,7800,7812,7824,7836,7848,7860,7872,7884,7898,7915,7927,7939,7951,7963,7975,7987,8000,8013,8030,8042,8056,8072,8085,8097,8109,8121,8134,8151,8163,8175,8187,8200,8212,8224,8236,8248,8260,8272,8285,8298,8315,8327,8339,8351,8363,8375,8387,8399,8412,8424,8436,8448,8460,8472,8485,8497,8509,8521,8533,8545,8557,8570,8582,8594,8606,8618,8630,8642,8654,8666,8678,8690,8703,8715,8727,8739,8751,8763,8775,8788,8806,8818,8830,8842,8854,8866,8878,8890,8903,8915,8927,8939,8951,8963,8975,8987,9000,9012,9024,9036,9048,9060,9072,9085,9096,9109,9120,9133,9145,9157,9169,9181,9193,9206,9218,9230,9242,9254,9266,9278,9290,9303,9315,9333,9345,9357,9369,9382,9399,9412,9424,9436,9448,9460,9472,9485,9497,9515,9527,9539,9551,9564,9581,9593,9605,9618,9630,9642,9654,9666,9678,9690,9702,9714,9727,9739,9751,9763,9775,9787,9799,9811,9824,9836,9849,9866,9878,9891,9902,9915,9927,9939,9951,9963,9975,9987,9999,10011,10023,10036,10048,10060,10072,10084,10097,10109,10121,10133,10145,10157,10169,10181,10193,10206,10218,10230,10242,10254,10266,10278,10290,10302,10314,10327,10339,10357,10369,10381,10393,10405,10417,10430,10442,10454,10467,10485,10497,10515,10526,10539,10551,10563,10575,10587,10599,10611,10624,10636,10648,10660,10672,10684,10696,10708,10721,10733,10745,10757,10769,10781,10794,10812,10824,10836,10849,10860,10872,10885,10897,10909,10921,10934,10951,10963,10981,10993,11006,11023,11035,11048,11060,11072,11084,11096,11108,11120,11132,11146,11163,11175,11187,11199,11211,11223,11236,11248,11260,11272,11284,11298,11314,11327,11339,11351,11363,11375,11387,11399,11412,11423,11435,11448,11460,11472,11484,11496,11508,11521,11533,11545,11557,11569,11581,11593,11606,11623,11635,11648,11660,11672,11684,11696,11708,11720,11732,11745,11757,11769,11781,11793,11805,11817,11829,11842,11854,11866,11878,11890,11902,11914,11926,11939,11950,11963,11975,11987,11999,12011,12023,12035,12047,12060,12072,12084,12096,12108,12120,12132,12144,12157],"hit":[null],"x":[-2.0408163265306123,-2.0408163265306123,-2.0408163265306123,-2.0408163265306123,-2.0408163265306123,-2.0408163265306123,-2.0408163265306123,-2.0408163265306123,-2.0408163265306123,-2.0408163265306123,-2.0408163265306123,-2.0408163265306123,-2.0408163265306123,-2.0408163265306123,-2.0408163265306123,-2.0408163265306123,-2.0408163265306123,-2.0408163265306123,-2.0408163265306123,-2.0408163265306123,-2.0408163265306123,-2.0408163265306123,-2.0408163265306123,-2.0408163265306123,-2.0408163265306123,0.1054421768707483,0.11564625850340136,0.12244897959183673,0.1360544217687075,0.14965986394557823,0.16326530612244897,0.18027210884353742,0.19727891156462585,0.21428571428571427,0.23129251700680273,0.24829931972789115,0.2619047619047619,0.2755102040816326,0.2857142857142857,0.29591836734693877,0.29591836734693877,0.29931972789115646,0.29931972789115646,0.29931972789115646,0.29931972789115646,0.29931972789115646,0.29931972789115646,0.29931972789115646,0.29931972789115646,0.30272108843537415,0.30272108843537415,0.30272108843537415,0.30612244897959184,0.30612244897959184,0.30952380952380953,0.30952380952380953,0.30952380952380953,0.30952380952380953,0.30952380952380953,0.30952380952380953,0.30952380952380953,0.30952380952380953,0.30952380952380953,0.30952380952380953,0.30952380952380953,0.30952380952380953,0.30952380952380953,0.3129251700680272,0.3129251700680272,0.3129251700680272,0.3129251700680272,0.3129251700680272,0.3129251700680272,0.3129251700680272,0.3129251700680272,0.3163265306122449,0.3163265306122449,0.3163265306122449,0.3163265306122449,0.3163265306122449,0.3163265306122449,0.3163265306122449,0.3163265306122449,0.3163265306122449,0.3163265306122449,0.3163265306122449,0.3163265306122449,0.3129251700680272,0.3129251700680272,0.30952380952380953,0.30612244897959184,0.29931972789115646,0.2925170068027211,0.2857142857142857,0.2755102040816326,0.272108843537415,0.2687074829931973,0.2687074829931973,0.2687074829931973,0.2687074829931973,0.2687074829931973,0.282312925170068,0.29931972789115646,0.3299319727891156,0.3673469387755102,0.40816326530612246,0.4489795918367347,0.4931972789115646,0.54421768707483,0.5952380952380952,0.6530612244897959,0.7074829931972789,0.7619047619047619,0.8095238095238095,0.8605442176870748,0.9115646258503401,0.9591836734693877,0.9863945578231292,1,1.0136054421768708,1.0238095238095237,1.030612244897959,1.034013605442177,1.0374149659863945,1.0476190476190477,1.0476190476190477,1.0510204081632653,1.054421768707483,1.0612244897959184,1.0680272108843538,1.0782312925170068,1.08843537414966,1.098639455782313,1.1054421768707483,1.1156462585034013,1.1224489795918366,1.1326530612244898,1.1394557823129252,1.1496598639455782,1.1564625850340136,1.1598639455782314,1.1598639455782314,1.163265306122449,1.163265306122449,1.163265306122449,1.163265306122449,1.1666666666666667,1.1666666666666667,1.1666666666666667,1.1666666666666667,1.1666666666666667,1.1666666666666667,1.1666666666666667,1.1666666666666667,1.1666666666666667,1.1666666666666667,1.1666666666666667,1.1666666666666667,1.1666666666666667,1.1666666666666667,1.1666666666666667,1.1666666666666667,1.1666666666666667,1.163265306122449,1.1564625850340136,1.1462585034013606,1.1428571428571428,1.129251700680272,1.1156462585034013,1.098639455782313,1.0748299319727892,1.0578231292517006,1.034013605442177,1.0204081632653061,1.0068027210884354,0.9965986394557823,0.9931972789115646,0.9897959183673469,0.9897959183673469,0.9897959183673469,0.9897959183673469,0.9897959183673469,0.9897959183673469,0.9897959183673469,0.9897959183673469,0.9897959183673469,0.9897959183673469,0.9897959183673469,0.9897959183673469,0.9897959183673469,0.9897959183673469,0.9897959183673469,0.9897959183673469,0.9897959183673469,0.9897959183673469,0.9863945578231292,0.9829931972789115,0.9795918367346939,0.9693877551020408,0.9591836734693877,0.9421768707482994,0.9081632653061225,0.8673469387755102,0.8231292517006803,0.7721088435374149,0.7210884353741497,0.6666666666666666,0.6156462585034014,0.5680272108843537,0.5170068027210885,0.47619047619047616,0.4387755102040816,0.40816326530612246,0.38095238095238093,0.3673469387755102,0.35374149659863946,0.3401360544217687,0.3333333333333333,0.32653061224489793,0.32653061224489793,0.3231292517006803,0.3129251700680272,0.30952380952380953,0.30612244897959184,0.30272108843537415,0.29931972789115646,0.29931972789115646,0.29931972789115646,0.29931972789115646,0.29931972789115646,0.29931972789115646,0.29931972789115646,0.29931972789115646,0.29931972789115646,0.3129251700680272,0.3197278911564626,0.3333333333333333,0.3435374149659864,0.36054421768707484,0.38095238095238093,0.40476190476190477,0.42517006802721086,0.4523809523809524,0.48299319727891155,0.5136054421768708,0.5374149659863946,0.564625850340136,0.5850340136054422,0.6054421768707483,0.6190476190476191,0.6292517006802721,0.6326530612244898,0.6326530612244898,0.6326530612244898,0.6326530612244898,0.6326530612244898,0.6326530612244898,0.6326530612244898,0.6326530612244898,0.6326530612244898,0.6292517006802721,0.6258503401360545,0.6224489795918368,0.6224489795918368,0.6156462585034014,0.6122448979591837,0.608843537414966,0.6020408163265306,0.6020408163265306,0.5986394557823129,0.5952380952380952,0.5918367346938775,0.5884353741496599,0.5884353741496599,0.5884353741496599,0.5884353741496599,0.5884353741496599,0.5884353741496599,0.5884353741496599,0.5884353741496599,0.5884353741496599,0.5884353741496599,0.5884353741496599,0.5884353741496599,0.5884353741496599,0.5884353741496599,0.5884353741496599,0.5884353741496599,0.5884353741496599,0.5884353741496599,0.5884353741496599,0.5884353741496599,0.5884353741496599,0.5884353741496599,0.5884353741496599,0.5850340136054422,0.5850340136054422,0.5714285714285714,0.5578231292517006,0.54421768707483,0.5340136054421769,0.5170068027210885,0.5034013605442177,0.4897959183673469,0.47959183673469385,0.46938775510204084,0.45918367346938777,0.4489795918367347,0.445578231292517,0.4421768707482993,0.4387755102040816,0.43537414965986393,0.43197278911564624,0.42857142857142855,0.42517006802721086,0.42517006802721086,0.4217687074829932,0.4217687074829932,0.4217687074829932,0.4217687074829932,0.4217687074829932,0.4217687074829932,0.4217687074829932,0.4217687074829932,0.4217687074829932,0.4217687074829932,0.4217687074829932,0.4217687074829932,0.4217687074829932,0.4217687074829932,0.4217687074829932,0.42857142857142855,0.4387755102040816,0.4557823129251701,0.48299319727891155,0.5034013605442177,0.5306122448979592,0.5544217687074829,0.5816326530612245,0.6122448979591837,0.6394557823129252,0.673469387755102,0.7074829931972789,0.7482993197278912,0.7857142857142857,0.8231292517006803,0.8571428571428571,0.8877551020408163,0.9183673469387755,0.9455782312925171,0.9659863945578231,0.9829931972789115,0.9965986394557823,1.010204081632653,1.0204081632653061,1.030612244897959,1.0408163265306123,1.0510204081632653,1.0578231292517006,1.064625850340136,1.0714285714285714,1.0782312925170068,1.0850340136054422,1.08843537414966,1.0918367346938775,1.0918367346938775,1.0952380952380953,1.098639455782313,1.098639455782313,1.1020408163265305,1.1020408163265305,1.1054421768707483,1.1054421768707483,1.1088435374149659,1.1122448979591837,1.1122448979591837,1.1122448979591837,1.1156462585034013,1.1156462585034013,1.119047619047619,1.119047619047619,1.1224489795918366,1.1258503401360545,1.1258503401360545,1.1258503401360545,1.129251700680272,1.129251700680272,1.1326530612244898,1.1326530612244898,1.1326530612244898,1.1326530612244898,1.1326530612244898,1.1326530612244898,1.1326530612244898,1.1326530612244898,1.1326530612244898,1.1326530612244898,1.1326530612244898,1.1326530612244898,1.1326530612244898,1.1326530612244898,1.1326530612244898,1.1326530612244898,1.129251700680272,1.1224489795918366,1.1088435374149659,1.0748299319727892,1.030612244897959,0.9829931972789115,0.9319727891156463,0.8707482993197279,0.8095238095238095,0.7380952380952381,0.6666666666666666,0.5884353741496599,0.5170068027210885,0.445578231292517,0.3877551020408163,0.3435374149659864,0.30272108843537415,0.2891156462585034,0.2755102040816326,0.2619047619047619,0.2585034013605442,0.25510204081632654,0.25170068027210885,0.24829931972789115,0.24829931972789115,0.24489795918367346,0.24489795918367346,0.24489795918367346,0.24489795918367346,0.24489795918367346,0.24149659863945577,0.23469387755102042,0.23129251700680273,0.22448979591836735,0.21428571428571427,0.20408163265306123,0.19387755102040816,0.17687074829931973,0.16326530612244897,0.14625850340136054,0.1326530612244898,0.11224489795918367,0.09523809523809523,0.08163265306122448,0.061224489795918366,0.05442176870748299,0.04421768707482993,0.03741496598639456,0.030612244897959183,0.027210884353741496,0.027210884353741496,0.027210884353741496,0.027210884353741496,0.027210884353741496,0.027210884353741496,0.027210884353741496,0.027210884353741496,0.027210884353741496,0.027210884353741496,0.027210884353741496,0.027210884353741496,0.027210884353741496,0.027210884353741496,0.027210884353741496,0.027210884353741496,0.027210884353741496,0.027210884353741496,0.027210884353741496,0.027210884353741496,0.027210884353741496,0.027210884353741496,0.027210884353741496,0.034013605442176874,0.04081632653061224,0.05442176870748299,0.05782312925170068,0.07142857142857142,0.08843537414965986,0.10204081632653061,0.11904761904761904,0.1326530612244898,0.14625850340136054,0.1564625850340136,0.16326530612244897,0.17006802721088435,0.17687074829931973,0.17687074829931973,0.1836734693877551,0.19387755102040816,0.20408163265306123,0.2108843537414966,0.22108843537414966,0.23469387755102042,0.24829931972789115,0.2653061224489796,0.282312925170068,0.29931972789115646,0.3129251700680272,0.32653061224489793,0.336734693877551,0.3469387755102041,0.35374149659863946,0.36054421768707484,0.3707482993197279,0.37755102040816324,0.38095238095238093,0.391156462585034,0.3945578231292517,0.40476190476190477,0.41156462585034015,0.4217687074829932,0.42517006802721086,0.43537414965986393,0.4489795918367347,0.4557823129251701,0.46598639455782315,0.47959183673469385,0.4965986394557823,0.5102040816326531,0.5272108843537415,0.54421768707483,0.564625850340136,0.5816326530612245,0.6020408163265306,0.6224489795918368,0.6394557823129252,0.6564625850340136,0.6768707482993197,0.6904761904761905,0.7040816326530612,0.717687074829932,0.7278911564625851,0.7380952380952381,0.7448979591836735,0.7517006802721088,0.7585034013605442,0.7619047619047619,0.7619047619047619,0.7653061224489796,0.7653061224489796,0.7687074829931972,0.7687074829931972,0.7721088435374149,0.7721088435374149,0.7721088435374149,0.7721088435374149,0.7721088435374149,0.7721088435374149,0.7721088435374149,0.7721088435374149,0.7721088435374149,0.7755102040816326,0.782312925170068,0.7891156462585034,0.8061224489795918,0.8197278911564626,0.8333333333333334,0.8503401360544217,0.8673469387755102,0.8843537414965986,0.891156462585034,0.9013605442176871,0.9047619047619048,0.9047619047619048,0.9047619047619048,0.9081632653061225,0.9081632653061225,0.9081632653061225,0.9047619047619048,0.8979591836734694,0.8843537414965986,0.8775510204081632,0.8639455782312925,0.8469387755102041,0.8197278911564626,0.7993197278911565,0.7755102040816326,0.7551020408163265,0.7346938775510204,0.7108843537414966,0.6972789115646258,0.6904761904761905,0.6802721088435374,0.6802721088435374,0.6802721088435374,0.6802721088435374,0.6768707482993197,0.6836734693877551,0.6938775510204082,0.717687074829932,0.7448979591836735,0.7755102040816326,0.8163265306122449,0.8435374149659864,0.8775510204081632,0.8979591836734694,0.9013605442176871,0.9047619047619048,0.8979591836734694,0.8843537414965986,0.8469387755102041,0.7925170068027211,0.7448979591836735,0.6972789115646258,0.6530612244897959,0.6122448979591837,0.5816326530612245,0.5544217687074829,0.5306122448979592,0.5102040816326531,0.4897959183673469,0.46938775510204084,0.4489795918367347,0.41836734693877553,0.3945578231292517,0.38095238095238093,0.3673469387755102,0.35374149659863946,0.3469387755102041,0.3435374149659864,0.3401360544217687,0.3401360544217687,0.3401360544217687,0.3401360544217687,0.3435374149659864,0.3435374149659864,0.3469387755102041,0.3469387755102041,0.35034013605442177,0.35034013605442177,0.35034013605442177,0.35374149659863946,0.35714285714285715,0.36394557823129253,0.3673469387755102,0.3707482993197279,0.3741496598639456,0.3741496598639456,0.3741496598639456,0.3741496598639456,0.3707482993197279,0.36394557823129253,0.35374149659863946,0.3401360544217687,0.32653061224489793,0.3163265306122449,0.30612244897959184,0.29931972789115646,0.2925170068027211,0.2925170068027211,0.2925170068027211,0.2925170068027211,0.2925170068027211,0.2925170068027211,0.2925170068027211,0.2925170068027211,0.29931972789115646,0.30272108843537415,0.3129251700680272,0.3231292517006803,0.3299319727891156,0.3401360544217687,0.35034013605442177,0.35714285714285715,0.36394557823129253,0.3673469387755102,0.3673469387755102,0.3673469387755102,0.3673469387755102,0.3673469387755102,0.3673469387755102,0.3673469387755102,0.3673469387755102,0.3673469387755102,0.3673469387755102,0.3673469387755102,0.3673469387755102,0.3673469387755102,0.3673469387755102,0.3673469387755102,0.3673469387755102,0.3673469387755102,0.3673469387755102,0.3673469387755102,0.3673469387755102,0.3673469387755102,0.3673469387755102,0.3673469387755102,0.3673469387755102,0.3673469387755102,0.3673469387755102,0.3673469387755102,0.3673469387755102,0.3673469387755102,0.3673469387755102,0.3673469387755102,0.3673469387755102,0.3673469387755102,0.3673469387755102,0.3673469387755102,0.3673469387755102,0.3673469387755102,0.3673469387755102,0.3673469387755102,0.3673469387755102,0.3673469387755102,0.3673469387755102,0.3673469387755102,0.3673469387755102,0.3673469387755102,0.3673469387755102,0.3673469387755102,0.3673469387755102,0.3673469387755102,0.3673469387755102,0.3673469387755102,0.3673469387755102,0.3673469387755102,0.3673469387755102,0.3673469387755102,0.3673469387755102,0.3707482993197279,0.3707482993197279,0.3707482993197279,0.3741496598639456,0.37755102040816324,0.37755102040816324,0.38095238095238093,0.3843537414965986,0.3843537414965986,0.3877551020408163,0.391156462585034,0.3945578231292517,0.3979591836734694,0.4013605442176871,0.40476190476190477,0.40476190476190477,0.40816326530612246,0.40816326530612246,0.40816326530612246,0.40816326530612246,0.40816326530612246,0.40816326530612246,0.41156462585034015,0.41496598639455784,0.41496598639455784,0.41496598639455784,0.41496598639455784,0.41836734693877553,0.41836734693877553,0.41836734693877553,0.4217687074829932,0.4217687074829932,0.4217687074829932,0.4217687074829932,0.4217687074829932,0.4217687074829932,0.4217687074829932,0.4217687074829932,0.4217687074829932,0.4217687074829932,0.4217687074829932,0.4217687074829932,0.4217687074829932,0.4217687074829932,0.41156462585034015,0.40816326530612246,0.40476190476190477,0.3945578231292517,0.3877551020408163,0.37755102040816324,0.3673469387755102,0.35714285714285715,0.35034013605442177,0.3401360544217687,0.336734693877551,0.3299319727891156,0.3231292517006803,0.3197278911564626,0.3129251700680272,0.29931972789115646,0.2925170068027211,0.282312925170068,0.272108843537415,0.2585034013605442,0.24489795918367346,0.23469387755102042,0.22108843537414966,0.2108843537414966,0.19727891156462585,0.19047619047619047,0.18027210884353742,0.17346938775510204,0.17006802721088435,0.16326530612244897,0.16326530612244897,0.16326530612244897,0.16326530612244897,0.16326530612244897,0.16326530612244897,0.16326530612244897,0.16326530612244897,0.16326530612244897,0.16326530612244897,0.16326530612244897,0.16326530612244897,0.16326530612244897,0.16326530612244897,0.16326530612244897,0.16326530612244897,0.16326530612244897,0.16666666666666666,0.18027210884353742,0.19387755102040816,0.21768707482993196,0.25170068027210885,0.2857142857142857,0.32653061224489793,0.3673469387755102,0.41496598639455784,0.47619047619047616,0.5136054421768708,0.54421768707483,0.5816326530612245,0.6122448979591837,0.6292517006802721,0.6462585034013606,0.6564625850340136,0.6632653061224489,0.6632653061224489,0.6632653061224489,0.6598639455782312,0.6530612244897959,0.6530612244897959,0.6496598639455783,0.6462585034013606,0.6394557823129252,0.6394557823129252,0.6360544217687075,0.6326530612244898,0.6292517006802721,0.6258503401360545,0.6258503401360545,0.6258503401360545,0.6258503401360545,0.6258503401360545,0.6258503401360545,0.6258503401360545,0.6258503401360545,0.6258503401360545,0.6258503401360545,0.6258503401360545,0.6258503401360545,0.6258503401360545,0.6258503401360545,0.6258503401360545,0.6258503401360545,0.6258503401360545,0.6258503401360545,0.6258503401360545,0.6258503401360545,0.6258503401360545,0.6258503401360545,0.6258503401360545,0.6258503401360545,0.6258503401360545,0.6224489795918368,0.6224489795918368,0.6224489795918368,0.6190476190476191,0.6190476190476191,0.6190476190476191,0.6156462585034014,0.6156462585034014,0.6122448979591837,0.6122448979591837,0.6122448979591837,0.6122448979591837,0.6122448979591837,0.6122448979591837,0.6122448979591837,0.6122448979591837,0.6122448979591837,0.6122448979591837,0.6122448979591837,0.6122448979591837,0.6122448979591837,0.6122448979591837,0.6122448979591837,0.6122448979591837,0.6122448979591837,0.6122448979591837,0.6122448979591837,0.6122448979591837,0.6122448979591837,0.608843537414966,0.608843537414966,0.608843537414966,0.608843537414966,0.608843537414966,0.608843537414966,0.6054421768707483,0.6054421768707483,0.6054421768707483,0.6020408163265306,0.6020408163265306,0.5986394557823129,0.5986394557823129,0.5986394557823129,0.5986394557823129,0.5986394557823129,0.5986394557823129,0.5986394557823129,0.5986394557823129,0.5986394557823129,0.5986394557823129,0.6054421768707483,0.608843537414966,0.6156462585034014,0.6258503401360545,0.6326530612244898,0.6428571428571429,0.6530612244897959,0.6666666666666666,0.673469387755102,0.6802721088435374,0.6836734693877551,0.6904761904761905,0.6938775510204082,0.6938775510204082,0.6938775510204082,0.6938775510204082,0.6938775510204082,0.6938775510204082,0.6938775510204082,0.6938775510204082,0.6938775510204082,0.6938775510204082,0.6938775510204082,0.6938775510204082,0.6938775510204082,0.6938775510204082,0.6938775510204082,0.6938775510204082,0.6938775510204082,0.6938775510204082,0.6938775510204082,0.6972789115646258,0.7006802721088435,0.7040816326530612,0.7108843537414966,0.7142857142857143,0.7210884353741497,0.7278911564625851,0.7346938775510204,0.7346938775510204,0.7414965986394558,0.7482993197278912,0.7482993197278912,0.7517006802721088,0.7551020408163265,0.7619047619047619,0.7619047619047619,0.7653061224489796,0.7653061224489796],"y":[-3.4285714285714284,-3.4285714285714284,-3.4285714285714284,-3.4285714285714284,-3.4285714285714284,-3.4285714285714284,-3.4285714285714284,-3.4285714285714284,-3.4285714285714284,-3.4285714285714284,-3.4285714285714284,-3.4285714285714284,-3.4285714285714284,-3.4285714285714284,-3.4285714285714284,-3.4285714285714284,-3.4285714285714284,-3.4285714285714284,-3.4285714285714284,-3.4285714285714284,-3.4285714285714284,-3.4285714285714284,-3.4285714285714284,-3.4285714285714284,-3.4285714285714284,0.4666666666666667,0.45714285714285713,0.4380952380952381,0.41904761904761906,0.3904761904761905,0.37142857142857144,0.34285714285714286,0.3142857142857143,0.2761904761904762,0.24761904761904763,0.22857142857142856,0.2,0.19047619047619047,0.18095238095238095,0.1619047619047619,0.1619047619047619,0.1619047619047619,0.1619047619047619,0.1619047619047619,0.1619047619047619,0.1619047619047619,0.1619047619047619,0.1619047619047619,0.1619047619047619,0.17142857142857143,0.18095238095238095,0.18095238095238095,0.19047619047619047,0.2,0.2,0.2,0.2,0.2,0.2,0.2,0.2,0.2,0.2,0.2,0.2,0.2,0.2,0.2,0.2,0.2,0.2,0.2,0.2,0.2,0.2,0.2,0.2,0.2,0.2,0.2,0.2,0.2,0.2,0.2,0.2,0.2,0.2,0.2,0.2,0.2,0.2,0.2,0.2,0.2,0.2,0.2,0.2,0.2,0.2,0.2,0.2,0.2,0.2,0.2,0.2,0.2,0.2,0.21904761904761905,0.24761904761904763,0.29523809523809524,0.3333333333333333,0.38095238095238093,0.42857142857142855,0.4666666666666667,0.5047619047619047,0.5428571428571428,0.580952380952381,0.6095238095238096,0.638095238095238,0.6476190476190476,0.6571428571428571,0.6571428571428571,0.6571428571428571,0.6571428571428571,0.6571428571428571,0.6571428571428571,0.6571428571428571,0.6571428571428571,0.6571428571428571,0.6571428571428571,0.6476190476190476,0.6476190476190476,0.6476190476190476,0.6285714285714286,0.6285714285714286,0.6095238095238096,0.6,0.580952380952381,0.5714285714285714,0.5523809523809524,0.5428571428571428,0.5428571428571428,0.5428571428571428,0.5333333333333333,0.5333333333333333,0.5333333333333333,0.5238095238095238,0.5238095238095238,0.5142857142857142,0.5142857142857142,0.5142857142857142,0.5142857142857142,0.5142857142857142,0.5142857142857142,0.5142857142857142,0.5142857142857142,0.5142857142857142,0.5142857142857142,0.5142857142857142,0.5142857142857142,0.5142857142857142,0.5142857142857142,0.5142857142857142,0.5142857142857142,0.5238095238095238,0.5333333333333333,0.5428571428571428,0.5714285714285714,0.6095238095238096,0.6285714285714286,0.6666666666666666,0.7142857142857143,0.7523809523809524,0.8,0.8285714285714286,0.8476190476190476,0.8666666666666667,0.8761904761904762,0.8857142857142857,0.8857142857142857,0.8857142857142857,0.8857142857142857,0.8857142857142857,0.8857142857142857,0.8857142857142857,0.8857142857142857,0.8857142857142857,0.8857142857142857,0.8857142857142857,0.8857142857142857,0.8857142857142857,0.8857142857142857,0.8857142857142857,0.8857142857142857,0.8857142857142857,0.8857142857142857,0.8857142857142857,0.8857142857142857,0.8857142857142857,0.8857142857142857,0.8857142857142857,0.8666666666666667,0.8476190476190476,0.819047619047619,0.780952380952381,0.7428571428571429,0.6857142857142857,0.6190476190476191,0.5523809523809524,0.4857142857142857,0.41904761904761906,0.3619047619047619,0.3142857142857143,0.26666666666666666,0.22857142857142856,0.19047619047619047,0.1619047619047619,0.1523809523809524,0.13333333333333333,0.13333333333333333,0.12380952380952381,0.12380952380952381,0.11428571428571428,0.10476190476190476,0.10476190476190476,0.10476190476190476,0.10476190476190476,0.10476190476190476,0.10476190476190476,0.10476190476190476,0.09523809523809523,0.09523809523809523,0.09523809523809523,0.09523809523809523,0.09523809523809523,0.09523809523809523,0.09523809523809523,0.09523809523809523,0.09523809523809523,0.09523809523809523,0.09523809523809523,0.09523809523809523,0.09523809523809523,0.08571428571428572,0.08571428571428572,0.0761904761904762,0.06666666666666667,0.05714285714285714,0.05714285714285714,0.05714285714285714,0.05714285714285714,0.05714285714285714,0.05714285714285714,0.05714285714285714,0.05714285714285714,0.05714285714285714,0.05714285714285714,0.05714285714285714,0.05714285714285714,0.05714285714285714,0.05714285714285714,0.05714285714285714,0.05714285714285714,0.05714285714285714,0.05714285714285714,0.05714285714285714,0.05714285714285714,0.05714285714285714,0.047619047619047616,0.047619047619047616,0.047619047619047616,0.047619047619047616,0.047619047619047616,0.047619047619047616,0.047619047619047616,0.047619047619047616,0.047619047619047616,0.047619047619047616,0.047619047619047616,0.047619047619047616,0.047619047619047616,0.047619047619047616,0.047619047619047616,0.047619047619047616,0.047619047619047616,0.047619047619047616,0.047619047619047616,0.047619047619047616,0.047619047619047616,0.047619047619047616,0.05714285714285714,0.08571428571428572,0.12380952380952381,0.19047619047619047,0.23809523809523808,0.3142857142857143,0.3904761904761905,0.49523809523809526,0.5714285714285714,0.6190476190476191,0.6761904761904762,0.7333333333333333,0.7619047619047619,0.7904761904761904,0.8095238095238095,0.819047619047619,0.8380952380952381,0.8476190476190476,0.8476190476190476,0.8571428571428571,0.8571428571428571,0.8666666666666667,0.8666666666666667,0.8666666666666667,0.8761904761904762,0.8761904761904762,0.8761904761904762,0.8761904761904762,0.8761904761904762,0.8761904761904762,0.8761904761904762,0.8761904761904762,0.8761904761904762,0.8761904761904762,0.8761904761904762,0.8761904761904762,0.8761904761904762,0.8761904761904762,0.8761904761904762,0.8761904761904762,0.8571428571428571,0.8476190476190476,0.8285714285714286,0.8,0.7523809523809524,0.7333333333333333,0.7142857142857143,0.6857142857142857,0.6666666666666666,0.6476190476190476,0.638095238095238,0.6190476190476191,0.6095238095238096,0.5904761904761905,0.580952380952381,0.580952380952381,0.580952380952381,0.5714285714285714,0.5619047619047619,0.5428571428571428,0.5428571428571428,0.5333333333333333,0.5333333333333333,0.5142857142857142,0.5142857142857142,0.5047619047619047,0.5047619047619047,0.49523809523809526,0.4857142857142857,0.4857142857142857,0.47619047619047616,0.47619047619047616,0.4666666666666667,0.4666666666666667,0.4666666666666667,0.4666666666666667,0.4666666666666667,0.4666666666666667,0.4666666666666667,0.4666666666666667,0.4666666666666667,0.4666666666666667,0.4666666666666667,0.4666666666666667,0.4666666666666667,0.4666666666666667,0.4666666666666667,0.4666666666666667,0.4666666666666667,0.4666666666666667,0.4666666666666667,0.4666666666666667,0.4666666666666667,0.4666666666666667,0.4666666666666667,0.4666666666666667,0.4666666666666667,0.4666666666666667,0.4666666666666667,0.4666666666666667,0.4666666666666667,0.4666666666666667,0.4666666666666667,0.4666666666666667,0.4666666666666667,0.4666666666666667,0.4666666666666667,0.4666666666666667,0.4666666666666667,0.4666666666666667,0.4666666666666667,0.4666666666666667,0.47619047619047616,0.47619047619047616,0.4857142857142857,0.49523809523809526,0.49523809523809526,0.49523809523809526,0.49523809523809526,0.4857142857142857,0.4666666666666667,0.44761904761904764,0.42857142857142855,0.4,0.38095238095238093,0.3523809523809524,0.3333333333333333,0.3142857142857143,0.29523809523809524,0.2761904761904762,0.2571428571428571,0.23809523809523808,0.22857142857142856,0.21904761904761905,0.2,0.2,0.2,0.19047619047619047,0.19047619047619047,0.19047619047619047,0.19047619047619047,0.19047619047619047,0.19047619047619047,0.19047619047619047,0.18095238095238095,0.1619047619047619,0.1619047619047619,0.1523809523809524,0.1523809523809524,0.13333333333333333,0.12380952380952381,0.12380952380952381,0.11428571428571428,0.11428571428571428,0.09523809523809523,0.08571428571428572,0.08571428571428572,0.08571428571428572,0.08571428571428572,0.08571428571428572,0.0761904761904762,0.0761904761904762,0.0761904761904762,0.0761904761904762,0.0761904761904762,0.0761904761904762,0.0761904761904762,0.0761904761904762,0.0761904761904762,0.0761904761904762,0.0761904761904762,0.0761904761904762,0.0761904761904762,0.0761904761904762,0.06666666666666667,0.06666666666666667,0.06666666666666667,0.06666666666666667,0.06666666666666667,0.06666666666666667,0.06666666666666667,0.06666666666666667,0.06666666666666667,0.06666666666666667,0.06666666666666667,0.06666666666666667,0.06666666666666667,0.06666666666666667,0.06666666666666667,0.06666666666666667,0.06666666666666667,0.06666666666666667,0.06666666666666667,0.06666666666666667,0.06666666666666667,0.06666666666666667,0.06666666666666667,0.06666666666666667,0.06666666666666667,0.06666666666666667,0.06666666666666667,0.06666666666666667,0.05714285714285714,0.05714285714285714,0.05714285714285714,0.05714285714285714,0.047619047619047616,0.047619047619047616,0.047619047619047616,0.047619047619047616,0.047619047619047616,0.047619047619047616,0.047619047619047616,0.047619047619047616,0.047619047619047616,0.047619047619047616,0.047619047619047616,0.047619047619047616,0.047619047619047616,0.047619047619047616,0.047619047619047616,0.047619047619047616,0.047619047619047616,0.047619047619047616,0.047619047619047616,0.047619047619047616,0.047619047619047616,0.047619047619047616,0.047619047619047616,0.05714285714285714,0.05714285714285714,0.06666666666666667,0.0761904761904762,0.08571428571428572,0.09523809523809523,0.10476190476190476,0.11428571428571428,0.12380952380952381,0.14285714285714285,0.1619047619047619,0.17142857142857143,0.19047619047619047,0.2,0.20952380952380953,0.22857142857142856,0.22857142857142856,0.23809523809523808,0.2571428571428571,0.2761904761904762,0.2857142857142857,0.3047619047619048,0.3142857142857143,0.3142857142857143,0.3238095238095238,0.34285714285714286,0.3523809523809524,0.3619047619047619,0.37142857142857144,0.38095238095238093,0.3904761904761905,0.3904761904761905,0.4,0.4,0.4,0.4,0.4,0.4095238095238095,0.4095238095238095,0.4095238095238095,0.4095238095238095,0.4095238095238095,0.4,0.3904761904761905,0.38095238095238093,0.37142857142857144,0.3619047619047619,0.3523809523809524,0.3523809523809524,0.3523809523809524,0.3523809523809524,0.3333333333333333,0.3142857142857143,0.29523809523809524,0.2761904761904762,0.26666666666666666,0.23809523809523808,0.22857142857142856,0.2,0.19047619047619047,0.17142857142857143,0.1619047619047619,0.1619047619047619,0.1619047619047619,0.1619047619047619,0.1619047619047619,0.1619047619047619,0.1619047619047619,0.1619047619047619,0.1619047619047619,0.1523809523809524,0.1523809523809524,0.1523809523809524,0.1523809523809524,0.1523809523809524,0.1619047619047619,0.17142857142857143,0.2,0.20952380952380953,0.23809523809523808,0.23809523809523808,0.23809523809523808,0.24761904761904763,0.24761904761904763,0.2571428571428571,0.24761904761904763,0.23809523809523808,0.22857142857142856,0.21904761904761905,0.2,0.2,0.2,0.18095238095238095,0.17142857142857143,0.1619047619047619,0.1619047619047619,0.1619047619047619,0.1523809523809524,0.14285714285714285,0.13333333333333333,0.12380952380952381,0.12380952380952381,0.12380952380952381,0.11428571428571428,0.11428571428571428,0.11428571428571428,0.11428571428571428,0.10476190476190476,0.09523809523809523,0.09523809523809523,0.08571428571428572,0.08571428571428572,0.08571428571428572,0.08571428571428572,0.0761904761904762,0.06666666666666667,0.05714285714285714,0.05714285714285714,0.05714285714285714,0.05714285714285714,0.05714285714285714,0.05714285714285714,0.05714285714285714,0.05714285714285714,0.05714285714285714,0.05714285714285714,0.06666666666666667,0.06666666666666667,0.06666666666666667,0.06666666666666667,0.06666666666666667,0.06666666666666667,0.06666666666666667,0.06666666666666667,0.06666666666666667,0.06666666666666667,0.06666666666666667,0.06666666666666667,0.0761904761904762,0.0761904761904762,0.08571428571428572,0.08571428571428572,0.11428571428571428,0.12380952380952381,0.14285714285714285,0.1523809523809524,0.1619047619047619,0.18095238095238095,0.19047619047619047,0.2,0.2,0.2,0.2,0.2,0.2,0.2,0.2,0.2,0.2,0.2,0.2,0.2,0.2,0.2,0.2,0.2,0.2,0.2,0.2,0.2,0.2,0.2,0.2,0.2,0.2,0.2,0.2,0.2,0.2,0.2,0.2,0.2,0.2,0.2,0.2,0.2,0.2,0.2,0.2,0.2,0.2,0.2,0.2,0.2,0.2,0.2,0.2,0.2,0.2,0.2,0.2,0.2,0.2,0.2,0.2,0.2,0.2,0.2,0.2,0.2,0.2,0.2,0.20952380952380953,0.21904761904761905,0.21904761904761905,0.22857142857142856,0.23809523809523808,0.23809523809523808,0.23809523809523808,0.24761904761904763,0.2571428571428571,0.26666666666666666,0.2761904761904762,0.2761904761904762,0.2761904761904762,0.29523809523809524,0.29523809523809524,0.3047619047619048,0.3142857142857143,0.3142857142857143,0.3142857142857143,0.3142857142857143,0.3142857142857143,0.3333333333333333,0.3333333333333333,0.3523809523809524,0.3523809523809524,0.3523809523809524,0.3619047619047619,0.37142857142857144,0.38095238095238093,0.3904761904761905,0.3904761904761905,0.3904761904761905,0.3904761904761905,0.4,0.4095238095238095,0.4095238095238095,0.4095238095238095,0.4095238095238095,0.4095238095238095,0.4,0.3904761904761905,0.37142857142857144,0.3523809523809524,0.3333333333333333,0.3047619047619048,0.2857142857142857,0.2571428571428571,0.23809523809523808,0.2,0.18095238095238095,0.1619047619047619,0.14285714285714285,0.12380952380952381,0.10476190476190476,0.08571428571428572,0.0761904761904762,0.05714285714285714,0.047619047619047616,0.047619047619047616,0.02857142857142857,0.01904761904761905,0.01904761904761905,0.009523809523809525,0.009523809523809525,0,0,-0.009523809523809525,-0.009523809523809525,-0.009523809523809525,-0.009523809523809525,-0.009523809523809525,-0.009523809523809525,-0.009523809523809525,-0.009523809523809525,-0.009523809523809525,-0.009523809523809525,-0.009523809523809525,-0.009523809523809525,-0.009523809523809525,-0.009523809523809525,-0.009523809523809525,-0.009523809523809525,-0.009523809523809525,-0.009523809523809525,0,0.009523809523809525,0.0380952380952381,0.06666666666666667,0.11428571428571428,0.1619047619047619,0.2,0.2761904761904762,0.3523809523809524,0.4095238095238095,0.4666666666666667,0.5142857142857142,0.5714285714285714,0.6,0.6476190476190476,0.6761904761904762,0.7047619047619048,0.7333333333333333,0.7714285714285715,0.8,0.819047619047619,0.8380952380952381,0.8476190476190476,0.8666666666666667,0.8857142857142857,0.8952380952380953,0.9142857142857143,0.9238095238095239,0.9333333333333333,0.9523809523809523,0.9523809523809523,0.9619047619047619,0.9619047619047619,0.9619047619047619,0.9619047619047619,0.9619047619047619,0.9619047619047619,0.9619047619047619,0.9619047619047619,0.9619047619047619,0.9619047619047619,0.9619047619047619,0.9619047619047619,0.9619047619047619,0.9619047619047619,0.9619047619047619,0.9619047619047619,0.9619047619047619,0.9619047619047619,0.9619047619047619,0.9619047619047619,0.9619047619047619,0.9714285714285714,0.9809523809523809,0.9904761904761905,1,1.0095238095238095,1.0285714285714285,1.0285714285714285,1.0380952380952382,1.0380952380952382,1.0380952380952382,1.0476190476190477,1.0476190476190477,1.0476190476190477,1.0571428571428572,1.0571428571428572,1.0571428571428572,1.0571428571428572,1.0571428571428572,1.0666666666666667,1.0666666666666667,1.0666666666666667,1.0666666666666667,1.0666666666666667,1.0666666666666667,1.0666666666666667,1.0666666666666667,1.0666666666666667,1.0666666666666667,1.0666666666666667,1.0666666666666667,1.0666666666666667,1.0666666666666667,1.0666666666666667,1.0761904761904761,1.0761904761904761,1.0761904761904761,1.0761904761904761,1.0761904761904761,1.0761904761904761,1.0761904761904761,1.0857142857142856,1.0857142857142856,1.0952380952380953,1.1047619047619048,1.1047619047619048,1.1142857142857143,1.1142857142857143,1.1142857142857143,1.1142857142857143,1.1238095238095238,1.1333333333333333,1.1428571428571428,1.1523809523809523,1.180952380952381,1.1904761904761905,1.2095238095238094,1.2285714285714286,1.2476190476190476,1.2666666666666666,1.2857142857142858,1.3047619047619048,1.3428571428571427,1.361904761904762,1.380952380952381,1.4,1.4190476190476191,1.4285714285714286,1.4476190476190476,1.457142857142857,1.4761904761904763,1.4857142857142858,1.4952380952380953,1.4952380952380953,1.4952380952380953,1.4952380952380953,1.4952380952380953,1.4952380952380953,1.4952380952380953,1.4952380952380953,1.4952380952380953,1.4857142857142858,1.457142857142857,1.4476190476190476,1.4190476190476191,1.3904761904761904,1.3714285714285714,1.3428571428571427,1.3047619047619048,1.2857142857142858,1.2476190476190476,1.2285714285714286,1.2095238095238094,1.1904761904761905,1.1714285714285715,1.1523809523809523,1.1333333333333333,1.1142857142857143,1.1142857142857143,1.0952380952380953,1.0761904761904761,1.0761904761904761]},"final_keyboard_state":["Z","E","R","A","B"],"num_clicks":5,"points":15,"cheat":false,"trial_type":"Hangman","trial_index":5,"time_elapsed":20673,"internal_node_id":"0.0-4.0","protocol_sum":"","subject_identifier":230,"subject_sum":[40,218,231,200,189,226,243,202,96,143,134,208,225,106,33,77,238,116,199,75,238,1,28,223,221,70,188,4,182,85,188,20],"subject_pair":115,"STUDY_ID":"669eec2e4270c76bc184a38e","PROLIFIC_PID":"661fee35973b5ff6fa3418ef","SESSION_ID":"669feaea4d38bdcd85df54ad","practice_instructions":1,"leaderboard_instructions":0,"bonus":0,"reveal_word":false,"self_rating":"2","confidence":"83"},{"view_history":"[{\"page_index\":0,\"viewing_time\":834.3999999761581},{\"page_index\":1,\"viewing_time\":797.8000000119209}]","rt":1632.5,"trial_type":"instructions","trial_index":6,"time_elapsed":22306,"internal_node_id":"0.0-5.0","protocol_sum":"","subject_identifier":230,"subject_sum":[40,218,231,200,189,226,243,202,96,143,134,208,225,106,33,77,238,116,199,75,238,1,28,223,221,70,188,4,182,85,188,20],"subject_pair":115,"STUDY_ID":"669eec2e4270c76bc184a38e","PROLIFIC_PID":"661fee35973b5ff6fa3418ef","SESSION_ID":"669feaea4d38bdcd85df54ad","practice_instructions":1,"leaderboard_instructions":0,"bonus":0,"reveal_word":false,"self_rating":"2","confidence":"83"},{"rt":9055.699999988079,"responses":"{\"Q0\":\"...from <b>a previous session</b> that is not part of the upcoming tournament.\"}","question_order":"[0]","trial_type":"survey-multi-choice","trial_index":7,"time_elapsed":31362,"internal_node_id":"0.0-6.0","protocol_sum":"","subject_identifier":230,"subject_sum":[40,218,231,200,189,226,243,202,96,143,134,208,225,106,33,77,238,116,199,75,238,1,28,223,221,70,188,4,182,85,188,20],"subject_pair":115,"correct":true,"test_part":"multichoice_leaderboard","STUDY_ID":"669eec2e4270c76bc184a38e","PROLIFIC_PID":"661fee35973b5ff6fa3418ef","SESSION_ID":"669feaea4d38bdcd85df54ad","practice_instructions":1,"leaderboard_instructions":0,"bonus":0,"reveal_word":false,"self_rating":"2","confidence":"83"},{"view_history":"[{\"page_index\":0,\"viewing_time\":638.8000000119209}]","rt":639,"trial_type":"instructions","trial_index":8,"time_elapsed":32001,"internal_node_id":"0.0-8.0","protocol_sum":"","subject_identifier":230,"subject_sum":[40,218,231,200,189,226,243,202,96,143,134,208,225,106,33,77,238,116,199,75,238,1,28,223,221,70,188,4,182,85,188,20],"subject_pair":115,"STUDY_ID":"669eec2e4270c76bc184a38e","PROLIFIC_PID":"661fee35973b5ff6fa3418ef","SESSION_ID":"669feaea4d38bdcd85df54ad","practice_instructions":1,"leaderboard_instructions":0,"bonus":0,"reveal_word":false,"self_rating":"2","confidence":"83"},{"rt":1187.7999999523163,"responses":"{\"Q0\":\"...players' leaderboard position (in terms of <b>points</b>) in an <b>upcoming tournament.</b>\"}","question_order":"[0]","trial_type":"survey-multi-choice","trial_index":9,"time_elapsed":33190,"internal_node_id":"0.0-9.0","protocol_sum":"","subject_identifier":230,"subject_sum":[40,218,231,200,189,226,243,202,96,143,134,208,225,106,33,77,238,116,199,75,238,1,28,223,221,70,188,4,182,85,188,20],"subject_pair":115,"correct":true,"test_part":"multichoice_tournament","STUDY_ID":"669eec2e4270c76bc184a38e","PROLIFIC_PID":"661fee35973b5ff6fa3418ef","SESSION_ID":"669feaea4d38bdcd85df54ad","practice_instructions":1,"leaderboard_instructions":0,"bonus":0,"reveal_word":false,"self_rating":"2","confidence":"83"},{"view_history":"[{\"page_index\":0,\"viewing_time\":759.5}]","rt":759.6000000238419,"trial_type":"instructions","trial_index":10,"time_elapsed":33950,"internal_node_id":"0.0-11.0","protocol_sum":"","subject_identifier":230,"subject_sum":[40,218,231,200,189,226,243,202,96,143,134,208,225,106,33,77,238,116,199,75,238,1,28,223,221,70,188,4,182,85,188,20],"subject_pair":115,"STUDY_ID":"669eec2e4270c76bc184a38e","PROLIFIC_PID":"661fee35973b5ff6fa3418ef","SESSION_ID":"669feaea4d38bdcd85df54ad","practice_instructions":1,"leaderboard_instructions":0,"bonus":0,"reveal_word":false,"self_rating":"2","confidence":"83"},{"view_history":"[{\"page_index\":0,\"viewing_time\":656}]","rt":656.0999999642372,"trial_type":"instructions","trial_index":11,"time_elapsed":34606,"internal_node_id":"0.0-12.0-0.0","protocol_sum":"","subject_identifier":230,"subject_sum":[40,218,231,200,189,226,243,202,96,143,134,208,225,106,33,77,238,116,199,75,238,1,28,223,221,70,188,4,182,85,188,20],"subject_pair":115,"STUDY_ID":"669eec2e4270c76bc184a38e","PROLIFIC_PID":"661fee35973b5ff6fa3418ef","SESSION_ID":"669feaea4d38bdcd85df54ad","practice_instructions":1,"leaderboard_instructions":0,"bonus":0,"reveal_word":false,"self_rating":"2","confidence":"83"},{"word":"KENTUCKY","click_log":{"letter":["","M","N","T","K","Y","E","U","C"],"t":[0,8644,12758,24301.69999998808,27174.30000001192,29477,31052.900000035763,32852.30000001192,34616.30000001192],"hit":[null,0,1,1,2,1,1,1,1],"asked":["","M","MN","MNT","MNTK","MNTKY","MNTKYE","MNTKYEU","MNTKYEUC"],"word_state":["________","________","__N_____","__NT____","K_NT__K_","K_NT__KY","KENT__KY","KENTU_KY","KENTUCKY"]},"hover_log":{"letter":["?","?","?","?","?","?","?","?","?","?","?","?","?","?","?","?","?","?","?","?","?","?","?","?","?","?","?","?","?","?","?","?","?","?","?","?","?","?","?","?","?","?","?","?","?","?","?","?","?","?","?","?","?","?","?","?","?","?","?","?","?","?","?","?","?","?","?","?","?","?","?","?","?","?","?","?","?","?","?","?","?","?","?","?","?","?","?","?","?","?","?","?","?","?","?","?","?","?","?","?","?","?","?","?","?","?","?","?","?","?","?","?","?","?","?","?","?","?","?","?","?","?","?","?","?","?","?","?","?","?","?","?","?","?","?","?","?","?","?","?","?","?","?","?","?","?","?","?","?","?","?","?","?","?","?","?","?","?","?","?","?","?","?","?","?","?","?","?","?","?","?","?","?","?","?","?","?","?","?","?","?","?","?","?","?","?","?","?","?","?","?","?","?","?","?","?","?","?","?","?","?","?","?","?","?","?","?","?","?","?","?","?","?","?","?","?","?","?","?","?","?","?","?","?","?","?","?","?","?","?","?","?","?","?","?","?","?","?","?","?","?","?","?","?","?","?","?","?","?","?","?","?","?","?","?","?","?","?","?","?","?","?","?","?","?","?","?","?","?","?","?","?","?","?","?","?","?","?","?","?","?","?","?","?","?","?","?","?","?","?","?","?","?","?","?","?","?","?","?","?","?","?","?","?","?","?","?","?","?","?","?","?","?","?","?","?","?","?","?","?","?","?","?","?","?","?","?","?","?","?","?","?","?","?","?","?","?","?","?","?","?","?","?","?","?","?","?","?","?","?","?","?","?","?","?","?","?","?","?","?","?","?","?","?","?","?","?","?","?","?","?","?","?","?","?","?","?","?","?","?","?","?","?","?","?","?","?","?","?","?","?","?","?","?","?","?","?","?","?","?","?","?","?","?","?","?","?","?","?","?","?","?","?","?","?","?","?","?","?","?","?","?","?","?","?","?","?","?","?","?","?","?","?","?","?","?","?","?","?","?","?","?","?","?","?","?","?","?","?","?","?","?","?","?","?","?","?","?","?","?","?","?","?","?","?","?","?","?","?","?","?","?","?","?","?","?","?","?","?","?","?","?","?","?","?","?","?","?","?","?","?","?","?","?","?","?","?","?","?","?","?","?","?","?","?","?","?","?","?","?","?","?","?","?","?","?","?","?","?","?","?","?","?","?","?","?","?","?","?","?","?","?","?","?","?","?","?","?","?","?","?","?","?","?","?","?","?","?","?","?","?","?","?","?","?","?","?","?","?","?","?","?","?","?","?","?","?","?","?","?","?","?","?","?","?","?","?","?","?","?","?","?","?","?","?","?","?","?","?","?","S","?","?","?","?","?","?","?","?","?","?","?","?","?","?","?","?","?","?","?","?","?","?","?","?","?","S","?","?","?","?","?","?","?","?","?","?","?","?","?","?","?","?","?","?","?","?","?","?","?","?","?","S","?","?","?","?","?","?","?","?","?","?","?","?","?","?","?","?","?","?","?","?","?","?","?","?","?","?","?","?","?","?","?","?","?","?","?","?","?","?","?","?","?","?","?","?","?","?","?","?","?","?","?","?","?","?","?","?","?","?","?","?","?","?","?","?","?","?","?","?","?","?","?","?","?","?","?","?","?","?","?","?","?","?","?","?","?","?","?","?","?","?","?","?","?","?","?","?","?","?","?","?","?","?","?","?","?","?","?","?","?","?","?","?","?","?","?","?","?","?","?","?","?","?","?","?","?","?","?","?","?","?","?","?","?","?","?","?","?","?","?","?","?","?","?","?","?","?","?","?","?","?","?","?","?","?","?","?","?","?","?","?","?","?","?","?","?","?","?","?","?","?","?","?","?","?","?","?","?","?","?","?","?","?","?","?","?","?","?","?","?","?","?","?","?","?","?","?","?","?","?","?","?","?","?","?","?","?","?","?","?","?","?","?","?","?","?","?","?","?","?","?","?","?","?","?","?","?","?","?","?","?","?","?","?","?","?","?","?","?","?","?","?","?","?","?","?","?","?","?","?","?","?","?","?","?","?","?","?","?","?","?","?","?","?","?","?","?","?","?","?","?","?","?","?","?","?","?","?","?","?","?","?","?","?","?","?","?","?","?","?","?","?","?","?","?","?","?","?","?","?","?","?","?","?","?","?","?","?","?","?","?","?","?","?","?","?","?","?","?","?","?","?","?","?","?","?","?","?","?","?","?","?","?","?","?","?","?","?","?","?","?","?","?","?","?","?","?","?","?","?","?","?","?","?","?","?","?","L","?","?","?","?","?","?","?","?","?","?","?","?","?","?","?","?","?","?","?","?","?","?","?","?","?","L","?","?","?","?","?","?","?","?","?","?","?","?","?","?","?","?","?","?","?","?","?","?","?","?","?","L","?","?","?","?","?","?","?","?","?","?","?","?","?","?","?","?","?","?","?","?","?","?","?","?","?","L","?","?","?","?","?","?","?","?","?","?","?","?","?","?","?","?","?","?","?","?","?","?","?","?","?","L","?","?","?","?","?","?","?","?","?","?","?","?","?","?","?","?","?","?","?","?","?","?","?","?","?","L","?","?","?","?","?","?","?","?","?","?","?","?","?","?","?","?","?","?","?","?","?","?","?","?","?","L","?","?","?","?","?","?","?","?","?","?","?","?","?","?","?","?","?","?","?","?","?","?","?","?","?","L","?","?","?","?","?","?","?","?","?","?","?","?","?","?","?","?","?","?","?","?","?","?","?","?","?","L","?","?","?","?","?","?","?","?","?","?","?","?","?","?","?","?","?","?","?","?","?","?","?","?","?","L","?","?","?","?","?","?","?","?","?","?","?","?","?","?","?","?","?","?","?","?","?","?","?","?","?","L","?","?","?","?","?","?","?","?","?","?","?","?","?","?","?","?","?","?","?","?","?","?","?","?","?","?","?","?","?","?","?","?","?","?","?","?","?","?","?","?","?","?","?","?","?","?","?","?","?","?","?","?","?","?","?","?","?","?","?","?","?","?","?","?","?","?","?","?","?","?","?","?","?","?","?","?","?","?","?","?","?","?","?","?","?","?","?","?","?","?","?","?","?","?","?","?","?","?","?","?","?","?","?","?","?","?","?","?","?","?","?","?","?","?","?","?","?","?","?","?","?","?","?","?","?","?","?","?","?","?","?","?","?","?","?","?","?","?","?","?","?","?","?","?","?","?","?","?","?","?","?","?","?","?","?","?","?","?","?","?","?","?","?","?","?","?","?","?","?","?","?","?","?","?","?","?","?","?","?","?","?","?","?","?","?","?","?","?","?","?","?","?","?","?","?","?","?","?","?","?","?","?","?","?","?","?","?","?","?","?","?","?","?","?","?","?","?","?","?","?","?","?","?","?","?","?","?","?","?","?","?","?","?","?","?","?","?","?","?","?","?","?","?","?","?","?","?","?","?","?","?","?","?","?","?","?","?","?","?","?","?","?","?","?","?","?","?","?","?","?","?","?","?","?","?","?","?","?","?","?","?","?","?","?","?","?","?","?","?","?","?","?","?","?","?","?","?","?","?","?","?","?","?","?","?","?","?","?","?","?","?","?","?","?","?","?","?","?","?","?","?","?","?","?","?","?","?","?","?","?","?","?","?","?","?","?","?","?","?","?","?","?","?","?","?","?","?","?","?","?","?","?","?","?","?","?","?","?","?","?","?","?","?","?","?","?","?","?","?","?","?","?","?","?","?","?","?","?","?","?","?","?","?","?","?","?","?","?","?","?","?","?","?","?","?","?","?","?","?","?","?","?","?","?","?","?","?","?","?","?","?","?","?","?","?","?","?","?","?","?","?","?","?","?","?","?","?","?","?","?","?","?","?","?","?","?","?","?","?","?","?","?","?","?","?","?","?","?","?","?","?","?","?","?","?","?","?","?","?","?","?","?","?","?","?","?","?","?","?","?","?","?","?","?","?","?","?","?","?","?","?","?","?","?","?","?","?","?","?","?","?","?","?","?","?","?","?","?","?","?","?","?","?","?","?","?","?","?","?","?","?","?","?","?","?","?","?","?","?","?","?","?","?","?","?","?","?","?","?","?","?","?","?","?","?","?","?","?","?","?","?","?","?","?","?","?","?","?","?","?","?","?","?","?","?","?","?","?","?","?","?","?","?","?","?","?","?","?","?","?","?","?","?","?","?","?","?","?","?","?","?","?","?","?","?","?","?","?","?","?","?","?","?","?","?","?","?","?","?","?","?","?","?","?","?","?","?","?","?","?","?","?","?","?","?","?","?","?","?","?","?","?","?","?","?","?","?","?","?","?","?","?","?","?","?","?","?","?","?","?","?","?","?","?","?","?","?","?","?","?","?","?","?","?","?","?","?","?","?","?","?","?","?","?","?","?","?","?","?","?","?","?","?","?","?","?","?","?","?","?","?","?","?","?","?","?","?","?","?","?","?","?","?","?","?","?","?","?","?","?","?","?","?","?","?","?","?","?","?","?","?","?","?","?","?","?","?","?","?","?","?","?","?","?","?","?","?","?","?","?","?","?","?","?","?","?","?","?","?","?","?","?","?","?","?","?","?","?","?","?","?","?","?","?","?","?","?","?","?","?","?","?","?","?","?","?","?","?","?","?","?","?","?","?","?","?","?","?","?","?","?","?","?","?","?","?","?","?","?","?","?","?","?","?","?","?","?","?","?","?","?","?","?","?","?","?","?","?","?","?","?","?","?","?","?","?","?","?","?","?","?","?","?","?","?","?","?","?","?","?","?","?","?","?","?","?","?","?","?","?","?","?","?","?","?","?","?","?","?","?","?","?","?","?","?","?","?","?","?","?","?","?","?","?","?","?","?","?","?","?","?","?","?","?","?","?","?","?","?","?","?","?","?","?","?","?","?","?","?","?","?","?","?","?","?","?","?","?","?","?","?","?","?","?","?","?","?","?","?","?","?","?","?","?","?","?","?","?","?","?","?","?","?","?","?","?","?","?","?","?","?","?","?","?","?","?","?","?","?","?","?","?","?","?","?","?","?","?","?","?","?","?","?","?","?","?","?","?","?","?","?","?","?","?","?","?","?","?","?","?","?","?","?","?","?","?","?","?","?","?","?","?","?","?","?","?","?","?","?","?","?","?","?","?","?","?","?","?","?","?","?","?","?","?","?","?","?","?","?","?","?","?","?","?","?","?","?","?","?","?","?","?","?","?","?","?","?","?","?","?","?","?","?","?","?","?","?","?","?","?","?","?","?","?","?","?","?","?","?","?","?","?","?","?","?","?","?","?","?","?","?","?","?","?","?","?","?","?","?","?","?","?","?","?","?","?","?","?","?","?","?","?","?","?","?","?","?","?","?","?","?","?","?","?","?","?","?","?","?","?","?","?","?","?","?","?","?","?","?","?","?","?","?","?","?","?","?","?","?","?","?","?","?","?","?","?","?","?","?","?","?","?","?","?","?","?","?","?","?","?","?","?","?","?","?","?","?","?","?","?","?","?","?","?","?","?","?","?","?","?","?","?","?","?","?","?","?","?","?","?","?","?","?","?","?","?","?","?","?","?","?","?","?","?","?","?","?","?","?","?","?","?","?","?","?","?","?","?","?","?","?","?","?","?","?","?","?","?","?","?","?","?","?","?","?","?","?","?","?","?","?","?","?","?","?","?","?","?","?","?","?","?","?","?","?","?","?","?","?","?","?","?","?","?","?","?","?","?","?","?","?","?","?","?","?","?","?","?","?","?","?","?","?","?","?","?","?","?","?","?","?","?","?","?","?","?","?","?","?","?","?","?","?","?","?","?","?","?","?","?","?","?","?","?","?","?","?","?","?","?","?","?","?","?","?","?","?","?","?","?","?","?","?","?","?","?","?","?","?","?","?","?","?","?","?","?","?","?","?","?","?","?","?","?","?","?","?","?","?","?","?","?","?","?","?","?","?","?","?","?","?","?","?","?","?","?","?","?","?","?","?","?","?","?","?","?","?","?","?","?","?","?","?","?","?","?","?","?","?","?","?","?","?","?","?","?","?","?","?","?","?","?","?","?","?","?","?","?","?","?","?","?","?","?","?","?","?","?","?","?","?","?","?","?","?","?","?","?","?","?","?","?","?","?","?","?","?","?","?","?","?","?","?","?","?","?","?","?","?","?","?","?","?","?","?","?","?","?","?","?","?","?","?","?","?","?","?","?","?","?","?","?","?","?","?","?","?","?","?","?","?","?","?","?","?","?","?","?","?","?","?","?","?","?","?","?","?","?","?","?","?","?","?","?","?","?","?","?","?","?","?","?","?","?","?","?","?","?","?","?","?","?","?","?","?","?","?","?","?","?","?","?","?","?","?","?","?","?","?","?","?","?","?","?","?","?","?","?","?","?","?","?","?","?","?","?","?","?","?","?","?","?","?","?","?","?","?","?","?","?","?","?","?","?","?","?","?","?","?","?","?","?","?","?","?","?","?","?","?","?","?","?","?","?","?","?","?","?","?","?","?","?","?","?","?","?","?","?","?","?","?","?","?","?","?","?","?","?","?","?","?","?","?","?","?","?","?","?","?","?","?","?","?","?","?","?","?","?","?","?","?","?","?","?","?","?","?","?","?","?","?","?","?","?","?","?","?","?","?","?","?","?","?","?","?","?","?","?","?","?","?","?","?","?","?","?","?","?","?","?","?","?","?","?","?","?","?","?","?","?","?","?","?","?","?","?","?","?","?","?","?","?","?","?","?","?","?","?","?","?","?","?","?","?","?","?","?","?","?","?","?","?","?","?","?","?","?","?","?","?","?","?","?","?","?","?","?","?","?","?","?","?","?","?","?","?","?","?","?","?","?","?","?","?","?","?","?","?","?","?","?","?","?","?","?","?","?","?","?","?","?","?","?","?","?","?","?","?","?","?","?","?","?","?","?","?","?","?","?","?","?","?","?","?","?","?","?","?","?","?","?","?","?","?","?","?","?","?","?","?","?","?","?","?","?","?","?","?","?","?","?","?","?","?","?","?","?","?","?","?","?","?","?","?","?","?","?","?","?","?","?","?","?","?","?","?","?","?","?","?","?","?","?","?","?","?","?","?","?","?","?","?","?","?","?","?","?","?","?","?","?","?","?","?","?","?","?","?","?","?","?","?","?","?","?","?","?","?","?","?","?","?","?","?","?","?","?","?","?","?","?","?","?","?","?","?","?","?","?","?","?","?","?","?","?","?","?","?","?","?","?","?","?","?","?","?","?","?","?","?","?","?","?","?","?","?","?","?","?","?","?","?","?","?","?","?","?","?","?","?","?","?","?","?","?","?","?","?","?","?","?","?","?","?","?","?","?","?","?","?","?","?","?","?","?","?","?","?","?","?","?","?","?","?","?","?","?","?","?","?","?","?","?","?","?","?","?","?","?","?","?","?","?","?","?","?","?","?","?","?","?","?","?","?","?","?","?","?","?","?","?","?","?","?","?","?","?","?","?","?","?","?","?","?","?","?","?","?","?","?","?","?","?","?","?","?","?","?","?","?","?","?","?","?","?","?","?","?","?","?","?","?","?","?","?","?","?","?","?","?","?","?","?","?","?","?","?","?","?","?","?","?","?","?","?","?","?","?","?","?","?","?","?","?","?","?","?","?","?","?","?","?","?","?","?","?","?","?","?","?","?","?","?","?","?","?","?","?","?","?","?","?","?","?","?","?","?","?","?","?","?","?","?","?","?","?","?","?","?","?","?","?","?","?","?","?","?","?","?","?","?","?","?","?","?","?","?","?","?","?","?","?","?","?","?","?","?","?","?","?","?","?","?","?","?","?","?","?","?","?","?","?","?","?","?","?","?","?","?","?","?","?","?","?","?","?","?","?","?","?","?","?","?","?","?","?","?","?","?","?","?","?","?","?","?","?","?","?","?","?","?","?","?","?","?","?","?","?","?","?","?","?","?","?","?","?","?","?","?","?","?","?","?","?","?","?","?","?","?","?","?","?","?","?","?","?","?","?","?","?","?","?","?","?","?","?","?","?","?","?","?","?","?","?","?","?","?","?","?","?","?","?","?","?","?","?","?","?","?","?","?","?","?","?","?","?","?","?","?","?","?","?","?","?","?","?","?","?","?","?","?","?","?","?","?","?","?","?","?","?","?","?","?","?","?","?","?","?","?","?","?","?","?","?","?","?","?","?","?","?","?","?","?","?","?","?","?","?","?","?","?","?","?","?","?","?","?","?","?","?","?","?","?","?","?","?","?","?","?","?","?","?","?","?","?","?","?","?","?","?","?","?","?","?","?","?","?","?","?","?","?","?","?","?","?","?","?","?","?","?","?","?","?","?","?","?","?","?","?","?","?","?","?","?","?","?","?","?","?","?","?","?","?","?","?","?","?","?","?","?","?","?","?","?","?","?","?","?","?","?","?","?","?","?","?","?","?","?","?","?","?","?","?","?","?","?","?","?","?","?","?","?","?","?","?","?","?","?","?","?","?","?","?","?","?","?","?","?","?","?","?","?","?","?","?","?","?","?","?","?","?","?","?","?","?","?","?","?","?","?","?","?","?","?","?","?","?","?","?","?","?","?","?","?","?","?","?","?","?","?","?","?","?","?","?","?","?","?","?","?","?","?","?","?","?","?","?","?","?","?","?","?","?","?","?","?","?","?","?","?","?","?","?","?","?","?","?","?","?","?","?","?","?","?","?","?","?","?","?","?","?","?","?","?","?","?","?","?","?","?","?","?","?","?","?","?","?","?","?","?","?","?","?","?","?","?","?","?","?","?","?","?","?","?","?","?","?","?","?","?","?","?","?","?","?","?","?","?","?","?","?","?","?","?","?","?","?","?","?","?","?","?","?","?","?","?","?","?","?","?","?","?","?","?","?","?","?","?","?","?","?","?","?","?","?","?","?","?","?","?","?","?","?","?","?","?","?","?","?","?","?","?","?","?","?","?","?","?","?","?","?","?","?","?","?","?","?","?","?","?","?","?","?","?","?","?","?","?","?","?","?","?","?","?","?","?","?","?","?","?","?","?","?","?","?","?","?","?","?","?","?","?","?","?","?","?","?","?","?","?","?","?","?","?","?","?","?","?","?","?","?","?","?","?","?","?","?","?","?","?","?","?","?","?","?","?","?","?","?","?","?","?","?","?","?","?","?","?","?","?","?","?","?","?","?","?","?","?","?","?","?","?","?","?","?","?","?","?","?","?","?","?","?","?","?","?","?","?","?","?","?","?","?","?","?","?","?","?","?","?","?","?","?","?","?","?","?","?","?","?","?","?","?","?","?","?","?","?","?","?","?","?","?","?","?","?","?","?","?","?","?","?","?","?","?","?","?","?","?","?","?","?","?","?","?","?","?","?","?","?","?","?","?","?","?","?","?","?","?","?","?","?","?","?","?","?","?","?","?","?","?","?","?","?","?","?","?","?","?","?","?","?","?","?","?","?","?","?","?","?","?","?","?","?","?","?","?","?","?","?","?","?","?","?","?","?","?","?","?","?","?","?","?","?","?","?","?","?","?","?","?","?","?","?","?","?","?","?","?","?","?","?","?","?","?","?","?","?","?","?","?","?","?","?","?","?","?","?","?","?","?","?","?","?","?","?","?","?","?","?","?","?","?","?","?","?","?","?","?","?","?","?","?","?","?","?","?","?","?","?","?","?","?","?","?","?","?","?","?","?","?","?","?","?","?","?","?","?","?","?","?","?","?","?","?","?","?","?","?","?","?","?","?","?","?","?","?","?","?","?","?","?","?","?","?","?","?","?","?","?","?","?","?","?","?","?","?","?","?","?","?","?","?","?","?","?","?","?","?","?","?","?","?","?","?","?","?","?","?","?","?","?","?","?","?","?","?","?","?","?","?","?","?","?","?","?","?","?","?","?","?","?","?","?","?","?","?","?","?","?","?","?","?","?","?","?","?","?","?","?","?","?","?","?","?","?","?","?","?","?","?","?","?","?","?","?","?","?","?","?","?","?","?","?","?","?","?","?","?","?","?","?","?","?","?","?","?","?","?","?","?","?","?","?","?","?","?","?","?","?","?","?","?","?","?","?","?","?","?","?","?","?","?","?","?","?","?","?","?","?","?","?","?","?","?","?","?","?","?","?","?","?","?","?","?","?","?","?","?","?","?","?","?","?","?","?","?","?","?","?","?","?","?","?","?","?","?","?","?","?","?","?","?","?","?","?","?","?","?","?","?","?","?","?","?","?","?","?","?","?","?","?","?","?","?","?","?","?","?","?","?","?","?","?","?","?","?","?","?","?","?","?","?","?","?","?","?","?","?","?","?","?","?","?","?","?","?","?","?","?","?","?","?","?","?","?","?","?","?","?","?","?","?","?","?","?","?","?","?","?","?","?","?","?","?","?","?","?","?","?","?","?","?","?","?","?","?","?","?","?","?","?","?","?","?","?","?","?","?","?","?","?","?","?","?","?","?","?","?","?","?","?","?","?","?","?","?","?","?","?","?","?","?","?","?","?","?","?","?","?","?","?","?","?","?","?","?","?","?","?","?","?","?","?","?","?","?","?","?","?","?","?","?","?","?","?","?","?","?","?","?","?","?","?","?","?","?","?","?","?","?","?","?","?","?","?","?","?","?","?","?","?","?","?","?","?","?","?","?","?","?","?","?","?","?","?","?","?","?","?","?","?","?","?","?","?","?","?","?","?","?","?","?","?","?","?","?","?","?","?","?","?","?","?","?","?","?","?","?","?","?","?","?","?","?","?","?","?","?","?","?","?","?","?","?","?","?","?","?","?","?","?","?","?","?","?","?","?","?","?","?","?","?","?","?","?","?","?","?","?","?","?","?","?","?","?","?","?","?","?","?","?","?","?","?","?","?","?","?","?","?","?","?","?","?","?","?","?","?","?","?","?","?","?","?","?","?","?","?","?","?","?","?","?","?","?","?","?","?","?","?","?","?","?","?","?","?","?","?","?","?","?","?","?","?","?","?","?","?","?","?","?","?","?","?","?","?","?","?","?","?","?","?","?","?","?","?","?","?","?","?","?","?","?","?","?","?","?","?","?","?","?","?","?","?","?","?","?","?","?","?","?","?","?","?","?","?","?","?","?","?","?","?","?","?","?","?","?","?","?","?","?","?","?","?","?","?","?","?","?","?","?","?","?","?","?","?","?","?","?","?","?","?","?","?","?","?","?","?","?","?","?","?","?","?","?","?","?","?","?","?","?","?","?","?","?","?","?","?","?","?","?","?","?","?","?","?","?","?","?","?","?","?","?","?","?","?","?","?","?","?","?","?","?","?","?","?","?","?","?","?","?","?","?","?","?","?","?","?","?","?","?","?","?","?","?","?","?","?","?","?","?","?","?","?","?","?","?","?","?","?","?","?","?","?","?","?","?","?","?","?","?","?","?","?","?","?","?","?","?","?","?","?","?","?","?","?","?","?","?","?","?","?","?","?","?","?","?","?","?","?","?","?","?","?","?","?","?","?","?","?","?","?","?","?","?","?","?","?","?","?","?","?","?","?","?","?","?","?","?","?","?","?","?","?","?","?","?","?","?","?","?","?","?","?","?","?","?","?","?","?","?","?","?","?","?","?","?","?","?","?","?","?","?","?","?","?","?","?","?","?","?","?","?","?","?","?","?","?","?","?","?","?","?","?","?","?","?","?","?","?","?","?","?","?","?","?","?","?","?","?","?","?","?","?","?","?","?","?","?","?","?","?","?","?","?","?","?","?","?","?","?","?","?","?","?","?","?","?","?","?","?","?","?","?","?","?","?","?","?","?","?","?","?","?","?","?","?","?","?","?","?","?","?","?","?","?","?","?","?","?","?","?","?","?","?","?","?","?","?","?","?","?","?","?","?","?","?","?","?","?","?","?","?","?","?","?","?","?","?","?","?","?","?","?","?","?","?","?","?","?","?","?","?","?","?","?","?","?","?","?","?","?","?","?","?","?","?","?","?","?","?","?","?","?","?","?","?","?","?","?","?","?","?","?","?","?","?","?","?","?","?","?","?","?","?","?","?","?","?","?","?","?","?","?","?","?","?","?","?","?","?","?","?","?","?","?","?","?","?","?","?","?","?","?","?","?","?","?","?","?","?","?","?","?","?","?","?","?","?","?","?","?","?","?","?","?","?","?","?","?","?","?","?","?","?","?","?","?","?","?","?","?","?","?","?","?","?","?","?","?","?","?","?","?","?","?","?","?","?","?","?","?","?","?","?","?","?","?","?","?","?","?","?","?","?","?","?","?","?","?","?","?","?","?","?","?","?","?","?","?","?","?","?","?","?","?","?","?","?","?","?","?","?","?","?","?","?","?","?","?","?","?","?","?","?","?","?","?","?","?","?","?","?","?","?","?","?","?","?","?","?","?","?","?","?","?","?","?","?","?","?","?","?","?","?","?","?","?","?","?","?","?","?","?","?","?","?","?","?","?","?","?","?","?","?","?","?","?","?","?","?","?","?","?","?","?","?","?","?","?","?","?","?","?","?","?","?","?","?","?","?","?","?","?","?","?","?","?","?","?","?","?","?","?","?","?","?","?","?","?","?","?","?","?","?","?","?","?","?","?","?","?","?","?","?","?","?","?","?","?","?","?","?","?","?","?","?","?","?","?","?","?","?","?","?","?","?","?","?","?","?","?","?","?","?","?","?","?","?","?","?","?","?","?","?","?","?","?","?","?","?","?","?","?","?","?","?","?","?","?","?","?","?","?","?","?","?","?","?","?","?","?","?","?","?","?","?","?","?","?","?","?","?","?","?","?","?","?","?","?","?","?","?","?","?","?","?","?","?","?","?","?","?","?","?","?","?","?","?","?","?","?","?","?","?","?","?","?","?","?","?","?","?","?","?","?","?","?","?","?","?","?","?","?","?","?","?","?","?","?","?","?","?","?","?","?","?","?","?","?","?","?","?","?","?","?","?","?","?","?","?","?","?","?","?","?","?","?","?","?","?","?","?","?","?","?","?","?","?","?","?","?","?","?","?","?","?","?","?","?","?","?","?","?","?","?","?","?","?","?","?","?","?","?","?","?","?","?","?","?","?","?","?","?","?","?","?","?","?","?","?","?","?","?","?","?","?","?","?","?","?","?","?","?","?","?","?","?","?","?","?","?","?","?","?","?","?","?","?","?","?","?","?","?","?","?","?","?","?","?","?","?","?","?","?","?","?","?","?","?","?","?","?","?","?","?","?","?","?","?","?","?","?","?","?","?","?","?","?","?","?","?","?","?","?","?","?","?","?","?","?","?","?","?","?","?","?","?","?","?","?","?","?","?","?","?","?","?","?","?","?","?","?","?","?","?","?","?","?","?","?","?","?","?","?","?","?","?","?","?","?","?","?","?","?","?","?","?","?","?","?","?","?","?","?","?","?","?","?","?","?","?","?","?","?","?","?","?","?","?","?","?","?","?","?","?","?","?","?","?","?","?","?","?","?","?","?","?","?","?","?","?","?","?","?","?","?","?","?","?","?","?","?","?","?","?","?","?","?","?","?","?","?","?","?","?","?","?","?","?","?","?","?","?","?","?","?","?","?","?","?","?","?","?","?","?","?","?","?","?","?","?","?","?","?","?","?","?","?","?","?","?","?","?","?","?","?","?","?","?","?","?","?","?","?","?","?","?","?","?","?","?","?","?","?","?","?","?","?","?","?","?","?","?","?","?","?","?","?","?","?","?","?","?","?","?","?","?","?","?","?","?","?","?","?","?","?","?","?","?","?","?","?","?","?","?","?","?","?","?","?","?","?","?","?","?","?","?","?","?","?","?","?","?","?","?","?","?","?","?","?","?","?","?","?","?","?","?","?","?","?","?","?","?","?","?","?","?","?","?","?","?","?","?","?","?","?","?","?","?","?","?","?","?","?","?","?","?","?","?","?","?","?","?","?","?","?","?","?","?","?","?","?","?","?","?","?","?","?","?","?","?","?","?","?","?","?","?","?","?","?","?","?","?","?","?","?","?","?","?","?","?","?","?","?","?","?","?","?","?","?","?","?","?","?","?","?","?","?","?","?","?","?","?","?","?","?","?","?","?","?","?","?","?","?","?","?","?","?","?","?","?","?","?","?","?","?","?","?","?","?","?","?","?","?","?","?","?","?","?","?","?","?","?","?","?","?","?","?","?","?","?","?","?","?","?","?","?","?","?","?","?","?","?","?","?","?","?","?","?","?","?","?","?","?","?","?","?","?","?","?","?","?","?","?","?","?","?","?","?","?","?","?","?","?","?","?","?","?","?","?","?","?","?","?","?","?","?","?","?","?","?","?","?","?","?","?","?","?","?","?","?","?","?","?","?","?","?","?","?","?","?","?","?","?","?","?","?","?","?","?","?","?","?","?","?","?","?","?","?","?","?","?","?","?","?","?","?","?","?","?","?","?","?","?","?","?","?","?","?","?","?","?","?","?","?","?","?","?","?","?","?","?","?","?","?","?","?","?","?","?","?","?","?","?","?","?","?","?","?","?","?","?","?","?","?","?","?","?","?","?","?","?","?","?","?","?","?","?","?","?","?","?","?","?","?","?","?","?","?","?","?","?","?","?","?","?","?","?","?","?","?","?","?","?","?","?","?","?","?","?","?","?","?","?","?","?","?","?","?","?","?","?","?","?","?","?","?","?","?","?","?","?","?","?","?","?","?","?","?","?","?","?","?","?","?","?","?","?","?","?","?","?","?","?","?","?","?","?","?","?","?","?","?","?","?","?","?","?","?","?","?","?","?","?","?","?","?","?","?","?","?","?","?","?","?","?","?","?","?","?","?","?","?","?","?","?","?","?","?","?","?","?","?","?","?","?","?","?","?","?","?","?","?","?","?","?","?","?","?","?","?","?","?","?","?","?","?","?","?","?","?","?","?","?","?","?","?","?","?","?","?","?","?","?","?","?","?","?","?","?","?","?","?","?","?","?","?","?","?","?","?","?","?","?","?","?","?","?","?","?","?","?","?","?","?","?","?","?","?","?","?","?","?","?","?","?","?","?","?","?","?","?","?","?","?","?","?","?","?","?","?","?","?","?","?","?","?","?","?","?","?","?","?","?","?","?","?","?","?","?","?","?","?","?","?","?","?","?","?","?","?","?","?","?","?","?","?","?","?","?","?","?","?","?","?","?","?","?","?","?","?","?","?","?","?","?","?","?","?","?","?","?","?","?","?","?","?","?","?","?","?","?","?","?","?","?","?","?","?","?","?","?","?","?","?","?","?","?","?","?","?","?","?","?","?","?","?","?","?","?","?","?","?","?","?","?","?","?","?","?","?","?","?","?","?","?","?","?","?","?","?","?","?","?","?","?","?","?","?","?","?","?","?","?","?","?","?","?","?","?","?","?","?","?","?","?","?","?","?","?","?","?","?","?","?","?","?","?","?","?","?","?","?","?","?","?","?","?","?","?","?","?","?","?","?","?","?","?","?","?","?","?","?","?","?","?","?","?","?","?","?","?","?","?","?","?","?","?","?","?","?","?","?","?","?","?","?","?","?","?","?","?","?","?","?","?","?","?","?","?","?","?","?","?","?","?","?","?","?","?","?","?","?","?","?","?","?","?","?","?","?","?","?","?","?","?","?","?","?","?","?","?","?","?","?","?","?","?","?","?","?","?","?","?","?","?","?","?","?","?","?","?","?","?","?","?","?","?","?","?","?","?","?","?","?","?","?","?","?","?","?","?","?","?","?","?","?","?","?","?","?","?","?","?","?","?","?","?","?","?","?","?","?","?","?","?","?","?","?","?","?","?","?","?","?","?","?","?","?","?","?","?","?","?","?","?","?","?","?","?","?","?","?","?","?","?","?","?","?","?","?","?","?","?","?","?","?","?","?","?","?","?","?","?","?","?","?","?","?","?","?","?","?","?","?","?","?","?","?","?","?","?","?","?","?","?","?","?","?","?","?","?","?","?","?","?","?","?","?","?","?","?","?","?","?","?","?","?","?","?","?","?","?","?","?","?","?","?","?","?","?","?","?","?","?","?","?","?","?","?","?","?","?","?","?","?","?","?","?","?","?","?","?","?","?","?","?","?","?","?","?","?","?","?","?","?","?","?","?","?","?","?","?","?","?","?","?","?","?","?","?","?","?","?","?","?","?","?","?","?","?","?","?","?","?","?","?","?","?","?","?","?","?","?","?","?","?","?","?","?","?","?","?","?","?","?","?","?","?","?","?","?","?","?","?","?","?","?","?","?","?","?","?","?","?","?","?","?","?","?","?","?","?","?","?","?","?","?","?","?","?","?","?","?","?","?","?","?","?","?","?","?","?","?","?","?","?","?","?","?","?","?","?","?","?","?","?","?","?","?","?","?","?","?","?","?","?","?","?","?","?","?","?","?","?","?","?","?","?","?","?","?","?","?","?","?","?","?","?","?","?","?","?","?","?","?","?","?","?","?","?","?","?","?","?","?","?","?","?","?","?","?","?","?","?","?","?","?","?","?","?","?","?","?","?","?","?","?","?","?","?","?","?","?","?","?","?","?","?","?","?","?","?","?","?","?","?","?","?","?","?","?","?","?","?","?","?","?","?","?","?","?","?","?","?","?","?","?","?","?","?","?","?","?","?","?","?","?","?","?","?","?","?","?","?","?","?","?","?","?","?","?","?","?","?","?","?","?","?","?","?","?","?","?","?","?","?","?","?","?","?","?","?","?","?","?","?","?","?","?","?","?","?","?","?","?","?","?","?","?","?","?","?","?","?","?","?","?","?","?","?","?","?","?","?","?","?","?","?","?","?","?","?","?","?","?","?","?","?","?","?","?","?","?","?","?","?","?","?","?","?","?","?","?","?","?","?","?","?","?","?","?","?","?","?","?","?","?","?","?","?","?","?","?","?","?","?","?","?","?","?","?","?","?","?","?","?","?","?","?","?","?","?","?","?","?","?","?","?","?","?","?","?","?","?","?","?","?","?","?","?","?","?","?","?","?","?","?","?","?","?","?","?","?","?","?","?","?","?","?","?","?","?","?","?","?","?","?","?","?","?","?","?","?","?","?","?","?","?","?","?","?","?","?","?","?","?","?","?","?","?","?","?","?","?","?","?","?","?","?","?","?","?","?","?","?","?","?","?","?","?","?","?","?","?","?","?","?","?","?","?","?","?","?","?","?","?","?","?","?","?","?","?","?","?","?","?","?","?","?","?","?","?","?","?","?","?","?","?","?","?","?","?","?","?","?","?","?","?","?","?","?","?","?","?","?","?","?","?","?","?","?","?","?","?","?","?","?","?","?","?","?","?","?","?","?","?","?","?","?","?","?","?","?","?","?","?","?","?","?","?","?","?","?","?","?","?","?","?","?","?","?","?","?","?","?","?","?","?","?","?","?","?","?","?","?","?","?","?","?","?","?","?","?","?","?","?","?","?","?","?","?","?","?","?","?","?","?","?","?","?","?","?","?","?","?","?","?","?","?","?","?","?","?","?","?","?","?","?","?","?","?","?","?","?","?","?","?","?","?","?","?","?","?","?","?","?","?","?","?","?","?","?","?","?","?","?","?","?","?","?","?","?","?","?","?","?","?","?","?","?","?","?","?","?","?","?","?","?","?","?","?","?","?","?","?","?","?","?","?","?","?","?","?","?","?","?","?","?","?","?","?","?","?","?","?","?","?","?","?","?","?","?","?","?","?","?","?","?","?","?","?","?","?","?","?","?","?","?","?","?","?","?","?","?","?","?","?","?","?","?","?","?","?","?","?","?","?","?","?","?","?","?","?","?","?","?","?","?","?","?","?","?","?","?","?","?","?","?","?","?","?","?","?","?","?","?","?","?","?","?","?","?","?","?","?","?","?","?","?","?","?","?","?","?","?","?","?","?","?","?","?","?","?","?","?","?","?","?","?","?","?","?","?","?","?","?","?","?","?","?","?","?","?","?","?","?","?","?","?","?","?","?","?","?","?","?","?","?","?","?","?","?","?","?","?","?","?","?","?","?","?","?","?","?","?","?","?","?","?","?","?","?","?","?","?","?","?","?","?","?","?","?","?","?","?","?","?","?","?","?","?","?","?","?","?","?","?","?","?","?","?","?","?","?","?","?","?","?","?","?","?","?","?","?","?","?","?","?","?","?","?","?","?","?","?","?","?","?","?","?","?","?","?","?","?","?","?","?","?","?","?","?","?","?","?","?","?","?","?","?","?","?","?","?","?","?","?","?","?","?","?","?","?","?","?","?","?","?","?","?","?","?","?","?","?","?","?","?","?","?","?","?","?","?","?","?","?","?","?","?","?","?","?","?","?","?","?","?","?","?","?","?","?","?","?","?","?","?","?","?","?","?","?","?","?","?","?","?","?","?","?","?","?","?","?","?","?","?","?","?","?","?","?","?","?","?","?","?","?","?","?","?","?","?","?","?","?","?","?","?","?","?","?","?","?","?","?","?","?","?","?","?","?","?","?","?","?","?","?","?","?","?","?","?","?","?","?","?","?","?","?","?","?","?","?","?","?","?","?","?","?","?","?","?","?","?","?","?","?","?","?","?","?","?","?","?","?","?","?","?","?","?","?","?","?","?","?","?","?","?","?","?","?","?","?","?","?","?","?","?","?","?","?","?","?","?","?","?","?","?","?","?","?","?","?","?","?","?","?","?","?","?","?","?","?","?","?","?","?","?","?","?","?","?","?","?","?","?","?","?","?","?","?","?","?","?","?","?","?","?","?","?","?","?","?","?","?","?","?","?","?","?","?","?","?","?","?","?","?","?","?","?","?","?","?","?","?","?","?","?","?","?","?","?","?","?","?","?","?","?","?","?","?","?","?","?","?","?","?","?","?","?","?","?","?","?","?","?","?","?","?","?","?","?","?","?","?","?","?","?","?","?","?","?","?","?","?","?","?","?","?","?","?","?","?","?","?","?","?","?","?","?","?","?","?","?","?","?","?","?","?","?","?","?","?","?","?","?","?","?","?","?","?","?","?","?","?","?","?","?","?","?","?","?","?","?","?","?","?","?","?","?","?","?","?","?","?","?","?","?","?","?","?","?","?","?","?","?","?","?","?","?","?","?","?","?","?","?","?","?","?","?","?","?","?","?","?","?","?","?","?","?","?","?","?","?","?","?","?","?","?","?","?","?","?","?","?","?","?","?","?","?","?","?","?","?","?","?","?","?","?","?","?","?","?","?","?","?","?","?","?","?","?","?","?","?","?","?","?","?","?","?","?","?","?","?","?","?","?","?","?","?","?","?","?","?","?","?","?","?","?","?","?","?","?","?","?","?","?","?","?","?","?","?","?","?","?","?","?","?","?","?","?","?","?","?","?","?","?","?","?","?","?","?","?","?","?","?","?","?","?","?","?","?","?","?","?","?","?","?","?","?","?","?","?","?","?","?","?","?","?","?","?","?","?","?","?","?","?","?","?","?","?","?","?","?","?","?","?","?","?","?","?","?","?","?","?","?","?","?","?","?","?","?","?","?","?","?","?","?","?","?","?","?","?","?","?","?","?","?","?","?","?","?","?","?","?","?","?","?","?","?","?","?","?","?","?","?","?","?","?","?","?","?","?","?","?","?","?","?","?","?","?","?","?","?","?","?","?","?","?","?","?","?","?","?","?","?","?","?","?","?","?","?","?","?","?","?","?","?","?","?","?","?","?","?","?","?","?","?","?","?","?","?","?","?","?","?","?","?","?","?","?","?","?","?","?","?","?","?","?","?","?","?","?","?","?","?","?","?","?","?","?","?","?","?","?","?","?","?","?","?","?","?","?","?","?","?","?","?","?","?","?","?","?","?","?","?","?","?","?","?","?","?","?","?","?","?","?","?","?","?","?","?","?","?","?","?","?","?","?","?","?","?","?","?","?","?","?","?","?","?","?","?","?","?","?","?","?","?","?","?","?","?","?","?","?","?","?","?","?","?","?","?","?","?","?","?","?","?","?","?","?","?","?","?","?","?","?","?","?","?","?","?","?","?","?","?","?","?","?","?","?","?","?","?","?","?","?","?","?","?","?","?","?","?","?","?","?","?","?","?","?","?","?","?","?","?","?","?","?","?","?","?","?","?","?","?","?","?","?","?","?","?","?","?","?","?","?","?","?","?","?","?","?","?","?","?","?","?","?","?","?","?","?","?","?","?","?","?","?","?","?","?","?","?","?","?","?","?","?","?","?","?","?","?","?","?","?","?","?","?","?","?","?","?","?","?","?","?","?","?","?","?","?","?","?","?","?","?","?","?","?","?","?","?","?","?","?","?","?","?","?","?","?","?","?","?","?","?","?","?","?","?","?","?","?","?","?","?","?","?","?","?","?","?","?","?","?","?","?","?","?","?","?","?","?","?","?","?","?","?","?","?","?","?","?","?","?","?","?","?","?","?","?","?","?","?","?","?","?","?","?","?","?","?","?","?","?","?","?","?","?","?","?","?","?","?","?","?","?","?","?","?","?","?","?","?","?","?","?","?","?","?","?","?","?","?","?","?","?","?","?","?","?","?","?","?","?","?","?","?","?","?","?","?","?","?","?","?","?","?","?","?","?","?","?","?","?","?","?","?","?","?","?","?","?","?","?","?","?","?","?","?","?","?","?","?","?","?","?","?","?","?","?","?","?","?","?","?","?","?","?","?","?","?","?","?","?","?","?","?","?","?","?","?","?","?","?","?","?","?","?","?","?","?","?","?","?","?","?","?","?","?","?","?","?","?","?","?","?","?","?","?","?","?","?","?","?","?","?","?","?","?","?","?","?","?","?","?","?","?","?","?","?","?","?","?","?","?","?","?","?","?","?","?","?","?","?","?","?","?","?","?","?","?","?","?","?","?","?","?","?","?","?","?","?","?","?","?","?","?","?","?","?","?","?","?","?","?","?","?","?","?","?","?","?","?","?","?","?","?","?","?","?","?","?","?","?","?","?","?","?","?","?","?","?","?","?","?","?","?","?","?","?","?","?","?","?","?","?","?","?","?","?","?","?","?","?","?","?","?","?","?","?","?","?","?","?","?","?","?","?","?","?","?","?","?","?","?","?","?","?","?","?","?","?","?","?","?","?","?","?","?","?","?","?","?","?","?","?","?","?","?","?","?","?","?","?","?","?","?","?","?","?","?","?","?","?","?","?","?","?","?","?","?","?","?","?","?","?","?","?","?","?","?","?","?","?","?","?","?","?","?","?","?","?","?","?","?","?","?","?","?","?","?","?","?","?","?","?","?","?","?","?","?","?","?","?","?","?","?","?","?","?","?","?","?","?","?","?","?","?","?","?","?","?","?","?","?","?","?","?","?","?","?","?","?","?","?","?","?","?","?","?","?","?","?","?","?","?","?","?","?","?","?","?","?","?","?","?","?","?","?","?","?","?","?","?","?","?","?","?","?","?","?","?","?","?","?","?","?","?","?","?","?","?","?","?","?","?","?","?","?","?","?","?","?","?","?","?","?","?","?","?","?","?","?","?","?","?","?","?","?","?","?","?","?","?","?","?","?","?","?","?","?","?","?","?","?","?","?","?","?","?","?","?","?","?","?","?","?","?","?","?","?","?","?","?","?","?","?","?","?","?","?","?","?","?","?","?","?","?","?","?","?","?","?","?","?","?","?","?","?","?","?","?","?","?","?","?","?","?","?","?","?","?","?","?","?","?","?","?","?","?","?","?","?","?","?","?","?","?","?","?","?","?","?","?","?","?","?","?","?","?","?","?","?","?","?","?","?","?","?","?","?","?","?","?","?","?","?","?","?","?","?","?","?","?","?","?","?","?","?","?","?","?","?","?","?","?","?","?","?","?","?","?","?","?","?","?","?","?","?","?","?","?","?","?","?","?","?","?","?","?","?","?","?","?","?","?","?","?","?","?","?","?","?","?","?","?","?","?","?","?","?","?","?","?","?","?","?","?","?","?","?","?","?","?","?","?","?","?","?","?","?","?","?","?","?","?","?","?","?","?","?","?","?","?","?","?","?","?","?","?","?","?","?","?","?","?","?","?","?","?","?","?","?","?","?","?","?","?","?","?","?","?","?","?","?","?","?","?","?","?","?","?","?","?","?","?","?","?","?","?","?","?","?","?","?","?","?","?","?","?","?","?","?","?","?","?","?","?","?","?","?","?","?","?","?","?","?","?","?","?","?","?","?","?","?","?","?","?","?","?","?","?","?","?","?","?","?","?","?","?","?","?","?","?","?","?","?","?","?","?","?","?","?","?","?","?","?","?","?","?","?","?","?","?","?","?","?","?","?","?","?","?","?","?","?","?","?","?","?","?","?","?","?","?","?","?","?","?","?","?","?","?","?","?","?","?","?","?","?","?","?","?","?","?","?","?","?","?","?","?","?","?","?","?","?","?","?","?","?","?","?","?","?","?","?","?","?","?","?","?","?","?","?","?","?","?","?","?","?","?","?","?","?","?","?","?","?","?","?","?","?","?","?","?","?","?","?","?","?","?","?","?","?","?","?","?","?","?","?","?","?","?","?","?","?","?","?","?","?","?","?","?","?","?","?","?","?","?","?","?","?","?","?","?","?","?","?","?","?","?","?","?","?","?","?","?","?","?","?","?","?","?","?","?","?","?","?","?","?","?","?","?","?","?","?","?","?","?","?","?","?","?","?","?","?","?","?","?","?","?","?","?","?","?","?","?","?","?","?","?","?","?","?","?","?","?","?","?","?","?","?","?","?","?","?","?","?","?","?","?","?","?","?","?","?","?","?","?","?","?","?","?","?","?","?","?","?","?","?","?","?","?","?","?","?","?","?","?","?","?","?","?","?","?","?","?","?","?","?","?","?","?","?","?","?","?","?","?","?","?","?","?","?","?","?","?","?","?","?","?","?","?","?","?","?","?","?","?","?","?","?","?","?","?","?","?","?","?","?","?","?","?","?","?","?","?","?","?","?","?","?","?","?","?","?","?","?","?","?","?","?","?","?","?","?","?","?","?","?","?","?","?","?","?","?","?","?","?","?","?","?","?","?","?","?","?","?","?","?","?","?","?","?","?","?","?","?","?","?","?","?","?","?","?","?","?","?","?","?","?","?","?","?","?","?","?","?","?","?","?","?","?","?","?","?","?","?","?","?","?","?","?","?","?","?","?","?","?","?","?","?","?","?","?","?","?","?","?","?","?","?","?","?","?","?","?","?","?","?","?","?","?","?","?","?","?","?","?","?","?","?","?","?","?","?","?","?","?","?","?","?","?","?","?","?","?","?","?","?","?","?","?","?","?","?","?","?","?","?","?","?","?","?","?","?","?","?","?","?","?","?","?","?","?","?","?","?","?","?","?","?","?","?","?","?","?","?","?","?","?","?","?","?","?","?","?","?","?","?","?","?","?","?","?","?","?","?","?","?","?","?","?","?","?","?","?","?","?","?","?","?","?","?","?","?","?","?","?","?","?","?","?","?","?","?","?","?","?","?","?","?","?","?","?","?","?","?","?","?","?","?","?","?","?","?","?","?","?","?","?","?","?","?","?","?","?","?","?","?","?","?","?","?","?","?","?","?","?","?","?","?","?","?","?","?","?","?","?","?","?","?","?","?","?","?","?","?","?","?","?","?","?","?","?","?","?","?","?","?","?","?","?","?","?","?","?","?","?","?","?","?","?","?","?","?","?","?","?","?","?","?","?","?","?","?","?","?","?","?","?","?","?","?","?","?","?","?","?","?","?","?","?","?","?","?","?","?","?","?","?","?","?","?","?","?","?","?","?","?","?","?","?","?","?","?","?","?","?","?","?","?","?","?","?","?","?","?","?","?","?","?","?","?","?","?","?","?","?","?","?","?","?","?","?","?","?","?","?","?","?","?","?","?","?","?","?","?","?","?","?","?","?","?","?","?","?","?","?","?","?","?","?","?","?","?","?","?","?","?","?","?","?","?","?","?","?","?","?","?","?","?","?","?","?","?","?","?","?","?","?","?","?","?","?","?","?","?","?","?","?","?","?","?","?","?","?","?","?","?","?","?","?","?","?","?","?","?","?","?","?","?","?","?","?","?","?","?","?","?","?","?","?","?","?","?","?","?","?","?","?","?","?","?","?","?","?","?","?","?","?","?","?","?","?","?","?","?","?","?","?","?","?","?","?","?","?","?","?","?","?","?","?","?","?","?","?","?","?","?","?","?","?","?","?","?","?","?","?","?","?","?","?","?","?","?","?","?","?","?","?","?","?","?","?","?","?","?","?","?","?","?","?","?","?","?","?","?","?","?","?","?","?","?","?","?","?","?","?","?","?","?","?","?","?","?","?","?","?","?","?","?","?","?","?","?","?","?","?","?","?","?","?","?","?","?","?","?","?","?","?","?","?","?","?","?","?","?","?","?","?","?","?","?","?","?","?","?","?","?","?","?","?","?","?","?","?","?","?","?","?","?","?","?","?","?","?","?","?","?","?","?","?","?","?","?","?","?","?","?","?","?","?","?","?","?","?","?","?","?","?","?","?","?","?","?","?","?","?","?","?","?","?","?","?","?","?","?","?","?","?","?","?","?","?","?","?","?","?","?","?","?","?","?","?","?","?","?","?","?","?","?","?","?","?","?","?","?","?","?","?","?","?","?","?","?","?","?","?","?","?","?","?","?","?","?","?","?","?","?","?","?","?","?","?","?","?","?","?","?","?","?","?","?","?","?","?","?","?","?","?","?","?","?","?","?","?","?","?","?","?","?","?","?","?","?","?","?","?","?","?","?","?","?","?","?","?","?","?","?","?","?","?","?","?","?","?","?","?","?","?","?","?","?","?","?","?","?","?","?","?","?","?","?","?","?","?","?","?","?","?","?","?","?","?","?","?","?","?","?","?","?","?","?","?","?","?","?","?","?","?","?","?","?","?","?","?","?","?","?","?","?","?","?","?","?","?","?","?","?","?","?","?","?","?","?","?","?","?","?","?","?","?","?","?","?","?","?","?","?","?","?","?","?","?","?","?","?","?","?","?","?","?","?","?","?","?","?","?","?","?","?","?","?","?","?","?","?","?","?","?","?","?","?","?","?","?","?","?","?","?","?","?","?","?","?","?","?","?","?","?","?","?","?","?","?","?","?","?","?","?","?","?","?","?","?","?","?","?","?","?","?","?","?","?","?","?","?","?","?","?","?","?","?","?","?","?","?","?","?","?","?","?","?","?","?","?","?","?","?","?","?","?","?","?","?","?","?","?","?","?","?","?","?","?","?","?","?","?","?","?","?","?","?","?","?","?","?","?","?","?","?","?","?","?","?","?","?","?","?","?","?","?","?","?","?","?","?","?","?","?","?","?","?","?","?","?","?","?","?","?","?","?","?","?","?","?","?","?","?","?","?","?","?","?","?","?","?","?","?","?","?","?","?","?","?","?","?","?","?","?","?","?","?","?","?","?","?","?","?","?","?","?","?","?","?","?","?","?","?","?","?","?","?","?","?","?","?","?","?","?","?","?","?","?","?","?","?","?","?","?","?","?","?","?","?","?","?","?","?","?","?","?","?","?","?","?","?","?","?","?","?","?","?","?","?","?","?","?","?","?","?","?","?","?","?","?","?","?","?","?","?","?","?","?","?","?","?","?","?","?","?","?","?","?","?","?","?","?","?","?","?","?","?","?","?","?","?","?","?","?","?","?","?","?","?","?","?","?","?","?","?","?","?","?","?","?","?","?","?","?","?","?","?","?","?","?","?","?","?","?","?","?","?","?","?","?","?","?","?","?","?","?","?","?","?","?","?","?","?","?","?","?","?","?","?","?","?","?","?","?","?","?","?","?","?","?","?","?","?","?","?","?","?","?","?","?","?","?","?","?","?","?","?","?","?","?","?","?","?","?","?","?","?","?","?","?","?","?","?","?","?","?","?","?","?","?","?","?","?","?","?","?","?","?","?","?","?","?","?","?","?","?","?","?","?","?","?","?","?","?","?","?","?","?","?","?","?","?","?","?","?","?","?","?","?","?","?","?","?","?","?","?","?","?","?","?","?","?","?","?","?","?","?","?","?","?","?","?","?","?","?","?","?","?","?","?","?","?","?","?","?","?","?","?","?","?","?","?","?","?","?","?","?","?","?","?","?","?","?","?","?","?","?","?","?","?","?","?","?","?","?","?","?","?","?","?","?","?","?","?","?","?","?","?","?","?","?","?","?","?","?","?","?","?","?","?","?","?","?","?","?","?","?","?","?","?","?","?","?","?","?","?","?","?","?","?","?","?","?","?","?","?","?","?","?","?","?","?","?","?","?","?","?","?","?","?","?","?","?","?","?","?","?","?","?","?","?","?","?","?","?","?","?","?","?","?","?","?","?","?","?","?","?","?","?","?","?","?","?","?","?","?","?","?","?","?","?","?","?","?","?","?","?","?","?","?","?","?","?","?","?","?","?","?","?","?","?","?","?","?","?","?","?","?","?","?","?","?","?","?","?","?","?","?","?","?","?","?","?","?","?","?","?","?","?","?","?","?","?","?","?","?","?","?","?","?","?","?","?","?","?","?","?","?","?","?","?","?","?","?","?","?","?","?","?","?","?","?","?","?","?","?","?","?","?","?","?","?","?","?","?","?","?","?","?","?","?","?","?","?","?","?","?","?","?","?","?","?","?","?","?","?","?","?","?","?","?","?","?","?","?","?","?","?","?","?","?","?","?","?","?","?","?","?","?","?","?","?","?","?","?","?","?","?","?","?","?","?","?","?","?","?","?","?","?","?","?","?","?","?","?","?","?","?","?","?","?","?","?","?","?","?","?","?","?","?","?","?","?","?","?","?","?","?","?","?","?","?","?","?","?","?","?","?","?","?","?","?","?","?","?","?","?","?","?","?","?","?","?","?","?","?","?","?","?","?","?","?","?","?","?","?","?","?","?","?","?","?","?","?","?","?","?","?","?","?","?","?","?","?","?","?","?","?","?","?","?","?","?","?","?","?","?","?","?","?","?","?","?","?","?","?","?","?","?","?","?","?","?","?","?","?","?","?","?","?","?","?","?","?","?","?","?","?","?","?","?","?","?","?","?","?","?","?","?","?","?","?","?","?","