[{"success":true,"trial_type":"fullscreen","trial_index":0,"time_elapsed":3353,"internal_node_id":"0.0-0.0","protocol_sum":"","subject_identifier":229,"subject_sum":[159,31,157,206,49,156,71,0,239,40,236,140,83,189,60,200,230,171,230,76,104,56,84,121,171,137,33,88,6,165,189,214],"subject_pair":114,"STUDY_ID":"669eec2e4270c76bc184a38e","PROLIFIC_PID":"63d432e27555fb4b5785cfcd","SESSION_ID":"669fe8bd35448c61fe0b9db3","practice_instructions":1,"leaderboard_instructions":0,"bonus":0,"reveal_word":true,"self_rating":"3","confidence":"80"},{"view_history":"[{\"page_index\":0,\"viewing_time\":4070.9000000953674}]","rt":4071.2999999523163,"trial_type":"instructions","trial_index":1,"time_elapsed":7425,"internal_node_id":"0.0-1.0","protocol_sum":"","subject_identifier":229,"subject_sum":[159,31,157,206,49,156,71,0,239,40,236,140,83,189,60,200,230,171,230,76,104,56,84,121,171,137,33,88,6,165,189,214],"subject_pair":114,"STUDY_ID":"669eec2e4270c76bc184a38e","PROLIFIC_PID":"63d432e27555fb4b5785cfcd","SESSION_ID":"669fe8bd35448c61fe0b9db3","practice_instructions":1,"leaderboard_instructions":0,"bonus":0,"reveal_word":true,"self_rating":"3","confidence":"80"},{"view_history":"[{\"page_index\":0,\"viewing_time\":10743.400000095367}]","rt":10743.700000047684,"trial_type":"instructions","trial_index":2,"time_elapsed":18170,"internal_node_id":"0.0-2.0-0.0","protocol_sum":"","subject_identifier":229,"subject_sum":[159,31,157,206,49,156,71,0,239,40,236,140,83,189,60,200,230,171,230,76,104,56,84,121,171,137,33,88,6,165,189,214],"subject_pair":114,"STUDY_ID":"669eec2e4270c76bc184a38e","PROLIFIC_PID":"63d432e27555fb4b5785cfcd","SESSION_ID":"669fe8bd35448c61fe0b9db3","practice_instructions":1,"leaderboard_instructions":0,"bonus":0,"reveal_word":true,"self_rating":"3","confidence":"80"},{"rt":9757,"responses":"{\"Q0\":\"... reveal the word with as <b>few letter guesses</b> as possible\"}","question_order":"[0]","trial_type":"survey-multi-choice","trial_index":3,"time_elapsed":27929,"internal_node_id":"0.0-2.0-1.0","protocol_sum":"","subject_identifier":229,"subject_sum":[159,31,157,206,49,156,71,0,239,40,236,140,83,189,60,200,230,171,230,76,104,56,84,121,171,137,33,88,6,165,189,214],"subject_pair":114,"correct":true,"test_part":"multichoice_nonpretend","STUDY_ID":"669eec2e4270c76bc184a38e","PROLIFIC_PID":"63d432e27555fb4b5785cfcd","SESSION_ID":"669fe8bd35448c61fe0b9db3","practice_instructions":1,"leaderboard_instructions":0,"bonus":0,"reveal_word":true,"self_rating":"3","confidence":"80"},{"view_history":"[{\"page_index\":0,\"viewing_time\":1525.0999999046326}]","rt":1525.3999998569489,"trial_type":"instructions","trial_index":4,"time_elapsed":29455,"internal_node_id":"0.0-3.0","protocol_sum":"","subject_identifier":229,"subject_sum":[159,31,157,206,49,156,71,0,239,40,236,140,83,189,60,200,230,171,230,76,104,56,84,121,171,137,33,88,6,165,189,214],"subject_pair":114,"STUDY_ID":"669eec2e4270c76bc184a38e","PROLIFIC_PID":"63d432e27555fb4b5785cfcd","SESSION_ID":"669fe8bd35448c61fe0b9db3","practice_instructions":1,"leaderboard_instructions":0,"bonus":0,"reveal_word":true,"self_rating":"3","confidence":"80"},{"word":"ZEBRA","click_log":{"letter":["","T","M","O","D","B","A","Z","E","R"],"t":[0,9793.099999904633,18894.799999952316,21397.200000047684,28009,31637.799999952316,39242.5,41854.89999985695,43352.200000047684,45555.89999985695],"hit":[null,0,0,0,0,1,1,1,1,1],"asked":["","T","TM","TMO","TMOD","TMODB","TMODBA","TMODBAZ","TMODBAZE","TMODBAZER"],"word_state":["_____","_____","_____","_____","_____","__B__","__B_A","Z_B_A","ZEB_A","ZEBRA"]},"hover_log":{"letter":["?","?","?","?","?","?","?","?","?","?","?","?","?","?","?","?","?","?","?","?","?","?","?","?","?","?","?","?","?","?","?","?","?","?","?","?","?","?","?","?","?","?","?","?","?","?","?","?","?","?","?","?","?","?","?","?","?","?","?","?","?","J","J","J","?","K","K","K","?","?","?","L","L","L","L","L","L","L","L","L","L","L","L","L","L","L","L","L","L","L","L","L","L","L","L","L","L","L","L","L","L","L","L","L","L","L","?","?","?","?","?","?","?","?","?","?","?","?","?","?","?","?","?","?","?","?","?","?","?","?","?","?","?","?","?","?","?","?","?","?","?","?","?","?","?","?","?","?","?","?","?","?","?","?","?","?","?","?","?","?","?","?","?","?","?","?","?","?","?","?","?","?","?","?","?","?","?","?","?","?","?","?","?","?","?","?","?","?","?","?","?","?","?","?","?","?","?","?","?","?","?","?","?","?","?","?","?","?","?","?","?","?","?","?","?","?","?","?","B","B","B","B","?","?","?","?","?","?","?","?","?","?","?","?","?","?","?","?","?","?","?","?","?","?","?","?","?","?","?","?","?","?","?","?","?","?","?","?","?","?","?","?","?","?","?","?","?","?","?","?","?","?","?","?","?","?","?","?","?","?","?","?","?","?","?","?","?","?","?","?","?","?","?","?","?","?","?","?","?","?","?","?","?","?","?","?","?","?","?","?","?","?","?","?","?","?","?","?","?","?","?","?","?","?","?","?","?","?","?","?","?","?","?","?","?","?","?","?","?","?","?","?","?","?","?","?","?","?","?","?","?","?","?","?","?","?","?","?","?","?","?","?","?","?","?","?","?","?","?","?","?","?","?","?","?","?","?","?","?","?","?","?","?","?","?","?","?","?","?","?","?","?","?","?","?","?","?","?","?","?","?","?","?","?","?","?","?","?","?","?","?","?","?","?","?","?","?","?","?","?","?","?","?","?","?","?","?","?","?","?","?","?","?","?","?","?","?","?","?","?","?","?","?","?","?","?","?","?","?","?","?","?","?","?","?","?","?","?","?","?","?","?","?","?","?","?","?","?","?","?","?","?","?","?","?","?","F","F","F","F","F","F","F","?","?","?","?","?","?","?","?","?","?","?","?","?","?","?","?","?","?","?","?","?","?","?","?","?","?","?","?","?","?","?","?","?","?","?","?","?","?","?","?","?","?","?","?","?","?","?","?","?","?","?","?","?","?","?","?","?","?","L","L","L","?","L","?","?","?","?","?","?","?","?","?","K","K","K","K","K","K","?","?","T","T","T","T","T","T","T","T","T","T","T","T","T","T","T","T","T","T","T","T","T","T","T","T","T","T","T","T","T","T","T","T","T","T","T","T","T","T","T","T","T","T","T","T","T","T","T","T","T","T","T","T","T","T","T","T","T","T","T","T","T","T","T","T","T","T","T","T","T","T","T","T","T","T","T","T","T","T","T","T","T","T","T","T","T","T","T","T","T","T","T","T","T","T","T","T","T","T","T","T","T","T","T","T","T","T","T","T","T","T","T","T","T","T","T","T","T","T","T","T","T","T","T","T","T","T","T","T","T","T","T","T","T","T","T","T","T","T","T","T","T","T","T","T","T","T","T","T","T","T","T","T","T","T","T","T","T","T","T","T","T","T","T","T","T","T","T","T","T","T","T","T","T","T","T","T","T","T","T","T","T","T","T","T","T","T","T","T","T","T","T","T","T","T","T","T","T","T","T","T","T","T","T","T","T","T","T","T","T","T","T","T","T","T","T","T","T","T","T","T","T","T","T","T","T","T","T","T","T","T","T","T","T","T","T","T","T","T","T","T","T","T","T","T","T","T","T","T","T","T","T","T","T","T","T","T","T","T","T","T","T","T","T","T","T","T","T","T","T","T","T","T","T","T","T","T","T","?","?","?","?","?","?","?","?","?","?","?","?","?","?","?","?","?","?","?","?","?","?","?","?","?","?","?","?","?","?","?","?","?","?","?","?","?","?","?","?","?","?","?","?","?","?","?","?","?","?","?","?","?","?","?","?","?","?","?","?","?","?","?","?","?","?","?","?","?","?","?","?","?","?","?","?","?","?","?","?","?","?","?","?","?","?","?","?","?","?","?","?","?","?","?","?","?","?","?","?","?","?","?","?","?","?","?","?","?","?","?","?","?","?","?","?","?","?","?","?","?","?","?","?","?","?","?","?","?","?","?","?","?","?","?","?","?","?","?","?","?","?","?","?","?","?","?","?","?","?","?","?","?","?","?","?","?","?","?","?","?","?","?","?","?","?","?","?","?","?","?","?","?","?","?","?","?","?","?","?","?","?","?","?","?","?","?","?","?","?","?","?","?","?","?","?","?","?","?","?","?","?","?","?","?","?","?","?","?","?","?","?","?","?","?","?","?","?","?","?","?","?","?","?","?","?","?","?","?","?","?","?","?","?","?","?","?","?","?","?","?","?","?","?","?","?","?","?","?","?","?","?","?","?","?","?","?","?","?","?","?","?","?","N","N","N","?","?","M","M","M","M","M","M","M","M","M","M","M","M","M","M","M","M","M","M","M","M","M","M","M","M","M","M","M","M","M","M","M","M","M","M","M","M","M","M","M","M","M","M","M","M","M","M","M","M","M","M","M","M","M","M","M","M","M","M","M","M","M","M","M","M","M","M","M","M","M","M","M","M","M","M","M","M","M","M","M","M","M","M","M","M","M","M","M","M","M","M","M","M","M","M","M","M","M","M","M","M","M","M","M","M","M","M","M","M","M","M","M","M","M","M","M","M","M","M","M","M","M","M","M","M","M","M","M","M","M","M","M","N","N","N","N","N","?","?","?","?","?","?","?","?","?","?","?","?","?","?","?","?","?","?","O","O","O","O","O","O","O","O","O","O","O","O","O","O","O","O","O","O","O","O","O","O","O","O","O","O","O","O","O","O","O","O","O","O","O","O","O","O","O","O","O","O","O","O","O","O","O","O","O","O","O","O","O","O","O","O","O","O","O","O","O","O","O","O","O","O","O","O","O","O","O","O","O","O","O","O","O","O","O","O","O","O","O","O","O","O","O","O","O","O","O","O","O","O","O","O","O","O","O","O","O","O","O","O","O","O","O","O","O","O","O","O","O","O","O","O","O","O","O","O","O","O","O","O","O","O","O","O","O","O","O","O","O","O","O","O","O","O","O","O","O","O","O","O","O","O","O","O","O","O","O","O","O","O","O","O","O","O","O","O","O","O","O","O","O","O","O","O","O","O","O","O","O","O","O","O","O","O","O","O","O","O","O","O","O","O","O","O","O","O","O","O","O","O","O","O","O","O","O","O","O","O","O","O","O","O","O","O","O","O","O","O","O","O","O","O","O","O","O","O","O","O","O","O","O","O","O","O","O","O","O","O","O","O","O","O","O","O","O","O","O","O","O","O","O","O","O","O","O","O","O","O","O","O","O","O","O","O","O","O","O","O","O","O","O","O","O","O","O","O","O","O","O","O","O","O","O","O","O","O","O","O","O","O","O","O","O","O","O","O","O","O","O","O","O","O","O","O","O","O","O","O","O","O","O","O","O","O","O","O","O","O","O","O","O","O","O","O","O","O","O","O","O","O","O","O","O","O","O","O","O","?","N","N","?","M","M","?","?","?","C","?","?","?","?","?","?","?","?","?","?","?","?","?","?","?","?","?","?","?","?","?","?","?","C","C","C","C","C","C","C","C","?","D","D","D","?","E","E","E","E","E","E","E","E","E","E","E","E","E","E","E","?","D","D","D","D","D","D","D","D","D","D","D","D","D","D","D","D","D","D","D","D","D","D","D","D","D","D","D","D","D","D","D","D","D","D","D","D","D","D","D","D","D","D","D","D","D","D","D","D","D","D","D","D","D","D","D","D","D","D","D","D","D","D","D","D","D","D","D","D","D","D","D","D","D","D","D","D","D","D","D","D","D","D","D","D","D","?","?","C","C","C","C","C","C","C","C","C","C","C","C","C","C","C","C","C","C","C","C","C","C","C","C","C","C","C","C","C","C","C","C","C","C","C","C","C","C","C","C","C","C","C","C","C","C","C","C","C","C","C","C","C","C","C","C","C","C","C","C","C","C","C","C","C","C","C","C","C","C","C","C","C","C","C","C","C","C","C","C","C","C","C","C","C","C","C","C","C","C","C","C","C","C","C","C","C","C","C","C","C","C","C","C","C","C","C","C","C","C","C","C","C","C","C","C","C","C","C","C","C","C","C","C","C","C","C","C","C","?","B","B","B","B","B","B","B","B","B","B","B","B","B","B","B","B","B","B","B","B","B","B","B","B","B","B","B","B","B","B","B","B","B","B","B","B","B","B","B","B","B","B","B","B","B","B","B","B","B","B","B","B","B","B","B","B","B","B","B","B","B","B","B","B","B","B","B","B","B","B","B","B","B","B","B","B","B","B","B","B","B","B","B","B","B","B","B","B","B","B","B","B","B","B","B","B","B","B","B","B","B","B","B","B","B","B","B","B","B","B","B","B","B","B","B","B","B","B","B","B","B","B","B","B","B","B","B","B","B","B","B","B","B","B","B","B","B","B","B","B","B","B","B","B","B","B","B","B","B","B","B","B","B","B","B","B","B","B","B","B","C","?","?","?","?","?","?","?","?","?","?","?","?","?","?","?","?","?","?","?","?","?","?","?","?","?","?","?","?","?","?","?","?","?","?","?","?","?","?","?","?","?","?","?","?","?","?","?","?","?","?","?","?","?","?","?","?","?","?","?","?","?","?","?","?","?","?","?","?","?","?","?","?","?","?","?","?","?","?","?","?","?","?","?","?","?","?","?","?","?","?","?","?","?","?","?","?","?","?","?","?","?","?","?","?","?","?","?","?","?","?","?","?","?","?","?","?","B","B","B","B","?","?","?","?","?","?","?","B","B","B","B","B","B","B","B","B","B","B","B","B","B","B","B","B","B","B","B","B","B","B","B","B","B","B","B","B","B","B","B","B","B","B","B","B","B","B","B","B","B","B","B","B","B","B","B","B","B","B","B","B","B","B","B","B","B","B","B","B","B","B","B","B","B","B","?","A","A","A","A","A","A","A","A","A","A","A","A","A","A","A","A","A","A","A","A","A","A","A","A","A","A","A","A","A","A","A","A","A","A","A","A","A","A","A","A","A","A","A","A","A","A","A","A","A","A","A","A","A","A","A","A","?","B","B","B","B","B","B","B","B","B","B","B","B","B","B","B","B","B","B","B","B","B","B","B","B","B","B","B","B","B","B","B","B","B","B","B","B","B","B","B","B","A","A","A","A","A","A","A","A","A","A","A","A","A","A","A","A","A","A","A","A","A","A","A","A","A","A","A","A","A","A","A","A","A","A","A","A","A","A","A","A","A","A","A","A","A","A","A","A","A","A","A","A","A","A","A","A","A","A","A","A","A","A","A","A","A","A","A","A","A","A","A","A","A","A","A","A","A","A","A","A","A","A","A","A","A","A","A","A","A","A","A","A","A","A","A","A","A","A","A","A","A","A","A","A","A","A","A","A","A","A","A","A","A","A","A","A","A","A","A","A","A","A","A","A","?","?","L","?","?","Y","Z","?","?","?","?","?","?","?","?","?","?","?","?","?","?","?","?","?","?","?","?","?","?","Z","Z","Z","Z","Z","Z","Z","Z","Z","Z","Z","Z","Z","Z","Z","Z","Z","Z","Z","Z","Z","Z","Z","Z","Z","Z","Z","Z","Z","Z","Z","Z","Z","Z","Z","Z","Z","Z","Z","Z","Z","Z","Z","Z","Z","Z","Z","Z","Z","Z","Z","Z","Z","Z","Z","Z","Z","Z","Z","Z","Z","Y","?","?","?","N","N","?","?","?","?","?","?","?","?","?","?","?","?","?","?","?","?","?","?","D","D","D","?","?","E","E","E","E","E","E","E","E","E","E","E","E","E","E","E","E","E","E","E","E","E","E","E","E","E","E","E","E","E","E","E","E","E","E","E","E","E","E","E","E","E","E","E","E","E","E","E","E","E","E","E","E","E","E","E","E","E","E","E","E","E","E","E","E","E","E","E","E","E","E","E","E","E","E","E","E","E","E","E","?","?","?","?","?","N","N","N","N","N","N","N","N","N","N","N","?","O","?","P","P","P","P","P","P","P","P","?","?","?","?","?","?","?","?","?","Q","Q","R","R","R","R","R","R","R","R","R","R","R","R","R","R","R","R","R","R","R","R","R","R","R","R","R","R","R","R","R","R","R","R","R","R","R","R","R","R","R","R","R","R","R","R","R","R","R","R","R","R","R","R","R","R","R","R","R","R","R","R","R","R","R","R","R","R","R","R","R","R","R","R","R","R","R","R","R","R","R","R","R","R","R","R","R","R","R","R","R","R","R","R","R","R","R","R","R","R","R","R","R","R","R","R","R","R","R","R","R","R","R","R","R","R","R","R","R","R","R","R","R","R","R","R","R","R","R","R","R","R","R","R","R","R","R","R","R","R","R","R","R","R","R","R","R","R","R","R","R","R","R","R","R","R","R","R","R","R","R","R","R","R","R","R","R","R","R","R","R"],"t":[39,49,73,90,105,122,147,155,172,189,205,223,238,255,272,289,305,323,339,355,372,389,405,422,438,455,473,489,506,522,539,555,572,588,605,622,639,655,672,688,706,722,739,755,772,788,806,822,839,855,872,888,904,922,938,955,971,988,1005,1022,1038,1057,1073,1090,1105,1122,1138,1155,1172,1189,1205,1222,1238,1256,1272,1289,1305,1322,1338,1355,1372,1388,1404,1421,1438,1455,1471,1488,1505,1523,1538,1555,1572,1587,1605,1622,1638,1655,1671,1688,1705,1721,1739,1756,1771,1789,1806,1822,1839,1855,1871,1888,1905,1922,1938,1955,1971,1988,2005,2020,2038,2054,2071,2088,2104,2121,2137,2155,2171,2188,2204,2221,2238,2254,2271,2288,2304,2321,2337,2355,2370,2387,2404,2421,2437,2455,2471,2488,2504,2521,2537,2554,2570,2588,2604,2621,2637,2655,2670,2687,2704,2722,2737,2755,2771,2788,2805,2821,2837,2854,2871,2888,2904,2921,2938,2954,2971,2987,3005,3020,3038,3054,3070,3087,3104,3121,3138,3154,3171,3187,3204,3221,3237,3254,3271,3287,3304,3320,3337,3354,3370,3388,3403,3420,3437,3454,3470,3487,3503,3521,3537,3554,3570,3587,3603,3620,3637,3654,3670,3687,3703,3721,3737,3754,3770,3787,3805,3821,3838,3854,3870,3887,3904,3920,3937,3954,3970,3987,4004,4020,4037,4054,4070,4087,4103,4121,4137,4154,4170,4187,4204,4220,4237,4253,4270,4287,4304,4320,4337,4354,4369,4387,4404,4421,4436,4453,4470,4487,4503,4520,4536,4553,4570,4587,4603,4620,4636,4653,4670,4686,4702,4720,4736,4753,4769,4787,4803,4819,4837,4854,4870,4887,4904,4920,4937,4953,4970,4986,5002,5020,5036,5053,5069,5086,5103,5119,5136,5152,5169,5186,5202,5220,5236,5253,5269,5286,5302,5319,5336,5353,5369,5386,5403,5419,5436,5453,5469,5486,5502,5519,5536,5552,5570,5586,5603,5619,5636,5653,5670,5686,5702,5719,5736,5752,5769,5786,5803,5819,5836,5853,5872,5886,5903,5919,5937,5952,5969,5986,6002,6019,6036,6052,6069,6085,6102,6119,6135,6152,6169,6185,6202,6219,6236,6253,6269,6286,6303,6318,6336,6353,6369,6385,6402,6419,6436,6452,6468,6486,6502,6519,6536,6552,6569,6586,6602,6619,6635,6652,6669,6686,6702,6720,6735,6752,6769,6786,6802,6820,6837,6852,6870,6886,6902,6919,6936,6953,6970,6986,7003,7019,7037,7052,7069,7085,7101,7118,7135,7152,7169,7185,7201,7219,7235,7252,7269,7286,7303,7319,7335,7352,7369,7386,7402,7419,7435,7452,7468,7485,7502,7519,7535,7552,7569,7585,7602,7618,7635,7652,7668,7685,7702,7718,7735,7752,7768,7785,7802,7818,7835,7852,7868,7886,7903,7919,7935,7953,7970,7986,8003,8019,8035,8052,8069,8086,8102,8119,8136,8152,8169,8185,8202,8219,8235,8252,8269,8285,8302,8318,8336,8352,8368,8385,8401,8419,8435,8452,8468,8485,8501,8518,8534,8552,8568,8584,8601,8618,8634,8651,8668,8685,8701,8718,8735,8751,8767,8785,8801,8818,8835,8852,8868,8885,8901,8919,8935,8951,8969,8985,9001,9018,9035,9051,9068,9085,9101,9118,9134,9151,9167,9184,9201,9218,9235,9251,9268,9285,9301,9318,9334,9351,9368,9385,9402,9418,9434,9451,9468,9485,9501,9517,9535,9551,9568,9584,9601,9617,9634,9650,9667,9684,9701,9718,9734,9751,9767,9785,9802,9818,9834,9851,9868,9884,9902,9918,9934,9951,9968,9984,10001,10018,10035,10051,10067,10085,10101,10117,10134,10154,10167,10184,10200,10217,10234,10250,10267,10283,10300,10317,10334,10351,10367,10384,10400,10417,10434,10450,10467,10484,10500,10517,10534,10550,10567,10584,10601,10617,10634,10650,10667,10683,10700,10717,10734,10750,10767,10784,10800,10817,10833,10850,10867,10884,10901,10917,10934,10950,10967,10983,11001,11017,11035,11050,11067,11084,11100,11116,11133,11150,11167,11184,11200,11216,11233,11250,11267,11283,11300,11316,11333,11350,11366,11384,11400,11416,11433,11450,11467,11483,11500,11516,11533,11550,11567,11583,11600,11617,11634,11650,11666,11683,11700,11716,11733,11750,11766,11784,11800,11816,11833,11850,11866,11883,11900,11917,11934,11950,11967,11983,12001,12016,12033,12050,12067,12084,12100,12116,12133,12150,12167,12183,12200,12216,12233,12250,12267,12283,12300,12316,12333,12350,12366,12383,12399,12417,12433,12449,12466,12483,12499,12516,12533,12550,12566,12583,12599,12616,12632,12650,12666,12683,12699,12716,12733,12749,12766,12783,12799,12816,12833,12849,12866,12883,12899,12917,12933,12950,12967,12983,12999,13016,13034,13049,13066,13083,13100,13115,13132,13149,13166,13182,13200,13216,13233,13249,13266,13282,13299,13316,13332,13349,13366,13382,13399,13416,13432,13449,13465,13482,13499,13515,13532,13549,13566,13583,13599,13616,13632,13649,13666,13683,13699,13716,13732,13749,13766,13783,13799,13816,13832,13849,13865,13882,13899,13915,13932,13949,13965,13983,14000,14016,14033,14049,14067,14083,14100,14116,14133,14150,14165,14184,14199,14216,14232,14249,14267,14283,14299,14317,14333,14348,14366,14382,14399,14415,14432,14449,14465,14482,14499,14516,14532,14548,14565,14582,14599,14615,14631,14649,14665,14682,14698,14715,14732,14748,14765,14782,14798,14815,14832,14848,14865,14882,14898,14915,14932,14949,14966,14982,14999,15015,15032,15048,15066,15081,15099,15115,15132,15148,15164,15182,15198,15215,15231,15248,15265,15281,15298,15315,15332,15348,15365,15381,15398,15415,15431,15448,15464,15481,15498,15516,15531,15548,15564,15581,15599,15615,15632,15648,15665,15681,15698,15715,15731,15747,15765,15781,15798,15815,15831,15848,15865,15881,15898,15915,15931,15948,15965,15982,15999,16014,16031,16048,16064,16081,16099,16115,16132,16148,16164,16182,16197,16215,16231,16248,16264,16281,16298,16315,16331,16348,16364,16381,16398,16415,16431,16448,16464,16481,16498,16514,16530,16547,16564,16581,16597,16614,16631,16648,16664,16681,16697,16715,16731,16748,16764,16781,16797,16814,16831,16848,16864,16881,16898,16914,16931,16947,16964,16981,16998,17015,17031,17048,17065,17080,17098,17114,17131,17148,17165,17180,17197,17214,17231,17247,17264,17280,17297,17314,17330,17347,17364,17380,17397,17414,17430,17447,17464,17481,17497,17514,17530,17547,17564,17580,17597,17614,17630,17647,17664,17680,17697,17714,17731,17747,17764,17781,17797,17814,17830,17847,17863,17880,17897,17913,17930,17947,17964,17981,17997,18014,18031,18047,18064,18081,18098,18114,18131,18147,18165,18181,18198,18214,18231,18247,18264,18280,18297,18314,18330,18348,18364,18380,18397,18414,18430,18447,18463,18481,18497,18514,18530,18547,18563,18580,18597,18614,18630,18647,18663,18680,18696,18714,18730,18747,18763,18780,18796,18814,18830,18847,18863,18880,18898,18913,18930,18947,18963,18980,18996,19014,19031,19047,19064,19080,19097,19113,19131,19146,19164,19180,19196,19214,19230,19246,19263,19280,19296,19313,19330,19346,19363,19380,19396,19413,19430,19447,19462,19480,19496,19513,19530,19546,19563,19580,19596,19613,19630,19647,19663,19679,19696,19713,19729,19746,19762,19779,19796,19813,19829,19846,19862,19879,19896,19912,19929,19946,19962,19979,19996,20012,20029,20046,20064,20080,20097,20113,20130,20146,20163,20180,20197,20212,20229,20246,20262,20279,20296,20313,20329,20346,20363,20380,20396,20412,20429,20446,20463,20479,20496,20512,20529,20546,20562,20579,20596,20613,20629,20646,20663,20679,20696,20713,20730,20747,20763,20779,20796,20813,20829,20846,20863,20879,20896,20912,20929,20946,20962,20979,20995,21012,21029,21046,21064,21079,21097,21113,21130,21146,21163,21179,21197,21213,21229,21245,21262,21280,21295,21313,21328,21345,21362,21379,21397,21413,21428,21446,21462,21479,21495,21512,21529,21546,21562,21579,21595,21612,21629,21646,21662,21678,21695,21712,21728,21745,21762,21779,21795,21812,21828,21845,21861,21878,21895,21912,21928,21945,21962,21979,21995,22012,22028,22046,22062,22078,22095,22112,22129,22146,22162,22179,22196,22212,22229,22245,22262,22278,22294,22312,22329,22345,22362,22378,22395,22413,22428,22444,22461,22478,22495,22511,22528,22545,22561,22578,22594,22612,22628,22645,22661,22678,22695,22712,22728,22745,22761,22778,22795,22811,22828,22845,22861,22878,22894,22911,22928,22945,22962,22978,22995,23012,23028,23045,23062,23078,23095,23111,23128,23144,23162,23178,23195,23212,23228,23245,23262,23278,23294,23311,23328,23344,23361,23378,23394,23411,23428,23445,23461,23478,23495,23511,23528,23544,23561,23578,23595,23611,23628,23644,23661,23677,23694,23711,23728,23744,23761,23777,23794,23811,23828,23844,23861,23878,23894,23911,23928,23944,23961,23977,23994,24011,24029,24046,24061,24077,24094,24111,24128,24144,24161,24178,24194,24211,24228,24244,24261,24277,24294,24310,24328,24344,24361,24377,24394,24411,24428,24444,24461,24477,24494,24511,24527,24543,24561,24577,24594,24610,24627,24644,24661,24678,24694,24710,24727,24744,24760,24778,24794,24811,24827,24844,24861,24877,24894,24910,24927,24943,24961,24977,24994,25010,25026,25044,25060,25077,25093,25111,25127,25145,25160,25177,25194,25211,25227,25244,25261,25277,25293,25310,25327,25343,25360,25377,25393,25410,25427,25444,25461,25477,25493,25510,25526,25543,25560,25577,25594,25610,25627,25644,25660,25677,25694,25710,25727,25743,25760,25777,25793,25810,25827,25843,25860,25876,25894,25911,25927,25943,25960,25976,25993,26010,26027,26043,26060,26076,26094,26110,26128,26143,26160,26177,26193,26210,26227,26243,26260,26276,26293,26310,26327,26343,26359,26376,26393,26410,26426,26443,26460,26477,26493,26509,26527,26543,26560,26576,26594,26611,26626,26643,26660,26677,26694,26709,26727,26743,26760,26776,26793,26810,26827,26843,26860,26877,26893,26910,26926,26943,26960,26977,26993,27010,27026,27043,27059,27076,27093,27110,27126,27143,27160,27177,27193,27211,27227,27243,27260,27277,27294,27310,27327,27343,27359,27376,27393,27410,27426,27443,27459,27476,27493,27509,27526,27543,27561,27576,27593,27609,27626,27643,27660,27676,27693,27709,27726,27742,27760,27776,27792,27809,27825,27842,27859,27875,27892,27909,27926,27943,27960,27976,27992,28011,28026,28043,28059,28076,28093,28109,28125,28142,28159,28176,28193,28210,28226,28243,28260,28277,28292,28309,28326,28342,28359,28375,28392,28409,28426,28442,28458,28475,28492,28509,28526,28542,28559,28575,28592,28608,28625,28642,28659,28676,28692,28709,28725,28743,28759,28776,28792,28809,28825,28842,28858,28875,28891,28908,28925,28942,28959,28975,28993,29009,29026,29043,29059,29075,29093,29109,29125,29142,29159,29175,29192,29209,29225,29243,29259,29276,29292,29308,29325,29342,29358,29375,29391,29409,29425,29441,29458,29475,29491,29508,29525,29542,29558,29575,29591,29608,29625,29642,29658,29675,29691,29708,29725,29741,29758,29775,29792,29808,29825,29841,29858,29875,29892,29908,29925,29941,29958,29975,29992,30009,30024,30042,30058,30075,30092,30108,30125,30141,30158,30175,30192,30209,30225,30242,30258,30276,30292,30309,30325,30342,30358,30374,30391,30407,30425,30441,30458,30474,30492,30508,30525,30541,30558,30574,30591,30608,30624,30641,30658,30675,30691,30707,30725,30741,30758,30774,30791,30808,30824,30841,30858,30874,30892,30908,30925,30941,30958,30974,30991,31008,31025,31041,31058,31074,31091,31108,31125,31141,31158,31174,31191,31208,31225,31241,31258,31275,31291,31309,31325,31342,31358,31375,31391,31409,31424,31441,31457,31474,31491,31508,31524,31541,31557,31574,31591,31608,31625,31645,31658,31674,31691,31708,31724,31741,31758,31774,31791,31807,31824,31841,31858,31874,31891,31907,31924,31941,31958,31974,31991,32007,32024,32041,32058,32074,32091,32107,32124,32140,32157,32173,32191,32206,32224,32242,32258,32275,32291,32308,32324,32341,32357,32375,32391,32408,32424,32440,32457,32474,32491,32508,32524,32541,32557,32575,32590,32607,32624,32641,32657,32674,32690,32707,32724,32740,32757,32773,32790,32807,32824,32840,32857,32873,32890,32907,32924,32940,32956,32974,32990,33007,33024,33040,33057,33073,33090,33106,33123,33140,33157,33173,33190,33206,33223,33240,33257,33274,33290,33307,33324,33341,33356,33374,33390,33408,33423,33440,33457,33473,33490,33507,33524,33540,33556,33573,33590,33606,33623,33640,33656,33673,33690,33706,33723,33740,33756,33773,33790,33807,33824,33840,33857,33874,33890,33907,33924,33940,33957,33973,33990,34007,34023,34039,34057,34073,34089,34106,34123,34140,34156,34173,34190,34206,34223,34240,34257,34273,34290,34307,34323,34340,34357,34373,34390,34407,34423,34440,34456,34473,34490,34506,34523,34539,34556,34573,34590,34606,34623,34639,34656,34673,34690,34706,34723,34740,34756,34773,34789,34806,34823,34839,34856,34873,34889,34905,34922,34939,34956,34973,34990,35006,35023,35040,35056,35073,35090,35106,35122,35140,35156,35172,35189,35206,35223,35239,35256,35273,35289,35307,35323,35340,35356,35373,35389,35406,35422,35440,35456,35473,35489,35506,35522,35539,35556,35572,35589,35605,35622,35639,35656,35672,35689,35706,35722,35739,35756,35773,35789,35806,35823,35839,35856,35873,35889,35906,35923,35939,35956,35973,35989,36005,36022,36039,36056,36072,36089,36106,36126,36139,36156,36172,36189,36206,36223,36239,36256,36272,36289,36306,36322,36340,36356,36373,36389,36406,36422,36439,36455,36473,36489,36506,36522,36538,36555,36572,36589,36605,36622,36639,36655,36672,36689,36705,36722,36738,36755,36772,36788,36805,36822,36838,36855,36872,36889,36905,36922,36938,36954,36972,36988,37005,37022,37039,37055,37072,37089,37105,37122,37138,37156,37172,37189,37205,37222,37238,37255,37272,37288,37305,37322,37339,37355,37372,37388,37406,37422,37439,37456,37471,37488,37505,37521,37539,37557,37572,37588,37605,37621,37638,37656,37671,37688,37704,37721,37738,37755,37773,37788,37805,37821,37838,37855,37871,37888,37905,37922,37938,37955,37971,37988,38004,38021,38038,38055,38072,38088,38105,38122,38138,38155,38172,38188,38205,38221,38238,38255,38271,38288,38304,38321,38338,38354,38371,38388,38405,38421,38439,38454,38472,38488,38505,38520,38538,38554,38571,38588,38605,38621,38638,38654,38671,38688,38704,38721,38737,38754,38771,38788,38805,38821,38838,38855,38871,38887,38904,38921,38938,38954,38971,38988,39004,39021,39037,39054,39071,39088,39104,39121,39137,39156,39171,39187,39204,39221,39238,39254,39271,39287,39304,39321,39337,39354,39372,39387,39405,39421,39437,39454,39472,39487,39505,39520,39537,39555,39571,39588,39604,39621,39637,39654,39670,39688,39704,39720,39737,39754,39771,39787,39804,39820,39837,39854,39870,39887,39903,39920,39937,39954,39970,39987,40003,40020,40038,40054,40071,40087,40104,40120,40138,40154,40170,40187,40203,40220,40237,40254,40269,40287,40303,40320,40337,40354,40371,40387,40407,40420,40437,40454,40470,40487,40505,40520,40538,40553,40570,40587,40603,40620,40636,40654,40670,40687,40704,40720,40736,40753,40770,40787,40803,40820,40836,40853,40870,40887,40903,40920,40937,40953,40970,40987,41004,41020,41036,41054,41070,41087,41103,41120,41137,41153,41170,41187,41203,41220,41237,41253,41270,41287,41304,41320,41337,41353,41370,41386,41404,41420,41437,41453,41470,41487,41503,41520,41537,41554,41570,41586,41603,41621,41637,41652,41669,41686,41703,41719,41736,41753,41770,41786,41803,41820,41836,41854,41870,41886,41902,41919,41936,41953,41969,41986,42003,42019,42040,42053,42069,42086,42103,42119,42136,42152,42169,42186,42202,42219,42236,42253,42269,42286,42303,42320,42336,42353,42370,42387,42404,42420,42437,42453,42469,42486,42504,42520,42537,42553,42570,42587,42604,42620,42637,42653,42670,42686,42703,42719,42736,42752,42769,42786,42803,42820,42837,42853,42869,42886,42902,42919,42936,42952,42969,42986,43002,43019,43035,43052,43069,43086,43102,43120,43136,43153,43168,43186,43202,43219,43235,43252,43269,43285,43304,43319,43335,43354,43369,43386,43402,43419,43436,43452,43469,43485,43503,43519,43536,43552,43569,43586,43602,43619,43635,43652,43668,43685,43702,43719,43735,43752,43768,43786,43802,43819,43836,43852,43869,43885,43902,43919,43935,43952,43968,43985,44002,44018,44035,44052,44068,44085,44102,44119,44136,44153,44168,44186,44202,44219,44235,44252,44269,44286,44302,44319,44335,44352,44368,44386,44402,44419,44436,44453,44470,44486,44503,44519,44536,44552,44569,44586,44602,44618,44635,44652,44669,44685,44701,44719,44735,44752,44769,44785,44802,44819,44835,44852,44868,44885,44902,44919,44935,44951,44968,44985,45001,45018,45035,45051,45068,45085,45102,45118,45135,45151,45168,45185,45201,45218,45234,45251,45268,45285,45301,45318,45335,45351,45368,45384,45401,45418,45435,45452,45468,45485,45501,45518,45536,45551,45574,45585,45603,45619,45635,45651,45668,45684,45701,45719,45734,45752,45768,45784,45801,45818,45834,45850,45868,45885,45901,45918,45934,45951,45968,45984,46001,46018,46034,46051,46068,46084,46101,46118,46134,46151,46168,46184,46201,46218,46234,46251,46267,46284,46301,46318,46334,46351,46368,46384,46401,46418,46434,46451,46469,46484,46502,46518,46535,46551,46568,46585,46601,46618,46634,46651,46667,46685,46701,46717,46734,46751,46767,46784,46801,46817,46834,46850,46867,46884,46900,46918,46934,46951,46967,46984,47000,47017,47034,47050,47067,47085,47100,47117,47134,47151,47167,47184,47200,47217,47234,47251,47267,47284,47300,47317,47334,47350,47367,47384,47400,47417,47433,47451,47467,47484,47501,47517,47534,47551,47569],"hit":[null],"x":[-2.0408163265306123,-2.0408163265306123,-2.0408163265306123,-2.0408163265306123,-2.0408163265306123,-2.0408163265306123,-2.0408163265306123,-2.0408163265306123,-2.0408163265306123,-2.0408163265306123,-2.0408163265306123,-2.0408163265306123,-2.0408163265306123,-2.0408163265306123,-2.0408163265306123,-2.0408163265306123,-2.0408163265306123,-2.0408163265306123,-2.0408163265306123,-2.0408163265306123,-2.0408163265306123,-2.0408163265306123,-2.0408163265306123,-2.0408163265306123,-2.0408163265306123,-2.0408163265306123,-2.0408163265306123,-2.0408163265306123,-2.0408163265306123,-2.0408163265306123,-2.0408163265306123,-2.0408163265306123,-2.0408163265306123,-2.0408163265306123,-2.0408163265306123,-2.0408163265306123,-2.0408163265306123,-2.0408163265306123,-2.0408163265306123,-2.0408163265306123,-2.0408163265306123,-2.0408163265306123,-2.0408163265306123,-2.0408163265306123,-2.0408163265306123,-2.0408163265306123,-2.0408163265306123,-2.0408163265306123,-2.0408163265306123,-2.0408163265306123,-2.0408163265306123,-2.0408163265306123,-2.0408163265306123,-2.0408163265306123,-2.0408163265306123,-2.0408163265306123,-2.0408163265306123,-2.0408163265306123,-2.0408163265306123,-2.0408163265306123,-2.0408163265306123,-0.027210884353741496,-0.023809523809523808,0.03741496598639456,0.07142857142857142,0.1054421768707483,0.16326530612244897,0.18027210884353742,0.20068027210884354,0.20748299319727892,0.23129251700680273,0.24489795918367346,0.2687074829931973,0.2789115646258503,0.2857142857142857,0.2925170068027211,0.29931972789115646,0.29931972789115646,0.30272108843537415,0.30272108843537415,0.30272108843537415,0.30272108843537415,0.30272108843537415,0.30272108843537415,0.30272108843537415,0.30272108843537415,0.30272108843537415,0.30272108843537415,0.30272108843537415,0.30272108843537415,0.30272108843537415,0.30272108843537415,0.30272108843537415,0.30272108843537415,0.30272108843537415,0.30272108843537415,0.30272108843537415,0.30272108843537415,0.30272108843537415,0.30272108843537415,0.30272108843537415,0.30272108843537415,0.30272108843537415,0.29931972789115646,0.2891156462585034,0.272108843537415,0.24489795918367346,0.23129251700680273,0.22108843537414966,0.20748299319727892,0.20068027210884354,0.19387755102040816,0.19047619047619047,0.1836734693877551,0.18027210884353742,0.18027210884353742,0.17687074829931973,0.17687074829931973,0.17687074829931973,0.17687074829931973,0.17687074829931973,0.17687074829931973,0.17687074829931973,0.17687074829931973,0.17687074829931973,0.17687074829931973,0.17687074829931973,0.17687074829931973,0.17687074829931973,0.17687074829931973,0.17687074829931973,0.17687074829931973,0.17687074829931973,0.17687074829931973,0.17687074829931973,0.17687074829931973,0.17687074829931973,0.17687074829931973,0.17687074829931973,0.17687074829931973,0.17687074829931973,0.17687074829931973,0.17687074829931973,0.17687074829931973,0.17687074829931973,0.17687074829931973,0.17687074829931973,0.17687074829931973,0.17687074829931973,0.17687074829931973,0.17687074829931973,0.17687074829931973,0.17687074829931973,0.17687074829931973,0.17687074829931973,0.17687074829931973,0.17687074829931973,0.17687074829931973,0.17687074829931973,0.17687074829931973,0.17687074829931973,0.17687074829931973,0.17687074829931973,0.17687074829931973,0.17687074829931973,0.17687074829931973,0.17687074829931973,0.17687074829931973,0.17687074829931973,0.17687074829931973,0.17687074829931973,0.17687074829931973,0.17687074829931973,0.17687074829931973,0.17687074829931973,0.17687074829931973,0.17687074829931973,0.17687074829931973,0.17687074829931973,0.17687074829931973,0.17687074829931973,0.17687074829931973,0.17687074829931973,0.17687074829931973,0.17687074829931973,0.17687074829931973,0.17687074829931973,0.17687074829931973,0.17687074829931973,0.17687074829931973,0.17687074829931973,0.17687074829931973,0.17687074829931973,0.17687074829931973,0.17687074829931973,0.17687074829931973,0.17687074829931973,0.17687074829931973,0.17687074829931973,0.17687074829931973,0.17687074829931973,0.17687074829931973,0.17687074829931973,0.17687074829931973,0.17687074829931973,0.17687074829931973,0.17687074829931973,0.17687074829931973,0.17687074829931973,0.17687074829931973,0.17687074829931973,0.17687074829931973,0.17687074829931973,0.17687074829931973,0.17687074829931973,0.17687074829931973,0.17687074829931973,0.17687074829931973,0.17687074829931973,0.17687074829931973,0.17687074829931973,0.19727891156462585,0.3231292517006803,0.47278911564625853,0.6768707482993197,0.7108843537414966,0.7244897959183674,0.7346938775510204,0.7346938775510204,0.7346938775510204,0.7346938775510204,0.7346938775510204,0.7346938775510204,0.7346938775510204,0.7346938775510204,0.7244897959183674,0.717687074829932,0.7074829931972789,0.7074829931972789,0.6904761904761905,0.6836734693877551,0.6666666666666666,0.6054421768707483,0.564625850340136,0.48639455782312924,0.48639455782312924,0.42857142857142855,0.40816326530612246,0.3877551020408163,0.3843537414965986,0.38095238095238093,0.3741496598639456,0.3673469387755102,0.35714285714285715,0.3401360544217687,0.336734693877551,0.3299319727891156,0.3197278911564626,0.3197278911564626,0.3163265306122449,0.3129251700680272,0.3129251700680272,0.3129251700680272,0.3129251700680272,0.3129251700680272,0.3129251700680272,0.30952380952380953,0.30612244897959184,0.30612244897959184,0.30612244897959184,0.30612244897959184,0.30612244897959184,0.30612244897959184,0.30612244897959184,0.30612244897959184,0.30612244897959184,0.30612244897959184,0.30612244897959184,0.30612244897959184,0.30612244897959184,0.30612244897959184,0.30612244897959184,0.30612244897959184,0.30612244897959184,0.30612244897959184,0.30612244897959184,0.30612244897959184,0.30612244897959184,0.30272108843537415,0.29931972789115646,0.29931972789115646,0.29591836734693877,0.2857142857142857,0.2857142857142857,0.2789115646258503,0.2755102040816326,0.2755102040816326,0.272108843537415,0.272108843537415,0.272108843537415,0.272108843537415,0.272108843537415,0.272108843537415,0.272108843537415,0.272108843537415,0.272108843537415,0.272108843537415,0.272108843537415,0.272108843537415,0.272108843537415,0.272108843537415,0.272108843537415,0.272108843537415,0.272108843537415,0.272108843537415,0.272108843537415,0.272108843537415,0.272108843537415,0.272108843537415,0.272108843537415,0.272108843537415,0.272108843537415,0.272108843537415,0.272108843537415,0.272108843537415,0.272108843537415,0.272108843537415,0.272108843537415,0.272108843537415,0.272108843537415,0.272108843537415,0.272108843537415,0.272108843537415,0.272108843537415,0.272108843537415,0.272108843537415,0.272108843537415,0.272108843537415,0.272108843537415,0.272108843537415,0.272108843537415,0.272108843537415,0.272108843537415,0.272108843537415,0.272108843537415,0.272108843537415,0.272108843537415,0.272108843537415,0.272108843537415,0.272108843537415,0.272108843537415,0.272108843537415,0.272108843537415,0.272108843537415,0.272108843537415,0.272108843537415,0.272108843537415,0.272108843537415,0.272108843537415,0.272108843537415,0.272108843537415,0.272108843537415,0.272108843537415,0.272108843537415,0.272108843537415,0.272108843537415,0.272108843537415,0.272108843537415,0.272108843537415,0.272108843537415,0.272108843537415,0.272108843537415,0.272108843537415,0.272108843537415,0.2755102040816326,0.2755102040816326,0.2755102040816326,0.2755102040816326,0.2789115646258503,0.2789115646258503,0.2789115646258503,0.2789115646258503,0.2789115646258503,0.282312925170068,0.282312925170068,0.2857142857142857,0.2857142857142857,0.2857142857142857,0.2857142857142857,0.2891156462585034,0.2925170068027211,0.2925170068027211,0.2925170068027211,0.2925170068027211,0.29591836734693877,0.29591836734693877,0.29591836734693877,0.29931972789115646,0.29931972789115646,0.29931972789115646,0.29931972789115646,0.30272108843537415,0.3163265306122449,0.32653061224489793,0.3401360544217687,0.35374149659863946,0.3707482993197279,0.3741496598639456,0.3843537414965986,0.3843537414965986,0.3877551020408163,0.391156462585034,0.391156462585034,0.3945578231292517,0.3945578231292517,0.3945578231292517,0.3945578231292517,0.3945578231292517,0.3979591836734694,0.3979591836734694,0.3979591836734694,0.3979591836734694,0.3979591836734694,0.3979591836734694,0.3979591836734694,0.3979591836734694,0.3979591836734694,0.3979591836734694,0.3979591836734694,0.3979591836734694,0.3979591836734694,0.3979591836734694,0.3979591836734694,0.40476190476190477,0.41156462585034015,0.42857142857142855,0.4897959183673469,0.5170068027210885,0.5306122448979592,0.54421768707483,0.5578231292517006,0.564625850340136,0.5680272108843537,0.5714285714285714,0.5714285714285714,0.5714285714285714,0.5714285714285714,0.5714285714285714,0.5782312925170068,0.5816326530612245,0.5816326530612245,0.5816326530612245,0.5850340136054422,0.5850340136054422,0.5850340136054422,0.5850340136054422,0.5850340136054422,0.5850340136054422,0.5850340136054422,0.5952380952380952,0.6428571428571429,0.673469387755102,0.6972789115646258,0.7108843537414966,0.7278911564625851,0.7346938775510204,0.7414965986394558,0.7551020408163265,0.7619047619047619,0.7653061224489796,0.7653061224489796,0.7653061224489796,0.7585034013605442,0.7448979591836735,0.7448979591836735,0.7414965986394558,0.7414965986394558,0.7414965986394558,0.7414965986394558,0.7414965986394558,0.7414965986394558,0.7482993197278912,0.7482993197278912,0.7619047619047619,0.7687074829931972,0.7789115646258503,0.782312925170068,0.7891156462585034,0.7891156462585034,0.7993197278911565,0.7993197278911565,0.8027210884353742,0.8027210884353742,0.8027210884353742,0.8027210884353742,0.7959183673469388,0.7925170068027211,0.7891156462585034,0.782312925170068,0.7789115646258503,0.7755102040816326,0.7687074829931972,0.7653061224489796,0.7653061224489796,0.7653061224489796,0.7653061224489796,0.7653061224489796,0.7653061224489796,0.7653061224489796,0.7653061224489796,0.7653061224489796,0.7653061224489796,0.7653061224489796,0.7653061224489796,0.7653061224489796,0.7653061224489796,0.7653061224489796,0.7653061224489796,0.7653061224489796,0.7653061224489796,0.7653061224489796,0.7653061224489796,0.7653061224489796,0.7653061224489796,0.7653061224489796,0.7653061224489796,0.7619047619047619,0.7619047619047619,0.7585034013605442,0.7312925170068028,0.6904761904761905,0.6530612244897959,0.5884353741496599,0.5578231292517006,0.5306122448979592,0.47619047619047616,0.4523809523809524,0.3979591836734694,0.3707482993197279,0.3435374149659864,0.3197278911564626,0.282312925170068,0.2687074829931973,0.25170068027210885,0.23809523809523808,0.23809523809523808,0.23469387755102042,0.23129251700680273,0.23129251700680273,0.23129251700680273,0.23129251700680273,0.23129251700680273,0.22789115646258504,0.21768707482993196,0.20408163265306123,0.19047619047619047,0.17006802721088435,0.16326530612244897,0.1598639455782313,0.1598639455782313,0.1564625850340136,0.1564625850340136,0.1564625850340136,0.1564625850340136,0.16326530612244897,0.16326530612244897,0.16326530612244897,0.16666666666666666,0.16666666666666666,0.16666666666666666,0.16666666666666666,0.16666666666666666,0.16666666666666666,0.16666666666666666,0.16666666666666666,0.16666666666666666,0.16666666666666666,0.16666666666666666,0.16666666666666666,0.16666666666666666,0.16666666666666666,0.16666666666666666,0.16666666666666666,0.16666666666666666,0.16666666666666666,0.16666666666666666,0.16666666666666666,0.16666666666666666,0.16666666666666666,0.16666666666666666,0.16666666666666666,0.16666666666666666,0.16666666666666666,0.16666666666666666,0.16666666666666666,0.16666666666666666,0.16666666666666666,0.16666666666666666,0.16666666666666666,0.16666666666666666,0.16666666666666666,0.16666666666666666,0.16666666666666666,0.16666666666666666,0.16666666666666666,0.16666666666666666,0.16666666666666666,0.16666666666666666,0.16666666666666666,0.16666666666666666,0.16666666666666666,0.16666666666666666,0.16666666666666666,0.16666666666666666,0.16666666666666666,0.16666666666666666,0.16666666666666666,0.16666666666666666,0.16666666666666666,0.16666666666666666,0.16666666666666666,0.16666666666666666,0.16666666666666666,0.16666666666666666,0.16666666666666666,0.16666666666666666,0.16666666666666666,0.16666666666666666,0.16666666666666666,0.16666666666666666,0.16666666666666666,0.16666666666666666,0.16666666666666666,0.16666666666666666,0.16666666666666666,0.16666666666666666,0.16666666666666666,0.16666666666666666,0.16666666666666666,0.16666666666666666,0.16666666666666666,0.16666666666666666,0.16666666666666666,0.16666666666666666,0.16666666666666666,0.16666666666666666,0.16666666666666666,0.16666666666666666,0.16666666666666666,0.16666666666666666,0.16666666666666666,0.16666666666666666,0.16666666666666666,0.16666666666666666,0.16666666666666666,0.16666666666666666,0.16666666666666666,0.16666666666666666,0.16666666666666666,0.16666666666666666,0.16666666666666666,0.16666666666666666,0.16666666666666666,0.16666666666666666,0.16666666666666666,0.16666666666666666,0.16666666666666666,0.16666666666666666,0.16666666666666666,0.16666666666666666,0.16666666666666666,0.16666666666666666,0.16666666666666666,0.16666666666666666,0.16666666666666666,0.16666666666666666,0.16666666666666666,0.16666666666666666,0.16666666666666666,0.16666666666666666,0.16666666666666666,0.16666666666666666,0.16666666666666666,0.16666666666666666,0.16666666666666666,0.16666666666666666,0.16666666666666666,0.16666666666666666,0.16666666666666666,0.16666666666666666,0.16666666666666666,0.16666666666666666,0.16666666666666666,0.16666666666666666,0.16666666666666666,0.16666666666666666,0.16666666666666666,0.16666666666666666,0.16666666666666666,0.16666666666666666,0.16666666666666666,0.16666666666666666,0.16666666666666666,0.16666666666666666,0.16666666666666666,0.16666666666666666,0.16666666666666666,0.16666666666666666,0.16666666666666666,0.16666666666666666,0.16666666666666666,0.16666666666666666,0.16666666666666666,0.16666666666666666,0.16666666666666666,0.16666666666666666,0.16666666666666666,0.16666666666666666,0.16666666666666666,0.16666666666666666,0.16666666666666666,0.16666666666666666,0.16666666666666666,0.16666666666666666,0.16666666666666666,0.16666666666666666,0.16666666666666666,0.16666666666666666,0.16666666666666666,0.16666666666666666,0.16666666666666666,0.16666666666666666,0.16666666666666666,0.16666666666666666,0.16666666666666666,0.16666666666666666,0.16666666666666666,0.16666666666666666,0.16666666666666666,0.16666666666666666,0.16666666666666666,0.16666666666666666,0.16666666666666666,0.16666666666666666,0.16666666666666666,0.16666666666666666,0.16666666666666666,0.16666666666666666,0.16666666666666666,0.16666666666666666,0.16666666666666666,0.16666666666666666,0.16666666666666666,0.16666666666666666,0.16666666666666666,0.16666666666666666,0.16666666666666666,0.16666666666666666,0.16666666666666666,0.16666666666666666,0.16666666666666666,0.16666666666666666,0.16666666666666666,0.16666666666666666,0.16666666666666666,0.16666666666666666,0.16666666666666666,0.16666666666666666,0.16666666666666666,0.16666666666666666,0.16666666666666666,0.16666666666666666,0.16666666666666666,0.16666666666666666,0.16666666666666666,0.16666666666666666,0.16666666666666666,0.16666666666666666,0.16666666666666666,0.16666666666666666,0.16666666666666666,0.16666666666666666,0.16666666666666666,0.16666666666666666,0.16666666666666666,0.16666666666666666,0.16666666666666666,0.16666666666666666,0.16666666666666666,0.16666666666666666,0.16666666666666666,0.16666666666666666,0.16666666666666666,0.16666666666666666,0.16666666666666666,0.16666666666666666,0.16666666666666666,0.16666666666666666,0.16666666666666666,0.16666666666666666,0.16666666666666666,0.16666666666666666,0.16666666666666666,0.16666666666666666,0.16666666666666666,0.16666666666666666,0.16666666666666666,0.16666666666666666,0.16666666666666666,0.16666666666666666,0.16666666666666666,0.16666666666666666,0.16666666666666666,0.16666666666666666,0.16666666666666666,0.16666666666666666,0.16666666666666666,0.16666666666666666,0.16666666666666666,0.16666666666666666,0.16666666666666666,0.16666666666666666,0.16666666666666666,0.16666666666666666,0.16666666666666666,0.16666666666666666,0.16666666666666666,0.16666666666666666,0.16666666666666666,0.16666666666666666,0.16666666666666666,0.16666666666666666,0.16666666666666666,0.16666666666666666,0.16666666666666666,0.16666666666666666,0.16666666666666666,0.17006802721088435,0.17687074829931973,0.1836734693877551,0.20748299319727892,0.2789115646258503,0.3129251700680272,0.3401360544217687,0.4013605442176871,0.43537414965986393,0.47959183673469385,0.5,0.5204081632653061,0.5408163265306123,0.5816326530612245,0.6054421768707483,0.6258503401360545,0.673469387755102,0.6870748299319728,0.7006802721088435,0.7210884353741497,0.7278911564625851,0.7346938775510204,0.7346938775510204,0.7346938775510204,0.7346938775510204,0.7346938775510204,0.7346938775510204,0.7346938775510204,0.7346938775510204,0.7346938775510204,0.7346938775510204,0.7346938775510204,0.7346938775510204,0.7346938775510204,0.7346938775510204,0.7346938775510204,0.7346938775510204,0.7346938775510204,0.7346938775510204,0.7346938775510204,0.7346938775510204,0.7346938775510204,0.7346938775510204,0.7346938775510204,0.7346938775510204,0.7346938775510204,0.7346938775510204,0.7346938775510204,0.7346938775510204,0.7346938775510204,0.7346938775510204,0.7346938775510204,0.7346938775510204,0.7346938775510204,0.7346938775510204,0.7346938775510204,0.7346938775510204,0.7346938775510204,0.7346938775510204,0.7346938775510204,0.7346938775510204,0.7346938775510204,0.7346938775510204,0.7346938775510204,0.7346938775510204,0.7346938775510204,0.7346938775510204,0.7346938775510204,0.7346938775510204,0.7346938775510204,0.7346938775510204,0.7346938775510204,0.7346938775510204,0.7346938775510204,0.7346938775510204,0.7346938775510204,0.7346938775510204,0.7346938775510204,0.7346938775510204,0.7346938775510204,0.7346938775510204,0.7346938775510204,0.7346938775510204,0.7346938775510204,0.7346938775510204,0.7346938775510204,0.7346938775510204,0.7346938775510204,0.7346938775510204,0.7346938775510204,0.7346938775510204,0.7346938775510204,0.7346938775510204,0.7346938775510204,0.7346938775510204,0.7346938775510204,0.7346938775510204,0.7346938775510204,0.7346938775510204,0.7346938775510204,0.7346938775510204,0.7346938775510204,0.7346938775510204,0.7346938775510204,0.7346938775510204,0.7346938775510204,0.7346938775510204,0.7346938775510204,0.7346938775510204,0.7346938775510204,0.7346938775510204,0.7346938775510204,0.7346938775510204,0.7346938775510204,0.7346938775510204,0.7346938775510204,0.7346938775510204,0.7346938775510204,0.7346938775510204,0.7346938775510204,0.7346938775510204,0.7346938775510204,0.7346938775510204,0.7346938775510204,0.7346938775510204,0.7346938775510204,0.7346938775510204,0.7346938775510204,0.7346938775510204,0.7346938775510204,0.7346938775510204,0.7346938775510204,0.7346938775510204,0.7346938775510204,0.7346938775510204,0.7346938775510204,0.7346938775510204,0.7346938775510204,0.7346938775510204,0.7346938775510204,0.7346938775510204,0.7346938775510204,0.7346938775510204,0.7346938775510204,0.7346938775510204,0.7346938775510204,0.7346938775510204,0.7346938775510204,0.7346938775510204,0.7346938775510204,0.7346938775510204,0.7346938775510204,0.7346938775510204,0.7346938775510204,0.7346938775510204,0.7346938775510204,0.7346938775510204,0.7346938775510204,0.7346938775510204,0.7346938775510204,0.7346938775510204,0.7346938775510204,0.7346938775510204,0.7346938775510204,0.7346938775510204,0.7346938775510204,0.7346938775510204,0.7346938775510204,0.7346938775510204,0.7346938775510204,0.7346938775510204,0.7346938775510204,0.7346938775510204,0.7346938775510204,0.7346938775510204,0.7346938775510204,0.7346938775510204,0.7346938775510204,0.7346938775510204,0.7346938775510204,0.7346938775510204,0.7346938775510204,0.7346938775510204,0.7346938775510204,0.7346938775510204,0.7346938775510204,0.7346938775510204,0.7346938775510204,0.7346938775510204,0.7346938775510204,0.7346938775510204,0.7346938775510204,0.7346938775510204,0.7346938775510204,0.7346938775510204,0.7346938775510204,0.7346938775510204,0.7346938775510204,0.7346938775510204,0.7346938775510204,0.7346938775510204,0.7346938775510204,0.7346938775510204,0.7346938775510204,0.7346938775510204,0.7346938775510204,0.7346938775510204,0.7346938775510204,0.7346938775510204,0.7346938775510204,0.7346938775510204,0.7346938775510204,0.7346938775510204,0.7346938775510204,0.7346938775510204,0.7346938775510204,0.7346938775510204,0.7346938775510204,0.7346938775510204,0.7346938775510204,0.7346938775510204,0.7346938775510204,0.7346938775510204,0.7346938775510204,0.7346938775510204,0.7346938775510204,0.7346938775510204,0.7346938775510204,0.7346938775510204,0.7346938775510204,0.7346938775510204,0.7346938775510204,0.7346938775510204,0.7346938775510204,0.7346938775510204,0.7346938775510204,0.7346938775510204,0.7346938775510204,0.7346938775510204,0.7346938775510204,0.7346938775510204,0.7346938775510204,0.7346938775510204,0.7346938775510204,0.7346938775510204,0.7346938775510204,0.7312925170068028,0.7312925170068028,0.7312925170068028,0.7278911564625851,0.7244897959183674,0.7210884353741497,0.7210884353741497,0.717687074829932,0.7142857142857143,0.7108843537414966,0.7040816326530612,0.6972789115646258,0.6972789115646258,0.6904761904761905,0.6870748299319728,0.6802721088435374,0.6768707482993197,0.6564625850340136,0.6428571428571429,0.6326530612244898,0.5884353741496599,0.5714285714285714,0.54421768707483,0.5102040816326531,0.4931972789115646,0.47619047619047616,0.46938775510204084,0.46258503401360546,0.45918367346938777,0.445578231292517,0.445578231292517,0.4387755102040816,0.43537414965986393,0.43537414965986393,0.43197278911564624,0.43197278911564624,0.43197278911564624,0.43197278911564624,0.43197278911564624,0.43197278911564624,0.43197278911564624,0.43197278911564624,0.43197278911564624,0.43197278911564624,0.43197278911564624,0.43197278911564624,0.43197278911564624,0.43197278911564624,0.43197278911564624,0.43197278911564624,0.43197278911564624,0.43197278911564624,0.43197278911564624,0.43197278911564624,0.43197278911564624,0.43197278911564624,0.43197278911564624,0.43197278911564624,0.43197278911564624,0.43197278911564624,0.43197278911564624,0.43197278911564624,0.43197278911564624,0.43197278911564624,0.43197278911564624,0.43197278911564624,0.43197278911564624,0.43197278911564624,0.43197278911564624,0.43197278911564624,0.43197278911564624,0.43197278911564624,0.43197278911564624,0.43197278911564624,0.43197278911564624,0.43197278911564624,0.43197278911564624,0.43197278911564624,0.43197278911564624,0.43197278911564624,0.43197278911564624,0.43197278911564624,0.43197278911564624,0.43197278911564624,0.43197278911564624,0.43197278911564624,0.43197278911564624,0.43197278911564624,0.43197278911564624,0.43197278911564624,0.43197278911564624,0.43197278911564624,0.43197278911564624,0.43197278911564624,0.43197278911564624,0.43197278911564624,0.43197278911564624,0.43197278911564624,0.43197278911564624,0.43197278911564624,0.43197278911564624,0.43197278911564624,0.43197278911564624,0.43197278911564624,0.43197278911564624,0.43197278911564624,0.43197278911564624,0.43197278911564624,0.43197278911564624,0.43197278911564624,0.43197278911564624,0.43197278911564624,0.43197278911564624,0.43197278911564624,0.43197278911564624,0.43197278911564624,0.43197278911564624,0.43197278911564624,0.43197278911564624,0.43197278911564624,0.43197278911564624,0.43197278911564624,0.43197278911564624,0.43197278911564624,0.43197278911564624,0.43197278911564624,0.43197278911564624,0.43197278911564624,0.43197278911564624,0.43197278911564624,0.43197278911564624,0.43197278911564624,0.43197278911564624,0.43197278911564624,0.43197278911564624,0.43197278911564624,0.43197278911564624,0.43197278911564624,0.43197278911564624,0.43197278911564624,0.43197278911564624,0.43197278911564624,0.43197278911564624,0.43197278911564624,0.43197278911564624,0.43197278911564624,0.43197278911564624,0.43197278911564624,0.43197278911564624,0.43197278911564624,0.43197278911564624,0.43197278911564624,0.43197278911564624,0.43537414965986393,0.445578231292517,0.47278911564625853,0.5476190476190477,0.5748299319727891,0.5952380952380952,0.6190476190476191,0.6258503401360545,0.6326530612244898,0.6394557823129252,0.6394557823129252,0.6462585034013606,0.6462585034013606,0.6496598639455783,0.6496598639455783,0.6530612244897959,0.6530612244897959,0.6530612244897959,0.6530612244897959,0.6530612244897959,0.6530612244897959,0.6530612244897959,0.6530612244897959,0.6530612244897959,0.6530612244897959,0.6530612244897959,0.6598639455782312,0.6700680272108843,0.6768707482993197,0.6802721088435374,0.6836734693877551,0.6836734693877551,0.6870748299319728,0.6904761904761905,0.6904761904761905,0.6904761904761905,0.6904761904761905,0.6904761904761905,0.6904761904761905,0.6904761904761905,0.6904761904761905,0.6904761904761905,0.6904761904761905,0.6904761904761905,0.6904761904761905,0.6904761904761905,0.6904761904761905,0.6904761904761905,0.6904761904761905,0.6904761904761905,0.6904761904761905,0.6904761904761905,0.6904761904761905,0.6904761904761905,0.6904761904761905,0.6904761904761905,0.6904761904761905,0.6904761904761905,0.6904761904761905,0.6904761904761905,0.6904761904761905,0.6904761904761905,0.6904761904761905,0.6904761904761905,0.6904761904761905,0.6904761904761905,0.6904761904761905,0.6904761904761905,0.6904761904761905,0.6904761904761905,0.6904761904761905,0.6904761904761905,0.6904761904761905,0.6904761904761905,0.6904761904761905,0.6904761904761905,0.6904761904761905,0.6904761904761905,0.6904761904761905,0.6904761904761905,0.6904761904761905,0.6904761904761905,0.6904761904761905,0.6904761904761905,0.6904761904761905,0.6904761904761905,0.6904761904761905,0.6904761904761905,0.6904761904761905,0.6904761904761905,0.6904761904761905,0.6904761904761905,0.6904761904761905,0.6904761904761905,0.6904761904761905,0.6904761904761905,0.6904761904761905,0.6904761904761905,0.6904761904761905,0.6904761904761905,0.6904761904761905,0.6904761904761905,0.6904761904761905,0.6904761904761905,0.6904761904761905,0.6904761904761905,0.6904761904761905,0.6904761904761905,0.6904761904761905,0.6904761904761905,0.6904761904761905,0.6904761904761905,0.6904761904761905,0.6904761904761905,0.6904761904761905,0.6904761904761905,0.6904761904761905,0.6904761904761905,0.6904761904761905,0.6904761904761905,0.6904761904761905,0.6904761904761905,0.6904761904761905,0.6904761904761905,0.6904761904761905,0.6904761904761905,0.6904761904761905,0.6904761904761905,0.6904761904761905,0.6904761904761905,0.6904761904761905,0.6904761904761905,0.6904761904761905,0.6904761904761905,0.6904761904761905,0.6904761904761905,0.6904761904761905,0.6904761904761905,0.6904761904761905,0.6904761904761905,0.6904761904761905,0.6904761904761905,0.6904761904761905,0.6904761904761905,0.6904761904761905,0.6904761904761905,0.6904761904761905,0.6904761904761905,0.6904761904761905,0.6904761904761905,0.6904761904761905,0.6904761904761905,0.6904761904761905,0.6904761904761905,0.6904761904761905,0.6904761904761905,0.6904761904761905,0.6904761904761905,0.6904761904761905,0.6904761904761905,0.6904761904761905,0.6904761904761905,0.6904761904761905,0.6904761904761905,0.6904761904761905,0.6904761904761905,0.6904761904761905,0.6904761904761905,0.6904761904761905,0.6904761904761905,0.6904761904761905,0.6904761904761905,0.6904761904761905,0.6904761904761905,0.6904761904761905,0.6904761904761905,0.6904761904761905,0.6904761904761905,0.6904761904761905,0.6904761904761905,0.6904761904761905,0.6904761904761905,0.6904761904761905,0.6904761904761905,0.6904761904761905,0.6904761904761905,0.6904761904761905,0.6904761904761905,0.6904761904761905,0.6904761904761905,0.6904761904761905,0.6904761904761905,0.6904761904761905,0.6904761904761905,0.6904761904761905,0.6904761904761905,0.6904761904761905,0.6904761904761905,0.6904761904761905,0.6904761904761905,0.6904761904761905,0.6904761904761905,0.6904761904761905,0.6904761904761905,0.6904761904761905,0.6904761904761905,0.6904761904761905,0.6904761904761905,0.6904761904761905,0.6904761904761905,0.6904761904761905,0.6904761904761905,0.6904761904761905,0.6904761904761905,0.6904761904761905,0.6904761904761905,0.6904761904761905,0.6904761904761905,0.6904761904761905,0.6904761904761905,0.6904761904761905,0.6904761904761905,0.6904761904761905,0.6904761904761905,0.6904761904761905,0.6904761904761905,0.6904761904761905,0.6904761904761905,0.6904761904761905,0.6904761904761905,0.6904761904761905,0.6904761904761905,0.6904761904761905,0.6904761904761905,0.6904761904761905,0.6904761904761905,0.6904761904761905,0.6904761904761905,0.6904761904761905,0.6904761904761905,0.6904761904761905,0.6904761904761905,0.6904761904761905,0.6904761904761905,0.6904761904761905,0.6904761904761905,0.6904761904761905,0.6904761904761905,0.6904761904761905,0.6904761904761905,0.6904761904761905,0.6904761904761905,0.6904761904761905,0.6904761904761905,0.6904761904761905,0.6904761904761905,0.6904761904761905,0.6904761904761905,0.6904761904761905,0.6904761904761905,0.6904761904761905,0.6904761904761905,0.6904761904761905,0.6904761904761905,0.6904761904761905,0.6904761904761905,0.6904761904761905,0.6904761904761905,0.6904761904761905,0.6904761904761905,0.6904761904761905,0.6904761904761905,0.6904761904761905,0.6904761904761905,0.6904761904761905,0.6904761904761905,0.6904761904761905,0.6904761904761905,0.6904761904761905,0.6904761904761905,0.6904761904761905,0.6904761904761905,0.6904761904761905,0.6904761904761905,0.6904761904761905,0.6904761904761905,0.6904761904761905,0.6904761904761905,0.6904761904761905,0.6904761904761905,0.6904761904761905,0.6904761904761905,0.6904761904761905,0.6904761904761905,0.6904761904761905,0.6904761904761905,0.6904761904761905,0.6904761904761905,0.6904761904761905,0.6904761904761905,0.6904761904761905,0.6904761904761905,0.6904761904761905,0.6904761904761905,0.6904761904761905,0.6904761904761905,0.6904761904761905,0.6904761904761905,0.6904761904761905,0.6904761904761905,0.6904761904761905,0.6904761904761905,0.6904761904761905,0.6904761904761905,0.6904761904761905,0.6904761904761905,0.6904761904761905,0.6904761904761905,0.6904761904761905,0.6904761904761905,0.6904761904761905,0.6904761904761905,0.6904761904761905,0.6904761904761905,0.6904761904761905,0.6904761904761905,0.6904761904761905,0.6904761904761905,0.6904761904761905,0.6904761904761905,0.6904761904761905,0.6904761904761905,0.6904761904761905,0.6904761904761905,0.6904761904761905,0.6904761904761905,0.6904761904761905,0.6904761904761905,0.6904761904761905,0.6904761904761905,0.6904761904761905,0.6904761904761905,0.6904761904761905,0.6904761904761905,0.6904761904761905,0.6904761904761905,0.6904761904761905,0.6904761904761905,0.6904761904761905,0.6904761904761905,0.6904761904761905,0.6904761904761905,0.6904761904761905,0.6904761904761905,0.6870748299319728,0.6870748299319728,0.6632653061224489,0.6360544217687075,0.5986394557823129,0.5612244897959183,0.4965986394557823,0.4523809523809524,0.41836734693877553,0.35374149659863946,0.3299319727891156,0.2891156462585034,0.272108843537415,0.2687074829931973,0.2585034013605442,0.24489795918367346,0.23469387755102042,0.23129251700680273,0.22108843537414966,0.21768707482993196,0.21768707482993196,0.2108843537414966,0.2108843537414966,0.20748299319727892,0.20748299319727892,0.20748299319727892,0.20748299319727892,0.20748299319727892,0.20748299319727892,0.20748299319727892,0.20748299319727892,0.20748299319727892,0.20748299319727892,0.20748299319727892,0.20748299319727892,0.21428571428571427,0.25510204081632654,0.282312925170068,0.30612244897959184,0.32653061224489793,0.3299319727891156,0.336734693877551,0.3401360544217687,0.3401360544217687,0.35034013605442177,0.3741496598639456,0.445578231292517,0.47619047619047616,0.4965986394557823,0.5170068027210885,0.5204081632653061,0.5204081632653061,0.5204081632653061,0.5238095238095238,0.5238095238095238,0.5238095238095238,0.5238095238095238,0.5238095238095238,0.5238095238095238,0.5238095238095238,0.5238095238095238,0.5238095238095238,0.5238095238095238,0.5204081632653061,0.4897959183673469,0.46258503401360546,0.445578231292517,0.42857142857142855,0.4217687074829932,0.4217687074829932,0.41836734693877553,0.41836734693877553,0.41496598639455784,0.41496598639455784,0.41496598639455784,0.41496598639455784,0.41496598639455784,0.41496598639455784,0.41496598639455784,0.41496598639455784,0.41496598639455784,0.41496598639455784,0.41496598639455784,0.41496598639455784,0.41496598639455784,0.41496598639455784,0.41496598639455784,0.41496598639455784,0.41496598639455784,0.41496598639455784,0.41496598639455784,0.41496598639455784,0.41496598639455784,0.41496598639455784,0.41496598639455784,0.41496598639455784,0.41496598639455784,0.41496598639455784,0.41496598639455784,0.41496598639455784,0.41496598639455784,0.41496598639455784,0.41496598639455784,0.41496598639455784,0.41496598639455784,0.41496598639455784,0.41496598639455784,0.41496598639455784,0.41496598639455784,0.41496598639455784,0.41496598639455784,0.41496598639455784,0.41496598639455784,0.41496598639455784,0.41496598639455784,0.41496598639455784,0.41496598639455784,0.41496598639455784,0.41496598639455784,0.41496598639455784,0.41496598639455784,0.41496598639455784,0.41496598639455784,0.41496598639455784,0.41496598639455784,0.41496598639455784,0.41496598639455784,0.41496598639455784,0.41496598639455784,0.41496598639455784,0.41496598639455784,0.41496598639455784,0.41496598639455784,0.41496598639455784,0.41496598639455784,0.41496598639455784,0.41496598639455784,0.41496598639455784,0.41496598639455784,0.41496598639455784,0.41496598639455784,0.41496598639455784,0.41496598639455784,0.41496598639455784,0.41496598639455784,0.41496598639455784,0.41496598639455784,0.40816326530612246,0.40476190476190477,0.3945578231292517,0.36054421768707484,0.35374149659863946,0.3401360544217687,0.3333333333333333,0.3299319727891156,0.32653061224489793,0.32653061224489793,0.32653061224489793,0.3231292517006803,0.3231292517006803,0.3197278911564626,0.3197278911564626,0.3197278911564626,0.3197278911564626,0.3197278911564626,0.3197278911564626,0.3197278911564626,0.3197278911564626,0.3197278911564626,0.3197278911564626,0.3197278911564626,0.3197278911564626,0.3197278911564626,0.3197278911564626,0.3197278911564626,0.3197278911564626,0.3197278911564626,0.3197278911564626,0.3197278911564626,0.3197278911564626,0.3197278911564626,0.3197278911564626,0.3197278911564626,0.3197278911564626,0.3197278911564626,0.3197278911564626,0.3197278911564626,0.3197278911564626,0.3197278911564626,0.3197278911564626,0.3197278911564626,0.3197278911564626,0.3197278911564626,0.3197278911564626,0.3197278911564626,0.3197278911564626,0.3197278911564626,0.3197278911564626,0.3197278911564626,0.3197278911564626,0.3197278911564626,0.3197278911564626,0.3197278911564626,0.3197278911564626,0.3197278911564626,0.3197278911564626,0.3197278911564626,0.3197278911564626,0.3197278911564626,0.3197278911564626,0.3197278911564626,0.3197278911564626,0.3197278911564626,0.3197278911564626,0.3197278911564626,0.3197278911564626,0.3197278911564626,0.3197278911564626,0.3197278911564626,0.3197278911564626,0.3197278911564626,0.3197278911564626,0.3197278911564626,0.3197278911564626,0.3197278911564626,0.3197278911564626,0.3197278911564626,0.3197278911564626,0.3197278911564626,0.3197278911564626,0.3197278911564626,0.3197278911564626,0.3197278911564626,0.3197278911564626,0.3197278911564626,0.3197278911564626,0.3197278911564626,0.3197278911564626,0.3197278911564626,0.3197278911564626,0.3197278911564626,0.3197278911564626,0.3197278911564626,0.3197278911564626,0.3197278911564626,0.3197278911564626,0.3197278911564626,0.3197278911564626,0.3197278911564626,0.3197278911564626,0.3197278911564626,0.3197278911564626,0.3197278911564626,0.3197278911564626,0.3197278911564626,0.3197278911564626,0.3197278911564626,0.3197278911564626,0.3197278911564626,0.3197278911564626,0.3197278911564626,0.3197278911564626,0.3197278911564626,0.3197278911564626,0.3197278911564626,0.3197278911564626,0.3197278911564626,0.3197278911564626,0.3197278911564626,0.3197278911564626,0.3197278911564626,0.3197278911564626,0.3197278911564626,0.3197278911564626,0.3197278911564626,0.3197278911564626,0.3129251700680272,0.30952380952380953,0.29931972789115646,0.2585034013605442,0.23469387755102042,0.21768707482993196,0.18027210884353742,0.16666666666666666,0.1564625850340136,0.1360544217687075,0.1326530612244898,0.12585034013605442,0.12244897959183673,0.12244897959183673,0.12244897959183673,0.11904761904761904,0.11904761904761904,0.11904761904761904,0.11904761904761904,0.11904761904761904,0.11904761904761904,0.11904761904761904,0.11904761904761904,0.11904761904761904,0.11904761904761904,0.11904761904761904,0.11904761904761904,0.11904761904761904,0.11904761904761904,0.11904761904761904,0.11904761904761904,0.11904761904761904,0.11904761904761904,0.11904761904761904,0.11904761904761904,0.11904761904761904,0.11904761904761904,0.11904761904761904,0.11904761904761904,0.11904761904761904,0.11904761904761904,0.11904761904761904,0.11904761904761904,0.11904761904761904,0.11904761904761904,0.11904761904761904,0.11904761904761904,0.11904761904761904,0.11904761904761904,0.11904761904761904,0.11904761904761904,0.11904761904761904,0.11904761904761904,0.11904761904761904,0.11904761904761904,0.11904761904761904,0.11904761904761904,0.11904761904761904,0.11904761904761904,0.11904761904761904,0.11904761904761904,0.11904761904761904,0.11904761904761904,0.11904761904761904,0.11904761904761904,0.11904761904761904,0.11904761904761904,0.11904761904761904,0.11904761904761904,0.11904761904761904,0.11904761904761904,0.11904761904761904,0.11904761904761904,0.11904761904761904,0.11904761904761904,0.11904761904761904,0.11904761904761904,0.11904761904761904,0.11904761904761904,0.11904761904761904,0.11904761904761904,0.11904761904761904,0.11904761904761904,0.11904761904761904,0.11904761904761904,0.11904761904761904,0.11904761904761904,0.11904761904761904,0.11904761904761904,0.11904761904761904,0.11904761904761904,0.11904761904761904,0.11904761904761904,0.11904761904761904,0.11904761904761904,0.11904761904761904,0.11904761904761904,0.11904761904761904,0.11904761904761904,0.11904761904761904,0.11904761904761904,0.11904761904761904,0.11904761904761904,0.11904761904761904,0.11904761904761904,0.11904761904761904,0.11904761904761904,0.11904761904761904,0.11904761904761904,0.11904761904761904,0.11904761904761904,0.11904761904761904,0.11904761904761904,0.11904761904761904,0.11904761904761904,0.11904761904761904,0.11904761904761904,0.11904761904761904,0.11904761904761904,0.11904761904761904,0.11904761904761904,0.11904761904761904,0.11904761904761904,0.11904761904761904,0.11904761904761904,0.11904761904761904,0.11904761904761904,0.11904761904761904,0.11904761904761904,0.11904761904761904,0.11904761904761904,0.11904761904761904,0.11904761904761904,0.11904761904761904,0.11904761904761904,0.11904761904761904,0.11904761904761904,0.11904761904761904,0.11904761904761904,0.11904761904761904,0.11904761904761904,0.11904761904761904,0.11904761904761904,0.11904761904761904,0.11904761904761904,0.11904761904761904,0.11904761904761904,0.11904761904761904,0.11904761904761904,0.11904761904761904,0.11904761904761904,0.11904761904761904,0.11904761904761904,0.11904761904761904,0.11904761904761904,0.11904761904761904,0.11904761904761904,0.11904761904761904,0.11904761904761904,0.11904761904761904,0.11904761904761904,0.11904761904761904,0.11904761904761904,0.12585034013605442,0.14625850340136054,0.17687074829931973,0.2687074829931973,0.29931972789115646,0.3673469387755102,0.3945578231292517,0.41156462585034015,0.43197278911564624,0.4557823129251701,0.46258503401360546,0.46598639455782315,0.46598639455782315,0.46938775510204084,0.46938775510204084,0.46938775510204084,0.46938775510204084,0.46938775510204084,0.46938775510204084,0.46938775510204084,0.46938775510204084,0.46938775510204084,0.46938775510204084,0.46938775510204084,0.46938775510204084,0.46938775510204084,0.46938775510204084,0.46938775510204084,0.46938775510204084,0.46938775510204084,0.46938775510204084,0.46938775510204084,0.46938775510204084,0.46938775510204084,0.46938775510204084,0.46938775510204084,0.46938775510204084,0.46938775510204084,0.46938775510204084,0.46938775510204084,0.46938775510204084,0.46938775510204084,0.46938775510204084,0.46938775510204084,0.46938775510204084,0.46938775510204084,0.46938775510204084,0.46938775510204084,0.46938775510204084,0.46938775510204084,0.46938775510204084,0.46938775510204084,0.46938775510204084,0.46938775510204084,0.47278911564625853,0.47278911564625853,0.47278911564625853,0.47278911564625853,0.47278911564625853,0.47278911564625853,0.47278911564625853,0.47278911564625853,0.47278911564625853,0.47278911564625853,0.47278911564625853,0.47278911564625853,0.47278911564625853,0.47278911564625853,0.47278911564625853,0.47278911564625853,0.47278911564625853,0.47278911564625853,0.47278911564625853,0.47278911564625853,0.47278911564625853,0.47278911564625853,0.47278911564625853,0.47278911564625853,0.47278911564625853,0.47278911564625853,0.47278911564625853,0.47278911564625853,0.47278911564625853,0.47278911564625853,0.47278911564625853,0.47278911564625853,0.47278911564625853,0.47278911564625853,0.47278911564625853,0.47278911564625853,0.47278911564625853,0.47278911564625853,0.47278911564625853,0.47278911564625853,0.47278911564625853,0.47278911564625853,0.47278911564625853,0.47278911564625853,0.47278911564625853,0.47278911564625853,0.47278911564625853,0.47278911564625853,0.47278911564625853,0.47278911564625853,0.47278911564625853,0.47278911564625853,0.47278911564625853,0.47278911564625853,0.47278911564625853,0.47278911564625853,0.47278911564625853,0.47278911564625853,0.47278911564625853,0.47278911564625853,0.4489795918367347,0.3945578231292517,0.3333333333333333,0.24829931972789115,0.2108843537414966,0.16326530612244897,0.14625850340136054,0.1360544217687075,0.12244897959183673,0.11904761904761904,0.11564625850340136,0.11564625850340136,0.11224489795918367,0.11224489795918367,0.11224489795918367,0.10884353741496598,0.10884353741496598,0.10884353741496598,0.10884353741496598,0.10884353741496598,0.10884353741496598,0.10884353741496598,0.10884353741496598,0.10884353741496598,0.10884353741496598,0.10884353741496598,0.10884353741496598,0.10884353741496598,0.11224489795918367,0.11224489795918367,0.11564625850340136,0.11904761904761904,0.11904761904761904,0.12244897959183673,0.12585034013605442,0.12585034013605442,0.1326530612244898,0.1360544217687075,0.1360544217687075,0.13945578231292516,0.13945578231292516,0.13945578231292516,0.14285714285714285,0.14285714285714285,0.14285714285714285,0.14285714285714285,0.14285714285714285,0.14285714285714285,0.14285714285714285,0.14285714285714285,0.14285714285714285,0.14285714285714285,0.14285714285714285,0.14285714285714285,0.14285714285714285,0.14285714285714285,0.14285714285714285,0.14285714285714285,0.14285714285714285,0.14285714285714285,0.14285714285714285,0.14285714285714285,0.14285714285714285,0.14285714285714285,0.14285714285714285,0.14285714285714285,0.14285714285714285,0.14285714285714285,0.14285714285714285,0.14285714285714285,0.14285714285714285,0.14285714285714285,0.14285714285714285,0.14285714285714285,0.14285714285714285,0.14285714285714285,0.14285714285714285,0.14285714285714285,0.14285714285714285,0.14285714285714285,0.13945578231292516,0.1360544217687075,0.1326530612244898,0.09523809523809523,0.06802721088435375,0.047619047619047616,0.013605442176870748,0.003401360544217687,-0.01020408163265306,-0.013605442176870748,-0.013605442176870748,-0.017006802721088437,-0.02040816326530612,-0.02040816326530612,-0.02040816326530612,-0.02040816326530612,-0.02040816326530612,-0.02040816326530612,-0.02040816326530612,-0.02040816326530612,-0.02040816326530612,-0.02040816326530612,-0.02040816326530612,-0.02040816326530612,-0.02040816326530612,-0.02040816326530612,-0.02040816326530612,-0.02040816326530612,-0.02040816326530612,-0.02040816326530612,-0.02040816326530612,-0.02040816326530612,-0.02040816326530612,-0.02040816326530612,-0.02040816326530612,-0.02040816326530612,-0.02040816326530612,-0.02040816326530612,-0.02040816326530612,-0.02040816326530612,-0.02040816326530612,-0.02040816326530612,-0.02040816326530612,-0.02040816326530612,-0.02040816326530612,-0.02040816326530612,-0.02040816326530612,-0.02040816326530612,-0.02040816326530612,-0.02040816326530612,-0.02040816326530612,-0.02040816326530612,-0.02040816326530612,-0.02040816326530612,-0.02040816326530612,-0.02040816326530612,-0.02040816326530612,-0.02040816326530612,-0.017006802721088437,-0.01020408163265306,0.047619047619047616,0.0782312925170068,0.10884353741496598,0.12244897959183673,0.14965986394557823,0.15306122448979592,0.1564625850340136,0.1598639455782313,0.16326530612244897,0.16326530612244897,0.16326530612244897,0.16326530612244897,0.16326530612244897,0.16326530612244897,0.16326530612244897,0.16326530612244897,0.16326530612244897,0.16326530612244897,0.16326530612244897,0.16326530612244897,0.16326530612244897,0.16326530612244897,0.16326530612244897,0.16326530612244897,0.16326530612244897,0.16326530612244897,0.16326530612244897,0.16326530612244897,0.16326530612244897,0.16326530612244897,0.16326530612244897,0.16326530612244897,0.16326530612244897,0.16326530612244897,0.16326530612244897,0.16326530612244897,0.16326530612244897,0.16326530612244897,0.16326530612244897,0.16326530612244897,0.11564625850340136,0.11564625850340136,0.05442176870748299,0.027210884353741496,0.01020408163265306,0,-0.006802721088435374,-0.01020408163265306,-0.01020408163265306,-0.01020408163265306,-0.01020408163265306,-0.01020408163265306,-0.01020408163265306,-0.01020408163265306,-0.01020408163265306,-0.01020408163265306,-0.01020408163265306,-0.01020408163265306,-0.01020408163265306,-0.01020408163265306,-0.01020408163265306,-0.01020408163265306,-0.01020408163265306,-0.01020408163265306,-0.01020408163265306,-0.01020408163265306,-0.01020408163265306,-0.01020408163265306,-0.01020408163265306,-0.01020408163265306,-0.01020408163265306,-0.01020408163265306,-0.01020408163265306,-0.01020408163265306,-0.01020408163265306,-0.01020408163265306,-0.01020408163265306,-0.01020408163265306,-0.01020408163265306,-0.01020408163265306,-0.01020408163265306,-0.01020408163265306,-0.01020408163265306,-0.01020408163265306,-0.01020408163265306,-0.01020408163265306,-0.01020408163265306,-0.01020408163265306,-0.01020408163265306,-0.01020408163265306,-0.01020408163265306,-0.01020408163265306,-0.01020408163265306,-0.01020408163265306,-0.01020408163265306,-0.01020408163265306,-0.01020408163265306,-0.01020408163265306,-0.01020408163265306,-0.01020408163265306,-0.01020408163265306,-0.01020408163265306,-0.01020408163265306,-0.01020408163265306,-0.01020408163265306,-0.01020408163265306,-0.01020408163265306,-0.01020408163265306,-0.01020408163265306,-0.01020408163265306,-0.01020408163265306,-0.01020408163265306,-0.01020408163265306,-0.01020408163265306,-0.01020408163265306,-0.01020408163265306,-0.01020408163265306,-0.01020408163265306,-0.01020408163265306,-0.01020408163265306,-0.01020408163265306,-0.01020408163265306,-0.01020408163265306,-0.01020408163265306,-0.01020408163265306,-0.01020408163265306,-0.01020408163265306,-0.01020408163265306,-0.01020408163265306,-0.01020408163265306,-0.01020408163265306,-0.01020408163265306,-0.01020408163265306,-0.01020408163265306,-0.01020408163265306,-0.01020408163265306,-0.01020408163265306,-0.01020408163265306,-0.01020408163265306,-0.01020408163265306,-0.01020408163265306,-0.01020408163265306,-0.01020408163265306,-0.01020408163265306,-0.01020408163265306,-0.01020408163265306,-0.01020408163265306,-0.01020408163265306,-0.01020408163265306,-0.01020408163265306,-0.01020408163265306,-0.01020408163265306,-0.01020408163265306,-0.01020408163265306,-0.01020408163265306,-0.01020408163265306,-0.01020408163265306,-0.01020408163265306,-0.01020408163265306,-0.01020408163265306,-0.01020408163265306,-0.01020408163265306,-0.01020408163265306,-0.01020408163265306,-0.01020408163265306,-0.01020408163265306,0.061224489795918366,0.21768707482993196,0.29931972789115646,0.3945578231292517,0.6598639455782312,0.8299319727891157,1.0068027210884354,1.1972789115646258,1.251700680272109,1.3027210884353742,1.3095238095238095,1.3197278911564625,1.3197278911564625,1.3231292517006803,1.3231292517006803,1.3231292517006803,1.3231292517006803,1.3231292517006803,1.3231292517006803,1.3197278911564625,1.3061224489795917,1.2925170068027212,1.2551020408163265,1.2346938775510203,1.183673469387755,1.1564625850340136,1.129251700680272,1.1020408163265305,1.0612244897959184,1.0476190476190477,1.0408163265306123,1.034013605442177,1.030612244897959,1.030612244897959,1.0272108843537415,1.0238095238095237,1.0238095238095237,1.0136054421768708,1.010204081632653,1.0068027210884354,1.0034013605442176,1.0034013605442176,1.0034013605442176,1,1,1,1,1,1,1,1,1,1,1,1,1,1,1,1,1,1,1,1,1,1,1,1,1,1,1,1,1,1,1,1,1,1,1,1,1,1,1,1,1,1,1,0.9965986394557823,0.9965986394557823,0.9931972789115646,0.9795918367346939,0.8843537414965986,0.8061224489795918,0.7380952380952381,0.6326530612244898,0.5850340136054422,0.5204081632653061,0.4897959183673469,0.46598639455782315,0.42857142857142855,0.41836734693877553,0.40816326530612246,0.40476190476190477,0.3945578231292517,0.391156462585034,0.3843537414965986,0.38095238095238093,0.38095238095238093,0.3707482993197279,0.3707482993197279,0.3673469387755102,0.3673469387755102,0.3673469387755102,0.3673469387755102,0.3673469387755102,0.4013605442176871,0.43537414965986393,0.47959183673469385,0.4965986394557823,0.5102040816326531,0.5170068027210885,0.5238095238095238,0.5272108843537415,0.5272108843537415,0.5272108843537415,0.5306122448979592,0.5306122448979592,0.5306122448979592,0.5306122448979592,0.5306122448979592,0.5306122448979592,0.5306122448979592,0.5306122448979592,0.5306122448979592,0.5306122448979592,0.5306122448979592,0.5306122448979592,0.5306122448979592,0.5306122448979592,0.5306122448979592,0.5306122448979592,0.5306122448979592,0.5306122448979592,0.5306122448979592,0.5306122448979592,0.5306122448979592,0.5306122448979592,0.5306122448979592,0.5306122448979592,0.5306122448979592,0.5306122448979592,0.5306122448979592,0.5306122448979592,0.5306122448979592,0.5306122448979592,0.5306122448979592,0.5306122448979592,0.5306122448979592,0.5306122448979592,0.5306122448979592,0.5306122448979592,0.5306122448979592,0.5306122448979592,0.5306122448979592,0.5306122448979592,0.5306122448979592,0.5306122448979592,0.5306122448979592,0.5306122448979592,0.5306122448979592,0.5306122448979592,0.5306122448979592,0.5306122448979592,0.5306122448979592,0.5306122448979592,0.5306122448979592,0.5306122448979592,0.5306122448979592,0.5306122448979592,0.5306122448979592,0.5306122448979592,0.5306122448979592,0.5306122448979592,0.5306122448979592,0.5306122448979592,0.5306122448979592,0.5306122448979592,0.5306122448979592,0.5306122448979592,0.5306122448979592,0.5306122448979592,0.5306122448979592,0.5306122448979592,0.5306122448979592,0.5306122448979592,0.5306122448979592,0.5306122448979592,0.5306122448979592,0.5238095238095238,0.5170068027210885,0.5136054421768708,0.5034013605442177,0.5034013605442177,0.5136054421768708,0.5170068027210885,0.5306122448979592,0.5340136054421769,0.5408163265306123,0.5408163265306123,0.54421768707483,0.54421768707483,0.54421768707483,0.5544217687074829,0.5816326530612245,0.6020408163265306,0.6360544217687075,0.7312925170068028,0.7891156462585034,0.8367346938775511,0.891156462585034,0.9013605442176871,0.9081632653061225,0.9115646258503401,0.9149659863945578,0.9149659863945578,0.9149659863945578,0.9183673469387755,0.9183673469387755,0.9183673469387755,0.9183673469387755,0.9183673469387755,0.9183673469387755,0.9183673469387755,0.9251700680272109,0.935374149659864,1.010204081632653,1.0578231292517006,1.098639455782313,1.1496598639455782,1.1564625850340136,1.163265306122449,1.1666666666666667,1.1700680272108843,1.1700680272108843,1.1700680272108843,1.1700680272108843,1.1700680272108843,1.1700680272108843,1.1700680272108843,1.1700680272108843,1.1700680272108843,1.1700680272108843,1.1700680272108843,1.1700680272108843,1.1700680272108843,1.1700680272108843,1.1700680272108843,1.1700680272108843,1.1700680272108843,1.1700680272108843,1.1700680272108843,1.1700680272108843,1.1700680272108843,1.1700680272108843,1.1700680272108843,1.1700680272108843,1.1700680272108843,1.1700680272108843,1.1496598639455782,1.1360544217687074,1.129251700680272,1.1224489795918366,1.1224489795918366,1.1224489795918366,1.1224489795918366,1.1224489795918366,1.1224489795918366,1.1224489795918366,1.1224489795918366,1.1224489795918366,1.1224489795918366,1.1224489795918366,1.1224489795918366,1.1224489795918366,1.1224489795918366,1.1224489795918366,1.1224489795918366,1.1224489795918366,1.1224489795918366,1.1224489795918366,1.1224489795918366,1.1224489795918366,1.1224489795918366,1.1224489795918366,1.1224489795918366,1.1224489795918366,1.1224489795918366,1.1224489795918366,1.1224489795918366,1.1224489795918366,1.1224489795918366,1.1224489795918366,1.1224489795918366,1.1224489795918366,1.1224489795918366,1.1224489795918366,1.1224489795918366,1.1224489795918366,1.1224489795918366,1.1224489795918366,1.1224489795918366,1.1224489795918366,1.1224489795918366,1.1224489795918366,1.1224489795918366,1.1224489795918366,1.1224489795918366,1.1224489795918366,1.1224489795918366,1.1224489795918366,1.1224489795918366,1.1224489795918366,1.1224489795918366,1.1224489795918366,1.1224489795918366,1.1224489795918366,1.1224489795918366,1.1224489795918366,1.1224489795918366,1.1224489795918366,1.1224489795918366,1.1224489795918366,1.1224489795918366,1.1224489795918366,1.1224489795918366,1.1224489795918366,1.1224489795918366,1.1224489795918366,1.1224489795918366,1.1224489795918366,1.1224489795918366,1.1224489795918366,1.1224489795918366,1.1224489795918366,1.1224489795918366,1.1224489795918366,1.1224489795918366,1.1224489795918366,1.1224489795918366,1.1224489795918366,1.1224489795918366,1.1224489795918366,1.1224489795918366,1.1224489795918366,1.1224489795918366,1.1224489795918366,1.1224489795918366,1.1224489795918366,1.1224489795918366,1.1224489795918366,1.1224489795918366,1.1224489795918366,1.1224489795918366,1.1224489795918366,1.1224489795918366,1.1224489795918366,1.1224489795918366,1.1224489795918366,1.1224489795918366,1.1224489795918366,1.1224489795918366,1.1224489795918366,1.1224489795918366,1.1224489795918366,1.1224489795918366,1.1224489795918366,1.1224489795918366,1.1224489795918366,1.1224489795918366,1.1224489795918366,1.1224489795918366,1.1224489795918366,1.1224489795918366,1.1224489795918366,1.1224489795918366,1.1224489795918366,1.1224489795918366,1.1224489795918366,1.1224489795918366,1.1224489795918366,1.1224489795918366,1.1224489795918366,1.1224489795918366,1.1224489795918366,1.1224489795918366,1.1224489795918366,1.1224489795918366,1.1224489795918366,1.1224489795918366,1.1224489795918366,1.1224489795918366,1.1224489795918366,1.1224489795918366,1.1224489795918366,1.1224489795918366,1.1224489795918366],"y":[-3.4285714285714284,-3.4285714285714284,-3.4285714285714284,-3.4285714285714284,-3.4285714285714284,-3.4285714285714284,-3.4285714285714284,-3.4285714285714284,-3.4285714285714284,-3.4285714285714284,-3.4285714285714284,-3.4285714285714284,-3.4285714285714284,-3.4285714285714284,-3.4285714285714284,-3.4285714285714284,-3.4285714285714284,-3.4285714285714284,-3.4285714285714284,-3.4285714285714284,-3.4285714285714284,-3.4285714285714284,-3.4285714285714284,-3.4285714285714284,-3.4285714285714284,-3.4285714285714284,-3.4285714285714284,-3.4285714285714284,-3.4285714285714284,-3.4285714285714284,-3.4285714285714284,-3.4285714285714284,-3.4285714285714284,-3.4285714285714284,-3.4285714285714284,-3.4285714285714284,-3.4285714285714284,-3.4285714285714284,-3.4285714285714284,-3.4285714285714284,-3.4285714285714284,-3.4285714285714284,-3.4285714285714284,-3.4285714285714284,-3.4285714285714284,-3.4285714285714284,-3.4285714285714284,-3.4285714285714284,-3.4285714285714284,-3.4285714285714284,-3.4285714285714284,-3.4285714285714284,-3.4285714285714284,-3.4285714285714284,-3.4285714285714284,-3.4285714285714284,-3.4285714285714284,-3.4285714285714284,-3.4285714285714284,-3.4285714285714284,-3.4285714285714284,0.580952380952381,0.5714285714285714,0.47619047619047616,0.44761904761904764,0.41904761904761906,0.3904761904761905,0.3904761904761905,0.3904761904761905,0.3904761904761905,0.3904761904761905,0.3904761904761905,0.3904761904761905,0.4,0.4095238095238095,0.41904761904761906,0.42857142857142855,0.42857142857142855,0.42857142857142855,0.42857142857142855,0.42857142857142855,0.42857142857142855,0.42857142857142855,0.42857142857142855,0.42857142857142855,0.42857142857142855,0.42857142857142855,0.42857142857142855,0.42857142857142855,0.42857142857142855,0.42857142857142855,0.42857142857142855,0.42857142857142855,0.42857142857142855,0.42857142857142855,0.42857142857142855,0.42857142857142855,0.42857142857142855,0.42857142857142855,0.42857142857142855,0.42857142857142855,0.42857142857142855,0.42857142857142855,0.42857142857142855,0.41904761904761906,0.3904761904761905,0.34285714285714286,0.3142857142857143,0.29523809523809524,0.24761904761904763,0.22857142857142856,0.2,0.19047619047619047,0.1619047619047619,0.1619047619047619,0.1619047619047619,0.1523809523809524,0.14285714285714285,0.14285714285714285,0.14285714285714285,0.14285714285714285,0.14285714285714285,0.14285714285714285,0.14285714285714285,0.14285714285714285,0.14285714285714285,0.14285714285714285,0.14285714285714285,0.14285714285714285,0.14285714285714285,0.14285714285714285,0.14285714285714285,0.14285714285714285,0.14285714285714285,0.14285714285714285,0.14285714285714285,0.14285714285714285,0.14285714285714285,0.14285714285714285,0.14285714285714285,0.14285714285714285,0.14285714285714285,0.14285714285714285,0.14285714285714285,0.14285714285714285,0.14285714285714285,0.14285714285714285,0.14285714285714285,0.14285714285714285,0.14285714285714285,0.14285714285714285,0.14285714285714285,0.14285714285714285,0.14285714285714285,0.14285714285714285,0.14285714285714285,0.14285714285714285,0.14285714285714285,0.14285714285714285,0.14285714285714285,0.14285714285714285,0.14285714285714285,0.14285714285714285,0.14285714285714285,0.14285714285714285,0.14285714285714285,0.14285714285714285,0.14285714285714285,0.14285714285714285,0.14285714285714285,0.14285714285714285,0.14285714285714285,0.14285714285714285,0.14285714285714285,0.14285714285714285,0.14285714285714285,0.14285714285714285,0.14285714285714285,0.14285714285714285,0.14285714285714285,0.14285714285714285,0.14285714285714285,0.14285714285714285,0.14285714285714285,0.14285714285714285,0.14285714285714285,0.14285714285714285,0.14285714285714285,0.14285714285714285,0.14285714285714285,0.14285714285714285,0.14285714285714285,0.14285714285714285,0.14285714285714285,0.14285714285714285,0.14285714285714285,0.14285714285714285,0.14285714285714285,0.14285714285714285,0.14285714285714285,0.14285714285714285,0.14285714285714285,0.14285714285714285,0.14285714285714285,0.14285714285714285,0.14285714285714285,0.14285714285714285,0.14285714285714285,0.14285714285714285,0.14285714285714285,0.14285714285714285,0.14285714285714285,0.14285714285714285,0.14285714285714285,0.14285714285714285,0.14285714285714285,0.14285714285714285,0.14285714285714285,0.13333333333333333,0.13333333333333333,0.11428571428571428,0.009523809523809525,-0.4857142857142857,-0.9809523809523809,-1.6285714285714286,-1.7523809523809524,-1.819047619047619,-1.8571428571428572,-1.8571428571428572,-1.8761904761904762,-1.8761904761904762,-1.8761904761904762,-1.8761904761904762,-1.8761904761904762,-1.8761904761904762,-1.8666666666666667,-1.8571428571428572,-1.8571428571428572,-1.8476190476190477,-1.8476190476190477,-1.8476190476190477,-1.838095238095238,-1.8285714285714285,-1.8095238095238095,-1.723809523809524,-1.723809523809524,-1.6571428571428573,-1.638095238095238,-1.6095238095238096,-1.6,-1.5904761904761904,-1.5904761904761904,-1.561904761904762,-1.5523809523809524,-1.5238095238095237,-1.5142857142857142,-1.4952380952380953,-1.4761904761904763,-1.4761904761904763,-1.4761904761904763,-1.4666666666666666,-1.4666666666666666,-1.4666666666666666,-1.457142857142857,-1.457142857142857,-1.4476190476190476,-1.4476190476190476,-1.4476190476190476,-1.4476190476190476,-1.4476190476190476,-1.4476190476190476,-1.4476190476190476,-1.4476190476190476,-1.4476190476190476,-1.4476190476190476,-1.4476190476190476,-1.4476190476190476,-1.4476190476190476,-1.4476190476190476,-1.4476190476190476,-1.4476190476190476,-1.4476190476190476,-1.4476190476190476,-1.4476190476190476,-1.4476190476190476,-1.4476190476190476,-1.4476190476190476,-1.4476190476190476,-1.438095238095238,-1.438095238095238,-1.438095238095238,-1.438095238095238,-1.438095238095238,-1.4285714285714286,-1.4190476190476191,-1.4190476190476191,-1.4190476190476191,-1.4190476190476191,-1.4190476190476191,-1.4190476190476191,-1.4190476190476191,-1.4190476190476191,-1.4190476190476191,-1.4190476190476191,-1.4190476190476191,-1.4190476190476191,-1.4190476190476191,-1.4190476190476191,-1.4190476190476191,-1.4190476190476191,-1.4190476190476191,-1.4190476190476191,-1.4190476190476191,-1.4190476190476191,-1.4190476190476191,-1.4190476190476191,-1.4190476190476191,-1.4190476190476191,-1.4190476190476191,-1.4190476190476191,-1.4190476190476191,-1.4190476190476191,-1.4190476190476191,-1.4190476190476191,-1.4190476190476191,-1.4190476190476191,-1.4190476190476191,-1.4190476190476191,-1.4190476190476191,-1.4190476190476191,-1.4190476190476191,-1.4190476190476191,-1.4285714285714286,-1.4285714285714286,-1.4285714285714286,-1.4285714285714286,-1.4285714285714286,-1.4285714285714286,-1.4285714285714286,-1.4285714285714286,-1.4285714285714286,-1.4285714285714286,-1.4285714285714286,-1.4285714285714286,-1.4285714285714286,-1.4285714285714286,-1.4285714285714286,-1.4285714285714286,-1.4285714285714286,-1.4285714285714286,-1.4285714285714286,-1.4285714285714286,-1.4285714285714286,-1.4285714285714286,-1.4285714285714286,-1.4285714285714286,-1.4285714285714286,-1.4285714285714286,-1.4285714285714286,-1.438095238095238,-1.438095238095238,-1.438095238095238,-1.438095238095238,-1.438095238095238,-1.438095238095238,-1.438095238095238,-1.438095238095238,-1.438095238095238,-1.438095238095238,-1.438095238095238,-1.438095238095238,-1.438095238095238,-1.438095238095238,-1.438095238095238,-1.438095238095238,-1.438095238095238,-1.438095238095238,-1.438095238095238,-1.438095238095238,-1.438095238095238,-1.438095238095238,-1.438095238095238,-1.438095238095238,-1.438095238095238,-1.438095238095238,-1.438095238095238,-1.438095238095238,-1.438095238095238,-1.438095238095238,-1.438095238095238,-1.438095238095238,-1.438095238095238,-1.438095238095238,-1.438095238095238,-1.438095238095238,-1.438095238095238,-1.438095238095238,-1.438095238095238,-1.438095238095238,-1.438095238095238,-1.438095238095238,-1.438095238095238,-1.438095238095238,-1.438095238095238,-1.438095238095238,-1.4190476190476191,-1.4095238095238096,-1.4,-1.4,-1.4,-1.4,-1.4,-1.3904761904761904,-1.3904761904761904,-1.3904761904761904,-1.3904761904761904,-1.3904761904761904,-1.3904761904761904,-1.3904761904761904,-1.3904761904761904,-1.3904761904761904,-1.3904761904761904,-1.3904761904761904,-1.3904761904761904,-1.3904761904761904,-1.3904761904761904,-1.3904761904761904,-1.3904761904761904,-1.3904761904761904,-1.3904761904761904,-1.3904761904761904,-1.3904761904761904,-1.3904761904761904,-1.3904761904761904,-1.380952380952381,-1.380952380952381,-1.380952380952381,-1.380952380952381,-1.380952380952381,-1.380952380952381,-1.380952380952381,-1.380952380952381,-1.380952380952381,-1.380952380952381,-1.380952380952381,-1.380952380952381,-1.380952380952381,-1.380952380952381,-1.380952380952381,-1.380952380952381,-1.380952380952381,-1.380952380952381,-1.380952380952381,-1.380952380952381,-1.380952380952381,-1.380952380952381,-1.380952380952381,-1.380952380952381,-1.380952380952381,-1.380952380952381,-1.380952380952381,-1.380952380952381,-1.380952380952381,-1.380952380952381,-1.380952380952381,-1.380952380952381,-1.380952380952381,-1.3238095238095238,-1.2857142857142858,-1.2285714285714286,-1.0761904761904761,-0.9428571428571428,-0.8,-0.44761904761904764,-0.29523809523809524,-0.18095238095238095,-0.02857142857142857,0.02857142857142857,0.05714285714285714,0.0761904761904762,0.12380952380952381,0.12380952380952381,0.13333333333333333,0.1523809523809524,0.1523809523809524,0.1523809523809524,0.1523809523809524,0.1523809523809524,0.1523809523809524,0.1523809523809524,0.1523809523809524,0.1523809523809524,0.1619047619047619,0.2,0.26666666666666666,0.42857142857142855,0.4857142857142857,0.5428571428571428,0.6,0.6190476190476191,0.6476190476190476,0.6761904761904762,0.6952380952380952,0.7047619047619048,0.7047619047619048,0.7047619047619048,0.7047619047619048,0.7047619047619048,0.7047619047619048,0.7047619047619048,0.7047619047619048,0.7047619047619048,0.7047619047619048,0.7047619047619048,0.7047619047619048,0.7047619047619048,0.7047619047619048,0.7047619047619048,0.7047619047619048,0.7047619047619048,0.7047619047619048,0.7047619047619048,0.7047619047619048,0.7047619047619048,0.7047619047619048,0.7047619047619048,0.7047619047619048,0.7047619047619048,0.7047619047619048,0.7047619047619048,0.6952380952380952,0.6952380952380952,0.6857142857142857,0.6857142857142857,0.6857142857142857,0.6857142857142857,0.6857142857142857,0.6857142857142857,0.6857142857142857,0.6857142857142857,0.6857142857142857,0.6571428571428571,0.6476190476190476,0.6285714285714286,0.6095238095238096,0.5904761904761905,0.5904761904761905,0.580952380952381,0.580952380952381,0.580952380952381,0.580952380952381,0.5714285714285714,0.5714285714285714,0.5714285714285714,0.5714285714285714,0.5714285714285714,0.5904761904761905,0.6,0.6190476190476191,0.6190476190476191,0.638095238095238,0.6666666666666666,0.7333333333333333,0.8476190476190476,0.8761904761904762,0.8952380952380953,0.9238095238095239,0.9238095238095239,0.9333333333333333,0.9333333333333333,0.9333333333333333,0.9428571428571428,0.9428571428571428,0.9428571428571428,0.9428571428571428,0.9428571428571428,0.9428571428571428,0.9428571428571428,0.9428571428571428,0.9428571428571428,0.9428571428571428,0.9428571428571428,0.9428571428571428,0.9428571428571428,0.9428571428571428,0.9428571428571428,0.9428571428571428,0.9428571428571428,0.9428571428571428,0.9428571428571428,0.9428571428571428,0.9428571428571428,0.9428571428571428,0.9428571428571428,0.9428571428571428,0.9428571428571428,0.9428571428571428,0.9428571428571428,0.9428571428571428,0.9428571428571428,0.9428571428571428,0.9428571428571428,0.9428571428571428,0.9428571428571428,0.9428571428571428,0.9428571428571428,0.9428571428571428,0.9428571428571428,0.9428571428571428,0.9428571428571428,0.9428571428571428,0.9428571428571428,0.9428571428571428,0.9428571428571428,0.9428571428571428,0.9428571428571428,0.9428571428571428,0.9428571428571428,0.9428571428571428,0.9428571428571428,0.9428571428571428,0.9428571428571428,0.9428571428571428,0.9428571428571428,0.9428571428571428,0.9428571428571428,0.9428571428571428,0.9428571428571428,0.9428571428571428,0.9428571428571428,0.9428571428571428,0.9428571428571428,0.9428571428571428,0.9428571428571428,0.9428571428571428,0.9428571428571428,0.9428571428571428,0.9428571428571428,0.9428571428571428,0.9428571428571428,0.9428571428571428,0.9428571428571428,0.9428571428571428,0.9428571428571428,0.9428571428571428,0.9428571428571428,0.9428571428571428,0.9428571428571428,0.9428571428571428,0.9428571428571428,0.9428571428571428,0.9428571428571428,0.9428571428571428,0.9428571428571428,0.9428571428571428,0.9428571428571428,0.9428571428571428,0.9428571428571428,0.9428571428571428,0.9428571428571428,0.9428571428571428,0.9428571428571428,0.9428571428571428,0.9428571428571428,0.9428571428571428,0.9428571428571428,0.9428571428571428,0.9428571428571428,0.9428571428571428,0.9428571428571428,0.9428571428571428,0.9428571428571428,0.9428571428571428,0.9428571428571428,0.9428571428571428,0.9428571428571428,0.9428571428571428,0.9428571428571428,0.9428571428571428,0.9428571428571428,0.9428571428571428,0.9428571428571428,0.9428571428571428,0.9428571428571428,0.9428571428571428,0.9428571428571428,0.9428571428571428,0.9428571428571428,0.9428571428571428,0.9428571428571428,0.9428571428571428,0.9428571428571428,0.9428571428571428,0.9428571428571428,0.9428571428571428,0.9428571428571428,0.9428571428571428,0.9428571428571428,0.9428571428571428,0.9428571428571428,0.9428571428571428,0.9428571428571428,0.9428571428571428,0.9428571428571428,0.9428571428571428,0.94285714