[{"success":true,"trial_type":"fullscreen","trial_index":0,"time_elapsed":4889,"internal_node_id":"0.0-0.0","protocol_sum":"","subject_identifier":401,"subject_sum":[39,186,220,152,61,241,120,11,96,194,179,250,157,58,25,160,14,70,170,199,152,69,31,15,235,220,165,41,32,250,173,223],"subject_pair":200,"STUDY_ID":"66a22c0758a3d5c9d26873c6","PROLIFIC_PID":"6652982569df798e71daaf11","SESSION_ID":"66a232b3477d50b7aea0b065","practice_instructions":1,"leaderboard_instructions":0,"bonus":0,"reveal_word":true,"self_rating":"3","confidence":"18"},{"view_history":"[{\"page_index\":0,\"viewing_time\":5982.5}]","rt":5982.799999952316,"trial_type":"instructions","trial_index":1,"time_elapsed":10873,"internal_node_id":"0.0-1.0","protocol_sum":"","subject_identifier":401,"subject_sum":[39,186,220,152,61,241,120,11,96,194,179,250,157,58,25,160,14,70,170,199,152,69,31,15,235,220,165,41,32,250,173,223],"subject_pair":200,"STUDY_ID":"66a22c0758a3d5c9d26873c6","PROLIFIC_PID":"6652982569df798e71daaf11","SESSION_ID":"66a232b3477d50b7aea0b065","practice_instructions":1,"leaderboard_instructions":0,"bonus":0,"reveal_word":true,"self_rating":"3","confidence":"18"},{"view_history":"[{\"page_index\":0,\"viewing_time\":30482.400000095367}]","rt":30482.599999904633,"trial_type":"instructions","trial_index":2,"time_elapsed":41356,"internal_node_id":"0.0-2.0-0.0","protocol_sum":"","subject_identifier":401,"subject_sum":[39,186,220,152,61,241,120,11,96,194,179,250,157,58,25,160,14,70,170,199,152,69,31,15,235,220,165,41,32,250,173,223],"subject_pair":200,"STUDY_ID":"66a22c0758a3d5c9d26873c6","PROLIFIC_PID":"6652982569df798e71daaf11","SESSION_ID":"66a232b3477d50b7aea0b065","practice_instructions":1,"leaderboard_instructions":0,"bonus":0,"reveal_word":true,"self_rating":"3","confidence":"18"},{"rt":11642,"responses":"{\"Q0\":\"... reveal the word with as <b>few letter guesses</b> as possible\"}","question_order":"[0]","trial_type":"survey-multi-choice","trial_index":3,"time_elapsed":53000,"internal_node_id":"0.0-2.0-1.0","protocol_sum":"","subject_identifier":401,"subject_sum":[39,186,220,152,61,241,120,11,96,194,179,250,157,58,25,160,14,70,170,199,152,69,31,15,235,220,165,41,32,250,173,223],"subject_pair":200,"correct":true,"test_part":"multichoice_nonpretend","STUDY_ID":"66a22c0758a3d5c9d26873c6","PROLIFIC_PID":"6652982569df798e71daaf11","SESSION_ID":"66a232b3477d50b7aea0b065","practice_instructions":1,"leaderboard_instructions":0,"bonus":0,"reveal_word":true,"self_rating":"3","confidence":"18"},{"view_history":"[{\"page_index\":0,\"viewing_time\":1996.9000000953674}]","rt":1997,"trial_type":"instructions","trial_index":4,"time_elapsed":54999,"internal_node_id":"0.0-3.0","protocol_sum":"","subject_identifier":401,"subject_sum":[39,186,220,152,61,241,120,11,96,194,179,250,157,58,25,160,14,70,170,199,152,69,31,15,235,220,165,41,32,250,173,223],"subject_pair":200,"STUDY_ID":"66a22c0758a3d5c9d26873c6","PROLIFIC_PID":"6652982569df798e71daaf11","SESSION_ID":"66a232b3477d50b7aea0b065","practice_instructions":1,"leaderboard_instructions":0,"bonus":0,"reveal_word":true,"self_rating":"3","confidence":"18"},{"word":"ZEBRA","click_log":{"letter":["","A","P","N","R","T","S","C","O","I","E","V","B","Z"],"t":[0,2417.5999999046326,20114.799999952316,22989.699999809265,24845.39999985695,28813.89999985695,30243.5,34868.39999985695,38842.699999809265,40493.699999809265,41859,59276.59999990463,61109.89999985695,63541.5],"hit":[null,1,0,0,1,0,0,0,0,0,1,0,1,1],"asked":["","A","AP","APN","APNR","APNRT","APNRTS","APNRTSC","APNRTSCO","APNRTSCOI","APNRTSCOIE","APNRTSCOIEV","APNRTSCOIEVB","APNRTSCOIEVBZ"],"word_state":["_____","____A","____A","____A","___RA","___RA","___RA","___RA","___RA","___RA","_E_RA","_E_RA","_EBRA","ZEBRA"]},"hover_log":{"letter":["?","?","?","?","?","?","?","?","?","?","?","?","J","S","?","?","?","?","?","?","?","?","?","?","?","?","?","?","?","?","?","?","?","?","?","?","?","?","?","?","?","?","?","?","?","?","?","?","?","?","?","?","?","?","?","?","?","?","?","?","?","?","?","?","?","?","?","?","?","?","?","?","?","T","T","T","T","T","?","K","K","K","K","?","?","?","?","A","A","A","A","A","A","A","A","A","A","A","A","A","A","A","A","A","A","A","A","A","A","A","A","A","A","A","A","A","A","A","A","A","A","A","A","A","A","A","A","A","A","A","A","A","A","A","A","A","A","A","A","A","A","A","A","A","A","A","A","A","A","A","A","A","A","A","A","A","A","A","A","A","A","A","A","A","A","A","A","A","A","A","A","A","A","A","A","A","A","?","?","?","K","K","K","?","?","?","U","U","U","?","?","?","?","?","?","?","?","?","?","?","?","?","?","?","?","?","?","?","?","?","?","?","?","?","?","?","Y","Y","Y","?","?","?","?","?","?","?","?","?","?","?","?","?","?","?","?","?","?","?","?","?","?","?","?","?","?","?","?","?","?","V","?","U","U","U","U","U","U","U","U","?","?","?","T","T","T","T","T","T","?","?","L","M","N","?","?","?","?","P","P","P","P","P","P","P","P","P","P","P","P","P","P","P","P","P","P","P","P","P","P","P","P","P","P","P","P","P","P","P","P","P","P","P","P","P","P","P","P","P","P","P","P","P","P","P","P","P","P","P","P","P","P","P","P","P","P","P","P","P","P","P","P","P","P","P","P","P","P","P","P","P","P","P","P","P","P","P","P","P","P","P","P","P","P","P","P","P","P","P","P","P","P","P","P","P","P","P","P","P","P","P","P","P","P","P","P","P","P","P","P","P","P","P","P","P","P","P","P","P","P","P","P","P","P","P","P","P","P","P","P","P","P","P","P","P","P","P","P","P","P","?","O","O","N","N","N","N","N","N","N","N","?","?","M","M","M","M","M","M","M","M","M","M","M","M","M","M","M","M","M","M","M","M","M","?","?","?","?","N","N","N","N","N","N","N","N","N","N","N","N","N","N","N","N","N","N","N","N","N","N","N","N","N","N","N","N","N","N","N","N","N","N","N","N","N","N","N","N","N","N","N","N","N","N","N","N","N","N","N","N","N","N","N","N","N","N","N","N","N","N","N","N","N","N","N","N","N","N","N","N","N","N","N","N","N","N","N","N","N","N","N","N","N","N","N","N","?","?","?","?","?","?","?","?","?","O","O","O","O","O","O","O","O","O","O","O","O","O","O","?","N","N","N","N","N","N","?","?","?","?","?","?","?","?","?","?","?","?","?","?","?","?","?","?","?","?","?","?","?","?","?","?","?","?","?","?","?","?","?","?","?","?","?","?","?","?","?","?","?","?","?","?","?","?","?","?","?","?","?","?","?","?","?","?","?","?","?","?","?","?","?","?","?","?","?","?","?","?","?","?","?","?","?","?","?","?","?","?","?","?","?","?","?","?","?","?","?","?","?","?","?","?","?","?","?","?","?","?","?","?","?","?","?","?","?","?","?","?","?","?","?","?","?","?","?","?","?","?","?","?","?","?","?","?","?","?","?","?","?","?","?","?","?","?","?","?","?","?","?","?","?","?","?","?","?","?","?","?","?","?","?","?","?","?","?","?","?","?","?","?","?","?","?","?","?","?","?","?","?","?","?","?","?","?","?","?","?","?","?","?","?","?","?","?","?","?","?","?","?","?","?","?","?","?","?","?","?","?","?","?","?","?","?","?","?","?","?","?","?","?","?","?","?","?","?","?","?","?","?","?","?","?","?","?","?","?","?","?","?","?","?","?","?","?","?","?","?","?","?","?","?","?","?","?","?","?","?","?","?","?","?","?","?","?","?","?","?","?","?","?","?","?","?","?","?","?","?","?","?","?","?","?","?","?","?","?","?","?","?","?","?","?","?","?","?","?","?","?","?","?","?","?","?","?","?","?","?","?","?","?","?","?","?","?","?","?","?","?","?","?","?","?","?","?","?","?","?","?","?","?","?","?","?","?","?","?","?","?","?","?","?","?","?","?","?","?","?","?","?","?","?","?","?","?","?","?","?","?","?","?","?","?","?","?","?","?","?","?","?","?","?","?","?","?","?","?","?","?","?","?","?","?","?","?","?","?","?","?","?","?","?","?","?","?","?","?","?","?","?","?","?","?","?","?","?","?","?","?","?","?","?","?","?","?","?","?","?","?","?","?","?","?","?","?","?","?","?","?","?","?","?","?","?","?","?","?","?","?","?","?","?","?","?","?","?","?","?","?","?","?","?","?","?","?","?","?","?","?","?","?","?","?","?","?","?","?","?","?","?","?","?","?","?","?","?","?","?","?","?","?","?","?","?","?","?","?","?","?","?","?","?","?","?","?","?","?","?","?","?","?","?","?","?","?","?","?","?","?","?","?","?","?","?","?","?","?","?","?","?","?","?","?","?","?","?","?","?","?","?","?","?","?","?","?","?","?","?","?","?","?","?","?","?","?","?","?","?","?","?","?","?","?","?","?","?","?","?","?","?","?","?","?","?","?","?","?","?","?","?","?","?","?","?","?","?","?","?","?","?","N","N","N","N","?","O","O","O","?","?","?","?","?","?","?","?","?","?","?","P","P","P","P","P","P","P","P","P","P","P","P","P","P","P","P","P","P","P","P","P","P","P","P","P","P","P","P","P","P","P","P","P","P","P","P","P","P","P","P","P","P","P","P","P","P","P","P","P","P","P","P","P","P","P","P","P","P","P","P","P","P","P","P","P","P","P","P","P","P","P","P","P","P","P","P","P","P","P","P","P","P","P","P","P","P","P","P","P","P","P","P","P","P","P","P","P","P","P","P","P","P","P","P","P","P","P","P","P","P","P","P","P","P","P","P","P","P","P","P","P","P","P","P","P","P","P","P","P","P","P","P","P","P","P","P","P","P","P","P","?","?","?","O","O","?","?","?","?","?","?","?","?","?","?","?","?","?","?","?","?","?","?","?","?","?","?","?","?","?","?","?","?","?","?","?","N","N","N","N","N","N","N","N","N","N","N","N","N","N","N","N","N","N","N","N","N","N","N","N","N","N","N","N","N","N","N","N","N","N","N","N","N","N","N","N","N","N","N","N","N","N","N","N","N","N","N","N","N","N","N","N","N","N","N","N","N","N","N","N","N","N","N","N","N","N","N","N","N","N","N","N","N","N","N","N","N","?","O","P","P","P","Q","Q","Q","?","?","?","?","R","R","R","R","R","R","R","R","R","R","R","R","R","R","R","R","R","R","R","R","R","R","R","R","R","R","R","R","R","R","R","R","R","R","R","R","R","R","R","R","R","R","R","R","R","R","R","R","R","R","R","R","R","R","R","R","R","R","R","R","R","R","R","R","R","R","R","R","R","R","R","R","R","R","R","R","R","R","R","R","R","R","R","R","R","R","R","R","R","R","R","R","R","R","R","R","R","R","R","R","R","R","R","R","R","R","R","R","R","R","R","R","R","R","R","R","R","R","R","R","R","R","R","R","R","R","R","R","R","R","R","R","R","R","R","R","R","R","R","R","R","R","R","R","R","R","R","R","R","R","R","R","R","R","R","R","R","R","R","R","R","R","R","R","R","R","R","R","R","R","R","R","R","R","R","R","R","R","R","R","R","R","R","R","R","R","R","R","R","R","R","R","R","R","R","R","R","R","R","R","R","R","R","R","R","R","R","R","R","R","R","R","R","R","R","R","R","R","R","R","R","R","R","R","?","Q","Q","Q","?","P","P","?","O","?","?","?","?","?","?","?","?","?","?","?","?","?","U","?","?","T","T","T","T","T","T","T","T","T","T","T","T","T","T","T","T","T","T","T","T","T","T","T","T","T","T","T","T","T","T","T","T","T","T","T","T","T","T","T","T","T","T","T","T","T","T","T","T","T","T","T","T","T","T","T","T","T","T","T","T","T","T","T","T","T","T","T","T","T","T","T","T","T","T","T","T","T","T","T","T","?","S","S","S","S","S","S","S","S","S","S","S","S","S","S","S","S","S","S","S","S","S","S","S","S","S","S","S","S","S","S","S","S","S","S","S","S","S","S","S","S","S","S","S","S","S","S","S","S","S","S","S","S","S","S","S","S","S","S","S","S","S","S","S","S","S","S","S","S","S","S","S","S","S","S","S","S","S","S","S","S","S","S","S","S","S","S","S","S","S","S","?","?","?","?","?","?","?","?","?","?","?","?","?","?","?","?","?","?","?","?","?","?","?","?","?","?","?","?","?","?","?","?","?","?","?","?","?","?","?","?","?","?","?","?","?","?","?","?","?","?","?","?","?","?","?","?","?","?","?","?","?","?","?","?","?","?","?","?","?","?","?","?","?","?","?","?","?","?","?","?","?","?","?","?","?","?","?","?","?","?","?","?","?","?","?","?","?","?","?","?","?","?","?","?","?","?","?","?","?","?","?","?","?","?","?","?","?","?","?","?","?","?","?","?","?","?","?","?","?","?","?","?","?","?","?","?","?","?","?","?","?","?","?","?","?","?","?","?","?","?","?","?","?","?","?","?","?","?","?","?","?","?","?","?","?","?","?","?","?","?","?","?","?","?","?","?","?","?","?","?","?","?","?","?","?","?","U","U","U","U","?","?","L","L","?","?","C","C","C","C","C","C","C","C","C","C","C","C","C","C","C","C","C","C","C","C","C","C","C","C","C","C","C","C","C","C","C","C","C","C","C","C","C","C","C","C","C","C","C","C","C","C","C","C","C","C","C","C","C","C","C","C","C","C","C","C","C","C","C","C","C","C","C","C","C","C","C","C","C","C","C","C","C","C","C","C","C","C","C","C","C","C","C","C","C","C","C","C","C","C","C","C","C","C","C","?","?","?","?","?","L","L","L","?","?","?","?","U","U","?","?","?","?","?","?","?","?","?","?","?","?","?","?","?","?","?","?","?","?","?","?","?","?","?","?","?","?","?","?","?","?","?","?","?","?","?","?","?","?","?","?","?","?","?","?","?","?","?","?","?","?","?","?","?","?","?","?","?","?","?","?","?","?","?","?","?","?","?","?","?","?","?","?","?","?","?","?","?","?","?","?","?","?","?","?","?","?","?","?","?","?","?","?","?","?","?","?","?","?","?","?","?","W","W","W","W","?","?","?","?","?","?","?","?","?","?","?","?","?","?","?","?","O","O","O","O","O","O","O","O","O","O","O","O","O","O","O","O","O","O","O","O","O","O","O","O","O","O","O","O","O","O","O","O","O","O","O","O","O","O","O","O","O","O","O","O","O","O","O","O","O","O","O","O","O","O","O","O","O","O","O","O","O","O","O","O","O","O","O","O","O","O","O","O","O","O","O","O","?","P","P","P","?","?","?","?","?","?","?","?","?","?","I","I","I","I","I","I","I","I","I","I","I","I","I","I","I","I","I","I","I","I","I","I","I","I","I","I","I","I","I","I","I","I","I","I","I","I","I","I","I","I","I","I","I","I","I","I","I","I","I","I","I","I","I","I","I","I","I","I","I","I","I","I","I","I","I","I","I","I","I","I","I","I","I","I","I","I","I","I","?","H","G","G","G","?","F","F","F","F","F","?","?","?","?","?","?","?","E","E","E","E","E","E","E","E","E","E","E","E","E","E","E","E","E","E","E","E","E","E","E","E","E","E","E","E","E","E","E","E","E","E","E","E","E","E","E","E","E","E","E","E","E","E","E","E","E","E","E","E","E","E","E","E","E","E","E","E","E","E","E","E","E","E","E","E","E","E","E","E","E","E","E","E","E","E","E","E","E","E","E","E","E","E","E","E","E","E","E","E","E","E","E","E","E","?","?","V","?","?","?","?","?","?","?","?","?","?","?","?","?","?","?","?","?","?","?","?","?","?","?","?","?","?","?","?","?","?","?","?","?","?","?","?","?","?","?","?","?","?","?","?","?","?","?","?","?","?","?","?","?","?","?","?","?","?","?","?","?","?","?","?","?","?","?","?","?","?","?","?","?","?","?","?","?","?","?","?","?","?","?","?","?","?","?","?","?","?","?","?","?","?","?","?","?","?","?","?","?","?","?","?","?","?","?","?","?","?","?","?","?","?","?","?","?","?","?","?","?","?","?","?","?","?","?","?","?","?","?","?","?","?","?","?","?","?","?","?","?","?","?","?","?","?","?","?","?","?","?","?","?","?","?","?","?","?","?","?","?","?","?","?","?","?","?","?","?","?","?","?","?","?","?","?","?","?","?","?","?","?","?","?","?","?","?","?","?","?","?","?","?","?","?","?","?","?","?","?","?","?","?","?","?","?","?","?","?","?","?","?","?","?","?","?","?","?","?","?","?","?","?","?","?","?","?","?","?","?","?","?","?","?","?","?","?","?","?","?","?","?","?","?","?","?","?","?","?","?","?","?","?","?","?","?","?","?","?","?","?","?","?","?","?","?","?","?","?","?","?","?","?","?","?","?","?","?","?","?","?","?","?","?","?","?","?","?","?","?","?","?","?","?","?","?","?","?","?","?","?","?","?","?","?","?","?","?","?","?","?","?","?","?","?","?","?","?","?","?","?","?","?","?","?","?","?","?","?","?","?","?","?","?","?","?","?","?","?","?","?","?","?","?","?","?","?","?","?","?","?","?","?","?","?","?","?","?","?","?","?","?","?","?","?","?","?","?","?","?","?","?","?","?","?","?","?","?","?","?","?","?","?","?","?","?","?","?","?","?","?","?","?","?","?","?","?","?","?","?","?","?","?","?","?","?","?","?","?","?","?","?","?","?","?","?","?","?","?","?","?","?","?","?","?","?","?","?","?","?","?","?","?","?","?","?","?","?","N","N","N","N","?","?","?","?","?","?","?","?","?","?","?","?","?","?","?","?","?","?","?","?","?","?","?","?","?","?","?","?","?","?","?","?","?","?","?","?","?","?","?","?","?","?","?","?","?","?","?","?","?","?","?","?","?","?","?","?","?","?","?","?","?","?","?","?","?","?","?","?","?","?","?","?","?","?","?","?","N","N","?","?","V","V","?","?","?","?","?","?","?","?","?","?","?","?","?","?","?","?","?","?","?","?","?","?","?","?","?","?","?","?","?","?","?","?","?","?","?","?","?","?","?","?","?","?","?","?","?","?","?","?","?","?","?","?","?","?","?","?","?","?","?","?","?","?","?","?","?","?","?","?","?","?","?","?","?","?","?","?","?","?","?","?","?","?","?","?","?","?","?","?","?","?","?","?","?","?","?","?","?","?","?","?","?","?","?","?","?","?","?","?","?","?","?","?","?","?","?","?","?","?","?","?","?","?","?","?","?","?","?","?","?","?","?","?","?","?","?","?","?","?","?","?","?","?","?","?","?","?","?","?","?","?","?","?","?","?","?","?","?","?","?","?","?","?","?","?","?","?","?","?","?","?","?","?","?","?","?","?","?","?","?","?","?","?","?","?","?","?","?","?","?","?","?","?","?","?","?","?","?","?","?","?","?","?","?","?","?","?","?","?","?","?","?","?","?","?","?","?","?","?","?","?","?","?","?","?","?","?","?","?","?","?","?","?","?","?","?","?","?","?","?","?","?","?","?","?","?","?","?","?","?","?","?","?","?","?","?","?","?","?","?","?","?","?","?","?","?","?","?","?","?","?","?","?","?","?","?","?","?","?","?","?","?","?","?","?","?","?","?","?","?","?","?","?","?","?","?","?","?","?","?","?","?","?","?","?","?","?","?","?","?","?","?","?","?","?","?","?","?","?","?","?","?","?","?","?","?","?","?","?","?","?","?","?","?","?","?","?","?","?","?","?","?","?","?","?","?","?","?","?","?","?","?","?","?","?","?","?","?","?","?","?","?","?","?","?","?","?","?","?","?","?","?","?","?","?","?","?","?","?","?","?","?","?","?","?","?","?","?","?","?","?","?","?","?","?","?","?","?","?","?","?","?","?","?","?","?","?","?","?","?","?","?","?","?","V","V","V","V","V","V","V","V","V","V","V","V","V","V","V","V","V","V","V","V","V","V","V","V","V","V","V","V","V","V","V","V","V","V","V","V","V","V","V","V","V","V","V","V","V","V","V","V","V","V","V","V","V","V","V","V","V","V","V","V","V","V","V","V","V","V","V","V","V","V","V","V","V","V","V","V","V","V","V","V","V","V","V","V","V","V","V","V","?","?","?","?","L","L","L","K","K","K","K","K","K","K","K","K","K","K","K","K","K","K","K","K","?","?","?","?","?","?","B","B","B","B","B","B","B","B","B","B","B","B","B","B","B","B","B","B","B","B","B","B","B","B","B","B","B","B","B","B","B","B","B","B","B","B","B","B","B","B","B","B","B","B","B","B","B","B","B","B","B","B","B","B","B","B","B","B","B","B","B","B","B","B","B","B","B","B","B","B","B","?","?","K","?","?","U","U","U","U","U","U","U","U","U","U","U","U","U","U","U","U","U","U","U","T","T","T","T","T","T","T","T","T","T","T","T","T","T","T","T","T","T","T","U","U","V","V","W","W","?","X","X","X","?","?","?","Y","Y","Y","Y","Y","Y","Y","Y","Y","?","?","Z","Z","Z","Z","Z","Z","Z","Z","Z","Z","Z","Z","Z","Z","Z","Z","Z","Z","Z","Z","Z","Z","Z","Z","Z","Z","Z","Z","Z","Z","Z","Z","Z","Z","Z","Z","Z","Z","Z","Z","Z","Z","Z","Z","Z","Z","Z","Z","Z","Z","Z","Z","Z","Z","Z","Z","Z","Z","Z","Z","Z","Z","Z","Z","Z","Z","Z","Z","Z","Z","Z","Z","Z","?","?","?","?","?","?","?","?","?","?","?","?","?","?","?","?","?","?","?","?","?","?","?","?","?","?","?","?","?","?","?","?","?","?","?","?","?","?","?","?","?","?","?","?","?","?","?","?","?","?","?","?","?","?","?","?","?","?","?","?","?","?","?","?","?","?","?","?","?","?","?","?","?","?","?","?","?","?","?","?","?","?","?","?","?","?","?","?","?","?","?","?","?"],"t":[26,33,51,67,84,101,119,134,151,167,184,200,221,235,252,267,284,300,317,334,352,368,384,399,416,434,450,469,485,502,518,533,550,568,585,601,618,635,651,668,685,702,718,733,750,768,784,802,818,834,850,866,884,900,917,934,950,967,984,1000,1017,1033,1050,1066,1085,1100,1117,1135,1151,1167,1184,1200,1217,1234,1251,1267,1283,1300,1317,1334,1351,1366,1383,1400,1417,1435,1451,1467,1483,1500,1517,1534,1550,1567,1584,1600,1617,1633,1651,1667,1683,1701,1717,1733,1751,1767,1784,1801,1817,1834,1850,1867,1883,1900,1917,1934,1951,1967,1984,2001,2018,2033,2051,2067,2084,2101,2117,2134,2151,2168,2183,2201,2217,2233,2251,2267,2285,2301,2317,2333,2351,2367,2384,2400,2417,2434,2450,2466,2483,2500,2517,2533,2551,2567,2585,2601,2618,2635,2652,2668,2685,2700,2717,2733,2750,2767,2784,2800,2818,2834,2851,2868,2884,2901,2917,2933,2951,2967,2984,3001,3017,3033,3050,3067,3083,3100,3117,3135,3151,3168,3183,3200,3217,3233,3250,3267,3283,3300,3317,3333,3351,3366,3384,3401,3417,3433,3451,3468,3483,3500,3516,3534,3551,3568,3584,3601,3617,3633,3650,3667,3683,3701,3717,3734,3751,3767,3783,3801,3816,3833,3850,3867,3883,3901,3917,3933,3951,3967,3983,4001,4017,4033,4050,4067,4083,4101,4117,4133,4150,4167,4183,4201,4217,4233,4251,4267,4283,4301,4317,4334,4351,4367,4384,4401,4416,4433,4451,4467,4483,4501,4517,4534,4551,4567,4584,4600,4617,4634,4651,4667,4684,4700,4717,4733,4752,4767,4783,4800,4818,4833,4851,4867,4883,4900,4917,4933,4950,4967,4984,5000,5017,5033,5050,5068,5083,5100,5117,5133,5150,5168,5184,5200,5217,5233,5251,5268,5284,5300,5318,5334,5351,5368,5385,5400,5418,5434,5451,5468,5485,5500,5517,5533,5551,5568,5586,5601,5617,5635,5651,5668,5684,5701,5717,5733,5750,5768,5785,5801,5817,5834,5851,5867,5884,5900,5918,5933,5950,5968,5983,6000,6017,6033,6050,6067,6084,6099,6118,6133,6150,6167,6184,6200,6218,6234,6250,6267,6284,6300,6317,6333,6350,6367,6383,6400,6416,6434,6451,6468,6484,6500,6518,6534,6550,6567,6585,6601,6618,6635,6651,6668,6684,6701,6718,6734,6751,6768,6784,6801,6818,6834,6851,6868,6884,6900,6917,6934,6950,6966,6984,7000,7017,7034,7050,7068,7084,7100,7117,7133,7150,7167,7184,7200,7217,7234,7250,7267,7284,7300,7318,7333,7350,7367,7384,7400,7417,7433,7450,7467,7484,7500,7518,7533,7550,7568,7584,7600,7618,7633,7650,7668,7683,7701,7717,7734,7750,7766,7785,7800,7817,7834,7850,7867,7884,7900,7918,7934,7951,7968,7984,8000,8017,8034,8050,8067,8083,8100,8117,8133,8150,8167,8184,8200,8217,8234,8250,8267,8284,8300,8317,8334,8350,8367,8384,8399,8416,8434,8450,8467,8483,8500,8519,8534,8550,8567,8585,8600,8618,8634,8650,8667,8684,8700,8717,8734,8750,8766,8784,8800,8817,8834,8850,8867,8885,8900,8917,8935,8950,8967,8984,9000,9017,9034,9050,9068,9085,9100,9118,9134,9150,9166,9184,9200,9217,9234,9250,9267,9285,9300,9318,9333,9350,9367,9384,9400,9417,9434,9451,9467,9483,9500,9517,9534,9551,9566,9584,9600,9617,9634,9651,9668,9684,9700,9717,9734,9751,9766,9784,9800,9817,9834,9850,9867,9884,9901,9918,9935,9952,9968,9985,10001,10018,10034,10051,10067,10084,10100,10117,10134,10151,10167,10184,10201,10218,10235,10252,10268,10284,10301,10318,10335,10352,10368,10385,10402,10418,10434,10451,10468,10485,10501,10518,10535,10551,10568,10585,10601,10618,10635,10651,10668,10685,10701,10718,10733,10750,10768,10783,10800,10817,10834,10851,10868,10884,10901,10918,10935,10951,10968,10985,11001,11018,11034,11051,11068,11084,11100,11117,11134,11150,11167,11183,11200,11217,11234,11251,11268,11284,11301,11317,11334,11351,11368,11385,11401,11417,11434,11451,11468,11485,11501,11518,11534,11551,11567,11584,11601,11618,11634,11651,11668,11685,11701,11718,11735,11752,11768,11785,11801,11818,11835,11851,11868,11885,11901,11918,11935,11951,11968,11984,12002,12018,12034,12051,12068,12085,12101,12118,12134,12150,12168,12184,12200,12217,12234,12251,12268,12284,12302,12318,12335,12350,12367,12385,12401,12418,12433,12450,12467,12484,12501,12518,12535,12552,12568,12584,12601,12618,12635,12651,12668,12685,12701,12718,12735,12752,12767,12784,12801,12817,12835,12851,12868,12884,12901,12918,12935,12951,12968,12984,13001,13019,13034,13051,13068,13085,13101,13117,13134,13151,13167,13185,13201,13217,13234,13251,13268,13285,13301,13318,13335,13351,13368,13385,13400,13417,13434,13451,13468,13485,13501,13518,13535,13551,13568,13585,13600,13616,13634,13651,13667,13685,13701,13718,13734,13751,13768,13785,13801,13818,13834,13851,13868,13885,13901,13918,13935,13951,13968,13984,14001,14018,14035,14051,14068,14084,14101,14118,14135,14150,14167,14184,14201,14218,14234,14250,14267,14284,14301,14318,14335,14351,14367,14384,14401,14417,14434,14450,14467,14484,14500,14518,14534,14551,14568,14585,14601,14617,14634,14651,14667,14685,14700,14717,14733,14750,14767,14784,14801,14818,14835,14850,14868,14884,14901,14917,14934,14951,14968,14985,15002,15018,15035,15051,15068,15085,15101,15118,15134,15151,15168,15184,15201,15218,15234,15251,15267,15285,15301,15318,15334,15351,15369,15385,15400,15417,15434,15451,15468,15485,15501,15517,15534,15551,15567,15584,15601,15618,15635,15651,15668,15685,15701,15718,15734,15750,15767,15784,15800,15818,15833,15850,15868,15883,15900,15918,15934,15950,15968,15984,16001,16018,16034,16050,16068,16083,16100,16117,16133,16150,16168,16183,16201,16218,16233,16250,16267,16283,16300,16317,16334,16350,16367,16384,16400,16417,16433,16450,16467,16484,16500,16518,16534,16550,16568,16584,16600,16617,16634,16650,16667,16684,16700,16717,16734,16751,16767,16784,16800,16818,16834,16850,16867,16884,16900,16918,16934,16951,16968,16984,17001,17017,17034,17050,17067,17084,17101,17118,17134,17151,17168,17184,17200,17217,17234,17250,17267,17283,17300,17317,17333,17350,17367,17384,17400,17418,17434,17450,17467,17484,17500,17517,17533,17550,17567,17584,17600,17618,17634,17650,17668,17684,17700,17718,17734,17751,17767,17784,17800,17817,17834,17850,17867,17883,17900,17917,17934,17950,17968,17984,18000,18017,18034,18050,18068,18084,18100,18118,18133,18150,18167,18183,18200,18218,18234,18250,18267,18283,18300,18317,18333,18350,18367,18384,18400,18416,18434,18450,18468,18484,18500,18517,18534,18551,18568,18584,18600,18617,18634,18650,18667,18685,18700,18717,18734,18750,18768,18785,18800,18817,18834,18850,18867,18884,18900,18918,18934,18950,18968,18985,19000,19017,19034,19050,19067,19085,19101,19118,19135,19151,19167,19185,19201,19218,19234,19250,19268,19285,19300,19317,19334,19351,19367,19384,19401,19417,19434,19451,19467,19484,19501,19517,19534,19550,19567,19584,19600,19617,19634,19650,19668,19684,19700,19718,19735,19751,19767,19784,19802,19818,19834,19850,19867,19884,19900,19918,19935,19951,19967,19985,20001,20017,20034,20050,20067,20084,20101,20117,20134,20151,20167,20184,20201,20218,20234,20251,20268,20285,20301,20317,20334,20350,20367,20384,20400,20417,20434,20452,20468,20485,20501,20518,20534,20551,20568,20585,20601,20618,20635,20652,20668,20685,20701,20718,20734,20750,20767,20784,20800,20817,20833,20850,20867,20883,20901,20917,20934,20951,20967,20984,21001,21017,21034,21050,21067,21085,21100,21117,21134,21151,21167,21184,21201,21217,21234,21251,21267,21285,21300,21317,21333,21350,21367,21384,21400,21417,21434,21450,21467,21484,21500,21517,21534,21550,21567,21584,21600,21617,21634,21650,21667,21684,21701,21718,21734,21751,21767,21784,21801,21817,21834,21850,21867,21884,21901,21917,21935,21950,21967,21984,22001,22018,22035,22050,22068,22084,22101,22117,22134,22151,22168,22185,22200,22217,22235,22250,22267,22285,22301,22317,22334,22351,22367,22385,22400,22417,22433,22450,22467,22484,22500,22517,22533,22551,22567,22584,22601,22617,22635,22651,22667,22685,22701,22717,22734,22751,22768,22785,22801,22817,22835,22851,22867,22885,22901,22917,22935,22951,22967,22984,23001,23017,23035,23052,23067,23084,23101,23118,23134,23151,23168,23185,23201,23218,23235,23251,23268,23285,23302,23319,23334,23351,23368,23385,23400,23418,23435,23451,23468,23485,23502,23519,23535,23552,23568,23585,23600,23617,23634,23652,23667,23684,23701,23717,23735,23752,23767,23784,23801,23817,23834,23851,23868,23884,23900,23917,23934,23951,23967,23984,24001,24017,24034,24051,24067,24084,24101,24117,24134,24152,24167,24184,24201,24217,24234,24251,24267,24283,24300,24316,24334,24350,24367,24384,24401,24416,24434,24450,24467,24483,24501,24517,24533,24550,24567,24584,24600,24617,24634,24651,24667,24683,24700,24716,24733,24751,24766,24784,24800,24817,24833,24850,24867,24883,24901,24918,24934,24951,24967,24984,25000,25017,25034,25050,25067,25084,25100,25117,25134,25150,25167,25183,25200,25217,25234,25250,25267,25284,25300,25317,25334,25351,25368,25384,25400,25417,25433,25450,25467,25484,25500,25518,25534,25550,25567,25584,25600,25617,25633,25650,25667,25683,25700,25717,25733,25750,25768,25784,25801,25817,25833,25851,25867,25884,25901,25917,25934,25951,25967,25984,26000,26017,26034,26051,26067,26084,26100,26117,26133,26151,26167,26183,26200,26217,26234,26250,26267,26285,26300,26317,26334,26351,26367,26384,26400,26416,26434,26451,26467,26484,26501,26517,26534,26551,26567,26583,26601,26617,26634,26651,26667,26684,26701,26717,26734,26751,26767,26784,26801,26817,26834,26850,26868,26884,26900,26917,26933,26950,26967,26983,27000,27017,27033,27050,27067,27084,27101,27117,27135,27151,27168,27184,27201,27218,27235,27252,27268,27285,27302,27318,27334,27350,27367,27384,27401,27417,27434,27451,27467,27485,27500,27517,27534,27551,27568,27585,27602,27619,27634,27651,27667,27684,27701,27718,27734,27751,27768,27785,27800,27818,27834,27851,27868,27884,27901,27918,27935,27951,27967,27985,28000,28018,28034,28050,28067,28084,28100,28118,28134,28151,28168,28184,28201,28218,28234,28251,28267,28284,28300,28317,28333,28351,28367,28384,28400,28418,28433,28450,28467,28483,28500,28518,28534,28551,28569,28584,28600,28618,28634,28651,28667,28684,28701,28717,28734,28750,28767,28784,28800,28817,28834,28850,28868,28884,28901,28918,28934,28953,28968,28985,29003,29018,29035,29052,29068,29085,29102,29118,29135,29151,29168,29185,29201,29218,29235,29252,29269,29284,29301,29318,29334,29351,29368,29384,29400,29418,29434,29450,29467,29484,29501,29518,29534,29550,29568,29584,29600,29617,29634,29651,29667,29684,29700,29718,29734,29752,29767,29784,29801,29818,29835,29850,29868,29884,29901,29918,29935,29952,29968,29986,30002,30018,30035,30051,30068,30084,30100,30117,30135,30150,30167,30184,30201,30218,30234,30251,30267,30285,30300,30318,30335,30350,30367,30385,30400,30418,30435,30451,30467,30485,30501,30518,30535,30551,30568,30585,30602,30617,30635,30652,30668,30684,30701,30718,30735,30751,30768,30784,30800,30819,30835,30851,30867,30885,30900,30917,30935,30951,30967,30985,31001,31017,31035,31050,31067,31084,31101,31117,31134,31152,31167,31184,31201,31217,31234,31250,31267,31284,31301,31317,31335,31351,31368,31385,31400,31417,31435,31452,31467,31485,31501,31519,31534,31552,31568,31585,31601,31619,31635,31651,31669,31685,31702,31718,31735,31752,31768,31785,31802,31818,31835,31852,31868,31885,31902,31918,31935,31952,31968,31985,32001,32018,32034,32051,32068,32085,32102,32118,32135,32151,32168,32185,32202,32218,32234,32252,32268,32285,32302,32318,32335,32351,32368,32385,32402,32417,32434,32452,32468,32484,32501,32517,32534,32551,32567,32585,32602,32618,32635,32652,32668,32684,32701,32718,32735,32751,32768,32786,32802,32817,32834,32851,32867,32884,32901,32918,32934,32952,32968,32985,33001,33018,33035,33051,33068,33085,33101,33118,33135,33151,33168,33185,33201,33218,33234,33252,33269,33284,33302,33318,33334,33351,33368,33384,33401,33417,33435,33451,33469,33486,33500,33517,33535,33551,33568,33585,33600,33618,33635,33652,33669,33685,33701,33717,33734,33751,33767,33784,33801,33818,33834,33851,33867,33884,33901,33917,33934,33951,33967,33984,34001,34017,34034,34052,34067,34084,34101,34118,34134,34152,34168,34184,34201,34218,34234,34251,34267,34284,34300,34318,34334,34351,34368,34385,34400,34418,34434,34451,34468,34484,34500,34517,34534,34551,34567,34584,34601,34618,34635,34651,34668,34685,34701,34718,34734,34751,34767,34784,34801,34817,34834,34851,34867,34884,34901,34918,34934,34951,34968,34985,35002,35018,35035,35052,35068,35085,35101,35118,35135,35152,35169,35185,35202,35218,35235,35251,35269,35285,35301,35317,35334,35351,35367,35384,35401,35418,35434,35451,35467,35484,35501,35518,35533,35551,35568,35584,35601,35618,35634,35651,35667,35684,35700,35717,35734,35750,35767,35784,35801,35818,35834,35852,35868,35884,35901,35918,35935,35952,35968,35984,36002,36018,36034,36050,36067,36083,36102,36118,36134,36151,36168,36184,36201,36217,36234,36251,36267,36284,36301,36318,36334,36351,36368,36384,36400,36418,36434,36452,36467,36484,36502,36518,36535,36551,36567,36584,36602,36618,36635,36652,36667,36685,36702,36718,36734,36751,36769,36785,36801,36818,36834,36852,36868,36884,36901,36919,36935,36951,36968,36986,37001,37018,37035,37052,37068,37085,37102,37118,37135,37152,37169,37186,37202,37219,37235,37251,37269,37284,37301,37318,37334,37351,37369,37384,37401,37420,37434,37450,37468,37484,37501,37518,37534,37551,37568,37584,37601,37618,37635,37652,37668,37684,37700,37718,37734,37750,37768,37784,37801,37818,37834,37850,37868,37885,37901,37918,37935,37951,37968,37985,38001,38018,38035,38051,38068,38084,38101,38118,38134,38151,38168,38185,38201,38218,38234,38251,38268,38284,38302,38318,38334,38351,38368,38384,38400,38418,38434,38451,38468,38484,38501,38518,38534,38552,38568,38584,38601,38618,38634,38651,38668,38684,38701,38718,38734,38750,38768,38784,38801,38818,38834,38851,38867,38884,38900,38918,38935,38951,38968,38985,39001,39018,39035,39052,39069,39085,39102,39119,39135,39152,39168,39184,39201,39218,39235,39251,39268,39284,39301,39318,39334,39351,39367,39384,39401,39417,39434,39451,39468,39486,39500,39518,39534,39551,39567,39584,39600,39617,39634,39651,39668,39685,39701,39718,39735,39751,39768,39784,39800,39818,39836,39852,39867,39885,39900,39918,39935,39951,39969,39985,40001,40018,40035,40052,40069,40085,40101,40117,40135,40150,40167,40184,40202,40218,40236,40252,40269,40285,40301,40318,40335,40351,40367,40385,40401,40417,40435,40451,40467,40485,40501,40517,40535,40551,40567,40585,40603,40618,40635,40651,40668,40685,40702,40719,40735,40751,40767,40785,40803,40818,40835,40852,40869,40884,40901,40917,40934,40951,40969,40985,41001,41018,41035,41053,41067,41085,41101,41117,41135,41151,41168,41184,41201,41218,41235,41251,41267,41284,41301,41319,41335,41351,41368,41384,41400,41417,41433,41451,41467,41485,41501,41518,41534,41551,41568,41585,41602,41618,41635,41651,41667,41684,41701,41718,41734,41751,41767,41785,41801,41817,41835,41852,41868,41885,41901,41917,41934,41951,41968,41985,42002,42020,42035,42052,42068,42086,42101,42118,42135,42151,42169,42186,42202,42219,42235,42253,42268,42285,42302,42318,42335,42352,42368,42385,42400,42418,42435,42452,42468,42485,42501,42519,42536,42551,42568,42584,42602,42619,42635,42651,42668,42685,42701,42718,42735,42752,42768,42784,42801,42817,42834,42851,42867,42885,42901,42917,42936,42951,42968,42985,43002,43018,43035,43052,43068,43085,43102,43117,43135,43151,43167,43184,43202,43219,43235,43251,43268,43285,43303,43318,43334,43351,43368,43385,43402,43417,43435,43452,43468,43485,43502,43518,43535,43552,43568,43585,43601,43618,43636,43651,43668,43685,43701,43718,43735,43752,43769,43785,43802,43818,43835,43852,43868,43885,43902,43918,43935,43952,43968,43985,44002,44019,44036,44052,44068,44085,44102,44118,44135,44153,44167,44185,44201,44219,44235,44252,44268,44285,44302,44318,44334,44351,44368,44385,44401,44418,44435,44452,44469,44485,44502,44519,44535,44552,44568,44585,44601,44619,44635,44652,44668,44685,44701,44718,44735,44752,44769,44785,44801,44818,44835,44852,44868,44885,44902,44919,44935,44952,44969,44985,45001,45018,45035,45051,45068,45085,45102,45118,45136,45152,45168,45185,45202,45218,45235,45252,45268,45285,45302,45319,45335,45352,45368,45385,45401,45418,45434,45451,45468,45486,45502,45518,45535,45552,45568,45585,45602,45619,45635,45652,45668,45684,45701,45718,45735,45751,45767,45785,45802,45819,45835,45852,45868,45885,45901,45919,45935,45952,45968,45985,46002,46018,46035,46052,46068,46085,46102,46118,46135,46151,46168,46185,46202,46219,46234,46252,46268,46286,46302,46319,46336,46351,46369,46385,46400,46418,46434,46452,46468,46485,46502,46519,46535,46552,46568,46585,46601,46619,46635,46652,46667,46684,46701,46718,46735,46751,46768,46784,46801,46818,46835,46852,46868,46885,46902,46918,46935,46952,46969,46986,47002,47019,47035,47051,47070,47085,47102,47118,47135,47152,47168,47185,47202,47219,47235,47252,47269,47285,47302,47319,47335,47352,47368,47385,47401,47419,47435,47452,47469,47486,47502,47518,47535,47552,47567,47585,47601,47619,47635,47652,47669,47685,47702,47718,47735,47752,47768,47784,47802,47819,47836,47852,47868,47885,47901,47918,47935,47952,47969,47986,48002,48019,48035,48052,48068,48085,48101,48118,48135,48151,48168,48185,48202,48219,48235,48252,48269,48284,48302,48319,48335,48352,48368,48385,48401,48418,48435,48451,48468,48485,48501,48518,48535,48551,48568,48585,48602,48618,48634,48651,48668,48684,48700,48718,48734,48751,48768,48784,48801,48818,48834,48851,48868,48884,48901,48918,48934,48951,48969,48984,49000,49018,49034,49051,49069,49085,49101,49118,49134,49151,49167,49184,49201,49218,49235,49251,49267,49284,49301,49318,49335,49351,49368,49385,49401,49417,49435,49451,49467,49485,49501,49517,49535,49550,49567,49585,49601,49619,49635,49651,49668,49685,49702,49718,49735,49751,49768,49786,49801,49817,49836,49853,49868,49884,49901,49918,49934,49952,49968,49985,50001,50018,50035,50051,50067,50085,50101,50117,50134,50152,50167,50185,50202,50217,50235,50252,50267,50284,50302,50318,50334,50351,50368,50385,50401,50417,50434,50451,50468,50484,50501,50517,50534,50551,50568,50584,50601,50619,50635,50652,50668,50684,50701,50718,50735,50751,50768,50785,50801,50818,50834,50852,50868,50885,50901,50918,50935,50951,50968,50985,51001,51017,51035,51051,51068,51085,51101,51118,51135,51151,51167,51185,51201,51218,51235,51251,51267,51285,51301,51317,51335,51351,51367,51385,51400,51418,51435,51451,51467,51484,51501,51517,51535,51552,51568,51585,51601,51617,51635,51651,51668,51685,51702,51718,51735,51752,51769,51784,51801,51818,51834,51851,51868,51885,51901,51918,51934,51952,51967,51984,52001,52018,52035,52052,52068,52086,52102,52119,52135,52151,52169,52184,52202,52219,52235,52252,52268,52285,52302,52319,52335,52352,52369,52385,52403,52418,52434,52451,52468,52485,52502,52518,52536,52552,52569,52584,52601,52618,52635,52652,52669,52685,52702,52719,52735,52752,52768,52784,52802,52819,52836,52852,52868,52885,52902,52917,52935,52952,52968,52985,53002,53019,53035,53052,53068,53086,53102,53119,53135,53152,53169,53186,53201,53218,53235,53252,53269,53285,53301,53318,53335,53352,53369,53385,53400,53418,53435,53452,53469,53485,53502,53519,53535,53552,53568,53586,53602,53619,53635,53652,53668,53685,53702,53719,53735,53752,53768,53785,53801,53818,53835,53852,53869,53885,53902,53919,53936,53952,53969,53985,54002,54018,54035,54051,54068,54085,54102,54118,54135,54153,54168,54185,54202,54218,54235,54252,54268,54285,54302,54319,54336,54352,54368,54385,54401,54419,54435,54452,54469,54485,54502,54518,54536,54551,54569,54585,54602,54618,54636,54652,54669,54685,54702,54719,54736,54753,54769,54785,54802,54818,54835,54852,54868,54885,54901,54919,54935,54952,54969,54986,55002,55019,55035,55052,55068,55085,55102,55118,55135,55152,55168,55185,55202,55218,55236,55251,55268,55286,55302,55319,55335,55351,55368,55385,55401,55418,55435,55452,55469,55485,55502,55519,55536,55553,55569,55585,55602,55619,55636,55653,55669,55685,55702,55719,55736,55752,55768,55784,55802,55818,55834,55851,55868,55885,55902,55919,55935,55951,55968,55985,56002,56018,56036,56052,56069,56085,56102,56118,56135,56151,56168,56185,56201,56219,56235,56251,56268,56284,56301,56319,56335,56351,56368,56384,56400,56418,56434,56451,56468,56484,56501,56518,56534,56551,56567,56584,56601,56617,56634,56651,56668,56685,56701,56718,56734,56752,56768,56785,56802,56818,56835,56851,56868,56884,56902,56918,56935,56950,56968,56985,57001,57018,57035,57051,57068,57085,57101,57118,57134,57151,57168,57184,57201,57218,57234,57251,57268,57285,57301,57318,57334,57351,57368,57384,57401,57418,57435,57451,57467,57485,57501,57518,57534,57551,57568,57585,57601,57618,57634,57651,57669,57685,57702,57719,57734,57751,57769,57784,57801,57819,57835,57851,57867,57884,57901,57919,57934,57951,57968,57985,58001,58019,58034,58051,58067,58084,58101,58118,58134,58152,58168,58186,58203,58219,58236,58251,58268,58285,58302,58317,58335,58351,58368,58385,58401,58417,58435,58451,58467,58485,58501,58518,58536,58552,58568,58585,58601,58618,58636,58653,58668,58685,58701,58719,58736,58751,58768,58785,58801,58818,58835,58851,58868,58885,58901,58918,58935,58951,58968,58984,59001,59019,59035,59052,59069,59086,59102,59118,59135,59151,59168,59185,59201,59218,59235,59251,59268,59284,59301,59318,59336,59350,59369,59385,59402,59418,59436,59452,59469,59485,59502,59519,59535,59552,59569,59585,59602,59618,59635,59652,59669,59686,59702,59718,59736,59752,59769,59785,59802,59819,59835,59852,59868,59885,59901,59918,59935,59951,59968,59985,60001,60017,60035,60051,60068,60085,60102,60118,60135,60152,60168,60185,60202,60219,60235,60251,60268,60285,60301,60318,60335,60351,60367,60385,60401,60418,60435,60452,60468,60485,60501,60518,60535,60551,60568,60585,60601,60618,60635,60651,60668,60685,60701,60718,60734,60752,60768,60785,60801,60818,60835,60852,60868,60886,60902,60918,60935,60951,60967,60984,61001,61018,61035,61052,61068,61085,61101,61117,61135,61151,61167,61184,61201,61219,61236,61253,61269,61286,61302,61320,61335,61352,61370,61385,61401,61417,61434,61452,61468,61484,61501,61518,61534,61552,61567,61584,61602,61618,61635,61652,61668,61685,61702,61718,61735,61752,61768,61785,61802,61818,61835,61852,61868,61884,61902,61919,61934,61952,61968,61984,62002,62017,62034,62052,62068,62084,62102,62118,62134,62151,62168,62185,62202,62218,62234,62252,62268,62285,62302,62317,62334,62352,62368,62385,62401,62418,62434,62451,62468,62484,62502,62518,62534,62552,62568,62584,62601,62618,62634,62651,62668,62685,62701,62718,62734,62751,62767,62784,62802,62818,62834,62852,62868,62884,62900,62918,62934,62951,62968,62984,63002,63018,63034,63051,63068,63085,63101,63118,63134,63152,63168,63184,63202,63218,63234,63252,63267,63284,63301,63318,63334,63351,63368,63385,63401,63418,63435,63451,63468,63484,63502,63518,63536,63553,63568,63585,63601,63618,63635,63652,63669,63686,63702,63719,63735,63751,63768,63785,63802,63819,63836,63852,63869,63886,63902,63920,63935,63953,63968,63985,64004,64018,64035,64052,64068,64085,64102,64118,64134,64152,64169,64185,64202,64218,64235,64252,64268,64285,64302,64319,64337,64352,64369,64385,64401,64419,64436,64452,64469,64486,64501,64519,64535,64553,64569,64586,64602,64620,64636,64653,64669,64686,64702,64719,64734,64752,64769,64786,64802,64819,64836,64851,64869,64886,64902,64919,64935,64952,64969,64985,65002,65019,65036,65052,65068,65085,65102,65119,65135,65152,65169,65186,65202,65219,65236,65252,65269,65286,65302,65319,65335,65353,65368,65385,65402,65418,65435,65453,65468,65485,65502,65518,65535,65554],"hit":[null],"x":[-2.0408163265306123,-2.0408163265306123,-2.0408163265306123,-2.0408163265306123,-2.0408163265306123,-2.0408163265306123,-2.0408163265306123,-2.0408163265306123,-2.0408163265306123,-2.0408163265306123,-2.0408163265306123,-2.0408163265306123,-0.02040816326530612,-0.013605442176870748,-0.006802721088435374,0.006802721088435374,0.017006802721088437,0.027210884353741496,0.04081632653061224,0.04421768707482993,0.05102040816326531,0.05102040816326531,0.05102040816326531,0.05102040816326531,0.05442176870748299,0.05442176870748299,0.05442176870748299,0.05442176870748299,0.05442176870748299,0.05442176870748299,0.05442176870748299,0.05442176870748299,0.05442176870748299,0.05442176870748299,0.05442176870748299,0.05442176870748299,0.05442176870748299,0.05442176870748299,0.05442176870748299,0.05442176870748299,0.05442176870748299,0.05442176870748299,0.05442176870748299,0.05442176870748299,0.05442176870748299,0.05442176870748299,0.05442176870748299,0.05442176870748299,0.05442176870748299,0.05442176870748299,0.05442176870748299,0.05442176870748299,0.05442176870748299,0.05442176870748299,0.05442176870748299,0.05442176870748299,0.061224489795918366,0.06802721088435375,0.06802721088435375,0.06802721088435375,0.08163265306122448,0.08843537414965986,0.09863945578231292,0.11224489795918367,0.12244897959183673,0.12585034013605442,0.1360544217687075,0.14285714285714285,0.14965986394557823,0.15306122448979592,0.16326530612244897,0.17006802721088435,0.17687074829931973,0.17687074829931973,0.18027210884353742,0.18027210884353742,0.18027210884353742,0.18027210884353742,0.17006802721088435,0.1598639455782313,0.14965986394557823,0.1360544217687075,0.12585034013605442,0.11224489795918367,0.09183673469387756,0.07482993197278912,0.05782312925170068,0.04421768707482993,0.03741496598639456,0.030612244897959183,0.023809523809523808,0.017006802721088437,0.013605442176870748,0.013605442176870748,0.006802721088435374,0.003401360544217687,0,0,0,0,0,-0.003401360544217687,-0.003401360544217687,-0.003401360544217687,-0.003401360544217687,-0.003401360544217687,-0.003401360544217687,-0.003401360544217687,-0.003401360544217687,-0.003401360544217687,-0.003401360544217687,-0.003401360544217687,-0.003401360544217687,-0.003401360544217687,-0.003401360544217687,-0.003401360544217687,-0.003401360544217687,-0.003401360544217687,-0.003401360544217687,-0.003401360544217687,-0.003401360544217687,-0.003401360544217687,-0.003401360544217687,-0.003401360544217687,-0.003401360544217687,-0.003401360544217687,-0.003401360544217687,-0.003401360544217687,-0.003401360544217687,-0.003401360544217687,-0.003401360544217687,-0.003401360544217687,-0.003401360544217687,-0.003401360544217687,-0.003401360544217687,-0.003401360544217687,-0.003401360544217687,-0.003401360544217687,-0.003401360544217687,-0.003401360544217687,-0.003401360544217687,-0.003401360544217687,-0.003401360544217687,-0.003401360544217687,-0.003401360544217687,-0.003401360544217687,-0.003401360544217687,-0.003401360544217687,-0.003401360544217687,-0.003401360544217687,-0.003401360544217687,-0.003401360544217687,-0.003401360544217687,-0.003401360544217687,-0.003401360544217687,-0.003401360544217687,-0.003401360544217687,-0.003401360544217687,-0.003401360544217687,-0.003401360544217687,-0.003401360544217687,-0.003401360544217687,-0.003401360544217687,-0.003401360544217687,-0.003401360544217687,-0.003401360544217687,-0.003401360544217687,-0.003401360544217687,-0.003401360544217687,-0.003401360544217687,-0.003401360544217687,-0.003401360544217687,-0.003401360544217687,-0.003401360544217687,0,0.013605442176870748,0.030612244897959183,0.05102040816326531,0.07142857142857142,0.09183673469387756,0.10884353741496598,0.14285714285714285,0.16326530612244897,0.19047619047619047,0.23469387755102042,0.2585034013605442,0.2789115646258503,0.29931972789115646,0.30612244897959184,0.3129251700680272,0.3333333333333333,0.3469387755102041,0.3673469387755102,0.3945578231292517,0.41496598639455784,0.42857142857142855,0.4387755102040816,0.4387755102040816,0.4387755102040816,0.4387755102040816,0.4421768707482993,0.4421768707482993,0.445578231292517,0.4489795918367347,0.46258503401360546,0.4897959183673469,0.5272108843537415,0.5612244897959183,0.6122448979591837,0.6530612244897959,0.6972789115646258,0.7482993197278912,0.7755102040816326,0.7891156462585034,0.7993197278911565,0.8061224489795918,0.8231292517006803,0.8571428571428571,0.8843537414965986,0.8979591836734694,0.9183673469387755,0.9217687074829932,0.9251700680272109,0.9251700680272109,0.9251700680272109,0.9251700680272109,0.9251700680272109,0.9251700680272109,0.9251700680272109,0.9251700680272109,0.9115646258503401,0.8877551020408163,0.8673469387755102,0.8605442176870748,0.8537414965986394,0.8503401360544217,0.8435374149659864,0.8299319727891157,0.8197278911564626,0.8163265306122449,0.8095238095238095,0.8027210884353742,0.782312925170068,0.7551020408163265,0.6836734693877551,0.6258503401360545,0.5782312925170068,0.5170068027210885,0.47959183673469385,0.4387755102040816,0.3707482993197279,0.3401360544217687,0.30952380952380953,0.282312925170068,0.2755102040816326,0.272108843537415,0.2585034013605442,0.24489795918367346,0.23129251700680273,0.21768707482993196,0.21428571428571427,0.2108843537414966,0.20068027210884354,0.19387755102040816,0.19047619047619047,0.1870748299319728,0.18027210884353742,0.18027210884353742,0.1836734693877551,0.21428571428571427,0.2857142857142857,0.4557823129251701,0.5680272108843537,0.6496598639455783,0.7482993197278912,0.7891156462585034,0.8231292517006803,0.8571428571428571,0.8809523809523809,0.8945578231292517,0.9013605442176871,0.9047619047619048,0.9047619047619048,0.9047619047619048,0.9081632653061225,0.9081632653061225,0.9081632653061225,0.9081632653061225,0.9013605442176871,0.8741496598639455,0.8673469387755102,0.8571428571428571,0.8435374149659864,0.8333333333333334,0.826530612244898,0.8231292517006803,0.8231292517006803,0.8197278911564626,0.8197278911564626,0.8197278911564626,0.8197278911564626,0.8197278911564626,0.8197278911564626,0.8231292517006803,0.826530612244898,0.8299319727891157,0.8299319727891157,0.8333333333333334,0.8401360544217688,0.8401360544217688,0.8435374149659864,0.8435374149659864,0.8435374149659864,0.8435374149659864,0.8469387755102041,0.8469387755102041,0.8469387755102041,0.8469387755102041,0.8469387755102041,0.8469387755102041,0.8469387755102041,0.8469387755102041,0.8469387755102041,0.8469387755102041,0.8469387755102041,0.8469387755102041,0.8469387755102041,0.8469387755102041,0.8469387755102041,0.8469387755102041,0.8469387755102041,0.8469387755102041,0.8469387755102041,0.8469387755102041,0.8469387755102041,0.8469387755102041,0.8469387755102041,0.8469387755102041,0.8469387755102041,0.8469387755102041,0.8469387755102041,0.8469387755102041,0.8469387755102041,0.8469387755102041,0.8469387755102041,0.8469387755102041,0.8469387755102041,0.8469387755102041,0.8469387755102041,0.8469387755102041,0.8469387755102041,0.8469387755102041,0.8469387755102041,0.8469387755102041,0.8469387755102041,0.8469387755102041,0.8469387755102041,0.8469387755102041,0.8469387755102041,0.8469387755102041,0.8469387755102041,0.8469387755102041,0.8469387755102041,0.8469387755102041,0.8469387755102041,0.8469387755102041,0.8469387755102041,0.8469387755102041,0.8469387755102041,0.8469387755102041,0.8469387755102041,0.8469387755102041,0.8469387755102041,0.8469387755102041,0.8469387755102041,0.8469387755102041,0.8469387755102041,0.8469387755102041,0.8469387755102041,0.8469387755102041,0.8469387755102041,0.8469387755102041,0.8469387755102041,0.8469387755102041,0.8469387755102041,0.8469387755102041,0.8469387755102041,0.8469387755102041,0.8469387755102041,0.8469387755102041,0.8469387755102041,0.8469387755102041,0.8469387755102041,0.8469387755102041,0.8469387755102041,0.8469387755102041,0.8469387755102041,0.8469387755102041,0.8469387755102041,0.8469387755102041,0.8469387755102041,0.8469387755102041,0.8469387755102041,0.8469387755102041,0.8469387755102041,0.8469387755102041,0.8469387755102041,0.8469387755102041,0.8469387755102041,0.8469387755102041,0.8469387755102041,0.8469387755102041,0.8469387755102041,0.8469387755102041,0.8469387755102041,0.8469387755102041,0.8469387755102041,0.8469387755102041,0.8299319727891157,0.7755102040816326,0.7040816326530612,0.6666666666666666,0.6122448979591837,0.5918367346938775,0.5714285714285714,0.5544217687074829,0.5510204081632653,0.54421768707483,0.5374149659863946,0.5306122448979592,0.5136054421768708,0.4897959183673469,0.47959183673469385,0.47278911564625853,0.46938775510204084,0.46938775510204084,0.46598639455782315,0.46598639455782315,0.46258503401360546,0.46258503401360546,0.46258503401360546,0.46258503401360546,0.46258503401360546,0.46258503401360546,0.46258503401360546,0.46258503401360546,0.46258503401360546,0.46258503401360546,0.46258503401360546,0.46258503401360546,0.46938775510204084,0.47619047619047616,0.48639455782312924,0.4931972789115646,0.5034013605442177,0.5068027210884354,0.5102040816326531,0.5136054421768708,0.5272108843537415,0.5374149659863946,0.5544217687074829,0.5714285714285714,0.5850340136054422,0.5884353741496599,0.5986394557823129,0.5986394557823129,0.5986394557823129,0.5986394557823129,0.6020408163265306,0.6020408163265306,0.6020408163265306,0.6020408163265306,0.6020408163265306,0.6054421768707483,0.6054421768707483,0.608843537414966,0.608843537414966,0.608843537414966,0.608843537414966,0.608843537414966,0.608843537414966,0.608843537414966,0.608843537414966,0.608843537414966,0.608843537414966,0.608843537414966,0.608843537414966,0.608843537414966,0.6122448979591837,0.6122448979591837,0.6122448979591837,0.6122448979591837,0.6122448979591837,0.6122448979591837,0.6122448979591837,0.6122448979591837,0.6122448979591837,0.6122448979591837,0.6122448979591837,0.6122448979591837,0.6122448979591837,0.6122448979591837,0.6122448979591837,0.6122448979591837,0.6122448979591837,0.6122448979591837,0.6122448979591837,0.6122448979591837,0.6122448979591837,0.6122448979591837,0.6122448979591837,0.6122448979591837,0.6122448979591837,0.6122448979591837,0.6122448979591837,0.6122448979591837,0.6122448979591837,0.6122448979591837,0.6122448979591837,0.6122448979591837,0.6122448979591837,0.6122448979591837,0.6122448979591837,0.6122448979591837,0.6122448979591837,0.6122448979591837,0.6122448979591837,0.6122448979591837,0.6122448979591837,0.6122448979591837,0.6122448979591837,0.6122448979591837,0.6122448979591837,0.6122448979591837,0.6122448979591837,0.6122448979591837,0.6122448979591837,0.6122448979591837,0.6122448979591837,0.6122448979591837,0.6122448979591837,0.6122448979591837,0.6122448979591837,0.6122448979591837,0.6258503401360545,0.6326530612244898,0.6394557823129252,0.6428571428571429,0.6428571428571429,0.6462585034013606,0.6462585034013606,0.6462585034013606,0.6496598639455783,0.6530612244897959,0.6666666666666666,0.6802721088435374,0.6938775510204082,0.6938775510204082,0.6972789115646258,0.6972789115646258,0.7006802721088435,0.7074829931972789,0.7074829931972789,0.7074829931972789,0.7074829931972789,0.7040816326530612,0.6938775510204082,0.6666666666666666,0.6496598639455783,0.6292517006802721,0.6122448979591837,0.5986394557823129,0.5850340136054422,0.5612244897959183,0.54421768707483,0.5272108843537415,0.5170068027210885,0.5136054421768708,0.5102040816326531,0.5068027210884354,0.5068027210884354,0.5068027210884354,0.5034013605442177,0.5034013605442177,0.5034013605442177,0.5034013605442177,0.5034013605442177,0.5034013605442177,0.5034013605442177,0.5034013605442177,0.5034013605442177,0.5034013605442177,0.5034013605442177,0.5034013605442177,0.5034013605442177,0.5034013605442177,0.5034013605442177,0.5034013605442177,0.5034013605442177,0.5034013605442177,0.5034013605442177,0.5034013605442177,0.5034013605442177,0.5034013605442177,0.5034013605442177,0.5034013605442177,0.5034013605442177,0.5034013605442177,0.5034013605442177,0.5034013605442177,0.5034013605442177,0.5034013605442177,0.5034013605442177,0.5034013605442177,0.5034013605442177,0.5034013605442177,0.5034013605442177,0.5034013605442177,0.5034013605442177,0.5034013605442177,0.5034013605442177,0.5034013605442177,0.5034013605442177,0.5034013605442177,0.5034013605442177,0.5034013605442177,0.5034013605442177,0.5034013605442177,0.5034013605442177,0.5034013605442177,0.5034013605442177,0.5034013605442177,0.5034013605442177,0.5034013605442177,0.5034013605442177,0.5034013605442177,0.5034013605442177,0.5034013605442177,0.5034013605442177,0.5034013605442177,0.5034013605442177,0.5034013605442177,0.5034013605442177,0.5034013605442177,0.5034013605442177,0.5034013605442177,0.5034013605442177,0.5034013605442177,0.5034013605442177,0.5034013605442177,0.5034013605442177,0.5034013605442177,0.5034013605442177,0.5034013605442177,0.5034013605442177,0.5034013605442177,0.5034013605442177,0.5034013605442177,0.5034013605442177,0.5034013605442177,0.5034013605442177,0.5034013605442177,0.5034013605442177,0.5034013605442177,0.5034013605442177,0.5034013605442177,0.5034013605442177,0.5034013605442177,0.5034013605442177,0.5034013605442177,0.5034013605442177,0.5034013605442177,0.5034013605442177,0.5034013605442177,0.5034013605442177,0.5034013605442177,0.5034013605442177,0.5034013605442177,0.5034013605442177,0.5034013605442177,0.5034013605442177,0.5034013605442177,0.5034013605442177,0.5034013605442177,0.5034013605442177,0.5034013605442177,0.5034013605442177,0.5034013605442177,0.5034013605442177,0.5034013605442177,0.5034013605442177,0.5034013605442177,0.5034013605442177,0.5034013605442177,0.5034013605442177,0.5034013605442177,0.5034013605442177,0.5034013605442177,0.5034013605442177,0.5034013605442177,0.5034013605442177,0.5034013605442177,0.5034013605442177,0.5034013605442177,0.5034013605442177,0.5034013605442177,0.5034013605442177,0.5034013605442177,0.5034013605442177,0.5034013605442177,0.5034013605442177,0.5034013605442177,0.5034013605442177,0.5034013605442177,0.5034013605442177,0.5034013605442177,0.5034013605442177,0.5034013605442177,0.5034013605442177,0.5034013605442177,0.5034013605442177,0.5034013605442177,0.5034013605442177,0.5034013605442177,0.5034013605442177,0.5034013605442177,0.5034013605442177,0.5034013605442177,0.5034013605442177,0.5034013605442177,0.5034013605442177,0.5034013605442177,0.5034013605442177,0.5034013605442177,0.5034013605442177,0.5034013605442177,0.5034013605442177,0.5034013605442177,0.5034013605442177,0.5034013605442177,0.5034013605442177,0.5034013605442177,0.5034013605442177,0.5034013605442177,0.5034013605442177,0.5034013605442177,0.5034013605442177,0.5034013605442177,0.5034013605442177,0.5034013605442177,0.5034013605442177,0.5034013605442177,0.5034013605442177,0.5034013605442177,0.5034013605442177,0.5034013605442177,0.5034013605442177,0.5034013605442177,0.5034013605442177,0.5034013605442177,0.5034013605442177,0.5034013605442177,0.5034013605442177,0.5034013605442177,0.5034013605442177,0.5034013605442177,0.5034013605442177,0.5034013605442177,0.5034013605442177,0.5034013605442177,0.5034013605442177,0.5034013605442177,0.5034013605442177,0.5034013605442177,0.5034013605442177,0.5034013605442177,0.5034013605442177,0.5034013605442177,0.5034013605442177,0.5034013605442177,0.5034013605442177,0.5034013605442177,0.5034013605442177,0.5034013605442177,0.5034013605442177,0.5034013605442177,0.5034013605442177,0.5034013605442177,0.5034013605442177,0.5034013605442177,0.5034013605442177,0.5034013605442177,0.5034013605442177,0.5034013605442177,0.5034013605442177,0.5034013605442177,0.5034013605442177,0.5034013605442177,0.5034013605442177,0.5034013605442177,0.5034013605442177,0.5034013605442177,0.5034013605442177,0.5034013605442177,0.5034013605442177,0.5034013605442177,0.5034013605442177,0.5034013605442177,0.5034013605442177,0.5034013605442177,0.5034013605442177,0.5034013605442177,0.5034013605442177,0.5034013605442177,0.5034013605442177,0.5034013605442177,0.5034013605442177,0.5034013605442177,0.5034013605442177,0.5034013605442177,0.5034013605442177,0.5034013605442177,0.5034013605442177,0.5034013605442177,0.5034013605442177,0.5034013605442177,0.5034013605442177,0.5034013605442177,0.5034013605442177,0.5034013605442177,0.5034013605442177,0.5034013605442177,0.5034013605442177,0.5034013605442177,0.5034013605442177,0.5034013605442177,0.5034013605442177,0.5034013605442177,0.5034013605442177,0.5034013605442177,0.5034013605442177,0.5034013605442177,0.5034013605442177,0.5034013605442177,0.5034013605442177,0.5034013605442177,0.5034013605442177,0.5034013605442177,0.5034013605442177,0.5034013605442177,0.5034013605442177,0.5034013605442177,0.5034013605442177,0.5034013605442177,0.5034013605442177,0.5034013605442177,0.5034013605442177,0.5034013605442177,0.5034013605442177,0.5034013605442177,0.5034013605442177,0.5034013605442177,0.5034013605442177,0.5034013605442177,0.5034013605442177,0.5034013605442177,0.5034013605442177,0.5034013605442177,0.5034013605442177,0.5034013605442177,0.5034013605442177,0.5034013605442177,0.5034013605442177,0.5034013605442177,0.5034013605442177,0.5034013605442177,0.5034013605442177,0.5034013605442177,0.5034013605442177,0.5034013605442177,0.5034013605442177,0.5034013605442177,0.5034013605442177,0.5034013605442177,0.5034013605442177,0.5034013605442177,0.5034013605442177,0.5034013605442177,0.5034013605442177,0.5034013605442177,0.5034013605442177,0.5034013605442177,0.5034013605442177,0.5034013605442177,0.5034013605442177,0.5034013605442177,0.5034013605442177,0.5034013605442177,0.5034013605442177,0.5034013605442177,0.5034013605442177,0.5034013605442177,0.5034013605442177,0.5034013605442177,0.5034013605442177,0.5034013605442177,0.5034013605442177,0.5034013605442177,0.5034013605442177,0.5034013605442177,0.5034013605442177,0.5034013605442177,0.5034013605442177,0.5034013605442177,0.5034013605442177,0.5034013605442177,0.5034013605442177,0.5034013605442177,0.5034013605442177,0.5034013605442177,0.5034013605442177,0.5034013605442177,0.5034013605442177,0.5034013605442177,0.5034013605442177,0.5034013605442177,0.5034013605442177,0.5034013605442177,0.5034013605442177,0.5034013605442177,0.5034013605442177,0.5034013605442177,0.5034013605442177,0.5034013605442177,0.5034013605442177,0.5034013605442177,0.5034013605442177,0.5034013605442177,0.5034013605442177,0.5034013605442177,0.5034013605442177,0.5034013605442177,0.5034013605442177,0.5034013605442177,0.5034013605442177,0.5034013605442177,0.5034013605442177,0.5034013605442177,0.5034013605442177,0.5034013605442177,0.5034013605442177,0.5034013605442177,0.5034013605442177,0.5034013605442177,0.5034013605442177,0.5034013605442177,0.5034013605442177,0.5034013605442177,0.5034013605442177,0.5034013605442177,0.5034013605442177,0.5034013605442177,0.5034013605442177,0.5034013605442177,0.5034013605442177,0.5034013605442177,0.5034013605442177,0.5034013605442177,0.5034013605442177,0.5034013605442177,0.5034013605442177,0.5034013605442177,0.5034013605442177,0.5034013605442177,0.5034013605442177,0.5034013605442177,0.5034013605442177,0.5034013605442177,0.5034013605442177,0.5034013605442177,0.5034013605442177,0.5034013605442177,0.5034013605442177,0.5034013605442177,0.5034013605442177,0.5034013605442177,0.5034013605442177,0.5034013605442177,0.5034013605442177,0.5034013605442177,0.5034013605442177,0.5034013605442177,0.5034013605442177,0.5034013605442177,0.5034013605442177,0.5034013605442177,0.5034013605442177,0.5034013605442177,0.5034013605442177,0.5034013605442177,0.5034013605442177,0.5034013605442177,0.5034013605442177,0.5034013605442177,0.5034013605442177,0.5034013605442177,0.5034013605442177,0.5034013605442177,0.5034013605442177,0.5034013605442177,0.5034013605442177,0.5034013605442177,0.5034013605442177,0.5034013605442177,0.5034013605442177,0.5034013605442177,0.5034013605442177,0.5034013605442177,0.5034013605442177,0.5034013605442177,0.5034013605442177,0.5034013605442177,0.5034013605442177,0.5034013605442177,0.5034013605442177,0.5034013605442177,0.5034013605442177,0.5034013605442177,0.5034013605442177,0.5034013605442177,0.5034013605442177,0.5034013605442177,0.5034013605442177,0.5034013605442177,0.5034013605442177,0.5034013605442177,0.5034013605442177,0.5034013605442177,0.5034013605442177,0.5034013605442177,0.5034013605442177,0.5034013605442177,0.5034013605442177,0.5034013605442177,0.5034013605442177,0.5034013605442177,0.5034013605442177,0.5034013605442177,0.5034013605442177,0.5034013605442177,0.5034013605442177,0.5034013605442177,0.5034013605442177,0.5034013605442177,0.5034013605442177,0.5034013605442177,0.5034013605442177,0.5034013605442177,0.5034013605442177,0.5034013605442177,0.5034013605442177,0.5034013605442177,0.5034013605442177,0.5034013605442177,0.5034013605442177,0.5034013605442177,0.5034013605442177,0.5034013605442177,0.5034013605442177,0.5034013605442177,0.5034013605442177,0.5034013605442177,0.5034013605442177,0.5034013605442177,0.5034013605442177,0.5034013605442177,0.5034013605442177,0.5034013605442177,0.5034013605442177,0.5034013605442177,0.5034013605442177,0.5034013605442177,0.5034013605442177,0.5034013605442177,0.5034013605442177,0.5034013605442177,0.5034013605442177,0.5034013605442177,0.5034013605442177,0.5034013605442177,0.5034013605442177,0.5034013605442177,0.5034013605442177,0.5034013605442177,0.5034013605442177,0.5034013605442177,0.5034013605442177,0.5034013605442177,0.5034013605442177,0.5034013605442177,0.5034013605442177,0.5034013605442177,0.5034013605442177,0.5034013605442177,0.5034013605442177,0.5034013605442177,0.5034013605442177,0.5034013605442177,0.5034013605442177,0.5034013605442177,0.5034013605442177,0.5034013605442177,0.5034013605442177,0.5034013605442177,0.5034013605442177,0.5034013605442177,0.5034013605442177,0.5034013605442177,0.5034013605442177,0.5034013605442177,0.5034013605442177,0.5034013605442177,0.5034013605442177,0.5034013605442177,0.5034013605442177,0.5034013605442177,0.5034013605442177,0.5034013605442177,0.5034013605442177,0.5034013605442177,0.5034013605442177,0.5034013605442177,0.5034013605442177,0.5034013605442177,0.5034013605442177,0.5034013605442177,0.5034013605442177,0.5034013605442177,0.5068027210884354,0.5068027210884354,0.5102040816326531,0.5102040816326531,0.5102040816326531,0.5102040816326531,0.5136054421768708,0.5136054421768708,0.5170068027210885,0.5238095238095238,0.5340136054421769,0.5680272108843537,0.5884353741496599,0.6156462585034014,0.6462585034013606,0.6666666666666666,0.6938775510204082,0.7278911564625851,0.7653061224489796,0.7959183673469388,0.8197278911564626,0.8231292517006803,0.826530612244898,0.8299319727891157,0.8299319727891157,0.8333333333333334,0.8333333333333334,0.8367346938775511,0.8367346938775511,0.8401360544217688,0.8435374149659864,0.8435374149659864,0.8435374149659864,0.8435374149659864,0.8435374149659864,0.8435374149659864,0.8435374149659864,0.8435374149659864,0.8435374149659864,0.8435374149659864,0.8435374149659864,0.8435374149659864,0.8435374149659864,0.8435374149659864,0.8435374149659864,0.8435374149659864,0.8435374149659864,0.8435374149659864,0.8435374149659864,0.8435374149659864,0.8435374149659864,0.8435374149659864,0.8435374149659864,0.8435374149659864,0.8435374149659864,0.8435374149659864,0.8435374149659864,0.8435374149659864,0.8435374149659864,0.8435374149659864,0.8435374149659864,0.8435374149659864,0.8435374149659864,0.8435374149659864,0.8435374149659864,0.8435374149659864,0.8435374149659864,0.8435374149659864,0.8435374149659864,0.8435374149659864,0.8435374149659864,0.8435374149659864,0.8435374149659864,0.8435374149659864,0.8435374149659864,0.8435374149659864,0.8435374149659864,0.8435374149659864,0.8435374149659864,0.8435374149659864,0.8435374149659864,0.8435374149659864,0.8435374149659864,0.8435374149659864,0.8435374149659864,0.8435374149659864,0.8435374149659864,0.8435374149659864,0.8435374149659864,0.8435374149659864,0.8435374149659864,0.8435374149659864,0.8435374149659864,0.8435374149659864,0.8435374149659864,0.8435374149659864,0.8435374149659864,0.8435374149659864,0.8435374149659864,0.8435374149659864,0.8435374149659864,0.8435374149659864,0.8435374149659864,0.8435374149659864,0.8435374149659864,0.8435374149659864,0.8435374149659864,0.8435374149659864,0.8435374149659864,0.8435374149659864,0.8435374149659864,0.8435374149659864,0.8435374149659864,0.8435374149659864,0.8435374149659864,0.8435374149659864,0.8435374149659864,0.8435374149659864,0.8435374149659864,0.8435374149659864,0.8435374149659864,0.8435374149659864,0.8435374149659864,0.8435374149659864,0.8435374149659864,0.8435374149659864,0.8435374149659864,0.8435374149659864,0.8435374149659864,0.8435374149659864,0.8435374149659864,0.8435374149659864,0.8435374149659864,0.8435374149659864,0.8435374149659864,0.8435374149659864,0.8435374149659864,0.8435374149659864,0.8435374149659864,0.8435374149659864,0.8435374149659864,0.8435374149659864,0.8435374149659864,0.8435374149659864,0.8435374149659864,0.8435374149659864,0.8435374149659864,0.8435374149659864,0.8435374149659864,0.8435374149659864,0.8435374149659864,0.8435374149659864,0.8435374149659864,0.8435374149659864,0.8435374149659864,0.8435374149659864,0.8401360544217688,0.8401360544217688,0.8401360544217688,0.8401360544217688,0.8367346938775511,0.8367346938775511,0.8367346938775511,0.8367346938775511,0.8333333333333334,0.8333333333333334,0.8299319727891157,0.8231292517006803,0.8163265306122449,0.8027210884353742,0.7891156462585034,0.7653061224489796,0.7380952380952381,0.7074829931972789,0.6938775510204082,0.6802721088435374,0.6632653061224489,0.6530612244897959,0.6394557823129252,0.6122448979591837,0.6020408163265306,0.5850340136054422,0.5748299319727891,0.5714285714285714,0.5714285714285714,0.5680272108843537,0.5680272108843537,0.5680272108843537,0.564625850340136,0.564625850340136,0.5612244897959183,0.5510204081632653,0.5476190476190477,0.54421768707483,0.54421768707483,0.54421768707483,0.54421768707483,0.54421768707483,0.54421768707483,0.54421768707483,0.54421768707483,0.54421768707483,0.54421768707483,0.54421768707483,0.54421768707483,0.5476190476190477,0.5544217687074829,0.5544217687074829,0.5578231292517006,0.5578231292517006,0.5578231292517006,0.5578231292517006,0.5578231292517006,0.5578231292517006,0.5578231292517006,0.5578231292517006,0.5578231292517006,0.5578231292517006,0.5578231292517006,0.5578231292517006,0.5578231292517006,0.5578231292517006,0.5612244897959183,0.5612244897959183,0.5612244897959183,0.5612244897959183,0.5612244897959183,0.5612244897959183,0.5612244897959183,0.5612244897959183,0.5612244897959183,0.5612244897959183,0.5612244897959183,0.5612244897959183,0.5612244897959183,0.5612244897959183,0.5612244897959183,0.5612244897959183,0.5612244897959183,0.5612244897959183,0.5612244897959183,0.5612244897959183,0.5612244897959183,0.5612244897959183,0.5612244897959183,0.5612244897959183,0.5612244897959183,0.5612244897959183,0.5612244897959183,0.5612244897959183,0.5612244897959183,0.5612244897959183,0.5612244897959183,0.5612244897959183,0.5612244897959183,0.5612244897959183,0.5612244897959183,0.5612244897959183,0.5612244897959183,0.5612244897959183,0.5612244897959183,0.5612244897959183,0.5612244897959183,0.5612244897959183,0.5612244897959183,0.5612244897959183,0.5612244897959183,0.5612244897959183,0.5612244897959183,0.5612244897959183,0.5612244897959183,0.5612244897959183,0.5612244897959183,0.5612244897959183,0.5612244897959183,0.5612244897959183,0.5612244897959183,0.5612244897959183,0.5612244897959183,0.5612244897959183,0.5612244897959183,0.5612244897959183,0.5612244897959183,0.5612244897959183,0.5612244897959183,0.5884353741496599,0.6530612244897959,0.7278911564625851,0.8197278911564626,0.8639455782312925,0.8979591836734694,0.9795918367346939,1.0170068027210883,1.0442176870748299,1.0714285714285714,1.0748299319727892,1.0782312925170068,1.0816326530612246,1.08843537414966,1.1020408163265305,1.1326530612244898,1.1462585034013606,1.1564625850340136,1.163265306122449,1.163265306122449,1.163265306122449,1.1666666666666667,1.1700680272108843,1.1700680272108843,1.1700680272108843,1.1700680272108843,1.1734693877551021,1.1768707482993197,1.1768707482993197,1.1768707482993197,1.1768707482993197,1.1768707482993197,1.1768707482993197,1.1768707482993197,1.1768707482993197,1.1768707482993197,1.1700680272108843,1.1700680272108843,1.1666666666666667,1.1598639455782314,1.1564625850340136,1.1564625850340136,1.1564625850340136,1.153061224489796,1.1496598639455782,1.1496598639455782,1.1462585034013606,1.1428571428571428,1.1428571428571428,1.1428571428571428,1.1428571428571428,1.1428571428571428,1.1428571428571428,1.1428571428571428,1.1428571428571428,1.1428571428571428,1.1428571428571428,1.1428571428571428,1.1428571428571428,1.1428571428571428,1.1428571428571428,1.1428571428571428,1.1428571428571428,1.1428571428571428,1.1428571428571428,1.1428571428571428,1.1428571428571428,1.1428571428571428,1.1428571428571428,1.1428571428571428,1.1428571428571428,1.1428571428571428,1.1428571428571428,1.1428571428571428,1.1428571428571428,1.1428571428571428,1.1428571428571428,1.1428571428571428,1.1428571428571428,1.1428571428571428,1.1428571428571428,1.1428571428571428,1.1428571428571428,1.1428571428571428,1.1428571428571428,1.1428571428571428,1.1428571428571428,1.1428571428571428,1.1428571428571428,1.1428571428571428,1.1428571428571428,1.1428571428571428,1.1428571428571428,1.1428571428571428,1.1428571428571428,1.1428571428571428,1.1428571428571428,1.1428571428571428,1.1428571428571428,1.1428571428571428,1.1428571428571428,1.1428571428571428,1.1428571428571428,1.1428571428571428,1.1428571428571428,1.1428571428571428,1.1428571428571428,1.1428571428571428,1.1428571428571428,1.1428571428571428,1.1428571428571428,1.1428571428571428,1.1428571428571428,1.1428571428571428,1.1428571428571428,1.1428571428571428,1.1428571428571428,1.1428571428571428,1.1428571428571428,1.1428571428571428,1.1428571428571428,1.1428571428571428,1.1428571428571428,1.1428571428571428,1.1428571428571428,1.1428571428571428,1.1428571428571428,1.1428571428571428,1.1428571428571428,1.1428571428571428,1.1428571428571428,1.1428571428571428,1.1428571428571428,1.1428571428571428,1.1428571428571428,1.1428571428571428,1.1428571428571428,1.1428571428571428,1.1428571428571428,1.1428571428571428,1.1428571428571428,1.1428571428571428,1.1428571428571428,1.1428571428571428,1.1428571428571428,1.1428571428571428,1.1428571428571428,1.1428571428571428,1.1428571428571428,1.1428571428571428,1.1428571428571428,1.1428571428571428,1.1428571428571428,1.1428571428571428,1.1428571428571428,1.1428571428571428,1.1428571428571428,1.1428571428571428,1.1428571428571428,1.1428571428571428,1.1428571428571428,1.1428571428571428,1.1428571428571428,1.1428571428571428,1.1428571428571428,1.1428571428571428,1.1428571428571428,1.1428571428571428,1.1428571428571428,1.1428571428571428,1.1428571428571428,1.1428571428571428,1.1428571428571428,1.1428571428571428,1.1428571428571428,1.1428571428571428,1.1428571428571428,1.1428571428571428,1.1428571428571428,1.1428571428571428,1.1428571428571428,1.1428571428571428,1.1428571428571428,1.1428571428571428,1.1428571428571428,1.1428571428571428,1.1428571428571428,1.1428571428571428,1.1428571428571428,1.1428571428571428,1.1428571428571428,1.1428571428571428,1.1428571428571428,1.1428571428571428,1.1428571428571428,1.1428571428571428,1.1428571428571428,1.1428571428571428,1.1428571428571428,1.1428571428571428,1.1428571428571428,1.1428571428571428,1.1428571428571428,1.1428571428571428,1.1428571428571428,1.1428571428571428,1.1428571428571428,1.1428571428571428,1.1428571428571428,1.1428571428571428,1.1428571428571428,1.1428571428571428,1.1428571428571428,1.1428571428571428,1.1428571428571428,1.1428571428571428,1.1428571428571428,1.1428571428571428,1.1428571428571428,1.1428571428571428,1.1428571428571428,1.1428571428571428,1.1428571428571428,1.1428571428571428,1.1428571428571428,1.1428571428571428,1.1428571428571428,1.1428571428571428,1.1428571428571428,1.1428571428571428,1.1428571428571428,1.1428571428571428,1.1428571428571428,1.1428571428571428,1.1428571428571428,1.1428571428571428,1.1020408163265305,1.0714285714285714,1.0374149659863945,1.010204081632653,0.9727891156462585,0.9149659863945578,0.8843537414965986,0.8537414965986394,0.7925170068027211,0.7482993197278912,0.6972789115646258,0.5986394557823129,0.5544217687074829,0.5204081632653061,0.47619047619047616,0.4387755102040816,0.41156462585034015,0.3843537414965986,0.3741496598639456,0.35714285714285715,0.3299319727891156,0.30952380952380953,0.2925170068027211,0.2687074829931973,0.24829931972789115,0.23129251700680273,0.1836734693877551,0.15306122448979592,0.1292517006802721,0.11564625850340136,0.10884353741496598,0.10884353741496598,0.10884353741496598,0.10884353741496598,0.10884353741496598,0.10884353741496598,0.10884353741496598,0.10884353741496598,0.10884353741496598,0.10884353741496598,0.10884353741496598,0.11904761904761904,0.12244897959183673,0.12585034013605442,0.1292517006802721,0.1360544217687075,0.1360544217687075,0.13945578231292516,0.14285714285714285,0.14285714285714285,0.14285714285714285,0.14285714285714285,0.14285714285714285,0.14285714285714285,0.14285714285714285,0.14285714285714285,0.14285714285714285,0.14285714285714285,0.14285714285714285,0.14285714285714285,0.14285714285714285,0.14285714285714285,0.14285714285714285,0.14285714285714285,0.14285714285714285,0.14285714285714285,0.14285714285714285,0.14285714285714285,0.14285714285714285,0.14285714285714285,0.14285714285714285,0.14285714285714285,0.14285714285714285,0.14285714285714285,0.14285714285714285,0.14285714285714285,0.14285714285714285,0.14285714285714285,0.14285714285714285,0.14285714285714285,0.14285714285714285,0.14285714285714285,0.14285714285714285,0.14285714285714285,0.14285714285714285,0.14285714285714285,0.14285714285714285,0.14285714285714285,0.14285714285714285,0.14285714285714285,0.14285714285714285,0.14285714285714285,0.14285714285714285,0.14285714285714285,0.14285714285714285,0.14285714285714285,0.14285714285714285,0.14285714285714285,0.14285714285714285,0.14285714285714285,0.14285714285714285,0.14285714285714285,0.14285714285714285,0.14285714285714285,0.12244897959183673,0.1054421768707483,0.08163265306122448,0.05442176870748299,0.034013605442176874,0.023809523809523808,0.003401360544217687,0,-0.003401360544217687,-0.006802721088435374,-0.01020408163265306,-0.013605442176870748,-0.013605442176870748,-0.017006802721088437,-0.02040816326530612,-0.02040816326530612,-0.02040816326530612,-0.023809523809523808,-0.023809523809523808,-0.023809523809523808,-0.023809523809523808,-0.023809523809523808,-0.023809523809523808,-0.023809523809523808,-0.023809523809523808,-0.023809523809523808,-0.023809523809523808,-0.023809523809523808,-0.023809523809523808,-0.023809523809523808,-0.023809523809523808,-0.023809523809523808,-0.023809523809523808,-0.023809523809523808,-0.023809523809523808,-0.023809523809523808,-0.023809523809523808,-0.023809523809523808,-0.023809523809523808,-0.023809523809523808,-0.023809523809523808,-0.023809523809523808,-0.023809523809523808,-0.023809523809523808,-0.023809523809523808,-0.023809523809523808,-0.023809523809523808,-0.023809523809523808,-0.023809523809523808,-0.023809523809523808,-0.023809523809523808,-0.023809523809523808,-0.023809523809523808,-0.023809523809523808,-0.023809523809523808,-0.023809523809523808,-0.023809523809523808,-0.023809523809523808,-0.023809523809523808,-0.023809523809523808,-0.023809523809523808,-0.023809523809523808,-0.023809523809523808,-0.023809523809523808,-0.023809523809523808,-0.023809523809523808,-0.023809523809523808,-0.023809523809523808,-0.023809523809523808,-0.023809523809523808,-0.023809523809523808,-0.023809523809523808,-0.023809523809523808,-0.023809523809523808,-0.023809523809523808,-0.023809523809523808,-0.023809523809523808,-0.023809523809523808,-0.023809523809523808,-0.023809523809523808,-0.023809523809523808,-0.023809523809523808,-0.023809523809523808,-0.023809523809523808,-0.023809523809523808,-0.023809523809523808,-0.023809523809523808,-0.023809523809523808,-0.023809523809523808,-0.023809523809523808,-0.023809523809523808,-0.023809523809523808,-0.017006802721088437,-0.013605442176870748,0,0.013605442176870748,0.023809523809523808,0.04081632653061224,0.05102040816326531,0.05442176870748299,0.06802721088435375,0.07142857142857142,0.0782312925170068,0.08503401360544217,0.08843537414965986,0.09523809523809523,0.09523809523809523,0.09523809523809523,0.09523809523809523,0.09523809523809523,0.09523809523809523,0.09523809523809523,0.09523809523809523,0.09523809523809523,0.09523809523809523,0.09523809523809523,0.09523809523809523,0.09523809523809523,0.09523809523809523,0.09523809523809523,0.09523809523809523,0.09523809523809523,0.09523809523809523,0.09523809523809523,0.09523809523809523,0.09523809523809523,0.09523809523809523,0.09523809523809523,0.09523809523809523,0.09523809523809523,0.09523809523809523,0.09523809523809523,0.09523809523809523,0.09523809523809523,0.09523809523809523,0.09523809523809523,0.09523809523809523,0.09523809523809523,0.09523809523809523,0.09523809523809523,0.09523809523809523,0.09523809523809523,0.09523809523809523,0.09523809523809523,0.09523809523809523,0.09523809523809523,0.09523809523809523,0.09523809523809523,0.09523809523809523,0.09523809523809523,0.09523809523809523,0.09523809523809523,0.09523809523809523,0.09523809523809523,0.09523809523809523,0.09523809523809523,0.09523809523809523,0.09523809523809523,0.09523809523809523,0.09523809523809523,0.09523809523809523,0.09523809523809523,0.09523809523809523,0.09523809523809523,0.09523809523809523,0.09523809523809523,0.09523809523809523,0.09523809523809523,0.09523809523809523,0.09523809523809523,0.09523809523809523,0.09523809523809523,0.09523809523809523,0.09523809523809523,0.09523809523809523,0.09523809523809523,0.09523809523809523,0.09523809523809523,0.09523809523809523,0.09523809523809523,0.09523809523809523,0.09523809523809523,0.09523809523809523,0.09523809523809523,0.09523809523809523,0.09523809523809523,0.09523809523809523,0.09523809523809523,0.09523809523809523,0.09523809523809523,0.09523809523809523,0.09523809523809523,0.09523809523809523,0.09523809523809523,0.09523809523809523,0.09523809523809523,0.09523809523809523,0.09523809523809523,0.09523809523809523,0.09523809523809523,0.09523809523809523,0.09523809523809523,0.09523809523809523,0.09523809523809523,0.09523809523809523,0.09523809523809523,0.09523809523809523,0.09523809523809523,0.09523809523809523,0.09523809523809523,0.09523809523809523,0.09523809523809523,0.09523809523809523,0.09523809523809523,0.09523809523809523,0.09523809523809523,0.09523809523809523,0.09523809523809523,0.09523809523809523,0.09523809523809523,0.09523809523809523,0.09523809523809523,0.09523809523809523,0.09523809523809523,0.09523809523809523,0.09523809523809523,0.09523809523809523,0.09523809523809523,0.09523809523809523,0.09523809523809523,0.09523809523809523,0.09523809523809523,0.09523809523809523,0.09523809523809523,0.09523809523809523,0.09523809523809523,0.09523809523809523,0.09523809523809523,0.09523809523809523,0.09523809523809523,0.09523809523809523,0.09523809523809523,0.09523809523809523,0.09523809523809523,0.09523809523809523,0.09523809523809523,0.09523809523809523,0.09523809523809523,0.09523809523809523,0.09523809523809523,0.09523809523809523,0.09523809523809523,0.09523809523809523,0.09523809523809523,0.09523809523809523,0.09523809523809523,0.09523809523809523,0.09523809523809523,0.09523809523809523,0.09523809523809523,0.09523809523809523,0.09523809523809523,0.09523809523809523,0.09523809523809523,0.09523809523809523,0.09523809523809523,0.12244897959183673,0.14965986394557823,0.16666666666666666,0.19047619047619047,0.20068027210884354,0.20408163265306123,0.20748299319727892,0.20748299319727892,0.21428571428571427,0.21768707482993196,0.22789115646258504,0.23809523809523808,0.25510204081632654,0.2585034013605442,0.2653061224489796,0.272108843537415,0.272108843537415,0.272108843537415,0.272108843537415,0.272108843537415,0.272108843537415,0.2755102040816326,0.282312925170068,0.2857142857142857,0.2891156462585034,0.2925170068027211,0.29931972789115646,0.29931972789115646,0.29931972789115646,0.29931972789115646,0.29931972789115646,0.29931972789115646,0.29931972789115646,0.29931972789115646,0.29931972789115646,0.29931972789115646,0.29931972789115646,0.29931972789115646,0.29931972789115646,0.29931972789115646,0.29931972789115646,0.29931972789115646,0.29931972789115646,0.29931972789115646,0.29931972789115646,0.29931972789115646,0.29931972789115646,0.29931972789115646,0.29931972789115646,0.29931972789115646,0.29931972789115646,0.29931972789115646,0.29931972789115646,0.29931972789115646,0.29931972789115646,0.29931972789115646,0.29931972789115646,0.29931972789115646,0.29931972789115646,0.29931972789115646,0.29931972789115646,0.29931972789115646,0.29931972789115646,0.29931972789115646,0.29931972789115646,0.29931972789115646,0.29931972789115646,0.29931972789115646,0.29931972789115646,0.29931972789115646,0.29931972789115646,0.29931972789115646,0.29931972789115646,0.29931972789115646,0.29931972789115646,0.29931972789115646,0.29931972789115646,0.29931972789115646,0.29931972789115646,0.29931972789115646,0.29931972789115646,0.29931972789115646,0.29931972789115646,0.29931972789115646,0.29931972789115646,0.29931972789115646,0.29931972789115646,0.29931972789115646,0.29931972789115646,0.29931972789115646,0.29931972789115646,0.29931972789115646,0.29931972789115646,0.29931972789115646,0.29931972789115646,0.29931972789115646,0.29931972789115646,0.29931972789115646,0.29931972789115646,0.29931972789115646,0.29931972789115646,0.29931972789115646,0.29931972789115646,0.29931972789115646,0.29931972789115646,0.29931972789115646,0.29931972789115646,0.29931972789115646,0.29931972789115646,0.29931972789115646,0.29931972789115646,0.29931972789115646,0.29931972789115646,0.29931972789115646,0.29931972789115646,0.29931972789115646,0.29931972789115646,0.30272108843537415,0.30612244897959184,0.30952380952380953,0.3129251700680272,0.3129251700680272,0.3129251700680272,0.3129251700680272,0.3129251700680272,0.3163265306122449,0.3231292517006803,0.32653061224489793,0.32653061224489793,0.32653061224489793,0.3299319727891156,0.3299319727891156,0.3333333333333333,0.3333333333333333,0.3333333333333333,0.32653061224489793,0.32653061224489793,0.32653061224489793,0.3197278911564626,0.3197278911564626,0.3197278911564626,0.3163265306122449,0.3129251700680272,0.3129251700680272,0.3129251700680272,0.30952380952380953,0.30952380952380953,0.30952380952380953,0.30952380952380953,0.30952380952380953,0.30952380952380953,0.30952380952380953,0.30952380952380953,0.30952380952380953,0.30952380952380953,0.30952380952380953,0.30952380952380953,0.30952380952380953,0.30952380952380953,0.30952380952380953,0.30952380952380953,0.30952380952380953,0.30952380952380953,0.30952380952380953,0.30952380952380953,0.30952380952380953,0.30952380952380953,0.30952380952380953,0.30952380952380953,0.30952380952380953,0.30952380952380953,0.30952380952380953,0.30952380952380953,0.30952380952380953,0.30952380952380953,0.30952380952380953,0.30952380952380953,0.30952380952380953,0.30952380952380953,0.30952380952380953,0.30952380952380953,0.30952380952380953,0.30952380952380953,0.30952380952380953,0.30952380952380953,0.30952380952380953,0.30952380952380953,0.30952380952380953,0.30952380952380953,0.30952380952380953,0.30952380952380953,0.30952380952380953,0.30952380952380953,0.30952380952380953,0.30952380952380953,0.30952380952380953,0.30952380952380953,0.30952380952380953,0.30952380952380953,0.30952380952380953,0.30952380952380953,0.30952380952380953,0.30952380952380953,0.30952380952380953,0.30952380952380953,0.30952380952380953,0.30952380952380953,0.30952380952380953,0.30952380952380953,0.30952380952380953,0.30952380952380953,0.30952380952380953,0.30952380952380953,0.30952380952380953,0.30952380952380953,0.30952380952380953,0.30952380952380953,0.30952380952380953,0.30952380952380953,0.30952380952380953,0.30952380952380953,0.30952380952380953,0.30952380952380953,0.3129251700680272,0.3129251700680272,0.3129251700680272,0.3129251700680272,0.3163265306122449,0.3163265306122449,0.3163265306122449,0.32653061224489793,0.336734693877551,0.3673469387755102,0.3945578231292517,0.41156462585034015,0.4421768707482993,0.45918367346938777,0.47959183673469385,0.5136054421768708,0.5340136054421769,0.5578231292517006,0.5748299319727891,0.5850340136054422,0.5884353741496599,0.5952380952380952,0.5952380952380952,0.5986394557823129,0.5986394557823129,0.5986394557823129,0.6020408163265306,0.6156462585034014,0.6258503401360545,0.6360544217687075,0.6462585034013606,0.6496598639455783,0.6530612244897959,0.6530612244897959,0.6530612244897959,0.6530612244897959,0.6564625850340136,0.6564625850340136,0.6598639455782312,0.6598639455782312,0.6666666666666666,0.6666666666666666,0.6666666666666666,0.6700680272108843,0.673469387755102,0.6802721088435374,0.6938775510204082,0.6972789115646258,0.7006802721088435,0.7040816326530612,0.7074829931972789,0.7074829931972789,0.7074829931972789,0.7108843537414966,0.7142857142857143,0.7142857142857143,0.7142857142857143,0.7142857142857143,0.7142857142857143,0.7142857142857143,0.7142857142857143,0.7142857142857143,0.7142857142857143,0.7142857142857143,0.7142857142857143,0.7142857142857143,0.7142857142857143,0.7142857142857143,0.7142857142857143,0.7142857142857143,0.7142857142857143,0.7142857142857143,0.7142857142857143,0.7142857142857143,0.7142857142857143,0.7142857142857143,0.7142857142857143,0.7142857142857143,0.7142857142857143,0.7142857142857143,0.7142857142857143,0.7142857142857143,0.7142857142857143,0.7142857142857143,0.7142857142857143,0.7142857142857143,0.7142857142857143,0.7142857142857143,0.7142857142857143,0.7142857142857143,0.7142857142857143,0.7142857142857143,0.7142857142857143,0.7142857142857143,0.7142857142857143,0.7142857142857143,0.7142857142857143,0.7142857142857143,0.7142857142857143,0.7142857142857143,0.7142857142857143,0.7142857142857143,0.7142857142857143,0.7142857142857143,0.7142857142857143,0.7142857142857143,0.7142857142857143,0.7142857142857143,0.7142857142857143,0.7210884353741497,0.7380952380952381,0.7619047619047619,0.782312925170068,0.8163265306122449,0.8707482993197279,0.8945578231292517,0.9217687074829932,0.9523809523809523,0.9795918367346939,1.0068027210884354,1.030612244897959,1.0578231292517006,1.0680272108843538,1.08843537414966,1.1020408163265305,1.1156462585034013,1.129251700680272,1.1360544217687074,1.1394557823129252,1.1394557823129252,1.1428571428571428,1.1428571428571428,1.1428571428571428,1.1428571428571428,1.1428571428571428,1.1496598639455782,1.153061224489796,1.153061224489796,1.153061224489796,1.1564625850340136,1.1564625850340136,1.1564625850340136,1.1564625850340136,1.1564625850340136,1.1564625850340136,1.1564625850340136,1.1564625850340136,1.153061224489796,1.1462585034013606,1.1462585034013606,1.1462585034013606,1.1462585034013606,1.1428571428571428,1.1428571428571428,1.1428571428571428,1.1428571428571428,1.1428571428571428,1.1428571428571428,1.1428571428571428,1.1428571428571428,1.1428571428571428,1.1428571428571428,1.1428571428571428,1.1428571428571428,1.1428571428571428,1.1428571428571428,1.1428571428571428,1.1428571428571428,1.1428571428571428,1.1428571428571428,1.1428571428571428,1.1428571428571428,1.1428571428571428,1.1428571428571428,1.1428571428571428,1.1428571428571428,1.1428571428571428,1.1428571428571428,1.1428571428571428,1.1428571428571428,1.1428571428571428,1.1428571428571428,1.1428571428571428,1.1428571428571428,1.1428571428571428,1.1428571428571428,1.1428571428571428,1.1428571428571428,1.1428571428571428,1.1428571428571428,1.1428571428571428,1.1428571428571428,1.1428571428571428,1.1428571428571428,1.1428571428571428,1.1428571428571428,1.1428571428571428,1.1428571428571428,1.1428571428571428,1.1428571428571428,1.1428571428571428,1.1428571428571428,1.1428571428571428,1.119047619047619,1.0612244897959184,0.9659863945578231,0.9149659863945578,0.8775510204081632,0.8163265306122449,0.7857142857142857,0.7585034013605442,0.7346938775510204,0.717687074829932,0.6972789115646258,0.6666666666666666,0.6530612244897959,0.6428571428571429,0.6394557823129252,0.6394557823129252,0.6394557823129252,0.6360544217687075,0.6326530612244898,0.6224489795918368,0.6054421768707483,0.5986394557823129,0.5986394557823129,0.5952380952380952,0.5952380952380952,0.5952380952380952,0.5918367346938775,0.5884353741496599,0.5816326530612245,0.5714285714285714,0.5714285714285714,0.5680272108843537,0.5680272108843537,0.5680272108843537,0.5680272108843537,0.5680272108843537,0.5680272108843537,0.5680272108843537,0.5680272108843537,0.5680272108843537,0.5680272108843537,0.5680272108843537,0.5680272108843537,0.5680272108843537,0.5680272108843537,0.5680272108843537,0.5680272108843537,0.5680272108843537,0.5680272108843537,0.5680272108843537,0.5680272108843537,0.5680272108843537,0.5680272108843537,0.5680272108843537,0.5680272108843537,0.5680272108843537,0.5680272108843537,0.5680272108843537,0.5680272108843537,0.5680272108843537,0.5680272108843537,0.5680272108843537,0.5680272108843537,0.5680272108843537,0.5680272108843537,0.5680272108843537,0.5680272108843537,0.5680272108843537,0.5680272108843537,0.5680272108843537,0.5680272108843537,0.5680272108843537,0.5680272108843537,0.5680272108843537,0.5680272108843537,0.5680272108843537,0.5680272108843537,0.5680272108843537,0.5680272108843537,0.5680272108843537,0.5680272108843537,0.5680272108843537,0.5680272108843537,0.5680272108843537,0.5680272108843537,0.5680272108843537,0.5680272108843537,0.5680272108843537,0.5680272108843537,0.5680272108843537,0.5680272108843537,0.5680272108843537,0.5680272108843537,0.5680272108843537,0.5680272108843537,0.5680272108843537,0.5680272108843537,0.5680272108843537,0.5680272108843537,0.5680272108843537,0.5680272108843537,0.5680272108843537,0.5680272108843537,0.5680272108843537,0.5680272108843537,0.5680272108843537,0.5680272108843537,0.5680272108843537,0.5680272108843537,0.5680272108843537,0.5680272108843537,0.5680272108843537,0.5680272108843537,0.5680272108843537,0.5680272108843537,0.5544217687074829,0.5,0.46258503401360546,0.43197278911564624,0.41156462585034015,0.4013605442176871,0.3979591836734694,0.3979591836734694,0.40816326530612246,0.41156462585034015,0.41496598639455784,0.41836734693877553,0.41836734693877553,0.4217687074829932,0.4217687074829932,0.4217687074829932,0.4217687074829932,0.4217687074829932,0.4217687074829932,0.4217687074829932,0.4217687074829932,0.4217687074829932,0.4217687074829932,0.4217687074829932,0.4217687074829932,0.4217687074829932,0.4217687074829932,0.4217687074829932,0.4217687074829932,0.4217687074829932,0.4217687074829932,0.4217687074829932,0.4217687074829932,0.4217687074829932,0.4217687074829932,0.4217687074829932,0.4217687074829932,0.4217687074829932,0.4217687074829932,0.4217687074829932,0.4217687074829932,0.4217687074829932,0.4217687074829932,0.4217687074829932,0.4217687074829932,0.4217687074829932,0.4217687074829932,0.4217687074829932,0.4217687074829932,0.4217687074829932,0.4217687074829932,0.4217687074829932,0.4217687074829932,0.4217687074829932,0.4217687074829932,0.4217687074829932,0.4217687074829932,0.4217687074829932,0.4217687074829932,0.4217687074829932,0.4217687074829932,0.4217687074829932,0.4217687074829932,0.4217687074829932,0.4217687074829932,0.4217687074829932,0.4217687074829932,0.4217687074829932,0.4217687074829932,0.4217687074829932,0.4217687074829932,0.4217687074829932,0.4217687074829932,0.4217687074829932,0.4217687074829932,0.4217687074829932,0.4217687074829932,0.4217687074829932,0.4217687074829932,0.4217687074829932,0.4217687074829932,0.4217687074829932,0.4217687074829932,0.4217687074829932,0.4217687074829932,0.4217687074829932,0.4217687074829932,0.4217687074829932,0.4217687074829932,0.4217687074829932,0.4217687074829932,0.4217687074829932,0.4217687074829932,0.4217687074829932,0.4217687074829932,0.4217687074829932,0.4217687074829932,0.4217687074829932,0.4217687074829932,0.4217687074829932,0.4217687074829932,0.4217687074829932,0.4217687074829932,0.4217687074829932,0.4217687074829932,0.4217687074829932,0.4217687074829932,0.4217687074829932,0.4217687074829932,0.4217687074829932,0.4217687074829932,0.4217687074829932,0.4217687074829932,0.4217687074829932,0.4217687074829932,0.4217687074829932,0.4217687074829932,0.4217687074829932,0.4217687074829932,0.4217687074829932,0.4217687074829932,0.4217687074829932,0.4217687074829932,0.4217687074829932,0.4217687074829932,0.4217687074829932,0.4217687074829932,0.4217687074829932,0.4217687074829932,0.4217687074829932,0.4217687074829932,0.4217687074829932,0.4217687074829932,0.4217687074829932,0.4217687074829932,0.4217687074829932,0.4217687074829932,0.4217687074829932,0.4217687074829932,0.4217687074829932,0.4217687074829932,0.4217687074829932,0.4217687074829932,0.4217687074829932,0.4217687074829932,0.4217687074829932,0.4217687074829932,0.4217687074829932,0.4217687074829932,0.4217687074829932,0.4217687074829932,0.4217687074829932,0.4217687074829932,0.4217687074829932,0.4217687074829932,0.4217687074829932,0.4217687074829932,0.4217687074829932,0.4217687074829932,0.4217687074829932,0.4217687074829932,0.4217687074829932,0.4217687074829932,0.4217687074829932,0.4217687074829932,0.4217687074829932,0.4217687074829932,0.4217687074829932,0.4217687074829932,0.4217687074829932,0.4217687074829932,0.4217687074829932,0.4217687074829932,0.4217687074829932,0.4217687074829932,0.4217687074829932,0.4217687074829932,0.4217687074829932,0.4217687074829932,0.4217687074829932,0.4217687074829932,0.4217687074829932,0.4217687074829932,0.4217687074829932,0.4217687074829932,0.4217687074829932,0.4217687074829932,0.4217687074829932,0.4217687074829932,0.4217687074829932,0.4217687074829932,0.4217687074829932,0.4217687074829932,0.4217687074829932,0.4217687074829932,0.4217687074829932,0.4217687074829932,0.4217687074829932,0.4217687074829932,0.4217687074829932,0.4217687074829932,0.4217687074829932,0.4217687074829932,0.4217687074829932,0.4217687074829932,0.4217687074829932,0.4217687074829932,0.4217687074829932,0.4217687074829932,0.4217687074829932,0.4217687074829932,0.4217687074829932,0.4217687074829932,0.4217687074829932,0.4217687074829932,0.4217687074829932,0.4217687074829932,0.4217687074829932,0.4217687074829932,0.4217687074829932,0.4217687074829932,0.4217687074829932,0.4217687074829932,0.4217687074829932,0.4217687074829932,0.4217687074829932,0.4217687074829932,0.4217687074829932,0.4217687074829932,0.4217687074829932,0.4217687074829932,0.4217687074829932,0.4217687074829932,0.4217687074829932,0.4217687074829932,0.4217687074829932,0.4217687074829932,0.4217687074829932,0.4217687074829932,0.4217687074829932,0.4217687074829932,0.4217687074829932,0.4217687074829932,0.4217687074829932,0.4217687074829932,0.4217687074829932,0.4217687074829932,0.4217687074829932,0.4217687074829932,0.4217687074829932,0.4217687074829932,0.4217687074829932,0.4217687074829932,0.4217687074829932,0.4217687074829932,0.4217687074829932,0.4217687074829932,0.4217687074829932,0.4217687074829932,0.4217687074829932,0.4217687074829932,0.4217687074829932,0.4217687074829932,0.4217687074829932,0.4217687074829932,0.4217687074829932,0.4217687074829932,0.4217687074829932,0.4217687074829932,0.4217687074829932,0.4217687074829932,0.4217687074829932,0.4217687074829932,0.4217687074829932,0.4217687074829932,0.4217687074829932,0.4217687074829932,0.4217687074829932,0.4217687074829932,0.4217687074829932,0.4217687074829932,0.4217687074829932,0.4217687074829932,0.4217687074829932,0.4217687074829932,0.4217687074829932,0.4217687074829932,0.4217687074829932,0.4217687074829932,0.4217687074829932,0.4217687074829932,0.4217687074829932,0.4217687074829932,0.4217687074829932,0.4217687074829932,0.4217687074829932,0.4217687074829932,0.4217687074829932,0.4217687074829932,0.4217687074829932,0.4217687074829932,0.4217687074829932,0.4217687074829932,0.4217687074829932,0.4217687074829932,0.4217687074829932,0.4217687074829932,0.4217687074829932,0.4217687074829932,0.4217687074829932,0.4217687074829932,0.4217687074829932,0.4217687074829932,0.4217687074829932,0.4217687074829932,0.4217687074829932,0.4217687074829932,0.4217687074829932,0.4217687074829932,0.4217687074829932,0.4217687074829932,0.4217687074829932,0.4217687074829932,0.4217687074829932,0.4217687074829932,0.4217687074829932,0.4217687074829932,0.4217687074829932,0.4217687074829932,0.4217687074829932,0.4217687074829932,0.4217687074829932,0.4217687074829932,0.4217687074829932,0.4217687074829932,0.4217687074829932,0.4217687074829932,0.4217687074829932,0.4217687074829932,0.4217687074829932,0.4217687074829932,0.4217687074829932,0.4217687074829932,0.4217687074829932,0.4217687074829932,0.4217687074829932,0.4217687074829932,0.4217687074829932,0.4217687074829932,0.4217687074829932,0.4217687074829932,0.4217687074829932,0.4217687074829932,0.4217687074829932,0.4217687074829932,0.4217687074829932,0.4217687074829932,0.4217687074829932,0.4217687074829932,0.4217687074829932,0.4217687074829932,0.4217687074829932,0.4217687074829932,0.4217687074829932,0.4217687074829932,0.4217687074829932,0.4217687074829932,0.4217687074829932,0.4217687074829932,0.4217687074829932,0.4217687074829932,0.4217687074829932,0.4217687074829932,0.4217687074829932,0.4217687074829932,0.4217687074829932,0.4217687074829932,0.4217687074829932,0.4217687074829932,0.4217687074829932,0.4217687074829932,0.4217687074829932,0.4217687074829932,0.4217687074829932,0.4217687074829932,0.4217687074829932,0.4217687074829932,0.4217687074829932,0.4217687074829932,0.4217687074829932,0.4217687074829932,0.4217687074829932,0.4217687074829932,0.4217687074829932,0.4217687074829932,0.4217687074829932,0.4217687074829932,0.4217687074829932,0.4217687074829932,0.4217687074829932,0.4217687074829932,0.4217687074829932,0.4217687074829932,0.4217687074829932,0.4217687074829932,0.4217687074829932,0.4217687074829932,0.4217687074829932,0.4217687074829932,0.4217687074829932,0.4217687074829932,0.4217687074829932,0.4217687074829932,0.