[{"success":true,"trial_type":"fullscreen","trial_index":0,"time_elapsed":2551,"internal_node_id":"0.0-0.0","protocol_sum":"","subject_identifier":430,"subject_sum":[216,101,128,165,127,123,245,66,232,82,2,40,60,184,69,149,60,157,40,248,10,142,101,29,176,139,47,192,178,214,167,49],"subject_pair":215,"STUDY_ID":"66a22c0758a3d5c9d26873c6","PROLIFIC_PID":"6632ac1fa19e8464a16ce9da","SESSION_ID":"66a2cfa19579d0f12372c8ff","practice_instructions":1,"leaderboard_instructions":0,"bonus":0,"reveal_word":false,"self_rating":"2","confidence":"92"},{"view_history":"[{\"page_index\":0,\"viewing_time\":5006.299999713898}]","rt":5006.400000095367,"trial_type":"instructions","trial_index":1,"time_elapsed":7558,"internal_node_id":"0.0-1.0","protocol_sum":"","subject_identifier":430,"subject_sum":[216,101,128,165,127,123,245,66,232,82,2,40,60,184,69,149,60,157,40,248,10,142,101,29,176,139,47,192,178,214,167,49],"subject_pair":215,"STUDY_ID":"66a22c0758a3d5c9d26873c6","PROLIFIC_PID":"6632ac1fa19e8464a16ce9da","SESSION_ID":"66a2cfa19579d0f12372c8ff","practice_instructions":1,"leaderboard_instructions":0,"bonus":0,"reveal_word":false,"self_rating":"2","confidence":"92"},{"view_history":"[{\"page_index\":0,\"viewing_time\":9932.599999904633}]","rt":9932.699999809265,"trial_type":"instructions","trial_index":2,"time_elapsed":17491,"internal_node_id":"0.0-2.0-0.0","protocol_sum":"","subject_identifier":430,"subject_sum":[216,101,128,165,127,123,245,66,232,82,2,40,60,184,69,149,60,157,40,248,10,142,101,29,176,139,47,192,178,214,167,49],"subject_pair":215,"STUDY_ID":"66a22c0758a3d5c9d26873c6","PROLIFIC_PID":"6632ac1fa19e8464a16ce9da","SESSION_ID":"66a2cfa19579d0f12372c8ff","practice_instructions":1,"leaderboard_instructions":0,"bonus":0,"reveal_word":false,"self_rating":"2","confidence":"92"},{"rt":5407.5,"responses":"{\"Q0\":\"... reveal the word with as <b>few letter guesses</b> as possible\"}","question_order":"[0]","trial_type":"survey-multi-choice","trial_index":3,"time_elapsed":22899,"internal_node_id":"0.0-2.0-1.0","protocol_sum":"","subject_identifier":430,"subject_sum":[216,101,128,165,127,123,245,66,232,82,2,40,60,184,69,149,60,157,40,248,10,142,101,29,176,139,47,192,178,214,167,49],"subject_pair":215,"correct":true,"test_part":"multichoice_nonpretend","STUDY_ID":"66a22c0758a3d5c9d26873c6","PROLIFIC_PID":"6632ac1fa19e8464a16ce9da","SESSION_ID":"66a2cfa19579d0f12372c8ff","practice_instructions":1,"leaderboard_instructions":0,"bonus":0,"reveal_word":false,"self_rating":"2","confidence":"92"},{"view_history":"[{\"page_index\":0,\"viewing_time\":982.5}]","rt":982.6000003814697,"trial_type":"instructions","trial_index":4,"time_elapsed":23883,"internal_node_id":"0.0-3.0","protocol_sum":"","subject_identifier":430,"subject_sum":[216,101,128,165,127,123,245,66,232,82,2,40,60,184,69,149,60,157,40,248,10,142,101,29,176,139,47,192,178,214,167,49],"subject_pair":215,"STUDY_ID":"66a22c0758a3d5c9d26873c6","PROLIFIC_PID":"6632ac1fa19e8464a16ce9da","SESSION_ID":"66a2cfa19579d0f12372c8ff","practice_instructions":1,"leaderboard_instructions":0,"bonus":0,"reveal_word":false,"self_rating":"2","confidence":"92"},{"word":"ZEBRA","click_log":{"letter":["","R","T","M","S","A","Z","E","B"],"t":[0,4273.800000190735,11499.200000286102,13877.200000286102,17151.900000095367,19785.200000286102,22406,23672.700000286102,24890.10000038147],"hit":[null,1,0,0,0,1,1,1,1],"asked":["","R","RT","RTM","RTMS","RTMSA","RTMSAZ","RTMSAZE","RTMSAZEB"],"word_state":["_____","___R_","___R_","___R_","___R_","___RA","Z__RA","ZE_RA","ZEBRA"]},"hover_log":{"letter":["?","?","?","?","?","?","?","?","?","?","?","?","?","?","?","?","?","?","?","?","?","?","?","?","?","?","?","?","?","?","?","?","?","?","?","?","?","?","?","?","?","?","?","?","?","?","?","J","?","B","?","?","?","?","?","?","?","?","?","?","?","?","?","?","?","?","?","?","?","?","?","?","?","?","?","?","?","?","?","?","?","?","?","?","?","?","?","?","?","?","?","?","?","?","?","?","?","?","?","?","?","?","?","?","?","?","?","?","?","?","?","?","?","?","?","?","?","?","?","?","?","?","?","?","?","?","?","?","?","?","?","?","?","?","?","?","?","?","?","?","?","?","?","?","?","?","?","?","?","?","?","?","?","?","?","?","?","?","?","?","?","?","?","?","?","?","?","?","D","D","?","?","M","M","M","M","M","M","M","M","M","M","M","M","M","M","M","M","?","?","N","N","N","?","O","O","O","O","O","O","O","O","O","O","O","O","?","?","?","?","P","P","P","P","P","?","Q","Q","Q","Q","Q","Q","Q","Q","Q","Q","Q","Q","Q","Q","Q","Q","Q","Q","Q","Q","Q","?","?","?","?","?","?","?","R","R","R","R","R","R","R","R","R","R","R","R","R","R","R","R","R","R","R","R","R","R","R","R","R","R","R","R","R","R","R","R","R","R","R","R","R","R","R","R","R","R","R","R","R","R","R","R","R","?","?","?","?","?","?","?","?","?","?","?","?","?","?","?","?","?","?","?","?","?","?","?","?","?","?","?","?","?","?","?","?","?","?","?","?","?","?","?","?","?","?","?","?","?","?","?","?","?","?","?","?","?","?","?","?","?","?","?","?","?","?","?","?","?","?","?","?","?","?","?","?","?","?","?","?","?","?","?","?","?","?","?","?","?","?","?","?","?","?","?","?","?","?","?","?","?","?","?","?","?","?","?","?","?","?","?","?","?","?","?","?","?","?","?","?","?","?","?","?","?","?","?","?","?","?","?","?","?","?","?","?","?","?","?","?","?","?","?","?","?","?","?","?","?","?","?","?","?","?","?","?","?","?","?","?","?","?","?","?","?","?","?","?","?","?","?","?","?","?","?","?","?","?","?","?","?","?","?","?","?","?","?","?","?","?","?","?","?","?","?","?","?","?","?","?","?","?","?","?","?","?","?","?","?","?","?","?","?","?","?","?","?","?","?","?","?","?","?","?","?","?","?","?","?","?","?","?","?","?","?","?","?","?","?","?","?","?","?","?","?","?","?","?","?","?","?","?","?","?","?","?","?","?","?","?","?","?","?","?","?","?","?","?","?","?","?","?","?","?","?","?","?","?","?","?","?","?","?","?","?","?","?","?","?","?","?","?","?","?","?","?","?","?","?","?","?","?","?","?","?","?","?","?","?","?","?","?","?","?","?","?","?","?","?","?","?","?","?","?","?","?","?","?","?","?","?","?","?","?","?","?","?","?","?","?","?","?","?","?","?","?","?","?","?","?","?","?","?","?","?","?","?","?","?","?","?","?","?","?","?","?","?","?","?","?","?","?","?","?","?","?","?","?","?","?","?","?","?","?","?","?","?","?","?","?","?","?","?","?","?","?","?","?","?","?","?","?","?","?","T","T","T","T","T","T","T","T","T","T","T","T","T","T","T","T","T","T","T","T","T","T","T","T","T","T","T","T","T","T","T","T","T","T","T","T","T","T","T","T","T","T","T","T","T","T","T","T","T","T","T","T","T","T","T","T","T","T","?","?","?","?","?","?","?","?","?","?","?","?","?","?","?","?","?","?","?","?","?","?","?","?","?","?","?","?","?","?","?","?","?","?","?","?","?","?","?","?","?","?","?","?","?","?","?","?","?","?","?","?","?","?","?","?","?","?","?","?","?","?","?","?","?","?","?","?","?","?","?","?","?","?","?","?","?","?","?","?","?","?","?","?","?","?","?","U","U","U","?","?","?","?","?","?","?","?","?","?","M","M","M","M","M","M","M","M","M","M","M","M","M","M","M","M","M","M","M","M","M","M","M","M","M","M","M","M","M","M","M","M","M","M","M","M","M","M","M","M","M","M","M","M","?","V","V","?","?","?","?","?","?","?","?","?","?","?","?","?","?","?","?","?","?","?","?","?","?","?","?","?","?","?","?","?","?","?","?","?","?","?","?","?","?","?","?","?","?","?","?","?","?","?","?","?","?","?","?","?","?","?","?","?","?","?","?","?","?","?","?","?","?","?","?","?","?","?","?","?","?","?","?","?","?","?","?","?","?","?","?","?","?","?","?","?","?","?","?","?","?","?","?","?","?","?","?","?","?","?","?","?","?","?","?","?","?","?","?","?","?","?","?","?","?","?","?","?","?","?","?","?","?","?","?","?","?","?","?","?","?","?","?","?","?","?","?","?","?","?","?","?","?","?","?","?","?","?","?","S","S","S","S","S","S","S","S","S","S","S","S","S","S","S","S","S","S","S","S","S","S","S","S","S","S","S","S","S","S","S","S","S","S","S","?","?","?","?","?","?","?","?","?","?","?","?","?","?","?","?","?","?","?","?","?","?","?","?","?","?","?","?","?","?","?","?","?","?","?","?","?","?","?","?","?","?","?","?","?","?","?","?","?","?","?","?","?","?","?","?","?","?","?","?","?","?","?","?","?","?","?","?","?","?","?","?","?","?","?","?","?","?","?","?","?","?","?","?","?","?","?","?","?","?","?","?","?","?","?","?","?","?","U","?","?","?","K","K","K","K","K","?","?","?","?","?","?","?","?","?","?","?","?","?","?","?","?","?","?","A","A","A","A","A","A","A","A","A","A","A","A","A","A","A","A","A","A","A","A","A","A","A","A","A","A","A","A","A","A","A","A","?","?","?","T","?","?","?","?","?","?","?","?","?","?","?","?","?","?","?","?","?","?","?","?","?","?","?","?","?","?","?","?","?","?","?","?","?","?","?","?","?","?","?","?","?","?","?","?","?","?","?","?","?","?","?","?","?","?","?","?","?","?","?","?","?","?","?","?","?","?","?","?","?","?","?","?","?","?","?","?","?","?","?","?","?","?","?","?","?","?","?","?","?","?","?","?","?","?","?","?","?","?","?","?","?","?","?","?","?","?","?","?","?","?","?","?","?","?","?","?","?","?","?","?","Z","Z","Z","Z","Z","Z","Z","Z","Z","Z","Z","Z","Z","Z","Z","Z","Z","Z","Z","Z","Z","Z","Z","Z","Z","Z","Z","Z","Z","Z","Z","Z","Z","Z","Z","Z","Z","Z","?","?","?","O","O","?","?","?","?","?","?","?","?","?","?","?","?","?","?","?","D","D","D","D","D","D","?","E","E","E","E","E","E","E","?","?","?","?","?","?","?","E","E","E","E","E","E","E","E","E","E","E","E","E","E","E","E","E","E","E","E","E","E","E","E","E","E","E","E","E","E","E","E","E","E","E","E","E","E","E","E","E","E","E","E","E","E","E","E","E","E","E","E","E","E","E","D","D","D","?","?","C","C","C","C","C","C","C","C","C","C","?","?","?","?","?","?","?","?","?","?","?","B","B","B","B","B","B","B","B","B","B","B","B","B","B","B","B","B","B","B","B","B","B","B","B","B","B","B","B","B","B","B","B","?","?","?","?","?","?","?","?","?","?","?","?","?","?","?","?","?","?","?","?","?","?","?","?","?","?","?","?","?","?","?","?","?","?","?","?","?","?","?","?","?","?","?","?","?","?","?","?","?","?","?","?","?","?","?","?","?","?","?","?","?","?","?","?","?","?","?","?","?","?","?","?","?","?","?","?","?","?","?","?","?","?","?","?","?","?","?","?","?","?","?","?","?","?","?","?","?","?","?"],"t":[22,32,67,82,99,113,128,144,161,179,201,220,237,256,275,290,306,322,337,354,371,385,403,423,441,456,472,487,504,521,535,549,563,582,598,617,632,647,662,680,696,710,722,735,748,764,780,797,812,828,845,862,879,896,913,928,945,962,979,997,1016,1031,1047,1063,1078,1097,1115,1131,1146,1163,1178,1196,1215,1230,1246,1262,1281,1299,1314,1330,1345,1362,1381,1399,1414,1430,1445,1462,1481,1499,1515,1530,1546,1564,1582,1597,1613,1629,1646,1659,1673,1687,1709,1726,1743,1761,1779,1792,1806,1821,1840,1856,1874,1890,1904,1920,1938,1954,1970,1986,2004,2017,2030,2042,2055,2067,2080,2094,2106,2123,2138,2154,2170,2185,2199,2216,2231,2246,2262,2277,2290,2308,2322,2338,2354,2368,2386,2401,2416,2433,2448,2462,2475,2490,2510,2525,2541,2556,2573,2588,2604,2617,2631,2642,2660,2674,2691,2706,2723,2740,2757,2773,2790,2807,2823,2840,2853,2866,2880,2895,2908,2925,2938,2956,2970,2983,2996,3009,3026,3040,3057,3073,3090,3107,3123,3140,3156,3173,3190,3205,3223,3240,3256,3273,3290,3306,3323,3337,3350,3366,3382,3399,3415,3431,3449,3465,3482,3498,3515,3532,3549,3561,3575,3592,3606,3624,3639,3653,3668,3687,3705,3721,3739,3752,3770,3785,3803,3819,3835,3854,3872,3886,3903,3917,3932,3948,3964,3981,3998,4014,4031,4045,4060,4075,4089,4107,4124,4143,4159,4177,4193,4210,4225,4241,4257,4270,4283,4296,4310,4321,4338,4353,4370,4386,4400,4412,4425,4439,4459,4474,4490,4504,4520,4536,4549,4562,4574,4587,4601,4619,4633,4651,4667,4684,4698,4715,4731,4748,4764,4780,4798,4814,4832,4851,4867,4884,4900,4918,4933,4951,4967,4984,4999,5015,5032,5051,5066,5084,5100,5118,5132,5148,5166,5184,5200,5218,5232,5249,5266,5284,5300,5318,5332,5349,5366,5385,5400,5417,5433,5449,5466,5485,5500,5517,5534,5552,5567,5585,5599,5616,5632,5646,5660,5677,5691,5708,5725,5743,5759,5771,5785,5800,5818,5834,5852,5867,5885,5900,5916,5933,5951,5967,5985,6000,6016,6033,6052,6067,6085,6101,6117,6133,6149,6166,6185,6201,6218,6234,6250,6266,6282,6299,6312,6330,6345,6359,6378,6392,6409,6424,6441,6457,6470,6488,6504,6523,6538,6556,6570,6586,6603,6622,6638,6656,6670,6686,6703,6716,6730,6747,6762,6778,6796,6814,6830,6846,6862,6879,6897,6913,6931,6945,6962,6979,6997,7013,7031,7045,7062,7078,7091,7105,7124,7145,7162,7178,7195,7208,7221,7233,7245,7260,7271,7289,7303,7320,7336,7350,7369,7383,7395,7408,7420,7433,7445,7458,7472,7483,7499,7515,7532,7548,7561,7574,7587,7599,7612,7625,7645,7657,7675,7689,7702,7715,7729,7747,7761,7779,7793,7806,7819,7839,7858,7878,7892,7910,7923,7936,7950,7968,7981,7999,8015,8033,8047,8060,8074,8093,8113,8132,8146,8164,8177,8191,8208,8223,8237,8256,8272,8289,8302,8318,8335,8348,8362,8375,8393,8408,8425,8441,8459,8473,8489,8506,8527,8547,8566,8580,8597,8615,8634,8649,8667,8682,8698,8715,8728,8741,8755,8769,8785,8798,8815,8830,8844,8859,8871,8884,8896,8912,8927,8941,8956,8972,8986,9002,9019,9032,9046,9064,9077,9091,9108,9123,9137,9156,9176,9195,9210,9224,9241,9253,9270,9282,9298,9315,9328,9342,9360,9375,9391,9406,9422,9440,9454,9467,9483,9497,9515,9531,9546,9559,9575,9591,9606,9623,9638,9654,9670,9685,9699,9714,9730,9743,9760,9773,9789,9804,9821,9837,9850,9870,9887,9900,9919,9937,9957,9971,9987,10004,10019,10037,10052,10066,10081,10095,10115,10131,10148,10167,10183,10200,10217,10233,10249,10264,10281,10297,10315,10331,10349,10364,10378,10392,10407,10422,10435,10450,10465,10481,10499,10515,10531,10549,10562,10575,10587,10600,10613,10626,10643,10660,10676,10691,10704,10721,10737,10752,10769,10785,10802,10819,10836,10852,10869,10885,10902,10919,10936,10952,10969,10986,11002,11020,11036,11052,11070,11083,11099,11116,11131,11149,11165,11182,11198,11215,11229,11242,11258,11273,11290,11304,11318,11330,11343,11355,11371,11386,11403,11419,11433,11447,11465,11478,11492,11512,11529,11543,11561,11574,11589,11607,11620,11634,11646,11659,11680,11693,11711,11724,11740,11756,11769,11789,11809,11829,11843,11861,11873,11888,11906,11923,11941,11959,11976,11993,12010,12027,12043,12060,12077,12095,12113,12131,12145,12159,12176,12191,12209,12225,12237,12249,12266,12283,12302,12320,12339,12357,12373,12393,12411,12425,12441,12460,12478,12494,12509,12525,12543,12563,12577,12593,12609,12625,12643,12661,12677,12692,12708,12726,12745,12760,12776,12792,12810,12828,12844,12859,12875,12897,12912,12927,12941,12956,12974,12988,13007,13021,13044,13060,13075,13091,13108,13125,13142,13157,13176,13193,13205,13219,13235,13253,13267,13280,13294,13308,13321,13338,13354,13372,13387,13404,13420,13437,13453,13470,13486,13504,13520,13537,13552,13567,13582,13604,13616,13632,13649,13666,13682,13699,13716,13735,13753,13767,13783,13799,13814,13831,13846,13860,13878,13893,13908,13924,13939,13958,13972,13990,14003,14019,14037,14049,14062,14077,14094,14108,14123,14134,14148,14159,14177,14191,14207,14225,14244,14260,14277,14293,14311,14328,14344,14361,14378,14395,14411,14428,14446,14464,14479,14494,14512,14525,14538,14550,14562,14575,14588,14605,14620,14634,14652,14667,14685,14701,14718,14733,14747,14766,14778,14795,14819,14836,14854,14877,14894,14910,14925,14945,14959,14974,14991,15018,15037,15057,15075,15093,15109,15123,15141,15161,15182,15201,15219,15235,15252,15268,15284,15301,15319,15340,15358,15375,15394,15414,15433,15451,15468,15482,15500,15519,15538,15553,15569,15585,15601,15619,15636,15657,15675,15693,15711,15731,15750,15768,15785,15799,15816,15836,15854,15870,15886,15902,15917,15933,15951,15967,15984,16003,16021,16037,16052,16067,16084,16101,16117,16133,16150,16167,16183,16200,16217,16233,16250,16267,16283,16300,16320,16338,16354,16371,16388,16404,16421,16437,16454,16472,16486,16504,16522,16541,16556,16572,16587,16604,16621,16637,16654,16671,16687,16704,16721,16737,16754,16771,16786,16804,16821,16837,16854,16869,16887,16905,16921,16938,16954,16972,16988,17006,17025,17039,17057,17074,17088,17104,17120,17132,17147,17160,17177,17197,17218,17237,17256,17273,17286,17304,17324,17342,17358,17373,17389,17404,17422,17436,17451,17466,17481,17496,17513,17530,17546,17563,17579,17595,17612,17629,17646,17662,17680,17693,17712,17731,17749,17765,17779,17797,17812,17829,17846,17862,17879,17896,17912,17931,17949,17965,17979,17996,18012,18031,18047,18064,18080,18097,18112,18128,18144,18158,18175,18198,18217,18232,18248,18262,18279,18296,18314,18329,18345,18360,18378,18397,18411,18429,18446,18459,18474,18489,18507,18523,18538,18554,18570,18582,18598,18615,18632,18646,18660,18681,18703,18720,18737,18753,18770,18787,18803,18820,18838,18857,18873,18888,18905,18921,18937,18954,18970,18987,19004,19020,19037,19055,19069,19084,19101,19116,19133,19149,19166,19183,19199,19216,19233,19249,19266,19283,19299,19316,19333,19350,19367,19386,19404,19420,19438,19453,19470,19487,19504,19520,19537,19553,19570,19587,19603,19620,19637,19655,19669,19686,19706,19724,19741,19760,19779,19794,19809,19825,19841,19859,19878,19893,19909,19924,19943,19961,19977,19992,20008,20024,20042,20056,20075,20089,20103,20118,20134,20149,20166,20182,20199,20216,20233,20249,20268,20286,20302,20317,20332,20349,20368,20386,20402,20416,20433,20450,20464,20483,20496,20509,20523,20535,20551,20567,20583,20600,20614,20632,20646,20660,20673,20691,20703,20718,20743,20761,20773,20791,20805,20824,20840,20858,20874,20893,20909,20928,20942,20958,20973,20991,21005,21023,21037,21051,21067,21083,21098,21116,21132,21148,21165,21182,21199,21215,21232,21248,21265,21283,21298,21315,21332,21348,21365,21383,21397,21414,21430,21449,21463,21478,21494,21513,21531,21547,21567,21586,21602,21619,21636,21653,21670,21684,21700,21716,21732,21748,21765,21782,21799,21815,21832,21850,21869,21884,21897,21915,21933,21952,21968,21981,21998,22015,22032,22049,22066,22083,22099,22115,22132,22149,22165,22182,22199,22216,22232,22249,22267,22286,22299,22316,22333,22348,22362,22377,22395,22410,22427,22441,22456,22473,22487,22508,22525,22543,22560,22578,22597,22615,22631,22648,22664,22679,22695,22714,22732,22746,22761,22778,22794,22811,22828,22845,22861,22878,22895,22911,22928,22945,22962,22978,22995,23012,23027,23042,23057,23075,23090,23107,23124,23141,23157,23174,23190,23207,23224,23240,23257,23274,23290,23307,23324,23341,23356,23370,23385,23400,23416,23428,23444,23461,23478,23493,23513,23531,23545,23560,23578,23595,23614,23630,23649,23663,23679,23695,23709,23727,23741,23755,23773,23789,23807,23821,23837,23853,23871,23889,23904,23921,23936,23953,23971,23985,24003,24015,24033,24045,24060,24078,24103,24123,24143,24156,24173,24189,24209,24224,24242,24260,24277,24293,24309,24324,24341,24358,24375,24391,24408,24425,24441,24458,24474,24491,24508,24524,24541,24558,24574,24591,24607,24625,24643,24659,24677,24692,24706,24721,24738,24755,24772,24790,24809,24828,24841,24859,24879,24898,24912,24929,24947,24963,24981,24996,25014,25029,25048,25063,25081,25096,25114,25130,25148,25160,25175,25188,25204,25220,25239,25253,25270,25286,25302,25319,25334,25351,25368,25384,25401,25418,25434,25451,25467,25484,25500,25518,25533,25551,25566,25581,25598,25618,25638,25654,25670,25686,25702,25719,25734,25752,25767,25784,25801,25817,25835,25850,25867,25885,25901,25917,25934,25950,25967,25984,26000,26017,26036,26055,26070,26086,26102,26123,26143,26162,26181,26196,26211,26229,26248,26267,26283,26298,26314,26330,26347,26363,26379,26399,26418,26433,26449,26466,26481,26497,26512,26530,26544,26560,26574,26587,26604,26621,26640,26658,26674,26689,26706,26722,26738,26754,26772,26790,26809,26824,26839,26854,26871,26889,26908],"hit":[null],"x":[-1.9727891156462585,-1.9727891156462585,-1.9727891156462585,-1.9727891156462585,-1.9727891156462585,-1.9727891156462585,-1.9727891156462585,-1.9727891156462585,-1.9727891156462585,-1.9727891156462585,-1.9727891156462585,-1.9727891156462585,-1.9727891156462585,-1.9727891156462585,-1.9727891156462585,-1.9727891156462585,-1.9727891156462585,-1.9727891156462585,-1.9727891156462585,-1.9727891156462585,-1.9727891156462585,-1.9727891156462585,-1.9727891156462585,-1.9727891156462585,-1.9727891156462585,-1.9727891156462585,-1.9727891156462585,-1.9727891156462585,-1.9727891156462585,-1.9727891156462585,-1.9727891156462585,-1.9727891156462585,-1.9727891156462585,-1.9727891156462585,-1.9727891156462585,-1.9727891156462585,-1.9727891156462585,-1.9727891156462585,-1.9727891156462585,-1.9727891156462585,-1.9727891156462585,-1.9727891156462585,-1.9727891156462585,-1.9727891156462585,-1.9727891156462585,0.006802721088435374,0.006802721088435374,0.023809523809523808,0.05102040816326531,0.1054421768707483,0.16666666666666666,0.2687074829931973,0.32653061224489793,0.36394557823129253,0.3979591836734694,0.41496598639455784,0.42857142857142855,0.42857142857142855,0.42857142857142855,0.42857142857142855,0.42857142857142855,0.42857142857142855,0.42857142857142855,0.42857142857142855,0.42857142857142855,0.42857142857142855,0.42857142857142855,0.42857142857142855,0.42857142857142855,0.42857142857142855,0.42857142857142855,0.42857142857142855,0.42857142857142855,0.42857142857142855,0.42857142857142855,0.42857142857142855,0.42857142857142855,0.42857142857142855,0.42857142857142855,0.42857142857142855,0.42857142857142855,0.42857142857142855,0.42857142857142855,0.42857142857142855,0.42857142857142855,0.42857142857142855,0.42857142857142855,0.42857142857142855,0.42857142857142855,0.42857142857142855,0.42857142857142855,0.42857142857142855,0.42857142857142855,0.42857142857142855,0.42857142857142855,0.42857142857142855,0.42857142857142855,0.42857142857142855,0.42857142857142855,0.42857142857142855,0.42857142857142855,0.42857142857142855,0.42857142857142855,0.42857142857142855,0.42857142857142855,0.42857142857142855,0.42857142857142855,0.42857142857142855,0.42857142857142855,0.42857142857142855,0.42857142857142855,0.42857142857142855,0.42857142857142855,0.42857142857142855,0.42857142857142855,0.42857142857142855,0.42857142857142855,0.42857142857142855,0.42857142857142855,0.42857142857142855,0.42857142857142855,0.42857142857142855,0.42857142857142855,0.42857142857142855,0.42857142857142855,0.42857142857142855,0.42857142857142855,0.42857142857142855,0.42857142857142855,0.42857142857142855,0.42857142857142855,0.42857142857142855,0.42857142857142855,0.42857142857142855,0.42857142857142855,0.42857142857142855,0.42857142857142855,0.42857142857142855,0.42857142857142855,0.42857142857142855,0.42857142857142855,0.42857142857142855,0.42857142857142855,0.42857142857142855,0.42857142857142855,0.42857142857142855,0.42857142857142855,0.42857142857142855,0.42857142857142855,0.42857142857142855,0.42857142857142855,0.42857142857142855,0.42857142857142855,0.42857142857142855,0.42857142857142855,0.42857142857142855,0.42857142857142855,0.42857142857142855,0.42857142857142855,0.42857142857142855,0.42857142857142855,0.42857142857142855,0.42857142857142855,0.43197278911564624,0.43537414965986393,0.4387755102040816,0.445578231292517,0.4489795918367347,0.4557823129251701,0.46258503401360546,0.47619047619047616,0.47959183673469385,0.48299319727891155,0.48299319727891155,0.48299319727891155,0.48299319727891155,0.48299319727891155,0.48299319727891155,0.48299319727891155,0.48299319727891155,0.48299319727891155,0.48299319727891155,0.48299319727891155,0.48299319727891155,0.48299319727891155,0.48299319727891155,0.48299319727891155,0.48639455782312924,0.5034013605442177,0.5102040816326531,0.5476190476190477,0.5782312925170068,0.6122448979591837,0.6394557823129252,0.6666666666666666,0.6836734693877551,0.7006802721088435,0.7142857142857143,0.7244897959183674,0.7312925170068028,0.7414965986394558,0.7482993197278912,0.7551020408163265,0.7619047619047619,0.7653061224489796,0.7687074829931972,0.7721088435374149,0.7789115646258503,0.782312925170068,0.7925170068027211,0.8095238095238095,0.8299319727891157,0.8469387755102041,0.8741496598639455,0.9013605442176871,0.9217687074829932,0.9489795918367347,0.9523809523809523,0.9591836734693877,0.9591836734693877,0.9591836734693877,0.9591836734693877,0.9591836734693877,0.9591836734693877,0.9591836734693877,0.9591836734693877,0.9591836734693877,0.9591836734693877,0.9591836734693877,0.9591836734693877,0.9659863945578231,0.9829931972789115,1.0068027210884354,1.010204081632653,1.034013605442177,1.0476190476190477,1.0578231292517006,1.064625850340136,1.064625850340136,1.0680272108843538,1.0680272108843538,1.0714285714285714,1.0748299319727892,1.0782312925170068,1.0850340136054422,1.0918367346938775,1.0952380952380953,1.1020408163265305,1.1054421768707483,1.1122448979591837,1.1156462585034013,1.119047619047619,1.119047619047619,1.1224489795918366,1.1224489795918366,1.1224489795918366,1.1258503401360545,1.1258503401360545,1.1258503401360545,1.129251700680272,1.129251700680272,1.129251700680272,1.129251700680272,1.129251700680272,1.129251700680272,1.129251700680272,1.129251700680272,1.129251700680272,1.129251700680272,1.129251700680272,1.129251700680272,1.129251700680272,1.129251700680272,1.129251700680272,1.129251700680272,1.129251700680272,1.129251700680272,1.129251700680272,1.129251700680272,1.129251700680272,1.129251700680272,1.129251700680272,1.129251700680272,1.129251700680272,1.129251700680272,1.129251700680272,1.129251700680272,1.129251700680272,1.129251700680272,1.129251700680272,1.129251700680272,1.129251700680272,1.129251700680272,1.129251700680272,1.129251700680272,1.1326530612244898,1.1326530612244898,1.1326530612244898,1.1326530612244898,1.1326530612244898,1.1326530612244898,1.1326530612244898,1.1326530612244898,1.1326530612244898,1.1326530612244898,1.1326530612244898,1.1326530612244898,1.1326530612244898,1.1326530612244898,1.1326530612244898,1.1326530612244898,1.1326530612244898,1.1326530612244898,1.1326530612244898,1.1326530612244898,1.1326530612244898,1.1326530612244898,1.1326530612244898,1.1326530612244898,1.1326530612244898,1.1326530612244898,1.1326530612244898,1.1326530612244898,1.1326530612244898,1.1326530612244898,1.1326530612244898,1.1326530612244898,1.1326530612244898,1.1326530612244898,1.1326530612244898,1.1326530612244898,1.1326530612244898,1.1326530612244898,1.1326530612244898,1.1326530612244898,1.1326530612244898,1.1326530612244898,1.1326530612244898,1.1326530612244898,1.1326530612244898,1.1326530612244898,1.1326530612244898,1.1326530612244898,1.1326530612244898,1.1326530612244898,1.1326530612244898,1.1326530612244898,1.1326530612244898,1.1326530612244898,1.1326530612244898,1.1326530612244898,1.1326530612244898,1.1326530612244898,1.1326530612244898,1.1326530612244898,1.1326530612244898,1.1326530612244898,1.1326530612244898,1.1326530612244898,1.1326530612244898,1.1326530612244898,1.1326530612244898,1.1326530612244898,1.1326530612244898,1.1326530612244898,1.1326530612244898,1.1326530612244898,1.1326530612244898,1.1326530612244898,1.1326530612244898,1.1326530612244898,1.1326530612244898,1.1326530612244898,1.1326530612244898,1.1326530612244898,1.1326530612244898,1.1326530612244898,1.1326530612244898,1.1326530612244898,1.1326530612244898,1.1326530612244898,1.1326530612244898,1.1326530612244898,1.1326530612244898,1.1326530612244898,1.1326530612244898,1.1326530612244898,1.1326530612244898,1.1326530612244898,1.1326530612244898,1.1326530612244898,1.1326530612244898,1.1326530612244898,1.1326530612244898,1.1326530612244898,1.1326530612244898,1.1326530612244898,1.1326530612244898,1.1326530612244898,1.1326530612244898,1.1326530612244898,1.1326530612244898,1.1326530612244898,1.1326530612244898,1.1326530612244898,1.1326530612244898,1.1326530612244898,1.1326530612244898,1.1326530612244898,1.1326530612244898,1.1326530612244898,1.1326530612244898,1.1326530612244898,1.1326530612244898,1.1326530612244898,1.1326530612244898,1.1326530612244898,1.1326530612244898,1.1326530612244898,1.1326530612244898,1.1326530612244898,1.1326530612244898,1.1326530612244898,1.1326530612244898,1.1326530612244898,1.1326530612244898,1.1326530612244898,1.1326530612244898,1.1326530612244898,1.1326530612244898,1.1326530612244898,1.1326530612244898,1.1326530612244898,1.1326530612244898,1.1326530612244898,1.1326530612244898,1.1326530612244898,1.1326530612244898,1.1326530612244898,1.1326530612244898,1.1326530612244898,1.1326530612244898,1.1326530612244898,1.1326530612244898,1.1326530612244898,1.1326530612244898,1.1326530612244898,1.1326530612244898,1.1326530612244898,1.1326530612244898,1.1326530612244898,1.1326530612244898,1.1326530612244898,1.1326530612244898,1.1326530612244898,1.1326530612244898,1.1326530612244898,1.1326530612244898,1.1326530612244898,1.1326530612244898,1.1326530612244898,1.1326530612244898,1.1326530612244898,1.1326530612244898,1.1326530612244898,1.1326530612244898,1.1326530612244898,1.1326530612244898,1.1326530612244898,1.1326530612244898,1.1326530612244898,1.1326530612244898,1.1326530612244898,1.1326530612244898,1.1326530612244898,1.1326530612244898,1.1326530612244898,1.1326530612244898,1.1326530612244898,1.1326530612244898,1.1326530612244898,1.1326530612244898,1.1326530612244898,1.1326530612244898,1.1326530612244898,1.1326530612244898,1.1326530612244898,1.1326530612244898,1.1326530612244898,1.1326530612244898,1.1326530612244898,1.1326530612244898,1.1326530612244898,1.1326530612244898,1.1326530612244898,1.1326530612244898,1.1326530612244898,1.1326530612244898,1.1326530612244898,1.1326530612244898,1.1326530612244898,1.1326530612244898,1.1326530612244898,1.1326530612244898,1.1326530612244898,1.1326530612244898,1.1326530612244898,1.1326530612244898,1.1326530612244898,1.1326530612244898,1.1326530612244898,1.1326530612244898,1.1326530612244898,1.1326530612244898,1.1326530612244898,1.1326530612244898,1.1326530612244898,1.1326530612244898,1.1326530612244898,1.1326530612244898,1.1326530612244898,1.1326530612244898,1.1326530612244898,1.1326530612244898,1.1326530612244898,1.1326530612244898,1.1326530612244898,1.1326530612244898,1.1326530612244898,1.1326530612244898,1.1326530612244898,1.1326530612244898,1.1326530612244898,1.1326530612244898,1.1326530612244898,1.1326530612244898,1.1326530612244898,1.1326530612244898,1.1326530612244898,1.1326530612244898,1.1326530612244898,1.1326530612244898,1.1326530612244898,1.1326530612244898,1.1326530612244898,1.1326530612244898,1.1326530612244898,1.1326530612244898,1.1326530612244898,1.1326530612244898,1.1326530612244898,1.1326530612244898,1.1326530612244898,1.1326530612244898,1.1326530612244898,1.1326530612244898,1.1326530612244898,1.1326530612244898,1.1326530612244898,1.1326530612244898,1.1326530612244898,1.1326530612244898,1.1326530612244898,1.1326530612244898,1.1326530612244898,1.1326530612244898,1.1326530612244898,1.1326530612244898,1.1326530612244898,1.1326530612244898,1.1326530612244898,1.1326530612244898,1.1326530612244898,1.1326530612244898,1.1326530612244898,1.1326530612244898,1.1326530612244898,1.1326530612244898,1.1326530612244898,1.1326530612244898,1.1326530612244898,1.1326530612244898,1.1326530612244898,1.1326530612244898,1.1326530612244898,1.1326530612244898,1.1326530612244898,1.1326530612244898,1.1326530612244898,1.1326530612244898,1.1326530612244898,1.1326530612244898,1.1326530612244898,1.1326530612244898,1.1326530612244898,1.1326530612244898,1.1326530612244898,1.1326530612244898,1.1326530612244898,1.1326530612244898,1.1326530612244898,1.1326530612244898,1.1326530612244898,1.1326530612244898,1.1326530612244898,1.1326530612244898,1.1326530612244898,1.1326530612244898,1.1326530612244898,1.1326530612244898,1.1326530612244898,1.1326530612244898,1.1326530612244898,1.1326530612244898,1.1326530612244898,1.1326530612244898,1.1326530612244898,1.1326530612244898,1.1326530612244898,1.1326530612244898,1.1326530612244898,1.1326530612244898,1.1326530612244898,1.1326530612244898,1.1326530612244898,1.1326530612244898,1.1326530612244898,1.1326530612244898,1.1326530612244898,1.1326530612244898,1.1326530612244898,1.1326530612244898,1.1326530612244898,1.1326530612244898,1.1326530612244898,1.1326530612244898,1.1326530612244898,1.1326530612244898,1.1326530612244898,1.1326530612244898,1.1326530612244898,1.1326530612244898,1.1326530612244898,1.1326530612244898,1.1326530612244898,1.1326530612244898,1.1326530612244898,1.1326530612244898,1.1326530612244898,1.1326530612244898,1.1326530612244898,1.1326530612244898,1.1326530612244898,1.1326530612244898,1.1326530612244898,1.0170068027210883,0.891156462585034,0.8027210884353742,0.7244897959183674,0.608843537414966,0.5578231292517006,0.5340136054421769,0.5340136054421769,0.5340136054421769,0.5340136054421769,0.5340136054421769,0.5340136054421769,0.5340136054421769,0.5340136054421769,0.5340136054421769,0.5340136054421769,0.5340136054421769,0.5170068027210885,0.5102040816326531,0.47959183673469385,0.4421768707482993,0.3945578231292517,0.35034013605442177,0.32653061224489793,0.30612244897959184,0.2925170068027211,0.282312925170068,0.2789115646258503,0.272108843537415,0.2653061224489796,0.2619047619047619,0.25510204081632654,0.24489795918367346,0.22448979591836735,0.2108843537414966,0.20068027210884354,0.19047619047619047,0.1870748299319728,0.1836734693877551,0.18027210884353742,0.18027210884353742,0.17346938775510204,0.17006802721088435,0.16666666666666666,0.16326530612244897,0.1598639455782313,0.1564625850340136,0.1564625850340136,0.15306122448979592,0.15306122448979592,0.14965986394557823,0.14965986394557823,0.14965986394557823,0.14965986394557823,0.14625850340136054,0.14625850340136054,0.14625850340136054,0.14625850340136054,0.14625850340136054,0.14625850340136054,0.14625850340136054,0.14625850340136054,0.14625850340136054,0.14625850340136054,0.14625850340136054,0.14625850340136054,0.14625850340136054,0.14625850340136054,0.14625850340136054,0.14625850340136054,0.14625850340136054,0.14625850340136054,0.14625850340136054,0.14625850340136054,0.14625850340136054,0.14625850340136054,0.14625850340136054,0.14625850340136054,0.14625850340136054,0.14625850340136054,0.14625850340136054,0.14625850340136054,0.14625850340136054,0.14625850340136054,0.14625850340136054,0.14625850340136054,0.14625850340136054,0.14625850340136054,0.14625850340136054,0.14625850340136054,0.14625850340136054,0.14625850340136054,0.14625850340136054,0.14625850340136054,0.14625850340136054,0.14625850340136054,0.1564625850340136,0.17687074829931973,0.20068027210884354,0.22108843537414966,0.24149659863945577,0.25170068027210885,0.2619047619047619,0.2687074829931973,0.2687074829931973,0.272108843537415,0.272108843537415,0.2755102040816326,0.2755102040816326,0.2755102040816326,0.2755102040816326,0.2755102040816326,0.2755102040816326,0.2755102040816326,0.2755102040816326,0.2755102040816326,0.2755102040816326,0.2755102040816326,0.2755102040816326,0.2755102040816326,0.2755102040816326,0.2755102040816326,0.2755102040816326,0.2755102040816326,0.2755102040816326,0.2755102040816326,0.2755102040816326,0.2755102040816326,0.2755102040816326,0.2755102040816326,0.2755102040816326,0.2755102040816326,0.2755102040816326,0.2755102040816326,0.2755102040816326,0.2755102040816326,0.2755102040816326,0.2755102040816326,0.2755102040816326,0.2755102040816326,0.2755102040816326,0.2755102040816326,0.2755102040816326,0.2755102040816326,0.2755102040816326,0.2755102040816326,0.2755102040816326,0.2755102040816326,0.2755102040816326,0.2755102040816326,0.2755102040816326,0.2755102040816326,0.2755102040816326,0.2755102040816326,0.2755102040816326,0.2755102040816326,0.2755102040816326,0.2755102040816326,0.2755102040816326,0.2755102040816326,0.2755102040816326,0.2755102040816326,0.2755102040816326,0.2755102040816326,0.2755102040816326,0.2755102040816326,0.2755102040816326,0.2755102040816326,0.2755102040816326,0.2755102040816326,0.2755102040816326,0.2755102040816326,0.2755102040816326,0.2755102040816326,0.2755102040816326,0.2755102040816326,0.2755102040816326,0.2755102040816326,0.2755102040816326,0.2755102040816326,0.2755102040816326,0.2789115646258503,0.2789115646258503,0.30272108843537415,0.30272108843537415,0.30272108843537415,0.32653061224489793,0.32653061224489793,0.3401360544217687,0.3401360544217687,0.3435374149659864,0.35034013605442177,0.35034013605442177,0.35714285714285715,0.36394557823129253,0.3707482993197279,0.37755102040816324,0.38095238095238093,0.3843537414965986,0.3877551020408163,0.3979591836734694,0.40476190476190477,0.41156462585034015,0.41496598639455784,0.41836734693877553,0.4217687074829932,0.4217687074829932,0.42517006802721086,0.42517006802721086,0.42517006802721086,0.42517006802721086,0.42517006802721086,0.42517006802721086,0.42517006802721086,0.42517006802721086,0.42517006802721086,0.42517006802721086,0.42517006802721086,0.42517006802721086,0.42517006802721086,0.42517006802721086,0.42517006802721086,0.42517006802721086,0.42517006802721086,0.42517006802721086,0.42517006802721086,0.42517006802721086,0.42517006802721086,0.42517006802721086,0.42517006802721086,0.42517006802721086,0.42517006802721086,0.42517006802721086,0.42517006802721086,0.42517006802721086,0.42517006802721086,0.42517006802721086,0.42517006802721086,0.42517006802721086,0.42517006802721086,0.42857142857142855,0.445578231292517,0.4557823129251701,0.46938775510204084,0.48299319727891155,0.4931972789115646,0.5,0.5034013605442177,0.5068027210884354,0.5068027210884354,0.5068027210884354,0.5068027210884354,0.5068027210884354,0.5068027210884354,0.5068027210884354,0.5068027210884354,0.5068027210884354,0.5068027210884354,0.5068027210884354,0.5068027210884354,0.5068027210884354,0.5068027210884354,0.5068027210884354,0.5068027210884354,0.5068027210884354,0.5068027210884354,0.5068027210884354,0.5068027210884354,0.5068027210884354,0.5068027210884354,0.5068027210884354,0.5068027210884354,0.5068027210884354,0.5068027210884354,0.5068027210884354,0.5068027210884354,0.5068027210884354,0.5068027210884354,0.5068027210884354,0.5068027210884354,0.5068027210884354,0.5068027210884354,0.5068027210884354,0.5068027210884354,0.5068027210884354,0.5068027210884354,0.5068027210884354,0.5068027210884354,0.5068027210884354,0.5068027210884354,0.5068027210884354,0.5068027210884354,0.5068027210884354,0.5068027210884354,0.5068027210884354,0.5068027210884354,0.5068027210884354,0.5068027210884354,0.5068027210884354,0.5068027210884354,0.5068027210884354,0.5068027210884354,0.5068027210884354,0.5068027210884354,0.5068027210884354,0.5068027210884354,0.5068027210884354,0.5068027210884354,0.5068027210884354,0.5068027210884354,0.5068027210884354,0.5068027210884354,0.5068027210884354,0.5068027210884354,0.5068027210884354,0.5068027210884354,0.5068027210884354,0.5068027210884354,0.5068027210884354,0.5068027210884354,0.5068027210884354,0.5068027210884354,0.5068027210884354,0.5068027210884354,0.5068027210884354,0.5068027210884354,0.5068027210884354,0.5068027210884354,0.5068027210884354,0.5068027210884354,0.5068027210884354,0.5068027210884354,0.5068027210884354,0.5068027210884354,0.5068027210884354,0.5068027210884354,0.5068027210884354,0.5068027210884354,0.5068027210884354,0.5068027210884354,0.5068027210884354,0.5068027210884354,0.5068027210884354,0.5068027210884354,0.5136054421768708,0.5204081632653061,0.5340136054421769,0.5476190476190477,0.5748299319727891,0.5918367346938775,0.608843537414966,0.6258503401360545,0.6462585034013606,0.6598639455782312,0.673469387755102,0.6802721088435374,0.6836734693877551,0.6836734693877551,0.6870748299319728,0.673469387755102,0.6360544217687075,0.5340136054421769,0.46258503401360546,0.4013605442176871,0.3469387755102041,0.3231292517006803,0.29931972789115646,0.2891156462585034,0.2891156462585034,0.2891156462585034,0.2891156462585034,0.2891156462585034,0.2891156462585034,0.2891156462585034,0.2891156462585034,0.2891156462585034,0.2891156462585034,0.2857142857142857,0.272108843537415,0.25170068027210885,0.23129251700680273,0.19387755102040816,0.17006802721088435,0.14285714285714285,0.11564625850340136,0.10204081632653061,0.09183673469387756,0.08843537414965986,0.08843537414965986,0.08843537414965986,0.08843537414965986,0.08843537414965986,0.06462585034013606,0.06462585034013606,0.05782312925170068,0.047619047619047616,0.04081632653061224,0.034013605442176874,0.030612244897959183,0.030612244897959183,0.027210884353741496,0.027210884353741496,0.027210884353741496,0.027210884353741496,0.023809523809523808,0.023809523809523808,0.023809523809523808,0.023809523809523808,0.023809523809523808,0.023809523809523808,0.023809523809523808,0.023809523809523808,0.023809523809523808,0.023809523809523808,0.023809523809523808,0.023809523809523808,0.023809523809523808,0.023809523809523808,0.023809523809523808,0.023809523809523808,0.023809523809523808,0.023809523809523808,0.023809523809523808,0.023809523809523808,0.023809523809523808,0.023809523809523808,0.023809523809523808,0.023809523809523808,0.023809523809523808,0.030612244897959183,0.05782312925170068,0.08503401360544217,0.12585034013605442,0.16666666666666666,0.20068027210884354,0.23469387755102042,0.2585034013605442,0.2755102040816326,0.2925170068027211,0.30952380952380953,0.3163265306122449,0.3163265306122449,0.3163265306122449,0.3163265306122449,0.3163265306122449,0.3163265306122449,0.3163265306122449,0.3163265306122449,0.3163265306122449,0.3163265306122449,0.3163265306122449,0.3163265306122449,0.3163265306122449,0.3163265306122449,0.3163265306122449,0.3163265306122449,0.3163265306122449,0.3163265306122449,0.3163265306122449,0.3163265306122449,0.3163265306122449,0.3163265306122449,0.3163265306122449,0.3163265306122449,0.3163265306122449,0.3163265306122449,0.3163265306122449,0.3163265306122449,0.3163265306122449,0.3163265306122449,0.3163265306122449,0.3163265306122449,0.3163265306122449,0.3163265306122449,0.3163265306122449,0.3163265306122449,0.3163265306122449,0.3163265306122449,0.3163265306122449,0.3163265306122449,0.3163265306122449,0.3163265306122449,0.3163265306122449,0.3163265306122449,0.3163265306122449,0.3163265306122449,0.3163265306122449,0.3163265306122449,0.3163265306122449,0.3163265306122449,0.3163265306122449,0.3163265306122449,0.3163265306122449,0.3163265306122449,0.3163265306122449,0.3163265306122449,0.3163265306122449,0.3163265306122449,0.3163265306122449,0.3163265306122449,0.3163265306122449,0.3163265306122449,0.3163265306122449,0.3163265306122449,0.3163265306122449,0.3163265306122449,0.3163265306122449,0.3163265306122449,0.3163265306122449,0.3163265306122449,0.3163265306122449,0.3163265306122449,0.3163265306122449,0.3163265306122449,0.3163265306122449,0.3163265306122449,0.3163265306122449,0.3163265306122449,0.3163265306122449,0.3163265306122449,0.3163265306122449,0.3163265306122449,0.3129251700680272,0.30952380952380953,0.29931972789115646,0.282312925170068,0.2619047619047619,0.24829931972789115,0.23129251700680273,0.21768707482993196,0.20408163265306123,0.19047619047619047,0.18027210884353742,0.17006802721088435,0.16666666666666666,0.1598639455782313,0.1598639455782313,0.15306122448979592,0.15306122448979592,0.14965986394557823,0.14625850340136054,0.14285714285714285,0.13945578231292516,0.1360544217687075,0.1326530612244898,0.12585034013605442,0.11904761904761904,0.10884353741496598,0.09183673469387756,0.08163265306122448,0.06802721088435375,0.061224489795918366,0.05442176870748299,0.047619047619047616,0.04421768707482993,0.04081632653061224,0.03741496598639456,0.034013605442176874,0.030612244897959183,0.027210884353741496,0.027210884353741496,0.023809523809523808,0.023809523809523808,0.023809523809523808,0.017006802721088437,0.017006802721088437,0.017006802721088437,0.017006802721088437,0.017006802721088437,0.017006802721088437,0.017006802721088437,0.017006802721088437,0.017006802721088437,0.017006802721088437,0.017006802721088437,0.017006802721088437,0.017006802721088437,0.017006802721088437,0.017006802721088437,0.017006802721088437,0.017006802721088437,0.017006802721088437,0.017006802721088437,0.017006802721088437,0.017006802721088437,0.017006802721088437,0.02040816326530612,0.04081632653061224,0.06802721088435375,0.10204081632653061,0.18027210884353742,0.23809523809523808,0.3129251700680272,0.35714285714285715,0.40476190476190477,0.4387755102040816,0.4523809523809524,0.4523809523809524,0.4523809523809524,0.4523809523809524,0.4523809523809524,0.4523809523809524,0.4523809523809524,0.4523809523809524,0.4523809523809524,0.4523809523809524,0.4523809523809524,0.4523809523809524,0.4523809523809524,0.4523809523809524,0.4523809523809524,0.4523809523809524,0.4523809523809524,0.4523809523809524,0.4523809523809524,0.4523809523809524,0.4523809523809524,0.4523809523809524,0.4523809523809524,0.4523809523809524,0.4523809523809524,0.4523809523809524,0.4523809523809524,0.4523809523809524,0.4523809523809524,0.4523809523809524,0.4523809523809524,0.4523809523809524,0.4523809523809524,0.4523809523809524,0.4523809523809524,0.4523809523809524,0.4523809523809524,0.4523809523809524,0.4523809523809524,0.4523809523809524,0.4523809523809524,0.4523809523809524,0.4523809523809524,0.4523809523809524,0.4523809523809524,0.4523809523809524,0.4523809523809524,0.4523809523809524,0.4523809523809524,0.4523809523809524,0.4523809523809524,0.4523809523809524,0.4489795918367347,0.445578231292517,0.43537414965986393,0.4217687074829932,0.40476190476190477,0.4013605442176871,0.3945578231292517,0.3945578231292517,0.3945578231292517,0.41156462585034015,0.4523809523809524,0.5136054421768708,0.5952380952380952,0.6496598639455783,0.6836734693877551,0.7142857142857143,0.7312925170068028,0.7414965986394558,0.7448979591836735,0.7448979591836735,0.7448979591836735,0.7448979591836735,0.7448979591836735,0.7448979591836735,0.7448979591836735,0.7448979591836735,0.7448979591836735,0.7448979591836735,0.7448979591836735,0.7448979591836735,0.7448979591836735,0.7380952380952381,0.7346938775510204,0.7346938775510204,0.7346938775510204,0.7346938775510204,0.7414965986394558,0.7551020408163265,0.7721088435374149,0.7891156462585034,0.8095238095238095,0.826530612244898,0.8401360544217688,0.8503401360544217,0.8537414965986394,0.8571428571428571,0.8571428571428571,0.8571428571428571,0.8571428571428571,0.8571428571428571,0.8571428571428571,0.8571428571428571,0.8571428571428571,0.8571428571428571,0.8571428571428571,0.8571428571428571,0.8571428571428571,0.8639455782312925,0.8741496598639455,0.891156462585034,0.9115646258503401,0.9217687074829932,0.935374149659864,0.9421768707482994,0.9523809523809523,0.9591836734693877,0.9659863945578231,0.9693877551020408,0.9727891156462585,0.9761904761904762,0.9761904761904762,0.9795918367346939,0.9829931972789115,0.9863945578231292,0.9931972789115646,0.9931972789115646,0.9965986394557823,0.9965986394557823,0.9965986394557823,0.9965986394557823,0.9965986394557823,0.9965986394557823,0.9965986394557823,0.9965986394557823,0.9965986394557823,0.9965986394557823,0.9965986394557823,0.9965986394557823,0.9965986394557823,0.9965986394557823,0.9965986394557823,0.9965986394557823,0.9965986394557823,0.9965986394557823,0.9965986394557823,0.9965986394557823,0.9965986394557823,0.9965986394557823,0.9965986394557823,0.9931972789115646,0.9625850340136054,0.9013605442176871,0.8809523809523809,0.7959183673469388,0.7142857142857143,0.6870748299319728,0.6326530612244898,0.5986394557823129,0.5748299319727891,0.564625850340136,0.5544217687074829,0.54421768707483,0.5306122448979592,0.5204081632653061,0.5068027210884354,0.5,0.4931972789115646,0.48639455782312924,0.47959183673469385,0.47278911564625853,0.46598639455782315,0.45918367346938777,0.45918367346938777,0.45918367346938777,0.45918367346938777,0.46938775510204084,0.48639455782312924,0.5034013605442177,0.5408163265306123,0.5510204081632653,0.5748299319727891,0.5952380952380952,0.6054421768707483,0.6190476190476191,0.6258503401360545,0.6326530612244898,0.6326530612244898,0.6360544217687075,0.6360544217687075,0.6360544217687075,0.6360544217687075,0.6326530612244898,0.6292517006802721,0.6258503401360545,0.6258503401360545,0.6224489795918368,0.6190476190476191,0.6122448979591837,0.608843537414966,0.5986394557823129,0.5952380952380952,0.5884353741496599,0.5884353741496599,0.5884353741496599,0.5884353741496599,0.5884353741496599,0.5884353741496599,0.5884353741496599,0.5884353741496599,0.5884353741496599,0.5884353741496599,0.5884353741496599,0.5884353741496599,0.5884353741496599,0.5884353741496599,0.5884353741496599,0.5884353741496599,0.5884353741496599,0.5884353741496599,0.5884353741496599,0.5884353741496599,0.5884353741496599,0.5884353741496599,0.5884353741496599,0.5884353741496599,0.5884353741496599,0.5884353741496599,0.5884353741496599,0.5884353741496599,0.5884353741496599,0.5884353741496599,0.5884353741496599,0.5884353741496599,0.5884353741496599,0.5884353741496599,0.5884353741496599,0.5884353741496599,0.5884353741496599,0.5884353741496599,0.5918367346938775,0.5918367346938775,0.5918367346938775,0.5918367346938775,0.5850340136054422,0.5748299319727891,0.5544217687074829,0.5238095238095238,0.47619047619047616,0.42857142857142855,0.3979591836734694,0.36394557823129253,0.3435374149659864,0.3333333333333333,0.3231292517006803,0.3163265306122449,0.30952380952380953,0.30272108843537415,0.2925170068027211,0.2755102040816326,0.25170068027210885,0.24149659863945577,0.23129251700680273,0.22789115646258504,0.22448979591836735,0.22448979591836735,0.22108843537414966,0.22108843537414966,0.21768707482993196,0.21428571428571427,0.2108843537414966,0.2108843537414966,0.20408163265306123,0.20068027210884354,0.19387755102040816,0.19047619047619047,0.1836734693877551,0.17687074829931973,0.17687074829931973,0.17687074829931973,0.17687074829931973,0.17687074829931973,0.17687074829931973,0.17687074829931973,0.17687074829931973,0.17687074829931973,0.17687074829931973,0.17687074829931973,0.17687074829931973,0.17687074829931973,0.17687074829931973,0.17687074829931973,0.17687074829931973,0.17687074829931973,0.17687074829931973,0.17687074829931973,0.17687074829931973,0.17687074829931973,0.17687074829931973,0.17687074829931973,0.17687074829931973,0.17687074829931973,0.17687074829931973,0.17687074829931973,0.17687074829931973,0.18027210884353742,0.19047619047619047,0.20068027210884354,0.21428571428571427,0.22789115646258504,0.24489795918367346,0.2619047619047619,0.2891156462585034,0.3129251700680272,0.3231292517006803,0.3231292517006803,0.3231292517006803,0.3231292517006803,0.3231292517006803,0.3231292517006803,0.3231292517006803,0.3231292517006803,0.3231292517006803,0.3231292517006803,0.3231292517006803,0.3231292517006803,0.3231292517006803,0.3231292517006803,0.3231292517006803,0.3231292517006803,0.3231292517006803,0.3231292517006803,0.3231292517006803,0.3231292517006803,0.3231292517006803,0.3231292517006803,0.3231292517006803,0.3231292517006803,0.3231292517006803,0.3231292517006803,0.3231292517006803,0.3231292517006803,0.3231292517006803,0.3231292517006803,0.3231292517006803,0.3231292517006803,0.3231292517006803,0.3231292517006803,0.3231292517006803,0.3231292517006803,0.3231292517006803,0.3231292517006803,0.3231292517006803,0.3231292517006803,0.3231292517006803,0.3231292517006803,0.3231292517006803,0.3231292517006803,0.3231292517006803,0.3231292517006803,0.3231292517006803,0.3231292517006803,0.3231292517006803,0.3231292517006803,0.3231292517006803,0.3231292517006803,0.3231292517006803,0.3231292517006803,0.3231292517006803,0.3231292517006803,0.3231292517006803,0.3231292517006803,0.3231292517006803,0.3231292517006803,0.3231292517006803,0.3231292517006803,0.3231292517006803,0.3231292517006803,0.3231292517006803,0.3231292517006803,0.3231292517006803,0.3231292517006803,0.3231292517006803,0.3231292517006803,0.3231292517006803,0.3231292517006803,0.3231292517006803,0.3231292517006803,0.3231292517006803,0.3231292517006803,0.3231292517006803,0.3231292517006803,0.3231292517006803,0.3231292517006803,0.3231292517006803,0.3231292517006803,0.3231292517006803,0.3231292517006803,0.3231292517006803,0.3231292517006803,0.3231292517006803,0.3231292517006803,0.3231292517006803,0.3231292517006803,0.3231292517006803],"y":[-3.4841269841269837,-3.4841269841269837,-3.4841269841269837,-3.4841269841269837,-3.4841269841269837,-3.4841269841269837,-3.4841269841269837,-3.4841269841269837,-3.4841269841269837,-3.4841269841269837,-3.4841269841269837,-3.4841269841269837,-3.4841269841269837,-3.4841269841269837,-3.4841269841269837,-3.4841269841269837,-3.4841269841269837,-3.4841269841269837,-3.4841269841269837,-3.4841269841269837,-3.4841269841269837,-3.4841269841269837,-3.4841269841269837,-3.4841269841269837,-3.4841269841269837,-3.4841269841269837,-3.4841269841269837,-3.4841269841269837,-3.4841269841269837,-3.4841269841269837,-3.4841269841269837,-3.4841269841269837,-3.4841269841269837,-3.4841269841269837,-3.4841269841269837,-3.4841269841269837,-3.4841269841269837,-3.4841269841269837,-3.4841269841269837,-3.4841269841269837,-3.4841269841269837,-3.4841269841269837,-3.4841269841269837,-3.4841269841269837,-3.4841269841269837,0.8063492063492065,0.7206349206349209,0.5682539682539685,0.4063492063492065,0.09206349206349225,-0.23174603174603156,-0.6984126984126983,-0.9746031746031745,-1.1555555555555554,-1.3365079365079364,-1.422222222222222,-1.4888888888888887,-1.4888888888888887,-1.4888888888888887,-1.4888888888888887,-1.4888888888888887,-1.4888888888888887,-1.4888888888888887,-1.4888888888888887,-1.4888888888888887,-1.4888888888888887,-1.4888888888888887,-1.4888888888888887,-1.4888888888888887,-1.4888888888888887,-1.4888888888888887,-1.4888888888888887,-1.4888888888888887,-1.4888888888888887,-1.4888888888888887,-1.4888888888888887,-1.4888888888888887,-1.4888888888888887,-1.4888888888888887,-1.4888888888888887,-1.4888888888888887,-1.4888888888888887,-1.4888888888888887,-1.4888888888888887,-1.4888888888888887,-1.4888888888888887,-1.4888888888888887,-1.4888888888888887,-1.4888888888888887,-1.4888888888888887,-1.4888888888888887,-1.4888888888888887,-1.4888888888888887,-1.4888888888888887,-1.4888888888888887,-1.4888888888888887,-1.4888888888888887,-1.4888888888888887,-1.4888888888888887,-1.4888888888888887,-1.4888888888888887,-1.4888888888888887,-1.4888888888888887,-1.4888888888888887,-1.4888888888888887,-1.4888888888888887,-1.4888888888888887,-1.4888888888888887,-1.4888888888888887,-1.4888888888888887,-1.4888888888888887,-1.4888888888888887,-1.4888888888888887,-1.4888888888888887,-1.4888888888888887,-1.4888888888888887,-1.4888888888888887,-1.4888888888888887,-1.4888888888888887,-1.4888888888888887,-1.4888888888888887,-1.4888888888888887,-1.4888888888888887,-1.4888888888888887,-1.4888888888888887,-1.4888888888888887,-1.4888888888888887,-1.4888888888888887,-1.4888888888888887,-1.4888888888888887,-1.4888888888888887,-1.4888888888888887,-1.4888888888888887,-1.4888888888888887,-1.4888888888888887,-1.4888888888888887,-1.4888888888888887,-1.4888888888888887,-1.4888888888888887,-1.4888888888888887,-1.4888888888888887,-1.4888888888888887,-1.4888888888888887,-1.4888888888888887,-1.4888888888888887,-1.4888888888888887,-1.4888888888888887,-1.4888888888888887,-1.4888888888888887,-1.4888888888888887,-1.4888888888888887,-1.4888888888888887,-1.4888888888888887,-1.4888888888888887,-1.4888888888888887,-1.4888888888888887,-1.4888888888888887,-1.4888888888888887,-1.4888888888888887,-1.4888888888888887,-1.4888888888888887,-1.4888888888888887,-1.441269841269841,-1.3174603174603172,-1.184126984126984,-1.0317460317460316,-0.7365079365079363,-0.3936507936507935,-0.07936507936507918,0.11111111111111129,0.3111111111111113,0.396825396825397,0.4634920634920637,0.4634920634920637,0.4634920634920637,0.4634920634920637,0.4634920634920637,0.4634920634920637,0.4634920634920637,0.4634920634920637,0.4634920634920637,0.4634920634920637,0.4634920634920637,0.4634920634920637,0.4634920634920637,0.4634920634920637,0.4634920634920637,0.4634920634920637,0.49206349206349226,0.5015873015873018,0.5206349206349208,0.5301587301587304,0.5301587301587304,0.5301587301587304,0.5015873015873018,0.49206349206349226,0.4730158730158732,0.4634920634920637,0.45396825396825413,0.45396825396825413,0.44444444444444464,0.44444444444444464,0.44444444444444464,0.44444444444444464,0.44444444444444464,0.44444444444444464,0.44444444444444464,0.44444444444444464,0.44444444444444464,0.44444444444444464,0.44444444444444464,0.44444444444444464,0.44444444444444464,0.44444444444444464,0.44444444444444464,0.44444444444444464,0.44444444444444464,0.44444444444444464,0.4634920634920637,0.4634920634920637,0.4634920634920637,0.4634920634920637,0.4634920634920637,0.4634920634920637,0.4634920634920637,0.4634920634920637,0.4634920634920637,0.4634920634920637,0.4634920634920637,0.4634920634920637,0.4634920634920637,0.4634920634920637,0.4634920634920637,0.4634920634920637,0.4634920634920637,0.4634920634920637,0.4634920634920637,0.4634920634920637,0.4634920634920637,0.4634920634920637,0.4634920634920637,0.4634920634920637,0.4634920634920637,0.4634920634920637,0.4634920634920637,0.4634920634920637,0.4634920634920637,0.4634920634920637,0.4634920634920637,0.4634920634920637,0.4634920634920637,0.4634920634920637,0.4634920634920637,0.4634920634920637,0.4634920634920637,0.4634920634920637,0.4634920634920637,0.4634920634920637,0.4634920634920637,0.4634920634920637,0.4634920634920637,0.4634920634920637,0.4634920634920637,0.4634920634920637,0.4634920634920637,0.4634920634920637,0.4634920634920637,0.4634920634920637,0.4634920634920637,0.4634920634920637,0.4634920634920637,0.4634920634920637,0.4634920634920637,0.4634920634920637,0.4634920634920637,0.4634920634920637,0.4634920634920637,0.4634920634920637,0.4634920634920637,0.4634920634920637,0.4634920634920637,0.4634920634920637,0.4634920634920637,0.4634920634920637,0.4634920634920637,0.4634920634920637,0.4634920634920637,0.4634920634920637,0.4634920634920637,0.4634920634920637,0.4634920634920637,0.4634920634920637,0.5396825396825399,0.6634920634920637,0.777777777777778,0.8920634920634922,1.0539682539682542,1.2539682539682542,1.358730158730159,1.4253968253968257,1.4539682539682541,1.4539682539682541,1.4539682539682541,1.4539682539682541,1.4539682539682541,1.4539682539682541,1.4539682539682541,1.4539682539682541,1.4539682539682541,1.4539682539682541,1.4539682539682541,1.4539682539682541,1.4539682539682541,1.4539682539682541,1.4539682539682541,1.4539682539682541,1.4539682539682541,1.4539682539682541,1.4539682539682541,1.4539682539682541,1.4539682539682541,1.4539682539682541,1.4539682539682541,1.4539682539682541,1.4539682539682541,1.4539682539682541,1.4539682539682541,1.4539682539682541,1.4539682539682541,1.4539682539682541,1.4539682539682541,1.4539682539682541,1.4539682539682541,1.4539682539682541,1.4539682539682541,1.4539682539682541,1.4539682539682541,1.4539682539682541,1.4539682539682541,1.4539682539682541,1.4539682539682541,1.4539682539682541,1.4539682539682541,1.4539682539682541,1.4539682539682541,1.4539682539682541,1.4539682539682541,1.4539682539682541,1.4539682539682541,1.4539682539682541,1.4539682539682541,1.4539682539682541,1.4539682539682541,1.4539682539682541,1.4539682539682541,1.4539682539682541,1.4539682539682541,1.4539682539682541,1.4539682539682541,1.4539682539682541,1.4539682539682541,1.4539682539682541,1.4539682539682541,1.4539682539682541,1.4539682539682541,1.4539682539682541,1.4539682539682541,1.4539682539682541,1.4539682539682541,1.4539682539682541,1.4539682539682541,1.4539682539682541,1.4539682539682541,1.4539682539682541,1.4539682539682541,1.4539682539682541,1.4539682539682541,1.4539682539682541,1.4539682539682541,1.4539682539682541,1.4539682539682541,1.4539682539682541,1.4539682539682541,1.4539682539682541,1.4539682539682541,1.4539682539682541,1.4539682539682541,1.4539682539682541,1.4539682539682541,1.4539682539682541,1.4539682539682541,1.4539682539682541,1.4539682539682541,1.4539682539682541,1.4539682539682541,1.4539682539682541,1.4539682539682541,1.4539682539682541,1.4539682539682541,1.4539682539682541,1.4539682539682541,1.4539682539682541,1.4539682539682541,1.4539682539682541,1.4539682539682541,1.4539682539682541,1.4539682539682541,1.4539682539682541,1.4539682539682541,1.4539682539682541,1.4539682539682541,1.4539682539682541,1.4539682539682541,1.4539682539682541,1.4539682539682541,1.4539682539682541,1.4539682539682541,1.4539682539682541,1.4539682539682541,1.4539682539682541,1.4539682539682541,1.4539682539682541,1.4539682539682541,1.4539682539682541,1.4539682539682541,1.4539682539682541,1.4539682539682541,1.4539682539682541,1.4539682539682541,1.4539682539682541,1.4539682539682541,1.4539682539682541,1.4539682539682541,1.4539682539682541,1.4539682539682541,1.4539682539682541,1.4539682539682541,1.4539682539682541,1.4539682539682541,1.4539682539682541,1.4539682539682541,1.4539682539682541,1.4539682539682541,1.4539682539682541,1.4539682539682541,1.4539682539682541,1.4539682539682541,1.4539682539682541,1.4539682539682541,1.4539682539682541,1.4539682539682541,1.4539682539682541,1.4539682539682541,1.4539682539682541,1.4539682539682541,1.4539682539682541,1.4539682539682541,1.4539682539682541,1.4539682539682541,1.4539682539682541,1.4539682539682541,1.4539682539682541,1.4539682539682541,1.4539682539682541,1.4539682539682541,1.4539682539682541,1.4539682539682541,1.4539682539682541,1.4539682539682541,1.4539682539682541,1.4539682539682541,1.4539682539682541,1.4539682539682541,1.4539682539682541,1.4539682539682541,1.4539682539682541,1.4539682539682541,1.4539682539682541,1.4539682539682541,1.4539682539682541,1.4539682539682541,1.4539682539682541,1.4539682539682541,1.4539682539682541,1.4539682539682541,1.4539682539682541,1.4539682539682541,1.4539682539682541,1.4539682539682541,1.4539682539682541,1.4539682539682541,1.4539682539682541,1.4539682539682541,1.4539682539682541,1.4539682539682541,1.4539682539682541,1.4539682539682541,1.4539682539682541,1.4539682539682541,1.4539682539682541,1.4539682539682541,1.4539682539682541,1.4539682539682541,1.4539682539682541,1.4539682539682541,1.4539682539682541,1.4539682539682541,1.4539682539682541,1.4539682539682541,1.4539682539682541,1.4539682539682541,1.4539682539682541,1.4539682539682541,1.4539682539682541,1.4539682539682541,1.4539682539682541,1.4539682539682541,1.4539682539682541,1.4539682539682541,1.4539682539682541,1.4539682539682541,1.4539682539682541,1.4539682539682541,1.4539682539682541,1.4539682539682541,1.4539682539682541,1.4539682539682541,1.4539682539682541,1.4539682539682541,1.4539682539682541,1.4539682539682541,1.4539682539682541,1.4539682539682541,1.4539682539682541,1.4539682539682541,1.4539682539682541,1.4539682539682541,1.4539682539682541,1.4539682539682541,1.4539682539682541,1.4539682539682541,1.4539682539682541,1.4539682539682541,1.4539682539682541,1.4539682539682541,1.4539682539682541,1.4539682539682541,1.4539682539682541,1.4539682539682541,1.4539682539682541,1.4539682539682541,1.4539682539682541,1.4539682539682541,1.4539682539682541,1.4539682539682541,1.4539682539682541,1.4539682539682541,1.4539682539682541,1.4539682539682541,1.4539682539682541,1.4539682539682541,1.4539682539682541,1.4539682539682541,1.4539682539682541,1.4539682539682541,1.4539682539682541,1.4539682539682541,1.4539682539682541,1.4539682539682541,1.4539682539682541,1.4539682539682541,1.4539682539682541,1.4539682539682541,1.4539682539682541,1.4539682539682541,1.4539682539682541,1.4539682539682541,1.4539682539682541,1.4539682539682541,1.4539682539682541,1.4539682539682541,1.4539682539682541,1.4539682539682541,1.4539682539682541,1.4539682539682541,1.4539682539682541,1.4539682539682541,1.4539682539682541,1.4539682539682541,1.4539682539682541,1.4539682539682541,1.4539682539682541,1.4539682539682541,1.4539682539682541,1.4539682539682541,1.4539682539682541,1.4539682539682541,1.4539682539682541,1.4539682539682541,1.4539682539682541,1.4539682539682541,1.4539682539682541,1.4539682539682541,1.4539682539682541,1.4539682539682541,1.4539682539682541,1.4539682539682541,1.4539682539682541,1.4539682539682541,1.4539682539682541,1.4539682539682541,1.4539682539682541,1.4539682539682541,1.4539682539682541,1.4539682539682541,1.4539682539682541,1.4539682539682541,1.4539682539682541,1.4539682539682541,1.4539682539682541,1.4539682539682541,1.4539682539682541,1.4539682539682541,1.4539682539682541,1.4539682539682541,1.4539682539682541,1.4539682539682541,1.4539682539682541,1.4539682539682541,1.4539682539682541,1.4539682539682541,1.4539682539682541,1.4539682539682541,1.4539682539682541,1.4539682539682541,1.4539682539682541,1.4539682539682541,1.4539682539682541,1.4539682539682541,1.4539682539682541,1.4539682539682541,1.4539682539682541,1.4539682539682541,1.4539682539682541,1.4539682539682541,1.4539682539682541,1.4539682539682541,1.4539682539682541,1.4539682539682541,1.4539682539682541,1.4539682539682541,1.4539682539682541,1.4539682539682541,1.4539682539682541,1.4539682539682541,1.4539682539682541,1.4539682539682541,1.396825396825397,1.3206349206349208,1.2253968253968255,1.177777777777778,1.1587301587301588,1.1587301587301588,1.1587301587301588,1.1587301587301588,1.1587301587301588,1.1587301587301588,1.1587301587301588,1.1587301587301588,1.1587301587301588,1.1587301587301588,1.1587301587301588,1.1587301587301588,1.1682539682539685,1.177777777777778,1.196825396825397,1.196825396825397,1.196825396825397,1.196825396825397,1.196825396825397,1.1873015873015875,1.1873015873015875,1.1873015873015875,1.1873015873015875,1.1873015873015875,1.1873015873015875,1.177777777777778,1.177777777777778,1.1682539682539685,1.1492063492063493,1.1396825396825399,1.1301587301587304,1.1206349206349209,1.1206349206349209,1.1206349206349209,1.1111111111111114,1.1111111111111114,1.0920634920634922,1.0730158730158732,1.0634920634920637,1.0539682539682542,1.0444444444444447,1.034920634920635,1.034920634920635,1.034920634920635,1.0253968253968255,1.0253968253968255,1.0253968253968255,1.0253968253968255,1.0253968253968255,1.0253968253968255,1.0253968253968255,1.0253968253968255,1.0253968253968255,1.0253968253968255,1.0253968253968255,1.0253968253968255,1.0253968253968255,1.0253968253968255,1.0253968253968255,1.0253968253968255,1.0253968253968255,1.0253968253968255,1.0253968253968255,1.0253968253968255,1.0253968253968255,1.0253968253968255,1.0253968253968255,1.0253968253968255,1.0253968253968255,1.0253968253968255,1.0253968253968255,1.0253968253968255,1.0253968253968255,1.0253968253968255,1.0253968253968255,1.0253968253968255,1.0253968253968255,1.0253968253968255,1.0253968253968255,1.0253968253968255,1.0253968253968255,1.0253968253968255,1.0253968253968255,1.0253968253968255,1.0253968253968255,1.0253968253968255,1.0253968253968255,1.0253968253968255,1.0253968253968255,1.0825396825396827,1.1682539682539685,1.2825396825396826,1.396825396825397,1.5015873015873018,1.5873015873015874,1.634920634920635,1.6730158730158733,1.7015873015873018,1.7015873015873018,1.7111111111111112,1.7111111111111112,1.7206349206349207,1.7206349206349207,1.7206349206349207,1.7206349206349207,1.7206349206349207,1.7206349206349207,1.7206349206349207,1.7206349206349207,1.7206349206349207,1.7206349206349207,1.7206349206349207,1.7206349206349207,1.7206349206349207,1.7206349206349207,1.7206349206349207,1.7206349206349207,1.7206349206349207,1.7206349206349207,1.7206349206349207,1.7206349206349207,1.7206349206349207,1.7206349206349207,1.7206349206349207,1.7206349206349207,1.7206349206349207,1.7206349206349207,1.7206349206349207,1.7206349206349207,1.7206349206349207,1.7206349206349207,1.7206349206349207,1.7206349206349207,1.7206349206349207,1.7206349206349207,1.7206349206349207,1.7206349206349207,1.7206349206349207,1.7206349206349207,1.7206349206349207,1.7206349206349207,1.7206349206349207,1.7206349206349207,1.7206349206349207,1.7206349206349207,1.7206349206349207,1.7206349206349207,1.7206349206349207,1.7206349206349207,1.7206349206349207,1.7206349206349207,1.7206349206349207,1.7206349206349207,1.7206349206349207,1.7206349206349207,1.7206349206349207,1.7206349206349207,1.7206349206349207,1.7206349206349207,1.7206349206349207,1.7206349206349207,1.7206349206349207,1.7206349206349207,1.7206349206349207,1.7206349206349207,1.7206349206349207,1.7206349206349207,1.7206349206349207,1.7206349206349207,1.7206349206349207,1.7206349206349207,1.7206349206349207,1.7206349206349207,1.7206349206349207,1.7206349206349207,1.558730158730159,1.558730158730159,1.0634920634920637,1.0634920634920637,1.0634920634920637,0.7111111111111112,0.7111111111111112,0.596825396825397,0.596825396825397,0.5492063492063494,0.5111111111111113,0.5015873015873018,0.4730158730158732,0.45396825396825413,0.4349206349206351,0.42539682539682555,0.42539682539682555,0.42539682539682555,0.42539682539682555,0.42539682539682555,0.42539682539682555,0.42539682539682555,0.42539682539682555,0.42539682539682555,0.42539682539682555,0.42539682539682555,0.42539682539682555,0.42539682539682555,0.42539682539682555,0.42539682539682555,0.42539682539682555,0.42539682539682555,0.42539682539682555,0.42539682539682555,0.42539682539682555,0.42539682539682555,0.42539682539682555,0.42539682539682555,0.42539682539682555,0.42539682539682555,0.42539682539682555,0.42539682539682555,0.42539682539682555,0.42539682539682555,0.42539682539682555,0.42539682539682555,0.42539682539682555,0.42539682539682555,0.42539682539682555,0.42539682539682555,0.42539682539682555,0.42539682539682555,0.42539682539682555,0.42539682539682555,0.42539682539682555,0.42539682539682555,0.42539682539682555,0.42539682539682555,0.5206349206349208,0.7111111111111112,0.9968253968253971,1.1301587301587304,1.3111111111111113,1.5206349206349208,1.634920634920635,1.7301587301587302,1.7873015873015874,1.815873015873016,1.8253968253968256,1.8253968253968256,1.834920634920635,1.834920634920635,1.834920634920635,1.834920634920635,1.834920634920635,1.834920634920635,1.834920634920635,1.834920634920635,1.834920634920635,1.834920634920635,1.834920634920635,1.834920634920635,1.834920634920635,1.834920634920635,1.834920634920635,1.834920634920635,1.834920634920635,1.834920634920635,1.834920634920635,1.834920634920635,1.834920634920635,1.834920634920635,1.834920634920635,1.834920634920635,1.834920634920635,1.834920634920635,1.834920634920635,1.834920634920635,1.834920634920635,1.834920634920635,1.834920634920635,1.834920634920635,1.834920634920635,1.834920634920635,1.834920634920635,1.834920634920635,1.834920634920635,1.834920634920635,1.834920634920635,1.834920634920635,1.834920634920635,1.834920634920635,1.834920634920635,1.834920634920635,1.834920634920635,1.834920634920635,1.834920634920635,1.834920634920635,1.834920634920635,1.834920634920635,1.834920634920635,1.834920634920635,1.834920634920635,1.834920634920635,1.834920634920635,1.834920634920635,1.834920634920635,1.834920634920635,1.834920634920635,1.834920634920635,1.834920634920635,1.834920634920635,1.834920634920635,1.834920634920635,1.834920634920635,1.834920634920635,1.834920634920635,1.834920634920635,1.834920634920635,1.834920634920635,1.834920634920635,1.834920634920635,1.834920634920635,1.834920634920635,1.834920634920635,1.834920634920635,1.834920634920635,1.834920634920635,1.834920634920635,1.834920634920635,1.834920634920635,1.834920634920635,1.834920634920635,1.834920634920635,1.834920634920635,1.834920634920635,1.834920634920635,1.834920634920635,1.834920634920635,1.834920634920635,1.8253968253968256,1.777777777777778,1.6825396825396828,1.6444444444444446,1.5873015873015874,1.5206349206349208,1.4730158730158731,1.396825396825397,1.3492063492063493,1.3015873015873018,1.2634920634920637,1.2349206349206352,1.2063492063492065,1.196825396825397,1.196825396825397,1.1873015873015875,1.1873015873015875,1.1873015873015875,1.2063492063492065,1.2539682539682542,1.3206349206349208,1.3396825396825398,1.3396825396825398,1.3396825396825398,1.3206349206349208,1.3206349206349208,1.3111111111111113,1.3111111111111113,1.3111111111111113,1.3111111111111113,1.3111111111111113,1.3111111111111113,1.3111111111111113,1.3111111111111113,1.3111111111111113,1.3111111111111113,1.3111111111111113,1.3015873015873018,1.2825396825396826,1.2730158730158732,1.2349206349206352,1.215873015873016,1.1873015873015875,1.1587301587301588,1.1492063492063493,1.1301587301587304,1.1206349206349209,1.1206349206349209,1.1206349206349209,1.1206349206349209,1.1206349206349209,1.0634920634920637,1.0634920634920637,1.0444444444444447,1.034920634920635,1.0253968253968255,1.015873015873016,1.0063492063492065,1.0063492063492065,1.0063492063492065,1.0063492063492065,1.0063492063492065,1.0063492063492065,1.0063492063492065,1.0063492063492065,1.0063492063492065,1.0063492063492065,1.0063492063492065,1.0063492063492065,1.0063492063492065,1.0063492063492065,1.0063492063492065,1.0063492063492065,1.0063492063492065,1.0063492063492065,1.0063492063492065,1.0063492063492065,1.0063492063492065,1.0063492063492065,1.0063492063492065,1.0063492063492065,1.0063492063492065,1.0063492063492065,1.0063492063492065,1.0063492063492065,1.0063492063492065,1.0063492063492065,1.015873015873016,1.0539682539682542,1.1587301587301588,1.2634920634920637,1.4063492063492065,1.5301587301587303,1.634920634920635,1.7301587301587302,1.796825396825397,1.834920634920635,1.8634920634920638,1.9015873015873017,1.920634920634921,1.920634920634921,1.920634920634921,1.920634920634921,1.920634920634921,1.920634920634921,1.920634920634921,1.920634920634921,1.920634920634921,1.920634920634921,1.920634920634921,1.920634920634921,1.920634920634921,1.920634920634921,1.920634920634921,1.920634920634921,1.920634920634921,1.920634920634921,1.920634920634921,1.920634920634921,1.920634920634921,1.920634920634921,1.920634920634921,1.920634920634921,1.920634920634921,1.920634920634921,1.920634920634921,1.920634920634921,1.920634920634921,1.920634920634921,1.920634920634921,1.920634920634921,1.920634920634921,1.920634920634921,1.920634920634921,1.920634920634921,1.920634920634921,1.920634920634921,1.920634920634921,1.920634920634921,1.920634920634921,1.920634920634921,1.920634920634921,1.920634920634921,1.920634920634921,1.920634920634921,1.920634920634921,1.920634920634921,1.920634920634921,1.920634920634921,1.920634920634921,1.920634920634921,1.920634920634921,1.920634920634921,1.920634920634921,1.920634920634921,1.920634920634921,1.920634920634921,1.920634920634921,1.920634920634921,1.920634920634921,1.920634920634921,1.920634920634921,1.920634920634921,1.920634920634921,1.920634920634921,1.920634920634921,1.920634920634921,1.920634920634921,1.920634920634921,1.920634920634921,1.920634920634921,1.920634920634921,1.920634920634921,1.920634920634921,1.920634920634921,1.920634920634921,1.920634920634921,1.920634920634921,1.920634920634921,1.920634920634921,1.920634920634921,1.8634920634920638,1.8063492063492066,1.6825396825396828,1.5396825396825398,1.3111111111111113,1.1587301587301588,1.0063492063492065,0.8825396825396827,0.777777777777778,0.6825396825396827,0.5873015873015874,0.5111111111111113,0.4634920634920637,0.4063492063492065,0.3587301587301589,0.32063492063492083,0.2825396825396827,0.2539682539682542,0.22539682539682557,0.21587301587301605,0.19682539682539701,0.18730158730158747,0.18730158730158747,0.17777777777777795,0.17777777777777795,0.17777777777777795,0.17777777777777795,0.17777777777777795,0.16825396825396843,0.15873015873015892,0.1492063492063494,0.13968253968253985,0.13015873015873033,0.12063492063492082,0.11111111111111129,0.10158730158730177,0.09206349206349225,0.08253968253968272,0.08253968253968272,0.08253968253968272,0.0730158730158732,0.0730158730158732,0.0730158730158732,0.0730158730158732,0.0730158730158732,0.0730158730158732,0.0730158730158732,0.0730158730158732,0.0730158730158732,0.0730158730158732,0.0730158730158732,0.0730158730158732,0.0730158730158732,0.0730158730158732,0.0730158730158732,0.0730158730158732,0.0730158730158732,0.0730158730158732,0.0730158730158732,0.0730158730158732,0.0730158730158732,0.0730158730158732,0.0730158730158732,0.0730158730158732,0.11111111111111129,0.24444444444444463,0.4349206349206351,0.6253968253968256,1.0444444444444447,1.3396825396825398,1.7015873015873018,1.8825396825396827,2.0634920634920637,2.177777777777778,2.234920634920635,2.234920634920635,2.234920634920635,2.234920634920635,2.234920634920635,2.234920634920635,2.234920634920635,2.234920634920635,2.234920634920635,2.234920634920635,2.234920634920635,2.234920634920635,2.234920634920635,2.234920634920635,2.234920634920635,2.234920634920635,2.234920634920635,2.234920634920635,2.234920634920635,2.234920634920635,2.234920634920635,2.234920634920635,2.234920634920635,2.234920634920635,2.234920634920635,2.234920634920635,2.234920634920635,2.234920634920635,2.234920634920635,2.234920634920635,2.234920634920635,2.234920634920635,2.234920634920635,2.234920634920635,2.234920634920635,2.234920634920635,2.234920634920635,2.234920634920635,2.234920634920635,2.234920634920635,2.234920634920635,2.234920634920635,2.234920634920635,2.234920634920635,2.234920634920635,2.234920634920635,2.234920634920635,2.234920634920635,2.234920634920635,2.234920634920635,2.2253968253968255,2.177777777777778,2.1492063492063496,2.0825396825396827,1.9873015873015876,1.8634920634920638,1.7206349206349207,1.6825396825396828,1.5682539682539685,1.5015873015873018,1.4349206349206352,1.3682539682539685,1.3111111111111113,1.2920634920634921,1.2920634920634921,1.2920634920634921,1.3301587301587303,1.358730158730159,1.396825396825397,1.4253968253968257,1.4539682539682541,1.4539682539682541,1.4539682539682541,1.4539682539682541,1.4539682539682541,1.4539682539682541,1.4539682539682541,1.4539682539682541,1.4539682539682541,1.4539682539682541,1.4539682539682541,1.4539682539682541,1.415873015873016,1.3492063492063493,1.3015873015873018,1.2539682539682542,1.2253968253968255,1.215873015873016,1.215873015873016,1.215873015873016,1.2539682539682542,1.3111111111111113,1.3682539682539685,1.415873015873016,1.4634920634920636,1.4920634920634923,1.5111111111111113,1.5206349206349208,1.5206349206349208,1.5206349206349208,1.5206349206349208,1.5206349206349208,1.5206349206349208,1.5206349206349208,1.5206349206349208,1.5206349206349208,1.5206349206349208,1.4825396825396828,1.4634920634920636,1.4063492063492065,1.3111111111111113,1.2253968253968255,1.1301587301587304,1.0825396825396827,1.0444444444444447,1.015873015873016,0.9968253968253971,0.977777777777778,0.9682539682539685,0.9682539682539685,0.9587301587301589,0.9587301587301589,0.9492063492063494,0.9492063492063494,0.9492063492063494,0.9492063492063494,0.9492063492063494,0.9492063492063494,0.9492063492063494,0.9492063492063494,0.9492063492063494,0.9492063492063494,0.9492063492063494,0.9492063492063494,0.9492063492063494,0.9492063492063494,0.9492063492063494,0.9492063492063494,0.9492063492063494,0.9492063492063494,0.9492063492063494,0.9492063492063494,0.9492063492063494,0.9492063492063494,0.9492063492063494,0.9492063492063494,0.9492063492063494,0.9492063492063494,0.9492063492063494,0.9492063492063494,0.9492063492063494,0.9492063492063494,0.9301587301587303,0.8444444444444447,0.8063492063492065,0.6730158730158732,0.5301587301587304,0.4825396825396827,0.3873015873015875,0.3301587301587303,0.2825396825396827,0.2539682539682542,0.2349206349206351,0.21587301587301605,0.20634920634920653,0.18730158730158747,0.17777777777777795,0.17777777777777795,0.17777777777777795,0.16825396825396843,0.15873015873015892,0.1492063492063494,0.13015873015873033,0.10158730158730177,0.0730158730158732,0.0349206349206351,-0.003174603174602994,-0.022222222222222043,-0.031746031746031564,-0.031746031746031564,-0.031746031746031564,-0.031746031746031564,-0.022222222222222043,-0.003174603174602994,-0.003174603174602994,-0.003174603174602994,0.00634920634920653,0.00634920634920653,0.00634920634920653,0.00634920634920653,0.00634920634920653,0.00634920634920653,0.00634920634920653,0.00634920634920653,0.00634920634920653,0.00634920634920653,0.00634920634920653,0.00634920634920653,0.00634920634920653,0.00634920634920653,0.00634920634920653,0.00634920634920653,0.00634920634920653,0.00634920634920653,0.00634920634920653,0.00634920634920653,0.00634920634920653,0.00634920634920653,0.00634920634920653,0.00634920634920653,0.00634920634920653,0.00634920634920653,0.00634920634920653,0.00634920634920653,0.00634920634920653,0.00634920634920653,0.00634920634920653,0.00634920634920653,0.00634920634920653,0.00634920634920653,0.00634920634920653,0.00634920634920653,0.00634920634920653,0.00634920634920653,0.00634920634920653,0.00634920634920653,0.00634920634920653,0.00634920634920653,0.00634920634920653,0.00634920634920653,0.00634920634920653,0.00634920634920653,0.00634920634920653,0.00634920634920653,0.00634920634920653,0.00634920634920653,0.00634920634920653,0.00634920634920653,0.00634920634920653,0.00634920634920653,0.00634920634920653,0.00634920634920653,0.00634920634920653,0.015873015873016053,0.0349206349206351,0.05396825396825415,0.06349206349206367,0.06349206349206367,0.0730158730158732,0.08253968253968272,0.09206349206349225,0.09206349206349225,0.09206349206349225,0.09206349206349225,0.09206349206349225,0.09206349206349225,0.09206349206349225,0.09206349206349225,0.09206349206349225,0.08253968253968272,0.06349206349206367,0.05396825396825415,0.05396825396825415,0.05396825396825415,0.05396825396825415,0.05396825396825415,0.05396825396825415,0.05396825396825415,0.05396825396825415,0.05396825396825415,0.05396825396825415,0.05396825396825415,0.05396825396825415,0.05396825396825415,0.05396825396825415,0.05396825396825415,0.05396825396825415,0.04444444444444463,0.0349206349206351,0.0349206349206351,0.0349206349206351,0.0349206349206351,0.0349206349206351,0.0349206349206351,0.0349206349206351,0.0349206349206351,0.0349206349206351,0.0349206349206351,0.0349206349206351,0.0349206349206351,0.0349206349206351,0.0349206349206351,0.0349206349206351,0.0349206349206351,0.0349206349206351,0.0349206349206351,0.0349206349206351,0.0349206349206351,0.0349206349206351,0.0349206349206351,0.0349206349206351,0.0349206349206351,0.0349206349206351,0.0349206349206351,0.0349206349206351,0.00634920634920653,-0.05079365079365061,-0.13650793650793633,-0.21269841269841253,-0.29841269841269824,-0.37460317460317444,-0.4412698412698411,-0.49841269841269825,-0.5460317460317459,-0.5650793650793648,-0.5650793650793648,-0.5650793650793648,-0.5650793650793648,-0.5650793650793648,-0.5650793650793648,-0.5650793650793648,-0.5650793650793648,-0.5650793650793648,-0.5650793650793648,-0.5650793650793648,-0.5650793650793648,-0.5650793650793648,-0.5650793650793648,-0.5650793650793648,-0.5650793650793648,-0.5650793650793648,-0.5650793650793648,-0.5650793650793648,-0.5650793650793648,-0.5650793650793648,-0.5650793650793648,-0.5650793650793648,-0.5650793650793648,-0.5650793650793648,-0.5650793650793648,-0.5650793650793648,-0.5650793650793648,-0.5650793650793648,-0.5650793650793648,-0.5650793650793648,-0.5650793650793648,-0.5650793650793648,-0.5650793650793648,-0.5650793650793648,-0.5650793650793648,-0.5650793650793648,-0.5650793650793648,-0.5650793650793648,-0.5650793650793648,-0.5650793650793648,-0.5650793650793648,-0.5650793650793648,-0.5650793650793648,-0.5650793650793648,-0.5650793650793648,-0.5650793650793648,-0.5650793650793648,-0.5650793650793648,-0.5650793650793648,-0.5650793650793648,-0.5650793650793648,-0.5650793650793648,-0.5650793650793648,-0.5650793650793648,-0.5650793650793648,-0.5650793650793648,-0.5650793650793648,-0.5650793650793648,-0.5650793650793648,-0.5650793650793648,-0.5650793650793648,-0.5650793650793648,-0.5650793650793648,-0.5650793650793648,-0.5650793650793648,-0.5650793650793648,-0.5650793650793648,-0.5650793650793648,-0.5650793650793648,-0.5650793650793648,-0.5650793650793648,-0.5650793650793648,-0.5650793650793648,-0.5650793650793648,-0.5650793650793648,-0.5650793650793648,-0.5650793650793648,-0.5650793650793648,-0.5650793650793648,-0.5650793650793648,-0.5650793650793648,-0.5650793650793648,-0.5650793650793648,-0.5650793650793648,-0.5650793650793648,-0.5650793650793648,-0.5650793650793648,-0.5650793650793648,-0.5650793650793648,-0.5650793650793648,-0.5650793650793648]},"final_keyboard_state":["R","T","M","S","A","Z","E","B"],"num_clicks":8,"points":12,"cheat":false,"trial_type":"Hangman","trial_index":5,"time_elapsed":50792,"internal_node_id":"0.0-4.0","protocol_sum":"","subject_identifier":430,"subject_sum":[216,101,128,165,127,123,245,66,232,82,2,40,60,184,69,149,60,157,40,248,10,142,101,29,176,139,47,192,178,214,167,49],"subject_pair":215,"STUDY_ID":"66a22c0758a3d5c9d26873c6","PROLIFIC_PID":"6632ac1fa19e8464a16ce9da","SESSION_ID":"66a2cfa19579d0f12372c8ff","practice_instructions":1,"leaderboard_instructions":0,"bonus":0,"reveal_word":false,"self_rating":"2","confidence":"92"},{"view_history":"[{\"page_index\":0,\"viewing_time\":2152.300000190735},{\"page_index\":1,\"viewing_time\":14679.099999904633}]","rt":16831.700000286102,"trial_type":"instructions","trial_index":6,"time_elapsed":67624,"internal_node_id":"0.0-5.0","protocol_sum":"","subject_identifier":430,"subject_sum":[216,101,128,165,127,123,245,66,232,82,2,40,60,184,69,149,60,157,40,248,10,142,101,29,176,139,47,192,178,214,167,49],"subject_pair":215,"STUDY_ID":"66a22c0758a3d5c9d26873c6","PROLIFIC_PID":"6632ac1fa19e8464a16ce9da","SESSION_ID":"66a2cfa19579d0f12372c8ff","practice_instructions":1,"leaderboard_instructions":0,"bonus":0,"reveal_word":false,"self_rating":"2","confidence":"92"},{"rt":5536.300000190735,"responses":"{\"Q0\":\"...from <b>a previous session</b> that is not part of the upcoming tournament.\"}","question_order":"[0]","trial_type":"survey-multi-choice","trial_index":7,"time_elapsed":73162,"internal_node_id":"0.0-6.0","protocol_sum":"","subject_identifier":430,"subject_sum":[216,101,128,165,127,123,245,66,232,82,2,40,60,184,69,149,60,157,40,248,10,142,101,29,176,139,47,192,178,214,167,49],"subject_pair":215,"correct":true,"test_part":"multichoice_leaderboard","STUDY_ID":"66a22c0758a3d5c9d26873c6","PROLIFIC_PID":"6632ac1fa19e8464a16ce9da","SESSION_ID":"66a2cfa19579d0f12372c8ff","practice_instructions":1,"leaderboard_instructions":0,"bonus":0,"reveal_word":false,"self_rating":"2","confidence":"92"},{"view_history":"[{\"page_index\":0,\"viewing_time\":12969.099999904633}]","rt":12969.199999809265,"trial_type":"instructions","trial_index":8,"time_elapsed":86131,"internal_node_id":"0.0-8.0","protocol_sum":"","subject_identifier":430,"subject_sum":[216,101,128,165,127,123,245,66,232,82,2,40,60,184,69,149,60,157,40,248,10,142,101,29,176,139,47,192,178,214,167,49],"subject_pair":215,"STUDY_ID":"66a22c0758a3d5c9d26873c6","PROLIFIC_PID":"6632ac1fa19e8464a16ce9da","SESSION_ID":"66a2cfa19579d0f12372c8ff","practice_instructions":1,"leaderboard_instructions":0,"bonus":0,"reveal_word":false,"self_rating":"2","confidence":"92"},{"rt":5440.599999904633,"responses":"{\"Q0\":\"...players' leaderboard position (in terms of <b>points</b>) in an <b>upcoming tournament.</b>\"}","question_order":"[0]","trial_type":"survey-multi-choice","trial_index":9,"time_elapsed":91573,"internal_node_id":"0.0-9.0","protocol_sum":"","subject_identifier":430,"subject_sum":[216,101,128,165,127,123,245,66,232,82,2,40,60,184,69,149,60,157,40,248,10,142,101,29,176,139,47,192,178,214,167,49],"subject_pair":215,"correct":true,"test_part":"multichoice_tournament","STUDY_ID":"66a22c0758a3d5c9d26873c6","PROLIFIC_PID":"6632ac1fa19e8464a16ce9da","SESSION_ID":"66a2cfa19579d0f12372c8ff","practice_instructions":1,"leaderboard_instructions":0,"bonus":0,"reveal_word":false,"self_rating":"2","confidence":"92"},{"view_history":"[{\"page_index\":0,\"viewing_time\":10228.400000095367}]","rt":10228.599999904633,"trial_type":"instructions","trial_index":10,"time_elapsed":101802,"internal_node_id":"0.0-11.0","protocol_sum":"","subject_identifier":430,"subject_sum":[216,101,128,165,127,123,245,66,232,82,2,40,60,184,69,149,60,157,40,248,10,142,101,29,176,139,47,192,178,214,167,49],"subject_pair":215,"STUDY_ID":"66a22c0758a3d5c9d26873c6","PROLIFIC_PID":"6632ac1fa19e8464a16ce9da","SESSION_ID":"66a2cfa19579d0f12372c8ff","practice_instructions":1,"leaderboard_instructions":0,"bonus":0,"reveal_word":false,"self_rating":"2","confidence":"92"},{"view_history":"[{\"page_index\":0,\"viewing_time\":6490.599999904633}]","rt":6490.699999809265,"trial_type":"instructions","trial_index":11,"time_elapsed":108294,"internal_node_id":"0.0-12.0-0.0","protocol_sum":"","subject_identifier":430,"subject_sum":[216,101,128,165,127,123,245,66,232,82,2,40,60,184,69,149,60,157,40,248,10,142,101,29,176,139,47,192,178,214,167,49],"subject_pair":215,"STUDY_ID":"66a22c0758a3d5c9d26873c6","PROLIFIC_PID":"6632ac1fa19e8464a16ce9da","SESSION_ID":"66a2cfa19579d0f12372c8ff","practice_instructions":1,"leaderboard_instructions":0,"bonus":0,"reveal_word":false,"self_rating":"2","confidence":"92"},{"word":"THUMB","click_log":{"letter":["","A","B","E","G","H","Q","P","X","W","V","U","T","M"],"t":[0,2220.2999997138977,2915,3777,5315,6088.39999961853,6771.5,7305.099999904633,8180.299999713898,8671.199999809265,9226.299999713898,9738.099999904633,10117.599999904633,12487.699999809265],"hit":[null,0,1,0,0,1,0,0,0,0,0,1,1,1],"asked":["","A","AB","ABE","ABEG","ABEGH","ABEGHQ","ABEGHQP","ABEGHQPX","ABEGHQPXW","ABEGHQPXWV","ABEGHQPXWVU","ABEGHQPXWVUT","ABEGHQPXWVUTM"],"word_state":["_____","_____","____B","____B","____B","_H__B","_H__B","_H__B","_H__B","_H__B","_H__B","_HU_B","THU_B","THUMB"]},"hover_log":{"letter":["?","?","?","?","?","?","?","?","?","?","?","?","?","?","?","?","?","?","?","?","?","?","?","?","?","?","?","?","?","?","?","?","?","?","?","?","?","?","?","?","?","?","?","?","?","?","?","?","?","?","?","?","?","?","?","?","?","?","?","?","?","?","?","?","?","?","?","?","?","?","?","?","?","?","?","?","?","?","?","?","?","?","?","?","?","?","?","?","?","?","?","?","?","?","?","?","?","?","?","?","?","?","?","?","?","?","?","?","?","?","?","?","?","?","?","?","?","?","?","?","?","?","?","?","?","?","?","?","?","?","?","?","?","?","?","?","?","?","?","?","?","?","?","?","?","?","?","?","?","?","?","?","?","?","?","?","?","?","?","?","?","?","?","?","?","?","?","?","?","?","?","?","?","?","?","?","?","?","?","?","?","?","?","?","?","?","?","?","?","?","?","?","?","?","?","?","?","?","?","?","?","?","?","?","?","?","?","?","?","?","?","?","?","?","?","?","?","?","?","?","?","?","?","?","?","?","?","?","?","?","?","?","?","?","?","?","?","?","?","?","?","?","?","?","?","?","?","?","?","?","?","?","?","?","?","?","?","?","?","?","?","?","?","?","?","?","?","?","?","?","?","?","?","?","?","?","?","?","?","?","?","?","?","?","?","?","?","?","?","?","?","?","?","?","?","?","?","?","?","?","?","?","?","?","?","?","?","?","?","?","?","?","?","?","?","?","?","?","?","?","?","?","?","?","?","?","?","?","?","?","?","?","?","?","?","?","?","?","?","?","?","?","?","?","?","?","?","?","?","?","?","?","?","?","?","?","?","?","?","?","?","?","?","?","?","?","?","?","?","?","?","?","?","?","?","?","?","?","?","?","?","?","?","?","?","?","?","?","?","?","?","?","?","?","?","?","?","?","?","?","?","?","?","?","?","?","?","?","?","?","?","?","?","?","?","?","?","?","?","?","?","?","?","?","?","?","?","?","?","?","?","?","?","?","?","?","?","?","?","?","?","?","?","?","?","?","?","?","?","?","?","?","?","?","?","?","?","?","?","?","?","?","?","?","?","?","?","?","?","?","?","?","?","?","?","?","?","?","?","?","?","?","?","?","?","?","?","?","?","?","?","?","?","?","?","?","?","?","?","?","?","?","?","?","?","?","?","?","?","?","?","?","?","?","?","?","?","?","?","?","?","?","?","?","?","?","?","?","?","?","?","?","?","?","?","?","?","?","S","?","?","?","?","?","?","?","?","?","?","?","?","?","?","?","?","?","?","?","?","?","?","?","?","?","?","?","?","?","?","?","?","?","?","?","?","?","?","?","?","?","?","?","?","?","?","?","?","?","?","?","?","?","?","?","?","?","?","?","?","?","?","?","?","?","?","?","?","?","?","?","?","?","?","?","?","?","?","?","?","?","?","?","?","?","?","?","?","?","?","?","?","?","?","J","?","?","?","?","?","?","?","?","?","?","?","?","?","?","?","?","?","?","?","?","?","?","?","?","?","?","?","?","?","?","?","?","?","?","?","?","?","?","?","?","?","?","?","?","?","?","?","?","?","?","?","?","?","?","?","?","?","?","?","?","?","?","?","?","?","?","?","?","?","?","?","?","?","?","?","?","?","?","?","?","?","?","?","?","?","?","?","?","?","?","?","?","?","?","?","?","?","?","?","?","?","?","?","?","?","?","?","?","?","?","?","?","?","?","?","?","?","?","?","?","?","?","?","?","?","?","?","?","?","?","?","?","?","?","?","?","?","?","?","?","?","?","?","?","?","?","?","?","?","?","?","?","?","?","?","?","?","?","?","?","?","?","?","?","?","?","?","?","?","?","?","?","?","?","?","?","?","?","?","?","?","?","?","?","?","?","?","?","?","?","?","?","?","?","?","?","?","?","?","?","?","?","?","?","?","?","?","?","?","?","?","?","?","?","?","?","?","?","?","?","?","?","?","?","?","?","?","?","?","?","?","?","?","?","?","?","?","?","?","?","?","?","?","?","?","?","?","?","?","?","?","?","?","?","?","?","?","?","?","?","?","?","?","?","?","?","?","?","?","?","?","?","?","?","?","?","?","?","?","?","?","?","?","?","?","?","?","?","?","?","?","?","?","?","?","?","?","?","?","?","?","?","?","B","?","?","?","?","?","?","?","?","?","?","?","?","?","?","?","?","?","?","?","?","?","?","?","?","?","B","?","?","?","?","?","?","?","?","?","?","?","?","?","?","?","?","?","?","?","?","?","?","?","?","?","B","?","?","?","?","?","?","?","?","?","?","?","?","?","?","?","?","?","?","?","?","?","?","?","?","?","B","?","?","?","?","?","?","?","?","?","?","?","?","?","?","?","?","?","?","?","?","?","?","?","?","?","B","?","?","?","?","?","?","?","?","?","?","?","?","?","?","?","?","?","?","?","?","?","?","?","?","?","?","?","?","?","?","?","?","?","?","?","?","?","?","?","?","?","?","?","?","?","?","?","?","?","?","?","?","?","?","?","?","?","?","?","?","?","?","?","?","?","?","?","?","?","?","?","?","?","?","?","?","?","?","?","?","?","?","?","?","?","?","K","?","?","?","?","?","?","?","?","?","?","?","?","?","?","?","?","?","?","?","?","?","?","?","?","?","?","?","?","?","?","?","?","?","?","?","?","?","?","?","?","?","?","?","?","?","?","?","?","?","?","?","?","?","?","?","?","?","?","?","?","?","?","?","?","?","?","?","?","?","?","?","?","?","?","?","?","?","?","?","?","?","?","?","?","?","?","?","?","?","?","?","?","?","?","?","?","?","?","?","?","?","?","?","?","?","?","?","?","?","?","?","?","?","?","?","?","?","?","?","?","?","?","?","?","?","?","?","?","?","?","?","?","?","?","?","?","?","?","?","?","?","?","?","?","?","?","?","?","?","?","?","?","?","?","?","?","?","?","?","?","?","?","?","?","?","?","?","?","?","?","?","?","?","?","?","?","?","?","?","?","?","?","?","?","?","?","?","?","?","?","?","?","?","?","?","?","?","?","?","?","?","?","?","?","?","?","?","?","?","?","?","?","?","?","?","?","?","?","?","?","?","?","?","?","?","?","?","?","?","?","?","?","?","?","?","?","?","?","?","?","?","?","?","?","?","?","?","?","?","?","?","?","?","?","?","?","?","?","?","?","?","?","?","?","?","?","?","?","?","?","?","?","?","?","?","?","?","?","?","?","?","?","?","?","?","?","?","?","?","?","?","?","?","?","?","?","?","?","?","?","?","?","?","?","?","?","?","?","?","?","?","?","?","?","?","?","?","?","?","?","?","?","?","?","?","?","?","?","?","?","?","?","?","?","?","?","?","?","?","?","?","?","?","?","?","?","?","?","?","?","?","?","?","?","?","?","?","?","?","?","?","?","?","?","?","?","?","?","?","?","?","?","?","?","?","?","?","?","?","?","?","?","?","?","?","?","?","?","?","?","?","?","?","?","?","?","?","?","?","?","?","?","?","?","?","?","?","?","?","?","?","?","?","?","?","?","?","?","?","?","?","?","?","?","?","?","?","?","?","?","?","?","?","?","?","?","?","?","?","?","?","?","?","?","?","?","?","?","?","?","?","?","?","?","?","?","?","?","?","?","?","?","?","?","?","?","?","?","?","?","?","?","?","?","?","?","?","?","?","?","?","?","?","?","?","?","?","?","?","?","?","?","?","?","?","?","?","?","?","?","?","?","?","?","?","?","?","?","?","?","?","?","?","?","?","?","?","?","?","?","?","?","?","?","?","?","?","?","?","?","?","?","?","?","?","?","?","?","?","?","?","?","?","?","?","?","?","?","?","?","?","?","?","?","?","?","?","?","?","?","?","?","?","?","?","?","?","?","?","?","?","?","?","?","?","?","?","?","?","?","?","?","?","?","?","?","?","?","?","?","?","?","?","?","?","?","?","?","?","?","?","?","?","?","?","?","?","?","?","?","?","?","?","?","?","?","?","?","?","?","?","?","?","?","?","?","?","?","?","?","?","?","?","?","?","?","?","?","?","?","?","?","?","?","?","?","?","?","?","?","?","?","?","?","?","?","?","?","?","?","?","?","?","?","?","?","?","?","?","?","?","?","?","?","?","?","?","?","?","?","?","?","?","?","?","?","?","?","?","?","?","?","?","?","?","?","?","?","?","?","?","?","?","?","?","?","?","?","?","?","?","?","?","?","?","?","?","?","?","?","?","?","?","?","?","?","?","?","?","?","?","?","?","?","?","?","?","?","?","?","?","?","?","?","?","?","?","?","?","?","?","?","?","?","?","?","?","?","?","?","?","?","?","?","?","?","?","?","?","?","?","?","?","?","?","?","?","?","?","?","?","?","?","?","?","?","?","?","?","?","?","?","?","?","?","?","?","?","?","?","?","?","?","?","?","?","?","?","?","?","?","?","?","?","?","?","?","?","?","?","?","?","?","?","?","?","?","?","?","?","?","?","?","?","?","?","?","?","?","?","?","?","?","?","?","?","?","?","?","?","?","?","?","?","?","?","?","?","?","?","?","?","?","?","?","?","?","?","?","?","?","?","?","?","?","?","?","?","?","?","?","?","?","?","?","?","?","?","?","?","?","?","?","?","?","?","?","?","?","?","?","?","?","?","?","?","?","?","?","?","?","?","?","?","?","?","?","?","?","?","?","?","?","?","?","?","?","?","?","?","?","?","?","?","?","?","?","?","?","?","?","?","?","?","?","?","?","?","?","?","?","?","?","?","?","?","?","?","?","?","?","?","?","?","?","?","?","?","?","?","?","?","?","?","?","?","?","?","?","?","?","?","?","?","?","?","?","?","?","?","?","?","?","?","?","?","?","?","?","?","?","?","?","?","?","?","?","?","?","?","?","?","?","?","?","?","?","?","?","?","?","?","?","?","?","?","?","?","?","?","?","?","?","?","?","?","?","?","?","?","?","?","?","?","?","?","?","?","?","?","?","?","?","?","?","?","?","?","?","?","?","?","?","?","?","?","?","?","?","?","?","?","?","?","?","?","?","?","?","?","?","?","?","?","?","?","?","?","?","?","?","?","?","?","?","?","?","?","?","?","?","?","?","?","?","?","?","?","?","?","?","?","?","?","?","?","?","?","?","?","?","?","?","?","?","?","?","?","?","?","?","?","?","?","?","?","?","?","?","?","?","?","?","?","?","?","?","?","?","?","?","?","?","?","?","?","?","?","?","?","?","?","?","?","?","?","?","?","?","?","?","?","?","?","?","?","?","?","?","?","?","?","?","?","?","?","?","?","?","?","?","?","?","?","?","?","?","?","?","?","?","?","?","?","?","?","?","?","?","?","?","?","?","?","?","?","?","?","?","?","?","?","?","?","?","?","?","?","?","?","?","?","?","?","?","?","?","?","?","?","?","?","?","?","?","?","?","?","?","?","?","?","?","?","?","?","?","?","?","?","?","?","?","?","?","?","?","?","?","?","?","?","?","?","?","?","?","?","?","?","?","?","?","?","?","?","?","?","?","?","?","?","?","?","?","?","?","?","?","?","?","?","?","?","?","?","?","?","?","?","?","?","?","?","?","?","?","?","?","?","?","?","?","?","?","?","?","?","?","?","?","?","?","?","?","?","?","?","?","?","?","?","?","?","?","?","?","?","?","?","?","?","?","?","?","?","?","?","?","?","?","?","?","?","?","?","?","?","?","?","?","?","?","?","?","?","?","?","?","?","?","?","?","?","?","?","?","?","?","?","?","?","?","?","?","?","?","?","?","?","?","?","?","?","?","?","?","?","?","?","?","?","?","?","?","?","?","?","?","?","?","?","?","?","?","?","?","?","?","?","?","?","?","?","?","?","?","?","?","?","?","?","?","?","?","?","?","?","?","?","?","?","?","?","?","?","?","?","?","?","?","?","?","?","?","?","?","?","?","?","?","?","?","?","?","?","?","?","?","?","?","?","?","?","?","?","?","?","?","?","?","?","?","?","?","?","?","?","?","?","?","?","?","?","?","?","?","?","?","?","?","?","?","?","?","?","?","?","?","?","?","?","?","?","?","?","?","?","?","?","?","?","?","?","?","?","?","?","?","?","?","?","?","?","?","?","?","?","?","?","?","?","?","?","?","?","?","?","?","?","?","?","?","?","?","?","?","?","?","?","?","?","?","?","?","?","?","?","?","?","?","?","?","?","?","?","?","?","?","?","?","?","?","?","?","?","?","?","?","?","?","?","?","?","?","?","?","?","?","?","?","?","?","?","?","?","?","?","?","?","?","?","?","?","?","?","?","?","?","?","?","?","?","?","?","?","?","?","?","?","?","?","?","?","?","?","?","?","?","?","?","?","?","?","?","?","?","?","?","?","?","?","?","?","?","?","?","?","?","?","?","?","?","?","?","?","?","?","?","?","?","?","?","?","?","?","?","?","?","?","?","?","?","?","?","?","?","?","?","?","?","?","?","?","?","?","?","?","?","?","?","?","?","?","?","?","?","?","?","?","?","?","?","?","?","?","?","?","?","?","?","?","?","?","?","?","?","?","?","?","?","?","?","?","?","?","?","?","?","?","?","?","?","?","?","?","?","?","?","