[{"success":true,"trial_type":"fullscreen","trial_index":0,"time_elapsed":3627,"internal_node_id":"0.0-0.0","protocol_sum":"","subject_identifier":414,"subject_sum":[150,128,118,190,46,56,207,137,125,77,108,234,63,172,169,192,55,225,164,227,180,183,116,79,178,83,62,7,117,27,211,10],"subject_pair":207,"STUDY_ID":"66a22c0758a3d5c9d26873c6","PROLIFIC_PID":"601b28841ca7bb2f8edaa293","SESSION_ID":"66a28a09b895e8c942d9e119","practice_instructions":1,"leaderboard_instructions":0,"bonus":0,"reveal_word":false,"self_rating":"3","confidence":"68"},{"view_history":"[{\"page_index\":0,\"viewing_time\":1644.199999988079}]","rt":1644.2999999523163,"trial_type":"instructions","trial_index":1,"time_elapsed":5272,"internal_node_id":"0.0-1.0","protocol_sum":"","subject_identifier":414,"subject_sum":[150,128,118,190,46,56,207,137,125,77,108,234,63,172,169,192,55,225,164,227,180,183,116,79,178,83,62,7,117,27,211,10],"subject_pair":207,"STUDY_ID":"66a22c0758a3d5c9d26873c6","PROLIFIC_PID":"601b28841ca7bb2f8edaa293","SESSION_ID":"66a28a09b895e8c942d9e119","practice_instructions":1,"leaderboard_instructions":0,"bonus":0,"reveal_word":false,"self_rating":"3","confidence":"68"},{"view_history":"[{\"page_index\":0,\"viewing_time\":1912.300000011921}]","rt":1912.6000000238419,"trial_type":"instructions","trial_index":2,"time_elapsed":7185,"internal_node_id":"0.0-2.0-0.0","protocol_sum":"","subject_identifier":414,"subject_sum":[150,128,118,190,46,56,207,137,125,77,108,234,63,172,169,192,55,225,164,227,180,183,116,79,178,83,62,7,117,27,211,10],"subject_pair":207,"STUDY_ID":"66a22c0758a3d5c9d26873c6","PROLIFIC_PID":"601b28841ca7bb2f8edaa293","SESSION_ID":"66a28a09b895e8c942d9e119","practice_instructions":1,"leaderboard_instructions":0,"bonus":0,"reveal_word":false,"self_rating":"3","confidence":"68"},{"rt":3104.5,"responses":"{\"Q0\":\"... reveal the word with as <b>few letter guesses</b> as possible\"}","question_order":"[0]","trial_type":"survey-multi-choice","trial_index":3,"time_elapsed":10291,"internal_node_id":"0.0-2.0-1.0","protocol_sum":"","subject_identifier":414,"subject_sum":[150,128,118,190,46,56,207,137,125,77,108,234,63,172,169,192,55,225,164,227,180,183,116,79,178,83,62,7,117,27,211,10],"subject_pair":207,"correct":true,"test_part":"multichoice_nonpretend","STUDY_ID":"66a22c0758a3d5c9d26873c6","PROLIFIC_PID":"601b28841ca7bb2f8edaa293","SESSION_ID":"66a28a09b895e8c942d9e119","practice_instructions":1,"leaderboard_instructions":0,"bonus":0,"reveal_word":false,"self_rating":"3","confidence":"68"},{"view_history":"[{\"page_index\":0,\"viewing_time\":1114.1000000238419}]","rt":1114.1000000238419,"trial_type":"instructions","trial_index":4,"time_elapsed":11405,"internal_node_id":"0.0-3.0","protocol_sum":"","subject_identifier":414,"subject_sum":[150,128,118,190,46,56,207,137,125,77,108,234,63,172,169,192,55,225,164,227,180,183,116,79,178,83,62,7,117,27,211,10],"subject_pair":207,"STUDY_ID":"66a22c0758a3d5c9d26873c6","PROLIFIC_PID":"601b28841ca7bb2f8edaa293","SESSION_ID":"66a28a09b895e8c942d9e119","practice_instructions":1,"leaderboard_instructions":0,"bonus":0,"reveal_word":false,"self_rating":"3","confidence":"68"},{"word":"ZEBRA","click_log":{"letter":["","T","S","A","Z","E","B","R"],"t":[0,9122.899999976158,12909.599999964237,14845.5,17382.599999964237,18662.5,20227.599999964237,23516.19999998808],"hit":[null,0,0,1,1,1,1,1],"asked":["","T","TS","TSA","TSAZ","TSAZE","TSAZEB","TSAZEBR"],"word_state":["_____","_____","_____","____A","Z___A","ZE__A","ZEB_A","ZEBRA"]},"hover_log":{"letter":["?","?","?","?","?","?","?","?","?","?","?","?","?","?","?","?","?","?","?","?","?","?","?","?","?","?","?","?","?","K","K","K","K","?","?","?","?","C","C","C","?","?","?","?","?","?","?","?","?","?","?","?","?","?","?","?","?","?","?","?","?","?","?","?","?","?","?","?","?","?","?","?","?","?","?","?","?","?","?","?","?","?","?","?","?","?","?","?","?","?","?","?","?","?","?","?","?","?","?","?","?","?","?","?","?","?","?","?","?","?","?","?","?","?","?","?","?","?","?","?","?","?","?","?","?","?","?","?","?","?","?","?","?","?","?","?","?","?","?","?","?","?","?","E","E","E","E","E","E","E","E","E","E","E","E","E","E","E","E","E","E","E","E","E","E","E","E","E","E","E","E","E","E","E","E","E","E","E","E","E","E","E","E","E","E","E","E","E","E","E","E","E","E","E","E","E","E","E","E","E","E","E","E","E","E","?","?","O","O","?","?","Y","Y","?","?","?","?","?","?","?","?","?","?","?","?","?","?","?","?","?","?","W","?","V","V","?","?","?","?","?","K","K","K","?","?","?","B","B","B","B","B","B","B","B","B","B","B","B","B","B","B","B","B","B","B","B","B","B","B","B","B","B","B","B","B","B","B","?","C","C","C","C","?","D","D","D","D","D","D","D","D","?","?","E","E","E","E","E","E","E","E","E","E","E","E","E","E","E","E","E","E","E","E","?","?","D","D","D","?","C","C","C","?","?","?","B","B","B","B","B","B","B","B","B","B","B","B","B","B","B","B","B","B","B","B","B","B","?","?","C","C","C","C","C","C","C","C","C","C","C","?","?","?","?","?","?","?","?","?","?","?","?","?","?","?","?","?","?","?","?","?","?","?","?","?","?","?","?","?","?","?","?","?","?","?","?","?","?","?","N","N","N","N","N","?","?","O","O","O","O","?","P","P","P","?","Q","Q","Q","Q","Q","Q","Q","Q","Q","Q","Q","Q","Q","Q","Q","Q","Q","Q","Q","Q","Q","Q","Q","Q","Q","Q","Q","Q","?","?","?","?","?","?","?","?","?","?","?","?","?","Q","Q","Q","?","P","P","?","?","?","?","?","?","?","?","?","?","?","?","?","?","?","?","?","?","?","V","?","?","?","?","?","?","?","?","L","L","L","L","L","L","?","?","?","?","M","M","M","M","?","?","?","?","?","?","?","V","V","?","U","U","U","U","U","U","U","U","U","?","?","T","T","T","T","T","T","T","T","T","T","T","T","T","T","T","T","T","T","T","T","T","T","T","T","T","T","T","T","T","T","T","T","T","T","T","T","T","T","T","T","T","T","T","T","T","T","T","T","T","T","T","T","T","T","T","T","T","T","T","T","T","T","T","T","T","T","T","T","T","T","T","T","T","T","T","T","T","T","T","T","T","T","T","T","T","T","T","T","T","T","T","T","?","U","U","U","U","U","?","?","?","?","?","?","?","?","?","?","?","?","M","M","M","M","M","M","M","M","M","M","M","M","M","M","M","M","M","M","M","?","?","?","?","?","?","?","?","?","?","?","?","?","?","?","?","?","?","?","D","D","D","D","D","D","D","D","D","D","D","?","C","C","C","C","C","C","C","C","?","?","?","?","?","?","M","M","?","?","?","N","N","N","N","N","?","O","O","O","?","P","P","P","P","P","P","P","?","?","?","?","Q","Q","Q","Q","Q","?","?","R","R","R","R","R","?","Q","?","?","?","?","?","?","U","?","?","?","T","T","T","T","T","T","T","T","T","T","S","S","S","S","S","S","S","S","S","S","S","S","S","S","S","S","S","S","S","S","S","S","S","S","S","S","S","S","S","S","S","S","S","S","S","S","S","S","S","S","S","S","S","S","S","S","S","T","T","T","?","?","U","U","?","?","?","?","?","?","?","?","?","?","?","?","?","?","?","?","?","?","?","?","?","?","?","N","N","N","N","N","N","N","N","N","?","?","?","?","?","N","N","?","?","?","?","?","?","?","C","?","B","B","?","A","A","A","A","A","A","A","A","A","A","A","A","A","A","A","A","A","A","A","A","A","A","A","A","A","A","A","A","A","A","A","A","A","A","A","A","A","A","A","A","A","A","A","A","A","A","B","B","B","?","C","C","C","C","?","?","D","D","D","D","D","D","D","D","D","D","D","D","D","D","D","D","D","D","?","?","?","?","?","?","?","?","?","?","E","E","E","E","E","E","E","E","E","E","E","E","E","E","E","E","E","E","E","E","E","E","E","E","E","E","E","E","E","E","E","E","E","E","E","E","E","E","E","E","E","E","E","E","E","E","E","E","E","E","?","?","?","O","O","O","?","?","?","?","?","?","Y","Y","Y","Y","Y","Y","Y","Y","?","?","Z","Z","Z","Z","Z","Z","Z","Z","Z","Z","Z","Z","Z","Z","Z","Z","Z","Z","Z","Z","Z","Z","Z","Z","Z","Z","Z","Z","Z","Z","Z","Z","Z","Z","Z","Z","Z","Z","Z","Z","Z","Z","Z","Z","Z","Z","Z","Z","?","Y","Y","?","?","?","?","?","?","?","N","N","N","N","?","?","?","?","?","?","?","?","?","?","?","?","?","?","?","?","?","E","E","E","E","E","E","E","E","E","E","E","E","E","E","E","E","E","E","E","E","E","E","E","E","E","E","E","E","E","E","E","E","E","E","E","E","E","E","E","E","E","E","E","E","E","E","E","E","E","?","D","D","D","D","?","C","C","C","C","C","C","C","C","C","C","C","C","C","C","C","?","?","B","B","B","B","B","B","B","B","B","B","B","B","B","B","B","B","B","B","B","B","B","B","B","B","B","B","B","B","B","B","B","B","B","B","B","B","B","B","B","B","B","B","B","B","B","B","B","B","B","B","B","B","B","B","B","B","B","B","B","B","B","B","B","?","C","C","?","?","?","?","N","N","?","?","?","?","?","?","?","?","?","?","O","O","O","O","O","O","?","?","?","?","?","?","?","?","?","?","?","?","?","?","?","?","?","X","X","X","X","?","?","W","W","W","?","V","V","V","V","V","V","V","V","V","?","U","U","U","U","U","U","U","?","?","?","?","?","?","?","L","L","M","?","?","?","G","G","?","?","?","?","?","?","?","?","?","?","?","?","?","?","?","?","?","?","?","?","?","?","?","?","?","?","?","?","?","?","?","?","?","?","?","?","?","?","?","?","?","?","?","?","?","?","P","P","P","P","P","P","P","P","P","P","P","P","P","P","P","P","P","P","P","?","Q","Q","Q","Q","Q","Q","Q","Q","?","?","R","R","R","R","R","R","R","R","R","R","R","R","R","R","R","R","R","R","R","R","R","R","R","R","R","?","Q","Q","P","?","O","N","?","M","?","?","?","?","?","?","?","?","?","?","?","?","?","?","?","?","?","?","?","?","?","?","?","?","?","?","?","?","?","?","?","?","?","?","?","?","?","?","?","?","?","?","?","?","?","?","?","?","?","?","?","?","?","?","?","?","?","?","?","?","?","?","?","?","?","?","?","?","?","?","?","?","?","?","?","?","?","?","?","?","?","?","?","?","?","?","?","?","?","?","?","?","?","?","?","?","?","?","?","?","?","?","?"],"t":[35,45,62,78,95,112,129,145,162,178,195,212,228,245,262,278,295,312,329,345,362,378,395,412,429,445,462,478,495,513,529,545,562,579,595,612,628,645,662,678,695,712,728,745,762,778,795,812,828,845,862,878,895,912,928,945,962,978,995,1012,1028,1045,1062,1078,1095,1112,1128,1145,1162,1178,1195,1212,1228,1245,1262,1278,1295,1312,1328,1345,1361,1378,1395,1412,1428,1445,1461,1478,1496,1511,1528,1545,1562,1578,1595,1612,1628,1645,1662,1678,1695,1712,1728,1745,1762,1778,1795,1812,1828,1845,1862,1878,1895,1912,1928,1945,1962,1978,1995,2012,2028,2045,2062,2078,2095,2112,2128,2147,2162,2178,2195,2212,2228,2245,2262,2278,2295,2312,2328,2345,2362,2378,2395,2412,2428,2445,2462,2478,2495,2512,2528,2545,2561,2578,2595,2612,2628,2645,2662,2678,2695,2712,2728,2745,2762,2778,2795,2812,2828,2845,2862,2878,2895,2911,2928,2945,2962,2978,2995,3012,3028,3045,3062,3078,3095,3112,3128,3145,3162,3178,3195,3212,3228,3245,3262,3278,3295,3311,3328,3345,3362,3378,3395,3412,3428,3445,3462,3479,3495,3512,3528,3545,3562,3578,3595,3612,3629,3645,3662,3678,3695,3712,3728,3745,3762,3778,3795,3812,3828,3845,3862,3879,3895,3912,3928,3945,3962,3978,3995,4011,4028,4045,4062,4078,4095,4112,4128,4145,4162,4178,4195,4212,4228,4245,4262,4279,4295,4312,4328,4345,4361,4378,4395,4411,4428,4445,4462,4478,4495,4512,4528,4545,4562,4578,4595,4612,4628,4645,4662,4678,4695,4712,4728,4745,4762,4779,4795,4812,4828,4845,4863,4878,4895,4912,4928,4945,4962,4978,4995,5012,5028,5045,5061,5078,5095,5112,5128,5145,5162,5178,5195,5212,5228,5245,5262,5278,5295,5312,5328,5345,5362,5378,5395,5412,5428,5445,5462,5478,5495,5512,5528,5545,5561,5578,5595,5611,5628,5645,5662,5678,5695,5711,5728,5745,5762,5778,5795,5812,5828,5845,5862,5878,5895,5912,5928,5945,5962,5978,5995,6012,6028,6045,6062,6078,6095,6111,6128,6145,6161,6178,6195,6212,6228,6245,6262,6278,6295,6312,6328,6345,6362,6378,6395,6412,6428,6445,6462,6478,6495,6512,6528,6545,6562,6578,6595,6612,6628,6645,6662,6679,6695,6712,6728,6745,6761,6778,6795,6812,6828,6845,6862,6879,6895,6912,6928,6945,6962,6978,6995,7012,7028,7045,7062,7078,7095,7111,7128,7145,7161,7178,7195,7212,7228,7245,7262,7278,7295,7312,7328,7345,7361,7378,7395,7412,7428,7445,7462,7478,7495,7511,7528,7545,7562,7578,7595,7612,7628,7645,7663,7678,7695,7712,7729,7745,7762,7779,7795,7812,7828,7845,7862,7878,7895,7912,7928,7945,7962,7978,7995,8012,8028,8045,8062,8078,8095,8112,8128,8145,8162,8178,8195,8211,8228,8245,8262,8278,8295,8312,8328,8345,8362,8378,8395,8412,8428,8445,8462,8478,8495,8512,8528,8545,8562,8578,8595,8611,8628,8645,8662,8678,8695,8711,8728,8745,8762,8778,8795,8811,8828,8845,8861,8878,8895,8911,8928,8945,8962,8978,8996,9012,9028,9045,9062,9078,9095,9112,9128,9145,9162,9178,9195,9212,9228,9245,9262,9278,9295,9312,9328,9345,9362,9378,9395,9412,9428,9445,9462,9478,9495,9511,9528,9545,9562,9578,9595,9612,9628,9645,9662,9678,9695,9711,9728,9745,9761,9778,9795,9811,9828,9845,9862,9878,9895,9911,9928,9945,9962,9978,9995,10012,10028,10045,10061,10078,10095,10111,10128,10145,10161,10178,10195,10212,10228,10245,10262,10279,10295,10312,10328,10345,10362,10378,10395,10412,10428,10445,10462,10478,10495,10512,10528,10545,10562,10578,10595,10612,10628,10645,10662,10678,10695,10712,10728,10745,10762,10778,10795,10812,10828,10845,10862,10878,10895,10912,10928,10945,10962,10978,10995,11012,11028,11045,11061,11078,11095,11112,11128,11145,11162,11178,11195,11211,11228,11245,11262,11278,11295,11312,11328,11345,11362,11378,11395,11412,11428,11445,11461,11478,11495,11512,11528,11545,11562,11578,11595,11612,11628,11645,11662,11678,11695,11712,11728,11745,11762,11778,11797,11812,11828,11845,11862,11878,11895,11912,11928,11945,11962,11978,11995,12012,12028,12045,12062,12078,12095,12112,12128,12145,12162,12178,12195,12212,12228,12245,12262,12278,12295,12312,12328,12345,12362,12378,12395,12412,12428,12445,12462,12478,12495,12512,12528,12545,12562,12578,12595,12611,12628,12645,12662,12678,12695,12712,12729,12745,12762,12778,12795,12812,12828,12845,12862,12878,12895,12912,12928,12945,12962,12978,12995,13011,13028,13045,13061,13078,13095,13112,13128,13145,13162,13178,13195,13212,13228,13245,13262,13278,13295,13311,13328,13345,13361,13378,13395,13412,13428,13445,13462,13478,13495,13513,13528,13545,13562,13578,13595,13611,13628,13645,13662,13678,13695,13712,13728,13745,13761,13778,13795,13812,13828,13845,13862,13878,13895,13912,13928,13945,13962,13978,13995,14012,14028,14045,14062,14078,14095,14112,14128,14145,14162,14178,14195,14212,14228,14245,14262,14278,14295,14311,14328,14345,14361,14378,14395,14412,14428,14445,14462,14479,14495,14512,14528,14545,14562,14578,14595,14612,14628,14645,14662,14678,14695,14712,14728,14745,14762,14778,14795,14812,14828,14845,14862,14878,14895,14912,14928,14945,14962,14978,14995,15012,15028,15045,15062,15078,15095,15112,15128,15145,15162,15178,15195,15212,15228,15245,15262,15278,15295,15312,15328,15345,15362,15379,15395,15412,15428,15445,15462,15478,15495,15512,15528,15545,15562,15578,15595,15612,15628,15645,15662,15678,15695,15712,15728,15745,15762,15778,15795,15812,15828,15845,15862,15878,15895,15912,15928,15945,15962,15978,15995,16012,16028,16045,16062,16078,16095,16112,16128,16145,16161,16178,16195,16212,16228,16245,16262,16278,16295,16311,16328,16345,16361,16378,16395,16411,16428,16445,16461,16478,16495,16512,16528,16545,16562,16578,16595,16611,16628,16645,16662,16678,16695,16711,16728,16745,16762,16778,16795,16812,16828,16845,16862,16878,16895,16912,16928,16945,16962,16978,16995,17012,17028,17045,17062,17078,17095,17111,17128,17145,17162,17178,17195,17212,17228,17245,17261,17278,17295,17311,17328,17345,17361,17378,17395,17412,17428,17445,17462,17478,17495,17511,17528,17545,17562,17578,17595,17611,17628,17645,17661,17678,17695,17712,17728,17745,17762,17778,17795,17812,17828,17845,17862,17878,17895,17912,17928,17945,17961,17978,17995,18011,18028,18045,18061,18078,18095,18112,18128,18145,18162,18178,18195,18211,18228,18245,18262,18278,18295,18312,18328,18345,18362,18378,18395,18412,18428,18445,18462,18478,18495,18512,18528,18545,18562,18578,18595,18611,18628,18645,18661,18678,18695,18712,18728,18745,18762,18778,18795,18811,18828,18845,18862,18878,18895,18911,18928,18945,18962,18978,18995,19011,19028,19045,19061,19078,19095,19112,19128,19145,19161,19178,19195,19211,19228,19245,19262,19278,19295,19312,19328,19345,19361,19378,19395,19411,19428,19445,19461,19478,19495,19512,19528,19545,19562,19578,19595,19612,19628,19645,19661,19678,19695,19711,19728,19745,19762,19778,19795,19812,19828,19845,19861,19878,19895,19912,19928,19945,19961,19978,19995,20012,20028,20045,20062,20078,20095,20111,20128,20145,20162,20178,20195,20211,20228,20245,20262,20278,20295,20311,20328,20345,20362,20378,20395,20412,20428,20445,20461,20478,20495,20511,20528,20545,20562,20578,20595,20612,20628,20645,20662,20678,20695,20712,20728,20745,20762,20778,20795,20811,20828,20845,20862,20878,20895,20912,20929,20945,20962,20978,20995,21012,21028,21045,21062,21078,21095,21112,21128,21145,21162,21178,21195,21212,21228,21245,21262,21278,21295,21312,21328,21345,21362,21378,21395,21412,21428,21445,21462,21478,21495,21512,21528,21545,21562,21578,21595,21612,21628,21645,21662,21678,21695,21712,21728,21745,21762,21778,21795,21812,21828,21845,21862,21878,21895,21912,21928,21945,21962,21978,21995,22012,22028,22045,22061,22078,22095,22112,22128,22145,22161,22178,22195,22211,22228,22245,22261,22278,22295,22311,22328,22345,22362,22378,22395,22412,22428,22445,22462,22478,22495,22512,22528,22545,22562,22578,22595,22611,22628,22645,22661,22678,22695,22712,22728,22745,22762,22778,22795,22812,22828,22845,22861,22878,22895,22912,22928,22945,22961,22978,22995,23011,23028,23045,23062,23078,23095,23112,23128,23145,23162,23178,23195,23212,23228,23245,23262,23278,23295,23312,23328,23345,23362,23378,23395,23411,23428,23445,23462,23478,23495,23511,23528,23545,23562,23578,23595,23612,23628,23645,23662,23678,23695,23712,23729,23745,23762,23778,23795,23812,23828,23845,23861,23878,23895,23912,23928,23945,23961,23978,23995,24012,24028,24045,24062,24078,24095,24112,24128,24145,24162,24178,24195,24212,24228,24245,24262,24278,24295,24312,24328,24345,24361,24378,24395,24412,24428,24445,24462,24478,24495,24512,24528,24545,24562,24578,24595,24611,24628,24645,24661,24678,24695,24712,24728,24745,24762,24778,24795,24812,24828,24845,24862,24878,24895,24912,24928,24945,24962,24978,24995,25012,25028,25045,25062,25078,25095,25112,25128,25145,25161,25178,25195,25211,25228,25245,25261,25278,25295,25311,25328,25345,25362,25378,25395,25412,25428,25445,25461,25478,25495,25512,25529],"hit":[null],"x":[-3.7823129251700682,-3.7823129251700682,0.047619047619047616,0.047619047619047616,0.047619047619047616,0.047619047619047616,0.047619047619047616,0.047619047619047616,0.047619047619047616,0.047619047619047616,0.047619047619047616,0.047619047619047616,0.047619047619047616,0.047619047619047616,0.047619047619047616,0.047619047619047616,0.047619047619047616,0.047619047619047616,0.047619047619047616,0.047619047619047616,0.047619047619047616,0.047619047619047616,0.047619047619047616,0.047619047619047616,0.05102040816326531,0.05782312925170068,0.06462585034013606,0.07142857142857142,0.0782312925170068,0.08843537414965986,0.09523809523809523,0.10884353741496598,0.12585034013605442,0.13945578231292516,0.16326530612244897,0.1870748299319728,0.2108843537414966,0.23809523809523808,0.2619047619047619,0.282312925170068,0.30952380952380953,0.3231292517006803,0.3435374149659864,0.35714285714285715,0.35714285714285715,0.35714285714285715,0.35714285714285715,0.35714285714285715,0.35714285714285715,0.35714285714285715,0.35714285714285715,0.35714285714285715,0.35714285714285715,0.35714285714285715,0.35714285714285715,0.35714285714285715,0.35714285714285715,0.35714285714285715,0.35714285714285715,0.35714285714285715,0.35714285714285715,0.35714285714285715,0.35714285714285715,0.35034013605442177,0.3469387755102041,0.35714285714285715,0.37755102040816324,0.391156462585034,0.4013605442176871,0.40816326530612246,0.4217687074829932,0.43537414965986393,0.4557823129251701,0.48299319727891155,0.5034013605442177,0.5238095238095238,0.5374149659863946,0.5476190476190477,0.5476190476190477,0.5476190476190477,0.5476190476190477,0.5476190476190477,0.5476190476190477,0.5476190476190477,0.5476190476190477,0.5476190476190477,0.5476190476190477,0.5476190476190477,0.5476190476190477,0.5476190476190477,0.5476190476190477,0.5476190476190477,0.5476190476190477,0.5476190476190477,0.5476190476190477,0.5476190476190477,0.5476190476190477,0.5476190476190477,0.54421768707483,0.54421768707483,0.54421768707483,0.54421768707483,0.54421768707483,0.5408163265306123,0.5408163265306123,0.5408163265306123,0.5408163265306123,0.5408163265306123,0.5408163265306123,0.5408163265306123,0.5408163265306123,0.5408163265306123,0.5408163265306123,0.5408163265306123,0.5408163265306123,0.5408163265306123,0.5408163265306123,0.5408163265306123,0.5408163265306123,0.5408163265306123,0.5408163265306123,0.5408163265306123,0.5408163265306123,0.5408163265306123,0.5408163265306123,0.5374149659863946,0.5374149659863946,0.5374149659863946,0.5374149659863946,0.5374149659863946,0.5374149659863946,0.5374149659863946,0.5340136054421769,0.5340136054421769,0.5306122448979592,0.5272108843537415,0.5272108843537415,0.5272108843537415,0.5272108843537415,0.5272108843537415,0.5272108843537415,0.5272108843537415,0.5272108843537415,0.5272108843537415,0.5272108843537415,0.5272108843537415,0.5272108843537415,0.5272108843537415,0.5272108843537415,0.5272108843537415,0.5272108843537415,0.5272108843537415,0.5272108843537415,0.5272108843537415,0.5272108843537415,0.5272108843537415,0.5272108843537415,0.5272108843537415,0.5272108843537415,0.5238095238095238,0.5238095238095238,0.5238095238095238,0.5238095238095238,0.5238095238095238,0.5238095238095238,0.5238095238095238,0.5238095238095238,0.5238095238095238,0.5238095238095238,0.5238095238095238,0.5238095238095238,0.5238095238095238,0.5238095238095238,0.5238095238095238,0.5238095238095238,0.5238095238095238,0.5238095238095238,0.5238095238095238,0.5238095238095238,0.5238095238095238,0.5238095238095238,0.5238095238095238,0.5238095238095238,0.5238095238095238,0.5238095238095238,0.5238095238095238,0.5238095238095238,0.5238095238095238,0.5238095238095238,0.5238095238095238,0.5238095238095238,0.5238095238095238,0.5238095238095238,0.5238095238095238,0.5238095238095238,0.5238095238095238,0.5238095238095238,0.5238095238095238,0.5238095238095238,0.5238095238095238,0.5306122448979592,0.5374149659863946,0.5510204081632653,0.564625850340136,0.5952380952380952,0.6326530612244898,0.6802721088435374,0.7244897959183674,0.7619047619047619,0.7925170068027211,0.826530612244898,0.8537414965986394,0.8809523809523809,0.9047619047619048,0.9149659863945578,0.9217687074829932,0.9217687074829932,0.9217687074829932,0.9217687074829932,0.9217687074829932,0.9217687074829932,0.9217687074829932,0.9183673469387755,0.9081632653061225,0.8945578231292517,0.8741496598639455,0.8469387755102041,0.8129251700680272,0.7619047619047619,0.7108843537414966,0.6530612244897959,0.5884353741496599,0.5170068027210885,0.4557823129251701,0.40476190476190477,0.36394557823129253,0.3299319727891156,0.29931972789115646,0.2619047619047619,0.22789115646258504,0.19727891156462585,0.16666666666666666,0.14625850340136054,0.1326530612244898,0.1292517006802721,0.12585034013605442,0.12585034013605442,0.12585034013605442,0.12585034013605442,0.12585034013605442,0.12585034013605442,0.1292517006802721,0.1326530612244898,0.1326530612244898,0.1360544217687075,0.13945578231292516,0.13945578231292516,0.13945578231292516,0.13945578231292516,0.13945578231292516,0.13945578231292516,0.13945578231292516,0.13945578231292516,0.13945578231292516,0.13945578231292516,0.13945578231292516,0.13945578231292516,0.13945578231292516,0.13945578231292516,0.13945578231292516,0.13945578231292516,0.13945578231292516,0.13945578231292516,0.14285714285714285,0.1564625850340136,0.16666666666666666,0.1836734693877551,0.20748299319727892,0.23469387755102042,0.2653061224489796,0.29931972789115646,0.3333333333333333,0.36054421768707484,0.3945578231292517,0.41836734693877553,0.43537414965986393,0.4523809523809524,0.45918367346938777,0.46598639455782315,0.47619047619047616,0.48639455782312924,0.4931972789115646,0.5068027210884354,0.5136054421768708,0.5238095238095238,0.5340136054421769,0.54421768707483,0.5544217687074829,0.564625850340136,0.5714285714285714,0.5782312925170068,0.5782312925170068,0.5782312925170068,0.5782312925170068,0.5782312925170068,0.5782312925170068,0.5782312925170068,0.5782312925170068,0.5782312925170068,0.5748299319727891,0.5612244897959183,0.5476190476190477,0.5306122448979592,0.5170068027210885,0.4965986394557823,0.46938775510204084,0.43537414965986393,0.3979591836734694,0.35714285714285715,0.3129251700680272,0.2755102040816326,0.25170068027210885,0.22789115646258504,0.21428571428571427,0.20068027210884354,0.1870748299319728,0.17346938775510204,0.16326530612244897,0.15306122448979592,0.14625850340136054,0.14625850340136054,0.14625850340136054,0.14625850340136054,0.14625850340136054,0.14625850340136054,0.14625850340136054,0.14625850340136054,0.14625850340136054,0.14625850340136054,0.14625850340136054,0.14625850340136054,0.14965986394557823,0.15306122448979592,0.1598639455782313,0.17006802721088435,0.1836734693877551,0.19727891156462585,0.2108843537414966,0.22448979591836735,0.23469387755102042,0.24489795918367346,0.25510204081632654,0.2619047619047619,0.272108843537415,0.282312925170068,0.2891156462585034,0.29591836734693877,0.30612244897959184,0.30952380952380953,0.3163265306122449,0.3197278911564626,0.3231292517006803,0.32653061224489793,0.3299319727891156,0.3333333333333333,0.3333333333333333,0.336734693877551,0.336734693877551,0.336734693877551,0.3401360544217687,0.3401360544217687,0.3469387755102041,0.35034013605442177,0.35374149659863946,0.35714285714285715,0.36394557823129253,0.3673469387755102,0.3741496598639456,0.37755102040816324,0.38095238095238093,0.3877551020408163,0.391156462585034,0.3945578231292517,0.4013605442176871,0.40816326530612246,0.41496598639455784,0.41836734693877553,0.42857142857142855,0.43537414965986393,0.4421768707482993,0.4489795918367347,0.4557823129251701,0.46258503401360546,0.47619047619047616,0.4897959183673469,0.5,0.5170068027210885,0.5306122448979592,0.5408163265306123,0.5578231292517006,0.5714285714285714,0.5850340136054422,0.5986394557823129,0.6122448979591837,0.6292517006802721,0.6496598639455783,0.6700680272108843,0.6904761904761905,0.7210884353741497,0.7482993197278912,0.7857142857142857,0.8163265306122449,0.8605442176870748,0.8979591836734694,0.9285714285714286,0.9591836734693877,0.9795918367346939,1,1.0136054421768708,1.0272108843537415,1.034013605442177,1.0374149659863945,1.0442176870748299,1.0442176870748299,1.0476190476190477,1.0476190476190477,1.0476190476190477,1.0476190476190477,1.0476190476190477,1.0476190476190477,1.0476190476190477,1.0476190476190477,1.0476190476190477,1.0476190476190477,1.0476190476190477,1.0510204081632653,1.0510204081632653,1.0510204081632653,1.0510204081632653,1.0510204081632653,1.054421768707483,1.054421768707483,1.0578231292517006,1.064625850340136,1.0714285714285714,1.0714285714285714,1.0748299319727892,1.0748299319727892,1.0748299319727892,1.0748299319727892,1.0748299319727892,1.0748299319727892,1.0748299319727892,1.0748299319727892,1.0748299319727892,1.0680272108843538,1.054421768707483,1.0272108843537415,0.9863945578231292,0.9489795918367347,0.891156462585034,0.8435374149659864,0.7993197278911565,0.7619047619047619,0.7380952380952381,0.7210884353741497,0.7040816326530612,0.6904761904761905,0.6802721088435374,0.6666666666666666,0.6564625850340136,0.6428571428571429,0.6360544217687075,0.6224489795918368,0.6122448979591837,0.5952380952380952,0.5816326530612245,0.5612244897959183,0.5374149659863946,0.5102040816326531,0.47619047619047616,0.445578231292517,0.40816326530612246,0.3707482993197279,0.3401360544217687,0.3231292517006803,0.3129251700680272,0.30612244897959184,0.30612244897959184,0.30612244897959184,0.30612244897959184,0.30612244897959184,0.30952380952380953,0.3129251700680272,0.3231292517006803,0.336734693877551,0.3435374149659864,0.35374149659863946,0.36054421768707484,0.3673469387755102,0.38095238095238093,0.3979591836734694,0.4217687074829932,0.4523809523809524,0.47959183673469385,0.5,0.5136054421768708,0.5204081632653061,0.5204081632653061,0.5136054421768708,0.4931972789115646,0.4489795918367347,0.4013605442176871,0.35374149659863946,0.30272108843537415,0.2687074829931973,0.25170068027210885,0.24829931972789115,0.24829931972789115,0.24829931972789115,0.24829931972789115,0.24149659863945577,0.23809523809523808,0.22448979591836735,0.21428571428571427,0.20068027210884354,0.19047619047619047,0.18027210884353742,0.17687074829931973,0.17006802721088435,0.17006802721088435,0.16666666666666666,0.16666666666666666,0.16666666666666666,0.16666666666666666,0.16326530612244897,0.16326530612244897,0.1598639455782313,0.1564625850340136,0.1564625850340136,0.1564625850340136,0.1564625850340136,0.1564625850340136,0.1564625850340136,0.1564625850340136,0.1564625850340136,0.1564625850340136,0.1564625850340136,0.1564625850340136,0.1564625850340136,0.1564625850340136,0.1564625850340136,0.1564625850340136,0.1564625850340136,0.1564625850340136,0.1564625850340136,0.1564625850340136,0.1564625850340136,0.1564625850340136,0.1564625850340136,0.1564625850340136,0.1564625850340136,0.1564625850340136,0.1564625850340136,0.1564625850340136,0.1564625850340136,0.1564625850340136,0.1564625850340136,0.1564625850340136,0.1564625850340136,0.1564625850340136,0.1564625850340136,0.1564625850340136,0.1564625850340136,0.1564625850340136,0.1564625850340136,0.1564625850340136,0.1564625850340136,0.1564625850340136,0.1564625850340136,0.1564625850340136,0.1564625850340136,0.1564625850340136,0.1564625850340136,0.1564625850340136,0.1564625850340136,0.1564625850340136,0.1564625850340136,0.1564625850340136,0.1564625850340136,0.1564625850340136,0.1564625850340136,0.1564625850340136,0.1564625850340136,0.1564625850340136,0.1564625850340136,0.1564625850340136,0.1564625850340136,0.1564625850340136,0.1564625850340136,0.1564625850340136,0.1564625850340136,0.1564625850340136,0.1564625850340136,0.1564625850340136,0.1564625850340136,0.1564625850340136,0.1564625850340136,0.1564625850340136,0.1564625850340136,0.1564625850340136,0.1564625850340136,0.1564625850340136,0.1598639455782313,0.16326530612244897,0.18027210884353742,0.1836734693877551,0.21768707482993196,0.23469387755102042,0.2585034013605442,0.2789115646258503,0.29591836734693877,0.30952380952380953,0.3197278911564626,0.336734693877551,0.3469387755102041,0.36054421768707484,0.3707482993197279,0.37755102040816324,0.38095238095238093,0.3843537414965986,0.3877551020408163,0.3877551020408163,0.3877551020408163,0.3877551020408163,0.3877551020408163,0.3877551020408163,0.3877551020408163,0.3877551020408163,0.3877551020408163,0.3877551020408163,0.3877551020408163,0.3877551020408163,0.3877551020408163,0.391156462585034,0.3945578231292517,0.4013605442176871,0.40476190476190477,0.41156462585034015,0.41836734693877553,0.4217687074829932,0.42517006802721086,0.42857142857142855,0.42857142857142855,0.43197278911564624,0.43197278911564624,0.43537414965986393,0.43537414965986393,0.43537414965986393,0.4387755102040816,0.4387755102040816,0.4387755102040816,0.4387755102040816,0.4421768707482993,0.445578231292517,0.445578231292517,0.445578231292517,0.445578231292517,0.445578231292517,0.445578231292517,0.445578231292517,0.445578231292517,0.445578231292517,0.4387755102040816,0.43537414965986393,0.43537414965986393,0.43197278911564624,0.43197278911564624,0.42857142857142855,0.42517006802721086,0.41836734693877553,0.40816326530612246,0.3945578231292517,0.38095238095238093,0.35714285714285715,0.3299319727891156,0.29931972789115646,0.2755102040816326,0.25510204081632654,0.24489795918367346,0.24149659863945577,0.23809523809523808,0.23469387755102042,0.23469387755102042,0.23469387755102042,0.25170068027210885,0.2789115646258503,0.3299319727891156,0.37755102040816324,0.42517006802721086,0.46258503401360546,0.48299319727891155,0.4965986394557823,0.5102040816326531,0.5238095238095238,0.5408163265306123,0.5680272108843537,0.5884353741496599,0.6190476190476191,0.6462585034013606,0.6836734693877551,0.7346938775510204,0.7687074829931972,0.7925170068027211,0.8129251700680272,0.826530612244898,0.8401360544217688,0.8571428571428571,0.8741496598639455,0.8945578231292517,0.9115646258503401,0.9217687074829932,0.9285714285714286,0.9319727891156463,0.9387755102040817,0.9523809523809523,0.9659863945578231,0.9863945578231292,1.010204081632653,1.0374149659863945,1.0612244897959184,1.0816326530612246,1.08843537414966,1.08843537414966,1.08843537414966,1.08843537414966,1.08843537414966,1.0612244897959184,1.010204081632653,0.9081632653061225,0.782312925170068,0.6428571428571429,0.4931972789115646,0.4013605442176871,0.3299319727891156,0.2687074829931973,0.23129251700680273,0.2108843537414966,0.19727891156462585,0.1870748299319728,0.18027210884353742,0.16666666666666666,0.1564625850340136,0.14965986394557823,0.14285714285714285,0.14285714285714285,0.1360544217687075,0.11904761904761904,0.09523809523809523,0.05442176870748299,0.02040816326530612,0,-0.01020408163265306,-0.01020408163265306,-0.01020408163265306,-0.01020408163265306,-0.01020408163265306,-0.01020408163265306,-0.01020408163265306,-0.01020408163265306,-0.01020408163265306,-0.01020408163265306,-0.01020408163265306,-0.01020408163265306,-0.01020408163265306,-0.01020408163265306,-0.013605442176870748,-0.013605442176870748,-0.013605442176870748,-0.013605442176870748,-0.013605442176870748,-0.013605442176870748,-0.013605442176870748,-0.013605442176870748,-0.013605442176870748,-0.013605442176870748,-0.013605442176870748,-0.013605442176870748,-0.013605442176870748,-0.013605442176870748,-0.013605442176870748,-0.013605442176870748,-0.013605442176870748,-0.013605442176870748,-0.013605442176870748,-0.013605442176870748,-0.013605442176870748,-0.013605442176870748,-0.013605442176870748,-0.013605442176870748,-0.013605442176870748,-0.013605442176870748,-0.006802721088435374,0.003401360544217687,0.027210884353741496,0.05782312925170068,0.09183673469387756,0.1326530612244898,0.17346938775510204,0.21428571428571427,0.25170068027210885,0.2789115646258503,0.29931972789115646,0.3231292517006803,0.3401360544217687,0.35374149659863946,0.3707482993197279,0.38095238095238093,0.391156462585034,0.3945578231292517,0.3979591836734694,0.3979591836734694,0.3979591836734694,0.4013605442176871,0.40476190476190477,0.40816326530612246,0.41156462585034015,0.41496598639455784,0.4217687074829932,0.42857142857142855,0.4387755102040816,0.4489795918367347,0.46598639455782315,0.47959183673469385,0.4965986394557823,0.5170068027210885,0.5340136054421769,0.5476190476190477,0.5612244897959183,0.5748299319727891,0.5884353741496599,0.6020408163265306,0.6122448979591837,0.6190476190476191,0.6258503401360545,0.6292517006802721,0.6292517006802721,0.6292517006802721,0.6292517006802721,0.6224489795918368,0.6020408163265306,0.5782312925170068,0.5374149659863946,0.4965986394557823,0.4557823129251701,0.41496598639455784,0.38095238095238093,0.3469387755102041,0.30952380952380953,0.2687074829931973,0.22108843537414966,0.16326530612244897,0.11904761904761904,0.07482993197278912,0.04421768707482993,0.013605442176870748,-0.017006802721088437,-0.03741496598639456,-0.05102040816326531,-0.05442176870748299,-0.05442176870748299,-0.05442176870748299,-0.05442176870748299,-0.05442176870748299,-0.05442176870748299,-0.05442176870748299,-0.05442176870748299,-0.05442176870748299,-0.04081632653061224,-0.027210884353741496,-0.013605442176870748,-0.006802721088435374,-0.006802721088435374,-0.006802721088435374,-0.006802721088435374,-0.006802721088435374,-0.006802721088435374,-0.006802721088435374,-0.006802721088435374,-0.006802721088435374,-0.006802721088435374,-0.006802721088435374,-0.006802721088435374,-0.006802721088435374,-0.006802721088435374,-0.006802721088435374,-0.006802721088435374,-0.006802721088435374,-0.006802721088435374,-0.006802721088435374,-0.006802721088435374,-0.006802721088435374,-0.006802721088435374,-0.006802721088435374,-0.006802721088435374,-0.006802721088435374,-0.003401360544217687,0.006802721088435374,0.023809523809523808,0.05102040816326531,0.08503401360544217,0.1292517006802721,0.17006802721088435,0.2108843537414966,0.25170068027210885,0.282312925170068,0.30952380952380953,0.3333333333333333,0.35034013605442177,0.3673469387755102,0.3843537414965986,0.4013605442176871,0.41496598639455784,0.4217687074829932,0.42517006802721086,0.42857142857142855,0.42857142857142855,0.42857142857142855,0.42857142857142855,0.42857142857142855,0.42857142857142855,0.43197278911564624,0.43537414965986393,0.4421768707482993,0.4489795918367347,0.4557823129251701,0.46258503401360546,0.46938775510204084,0.47278911564625853,0.48299319727891155,0.4897959183673469,0.4965986394557823,0.5068027210884354,0.5102040816326531,0.5136054421768708,0.5136054421768708,0.5136054421768708,0.5136054421768708,0.5204081632653061,0.5204081632653061,0.5272108843537415,0.5272108843537415,0.5306122448979592,0.5340136054421769,0.5340136054421769,0.5340136054421769,0.5374149659863946,0.5374149659863946,0.5408163265306123,0.5408163265306123,0.54421768707483,0.5476190476190477,0.5510204081632653,0.5510204081632653,0.5510204081632653,0.5510204081632653,0.5510204081632653,0.5510204081632653,0.5510204081632653,0.5544217687074829,0.5544217687074829,0.5578231292517006,0.5578231292517006,0.5612244897959183,0.564625850340136,0.564625850340136,0.564625850340136,0.564625850340136,0.564625850340136,0.5680272108843537,0.5680272108843537,0.5680272108843537,0.5680272108843537,0.5680272108843537,0.5680272108843537,0.5680272108843537,0.5680272108843537,0.5680272108843537,0.5680272108843537,0.5680272108843537,0.5680272108843537,0.5680272108843537,0.5680272108843537,0.5714285714285714,0.5714285714285714,0.5782312925170068,0.5850340136054422,0.5952380952380952,0.608843537414966,0.6360544217687075,0.6700680272108843,0.7040816326530612,0.7346938775510204,0.7619047619047619,0.7891156462585034,0.8061224489795918,0.8163265306122449,0.8231292517006803,0.826530612244898,0.8299319727891157,0.8367346938775511,0.8435374149659864,0.8537414965986394,0.8639455782312925,0.8707482993197279,0.8809523809523809,0.891156462585034,0.9013605442176871,0.9149659863945578,0.935374149659864,0.9489795918367347,0.95578231292517,0.9625850340136054,0.9659863945578231,0.9693877551020408,0.9693877551020408,0.9727891156462585,0.9795918367346939,0.9795918367346939,0.9795918367346939,0.9829931972789115,0.9829931972789115,0.9829931972789115,0.9829931972789115,0.9829931972789115,0.9829931972789115,0.9829931972789115,0.9829931972789115,0.9829931972789115,0.9829931972789115,0.9829931972789115,0.9863945578231292,0.9863945578231292,0.9863945578231292,0.9863945578231292,0.9829931972789115,0.9829931972789115,0.9829931972789115,0.9829931972789115,0.9829931972789115,0.9829931972789115,0.9829931972789115,0.9829931972789115,0.9829931972789115,0.9829931972789115,0.9829931972789115,0.9829931972789115,0.9829931972789115,0.9829931972789115,0.9829931972789115,0.9829931972789115,0.9829931972789115,0.9829931972789115,0.9829931972789115,0.9829931972789115,0.9761904761904762,0.9693877551020408,0.95578231292517,0.9285714285714286,0.8979591836734694,0.8537414965986394,0.8095238095238095,0.7755102040816326,0.7414965986394558,0.7108843537414966,0.6836734693877551,0.6598639455782312,0.6360544217687075,0.608843537414966,0.5816326530612245,0.5578231292517006,0.5408163265306123,0.5238095238095238,0.5102040816326531,0.4965986394557823,0.48639455782312924,0.47619047619047616,0.47278911564625853,0.46938775510204084,0.46938775510204084,0.46938775510204084,0.46938775510204084,0.46938775510204084,0.46938775510204084,0.47278911564625853,0.48299319727891155,0.4931972789115646,0.5034013605442177,0.5170068027210885,0.5272108843537415,0.5306122448979592,0.5340136054421769,0.5340136054421769,0.5374149659863946,0.5374149659863946,0.5374149659863946,0.5374149659863946,0.5408163265306123,0.5408163265306123,0.5408163265306123,0.5408163265306123,0.5408163265306123,0.5408163265306123,0.5408163265306123,0.5408163265306123,0.5408163265306123,0.5408163265306123,0.5408163265306123,0.5408163265306123,0.5408163265306123,0.5408163265306123,0.5408163265306123,0.5408163265306123,0.5408163265306123,0.5408163265306123,0.5408163265306123,0.5408163265306123,0.5408163265306123,0.5408163265306123,0.54421768707483,0.5476190476190477,0.5510204081632653,0.5510204081632653,0.5510204081632653,0.5510204081632653,0.5510204081632653,0.5510204081632653,0.5544217687074829,0.5578231292517006,0.5578231292517006,0.5578231292517006,0.5578231292517006,0.5578231292517006,0.5578231292517006,0.5578231292517006,0.5578231292517006,0.5476190476190477,0.5272108843537415,0.4965986394557823,0.46258503401360546,0.43537414965986393,0.40816326530612246,0.38095238095238093,0.35714285714285715,0.3333333333333333,0.3129251700680272,0.29591836734693877,0.2857142857142857,0.2857142857142857,0.2857142857142857,0.2857142857142857,0.2857142857142857,0.2857142857142857,0.2857142857142857,0.2857142857142857,0.282312925170068,0.272108843537415,0.2585034013605442,0.24489795918367346,0.22108843537414966,0.20748299319727892,0.19387755102040816,0.1870748299319728,0.1836734693877551,0.1836734693877551,0.1836734693877551,0.1836734693877551,0.1836734693877551,0.1836734693877551,0.18027210884353742,0.18027210884353742,0.18027210884353742,0.18027210884353742,0.18027210884353742,0.18027210884353742,0.18027210884353742,0.18027210884353742,0.18027210884353742,0.18027210884353742,0.18027210884353742,0.18027210884353742,0.18027210884353742,0.18027210884353742,0.18027210884353742,0.18027210884353742,0.18027210884353742,0.18027210884353742,0.18027210884353742,0.18027210884353742,0.17687074829931973,0.17346938775510204,0.17006802721088435,0.1598639455782313,0.1564625850340136,0.15306122448979592,0.15306122448979592,0.15306122448979592,0.15306122448979592,0.15306122448979592,0.15306122448979592,0.15306122448979592,0.15306122448979592,0.15306122448979592,0.14965986394557823,0.14965986394557823,0.14965986394557823,0.14965986394557823,0.14965986394557823,0.14965986394557823,0.14965986394557823,0.14965986394557823,0.14965986394557823,0.14965986394557823,0.14965986394557823,0.14965986394557823,0.14965986394557823,0.14965986394557823,0.14965986394557823,0.14965986394557823,0.14965986394557823,0.15306122448979592,0.1598639455782313,0.17006802721088435,0.1870748299319728,0.2108843537414966,0.25170068027210885,0.29591836734693877,0.35034013605442177,0.41836734693877553,0.46598639455782315,0.5204081632653061,0.5612244897959183,0.5884353741496599,0.608843537414966,0.6156462585034014,0.6190476190476191,0.6190476190476191,0.6190476190476191,0.6190476190476191,0.6224489795918368,0.6292517006802721,0.6394557823129252,0.6530612244897959,0.6700680272108843,0.6904761904761905,0.7108843537414966,0.7312925170068028,0.7482993197278912,0.7687074829931972,0.7789115646258503,0.7857142857142857,0.7857142857142857,0.7857142857142857,0.7857142857142857,0.7857142857142857,0.7857142857142857,0.7857142857142857,0.7857142857142857,0.7857142857142857,0.7857142857142857,0.7755102040816326,0.7653061224489796,0.7551020408163265,0.7482993197278912,0.7414965986394558,0.7346938775510204,0.7278911564625851,0.717687074829932,0.7040816326530612,0.6904761904761905,0.6666666666666666,0.6360544217687075,0.6020408163265306,0.5578231292517006,0.5238095238095238,0.5,0.47959183673469385,0.46938775510204084,0.45918367346938777,0.4523809523809524,0.445578231292517,0.43197278911564624,0.41156462585034015,0.3945578231292517,0.3741496598639456,0.35374149659863946,0.3401360544217687,0.32653061224489793,0.3163265306122449,0.30612244897959184,0.2925170068027211,0.2789115646258503,0.2585034013605442,0.24149659863945577,0.22448979591836735,0.21768707482993196,0.21428571428571427,0.21428571428571427,0.21768707482993196,0.23469387755102042,0.2619047619047619,0.3197278911564626,0.4013605442176871,0.5272108843537415,0.6496598639455783,0.7448979591836735,0.8299319727891157,0.8741496598639455,0.9013605442176871,0.9047619047619048,0.9047619047619048,0.9047619047619048,0.9047619047619048,0.9047619047619048,0.9047619047619048,0.9047619047619048,0.9081632653061225,0.9081632653061225,0.9081632653061225,0.9081632653061225,0.9081632653061225,0.9081632653061225,0.9081632653061225,0.9081632653061225,0.9081632653061225,0.9081632653061225,0.9081632653061225,0.9081632653061225,0.9081632653061225,0.9115646258503401,0.9149659863945578,0.9183673469387755,0.9183673469387755,0.9217687074829932,0.9251700680272109,0.9251700680272109,0.9251700680272109,0.9251700680272109,0.9217687074829932,0.9081632653061225,0.891156462585034,0.8707482993197279,0.8537414965986394,0.8401360544217688,0.8299319727891157,0.826530612244898,0.826530612244898,0.826530612244898,0.826530612244898,0.826530612244898,0.826530612244898,0.826530612244898,0.826530612244898,0.826530612244898,0.826530612244898,0.826530612244898,0.826530612244898,0.8299319727891157,0.8299319727891157,0.8299319727891157,0.8299319727891157,0.8299319727891157,0.826530612244898,0.8231292517006803,0.8231292517006803,0.8231292517006803,0.8231292517006803,0.8231292517006803,0.8231292517006803,0.8231292517006803,0.8367346938775511,0.8537414965986394,0.8877551020408163,0.9217687074829932,0.9523809523809523,0.9761904761904762,0.9863945578231292,0.9897959183673469,0.9965986394557823,1.0034013605442176,1.0170068027210883,1.0374149659863945,1.0612244897959184,1.0816326530612246,1.098639455782313,1.1156462585034013,1.1258503401360545,1.1360544217687074,1.1462585034013606,1.1496598639455782,1.153061224489796,1.153061224489796,1.153061224489796,1.153061224489796,1.153061224489796,1.153061224489796,1.1564625850340136,1.1564625850340136,1.1564625850340136,1.1564625850340136,1.1564625850340136,1.1564625850340136,1.1564625850340136,1.153061224489796,1.1496598639455782,1.1462585034013606,1.1394557823129252,1.1258503401360545,1.1054421768707483,1.0782312925170068,1.0238095238095237,0.9625850340136054,0.8843537414965986,0.7925170068027211,0.6904761904761905,0.5816326530612245,0.5,0.41836734693877553,0.35714285714285715,0.3163265306122449,0.2857142857142857,0.2687074829931973,0.2619047619047619,0.2619047619047619,0.2619047619047619,0.2619047619047619,0.2619047619047619,0.2619047619047619,0.2619047619047619,0.2619047619047619,0.2619047619047619,0.2619047619047619,0.2619047619047619,0.2619047619047619,0.2619047619047619,0.2619047619047619,0.2619047619047619,0.2619047619047619,0.2619047619047619,0.2619047619047619,0.2619047619047619,0.2619047619047619,0.2619047619047619,0.2619047619047619,0.2619047619047619,0.2585034013605442,0.2585034013605442,0.2585034013605442,0.2585034013605442,0.2585034013605442,0.2585034013605442,0.2585034013605442,0.2585034013605442,0.2585034013605442,0.2585034013605442,0.25510204081632654,0.25510204081632654,0.25510204081632654,0.25510204081632654,0.25510204081632654,0.25510204081632654,0.25510204081632654,0.25510204081632654,0.25510204081632654,0.25510204081632654,0.25510204081632654,0.25510204081632654,0.25510204081632654,0.25510204081632654,0.25510204081632654,0.25510204081632654,0.25510204081632654,0.25510204081632654,0.25510204081632654,0.25510204081632654,0.25510204081632654,0.25510204081632654,0.25510204081632654,0.25510204081632654,0.25510204081632654,0.2585034013605442,0.2619047619047619,0.2653061224489796,0.272108843537415,0.2755102040816326,0.282312925170068,0.2857142857142857,0.2925170068027211,0.29931972789115646,0.30272108843537415,0.30612244897959184,0.30612244897959184,0.30612244897959184,0.30612244897959184,0.30612244897959184,0.30612244897959184,0.30612244897959184,0.30612244897959184,0.30612244897959184,0.30612244897959184,0.30612244897959184,0.30612244897959184,0.30612244897959184,0.30612244897959184,0.30612244897959184,0.30612244897959184,0.30612244897959184,0.30612244897959184,0.30612244897959184,0.30612244897959184,0.30612244897959184,0.30612244897959184,0.30612244897959184,0.30612244897959184,0.30612244897959184,0.30612244897959184,0.30612244897959184,0.30612244897959184,0.30612244897959184,0.30612244897959184,0.30612244897959184],"y":[-4.285714285714286,-4.285714285714286,0.6238095238095238,0.6238095238095238,0.6238095238095238,0.6238095238095238,0.6238095238095238,0.6238095238095238,0.6238095238095238,0.6238095238095238,0.6238095238095238,0.6238095238095238,0.6238095238095238,0.6238095238095238,0.6238095238095238,0.6238095238095238,0.6238095238095238,0.6238095238095238,0.6238095238095238,0.6238095238095238,0.6238095238095238,0.6238095238095238,0.6238095238095238,0.6142857142857143,0.5952380952380952,0.5761904761904761,0.5476190476190477,0.5190476190476191,0.49047619047619045,0.46190476190476193,0.43333333333333335,0.38571428571428573,0.3476190476190476,0.3,0.23333333333333334,0.1761904761904762,0.10952380952380952,0.014285714285714285,-0.05238095238095238,-0.10952380952380952,-0.15714285714285714,-0.1761904761904762,-0.1761904761904762,-0.1761904761904762,-0.1761904761904762,-0.1761904761904762,-0.1761904761904762,-0.1761904761904762,-0.1761904761904762,-0.1761904761904762,-0.1761904761904762,-0.1761904761904762,-0.1761904761904762,-0.1761904761904762,-0.1761904761904762,-0.1761904761904762,-0.1761904761904762,-0.1761904761904762,-0.1761904761904762,-0.1761904761904762,-0.1761904761904762,-0.1761904761904762,-0.16666666666666666,-0.15714285714285714,-0.15714285714285714,-0.15714285714285714,-0.18571428571428572,-0.20476190476190476,-0.22380952380952382,-0.23333333333333334,-0.2523809523809524,-0.28095238095238095,-0.319047619047619,-0.3761904761904762,-0.4238095238095238,-0.4714285714285714,-0.5095238095238095,-0.5190476190476191,-0.5285714285714286,-0.5285714285714286,-0.5285714285714286,-0.5285714285714286,-0.5285714285714286,-0.5285714285714286,-0.5285714285714286,-0.5285714285714286,-0.5285714285714286,-0.5285714285714286,-0.5285714285714286,-0.5285714285714286,-0.5285714285714286,-0.5285714285714286,-0.5285714285714286,-0.5190476190476191,-0.5190476190476191,-0.5095238095238095,-0.5,-0.5,-0.5,-0.5,-0.49047619047619045,-0.49047619047619045,-0.49047619047619045,-0.48095238095238096,-0.48095238095238096,-0.48095238095238096,-0.48095238095238096,-0.48095238095238096,-0.48095238095238096,-0.48095238095238096,-0.48095238095238096,-0.48095238095238096,-0.48095238095238096,-0.48095238095238096,-0.48095238095238096,-0.48095238095238096,-0.48095238095238096,-0.48095238095238096,-0.4714285714285714,-0.4714285714285714,-0.46190476190476193,-0.46190476190476193,-0.46190476190476193,-0.4523809523809524,-0.4523809523809524,-0.44285714285714284,-0.44285714285714284,-0.44285714285714284,-0.44285714285714284,-0.44285714285714284,-0.43333333333333335,-0.4238095238095238,-0.3952380952380952,-0.3761904761904762,-0.3476190476190476,-0.30952380952380953,-0.2714285714285714,-0.23333333333333334,-0.20476190476190476,-0.16666666666666666,-0.14761904761904762,-0.12857142857142856,-0.11904761904761904,-0.10952380952380952,-0.1,-0.09047619047619047,-0.09047619047619047,-0.09047619047619047,-0.09047619047619047,-0.09047619047619047,-0.09047619047619047,-0.09047619047619047,-0.09047619047619047,-0.09047619047619047,-0.09047619047619047,-0.09047619047619047,-0.09047619047619047,-0.09047619047619047,-0.09047619047619047,-0.09047619047619047,-0.09047619047619047,-0.09047619047619047,-0.09047619047619047,-0.09047619047619047,-0.09047619047619047,-0.09047619047619047,-0.09047619047619047,-0.09047619047619047,-0.09047619047619047,-0.09047619047619047,-0.08095238095238096,-0.08095238095238096,-0.08095238095238096,-0.08095238095238096,-0.08095238095238096,-0.07142857142857142,-0.07142857142857142,-0.07142857142857142,-0.07142857142857142,-0.07142857142857142,-0.07142857142857142,-0.07142857142857142,-0.07142857142857142,-0.07142857142857142,-0.07142857142857142,-0.07142857142857142,-0.07142857142857142,-0.07142857142857142,-0.07142857142857142,-0.07142857142857142,-0.07142857142857142,-0.07142857142857142,-0.07142857142857142,-0.07142857142857142,-0.07142857142857142,-0.07142857142857142,-0.07142857142857142,-0.07142857142857142,-0.07142857142857142,-0.07142857142857142,-0.05238095238095238,-0.05238095238095238,-0.03333333333333333,-0.004761904761904762,0.06190476190476191,0.14761904761904762,0.2523809523809524,0.38571428571428573,0.5190476190476191,0.6523809523809524,0.8238095238095238,0.9857142857142858,1.119047619047619,1.223809523809524,1.2714285714285714,1.2904761904761906,1.3,1.3,1.3,1.3,1.3,1.3095238095238095,1.3095238095238095,1.319047619047619,1.319047619047619,1.3285714285714285,1.3285714285714285,1.319047619047619,1.3,1.2619047619047619,1.2142857142857142,1.1571428571428573,1.0904761904761904,1.0238095238095237,0.9666666666666667,0.9,0.8523809523809524,0.7857142857142857,0.7095238095238096,0.6333333333333333,0.5476190476190477,0.46190476190476193,0.38571428571428573,0.319047619047619,0.24285714285714285,0.18571428571428572,0.14761904761904762,0.10952380952380952,0.08095238095238096,0.04285714285714286,0.004761904761904762,-0.03333333333333333,-0.06190476190476191,-0.08095238095238096,-0.09047619047619047,-0.10952380952380952,-0.10952380952380952,-0.10952380952380952,-0.10952380952380952,-0.10952380952380952,-0.10952380952380952,-0.10952380952380952,-0.10952380952380952,-0.10952380952380952,-0.10952380952380952,-0.10952380952380952,-0.10952380952380952,-0.10952380952380952,-0.10952380952380952,-0.1,-0.09047619047619047,-0.08095238095238096,-0.06190476190476191,-0.05238095238095238,-0.05238095238095238,-0.04285714285714286,-0.03333333333333333,-0.023809523809523808,-0.023809523809523808,-0.023809523809523808,-0.004761904761904762,-0.004761904761904762,-0.004761904761904762,0.004761904761904762,0.014285714285714285,0.014285714285714285,0.014285714285714285,0.014285714285714285,0.014285714285714285,0.023809523809523808,0.023809523809523808,0.023809523809523808,0.03333333333333333,0.03333333333333333,0.04285714285714286,0.05238095238095238,0.06190476190476191,0.06190476190476191,0.07142857142857142,0.07142857142857142,0.08095238095238096,0.08095238095238096,0.08095238095238096,0.08095238095238096,0.08095238095238096,0.08095238095238096,0.08095238095238096,0.08095238095238096,0.08095238095238096,0.09047619047619047,0.1,0.1,0.10952380952380952,0.10952380952380952,0.10952380952380952,0.10952380952380952,0.10952380952380952,0.10952380952380952,0.10952380952380952,0.1,0.09047619047619047,0.08095238095238096,0.08095238095238096,0.07142857142857142,0.07142857142857142,0.06190476190476191,0.06190476190476191,0.05238095238095238,0.04285714285714286,0.04285714285714286,0.04285714285714286,0.04285714285714286,0.04285714285714286,0.04285714285714286,0.04285714285714286,0.04285714285714286,0.04285714285714286,0.04285714285714286,0.04285714285714286,0.04285714285714286,0.03333333333333333,0.03333333333333333,0.03333333333333333,0.03333333333333333,0.03333333333333333,0.03333333333333333,0.03333333333333333,0.03333333333333333,0.05238095238095238,0.05238095238095238,0.06190476190476191,0.07142857142857142,0.07142857142857142,0.08095238095238096,0.1,0.1,0.10952380952380952,0.11904761904761904,0.12857142857142856,0.1380952380952381,0.1380952380952381,0.1380952380952381,0.14761904761904762,0.14761904761904762,0.14761904761904762,0.14761904761904762,0.14761904761904762,0.14761904761904762,0.14761904761904762,0.15714285714285714,0.15714285714285714,0.15714285714285714,0.15714285714285714,0.16666666666666666,0.16666666666666666,0.16666666666666666,0.16666666666666666,0.1761904761904762,0.1761904761904762,0.1761904761904762,0.1761904761904762,0.1761904761904762,0.1761904761904762,0.18571428571428572,0.18571428571428572,0.18571428571428572,0.19523809523809524,0.20476190476190476,0.21428571428571427,0.21428571428571427,0.22380952380952382,0.23333333333333334,0.2523809523809524,0.2619047619047619,0.28095238095238095,0.3,0.30952380952380953,0.32857142857142857,0.3476190476190476,0.36666666666666664,0.3761904761904762,0.3952380952380952,0.40476190476190477,0.4142857142857143,0.4238095238095238,0.43333333333333335,0.44285714285714284,0.4523809523809524,0.46190476190476193,0.4714285714285714,0.49047619047619045,0.5,0.5190476190476191,0.5285714285714286,0.5476190476190477,0.5476190476190477,0.5476190476190477,0.5476190476190477,0.5476190476190477,0.5476190476190477,0.5476190476190477,0.5476190476190477,0.5476190476190477,0.5476190476190477,0.5476190476190477,0.5476190476190477,0.5476190476190477,0.5476190476190477,0.5476190476190477,0.5476190476190477,0.5476190476190477,0.5476190476190477,0.5476190476190477,0.5476190476190477,0.5476190476190477,0.5476190476190477,0.5476190476190477,0.5476190476190477,0.5476190476190477,0.5476190476190477,0.5380952380952381,0.5380952380952381,0.5285714285714286,0.5285714285714286,0.5190476190476191,0.5190476190476191,0.5190476190476191,0.5190476190476191,0.5190476190476191,0.5190476190476191,0.5190476190476191,0.5190476190476191,0.5190476190476191,0.5190476190476191,0.5190476190476191,0.5190476190476191,0.5285714285714286,0.5476190476190477,0.5857142857142857,0.6142857142857143,0.6333333333333333,0.6619047619047619,0.680952380952381,0.7,0.7095238095238096,0.719047619047619,0.7285714285714285,0.7380952380952381,0.7476190476190476,0.7571428571428571,0.7666666666666667,0.7761904761904762,0.7857142857142857,0.7952380952380952,0.8047619047619048,0.8142857142857143,0.8238095238095238,0.8333333333333334,0.8428571428571429,0.8428571428571429,0.8428571428571429,0.8428571428571429,0.8333333333333334,0.8142857142857143,0.7761904761904762,0.7571428571428571,0.7285714285714285,0.7095238095238096,0.6904761904761905,0.6619047619047619,0.6523809523809524,0.6333333333333333,0.6142857142857143,0.6047619047619047,0.5857142857142857,0.5666666666666667,0.5571428571428572,0.5476190476190477,0.5476190476190477,0.5476190476190477,0.5476190476190477,0.5571428571428572,0.5666666666666667,0.5952380952380952,0.6142857142857143,0.6428571428571429,0.6619047619047619,0.680952380952381,0.7,0.7476190476190476,0.8047619047619048,0.8904761904761904,0.9476190476190476,0.9857142857142858,1.0047619047619047,1.0142857142857142,1.0142857142857142,1.0142857142857142,1.0142857142857142,1.0142857142857142,1.0142857142857142,1.0142857142857142,1.0142857142857142,1.0142857142857142,1.0047619047619047,0.9952380952380953,0.9952380952380953,0.9857142857142858,0.9857142857142858,0.9857142857142858,0.9857142857142858,0.9857142857142858,0.9857142857142858,0.9857142857142858,0.9857142857142858,0.9857142857142858,0.9857142857142858,0.9857142857142858,0.9952380952380953,0.9952380952380953,1.0047619047619047,1.0047619047619047,1.0047619047619047,1.0047619047619047,1.0047619047619047,1.0047619047619047,1.0047619047619047,1.0047619047619047,1.0047619047619047,1.0047619047619047,1.0047619047619047,1.0047619047619047,1.0047619047619047,1.0047619047619047,1.0047619047619047,1.0047619047619047,1.0047619047619047,1.0047619047619047,1.0047619047619047,1.0047619047619047,1.0047619047619047,1.0047619047619047,1.0047619047619047,1.0047619047619047,1.0047619047619047,1.0047619047619047,1.0047619047619047,1.0047619047619047,1.0047619047619047,1.0047619047619047,1.0047619047619047,1.0047619047619047,1.0047619047619047,1.0047619047619047,1.0047619047619047,1.0047619047619047,1.0047619047619047,1.0047619047619047,1.0047619047619047,1.0047619047619047,1.0047619047619047,1.0047619047619047,1.0047619047619047,1.0047619047619047,1.0047619047619047,1.0047619047619047,1.0047619047619047,1.0047619047619047,1.0047619047619047,1.0047619047619047,1.0047619047619047,1.0047619047619047,1.0047619047619047,1.0047619047619047,1.0047619047619047,1.0047619047619047,1.0047619047619047,1.0047619047619047,1.0047619047619047,1.0047619047619047,1.0047619047619047,1.0047619047619047,1.0047619047619047,1.0047619047619047,1.0047619047619047,1.0047619047619047,1.0047619047619047,1.0047619047619047,1.0047619047619047,1.0047619047619047,1.0047619047619047,1.0047619047619047,1.0047619047619047,1.0047619047619047,1.0047619047619047,1.0047619047619047,0.9952380952380953,0.9666666666666667,0.9380952380952381,0.919047619047619,0.9,0.8714285714285714,0.8523809523809524,0.8333333333333334,0.8142857142857143,0.7857142857142857,0.7666666666666667,0.7380952380952381,0.719047619047619,0.7,0.680952380952381,0.6714285714285714,0.6523809523809524,0.6333333333333333,0.6238095238095238,0.6047619047619047,0.5952380952380952,0.5857142857142857,0.5857142857142857,0.5761904761904761,0.5761904761904761,0.5571428571428572,0.5476190476190477,0.5380952380952381,0.5095238095238095,0.49047619047619045,0.46190476190476193,0.43333333333333335,0.4142857142857143,0.3952380952380952,0.3761904761904762,0.35714285714285715,0.3476190476190476,0.3380952380952381,0.32857142857142857,0.32857142857142857,0.319047619047619,0.319047619047619,0.30952380952380953,0.30952380952380953,0.30952380952380953,0.30952380952380953,0.30952380952380953,0.2904761904761905,0.28095238095238095,0.2714285714285714,0.2619047619047619,0.24285714285714285,0.23333333333333334,0.22380952380952382,0.20476190476190476,0.18571428571428572,0.16666666666666666,0.15714285714285714,0.14761904761904762,0.1380952380952381,0.12857142857142856,0.12857142857142856,0.12857142857142856,0.11904761904761904,0.11904761904761904,0.10952380952380952,0.1,0.09047619047619047,0.08095238095238096,0.07142857142857142,0.06190476190476191,0.06190476190476191,0.06190476190476191,0.06190476190476191,0.06190476190476191,0.06190476190476191,0.07142857142857142,0.1,0.1380952380952381,0.1761904761904762,0.23333333333333334,0.2904761904761905,0.3476190476190476,0.3761904761904762,0.40476190476190477,0.4142857142857143,0.4238095238095238,0.43333333333333335,0.44285714285714284,0.4523809523809524,0.46190476190476193,0.46190476190476193,0.46190476190476193,0.4714285714285714,0.4714285714285714,0.4714285714285714,0.48095238095238096,0.48095238095238096,0.48095238095238096,0.48095238095238096,0.48095238095238096,0.48095238095238096,0.48095238095238096,0.48095238095238096,0.48095238095238096,0.49047619047619045,0.49047619047619045,0.49047619047619045,0.5,0.5,0.5,0.5,0.5095238095238095,0.5095238095238095,0.5190476190476191,0.5285714285714286,0.5285714285714286,0.5285714285714286,0.5285714285714286,0.5285714285714286,0.5476190476190477,0.5952380952380952,0.6619047619047619,0.7380952380952381,0.7761904761904762,0.8047619047619048,0.8238095238095238,0.8333333333333334,0.8523809523809524,0.861904761904762,0.8809523809523809,0.8904761904761904,0.9,0.9095238095238095,0.9095238095238095,0.9285714285714286,0.9285714285714286,0.9380952380952381,0.9380952380952381,0.9380952380952381,0.9571428571428572,0.9761904761904762,0.9952380952380953,1.0238095238095237,1.0333333333333334,1.042857142857143,1.0523809523809524,1.0523809523809524,1.0523809523809524,1.0523809523809524,1.0523809523809524,1.0523809523809524,1.0523809523809524,1.0523809523809524,1.0523809523809524,1.0523809523809524,1.0523809523809524,1.0523809523809524,1.0523809523809524,1.0523809523809524,1.0523809523809524,1.0523809523809524,1.0523809523809524,1.0523809523809524,1.0523809523809524,1.0523809523809524,1.0523809523809524,1.0523809523809524,1.0523809523809524,1.0523809523809524,1.0523809523809524,1.0523809523809524,1.0523809523809524,1.0523809523809524,1.0523809523809524,1.0523809523809524,1.0523809523809524,1.0523809523809524,1.0523809523809524,1.0523809523809524,1.0523809523809524,1.0523809523809524,1.0523809523809524,1.0523809523809524,1.0523809523809524,1.0523809523809524,1.0523809523809524,1.042857142857143,1.0142857142857142,0.9857142857142858,0.9666666666666667,0.9380952380952381,0.9095238095238095,0.8809523809523809,0.861904761904762,0.8523809523809524,0.8428571428571429,0.8333333333333334,0.8142857142857143,0.8142857142857143,0.8047619047619048,0.7952380952380952,0.7952380952380952,0.7857142857142857,0.7857142857142857,0.7761904761904762,0.7761904761904762,0.7761904761904762,0.7666666666666667,0.7571428571428571,0.7476190476190476,0.7380952380952381,0.7285714285714285,0.7285714285714285,0.7095238095238096,0.6904761904761905,0.6714285714285714,0.6523809523809524,0.6333333333333333,0.6047619047619047,0.5857142857142857,0.5666666666666667,0.5476190476190477,0.5285714285714286,0.5190476190476191,0.5,0.48095238095238096,0.46190476190476193,0.4523809523809524,0.4523809523809524,0.44285714285714284,0.43333333333333335,0.4142857142857143,0.3952380952380952,0.3761904761904762,0.3476190476190476,0.3,0.2619047619047619,0.23333333333333334,0.20476190476190476,0.18571428571428572,0.16666666666666666,0.15714285714285714,0.1380952380952381,0.12857142857142856,0.10952380952380952,0.09047619047619047,0.08095238095238096,0.08095238095238096,0.07142857142857142,0.06190476190476191,0.05238095238095238,0.05238095238095238,0.04285714285714286,0.04285714285714286,0.04285714285714286,0.04285714285714286,0.04285714285714286,0.04285714285714286,0.04285714285714286,0.04285714285714286,0.03333333333333333,0.014285714285714285,-0.004761904761904762,-0.014285714285714285,-0.023809523809523808,-0.03333333333333333,-0.03333333333333333,-0.03333333333333333,-0.03333333333333333,-0.03333333333333333,-0.03333333333333333,-0.03333333333333333,-0.03333333333333333,-0.03333333333333333,-0.03333333333333333,-0.03333333333333333,-0.03333333333333333,-0.03333333333333333,-0.03333333333333333,-0.03333333333333333,-0.03333333333333333,-0.03333333333333333,-0.03333333333333333,-0.03333333333333333,-0.03333333333333333,-0.03333333333333333,-0.03333333333333333,-0.03333333333333333,-0.03333333333333333,-0.03333333333333333,-0.03333333333333333,-0.03333333333333333,-0.03333333333333333,-0.014285714285714285,0.004761904761904762,0.023809523809523808,0.03333333333333333,0.05238095238095238,0.07142857142857142,0.08095238095238096,0.09047619047619047,0.09047619047619047,0.09047619047619047,0.10952380952380952,0.10952380952380952,0.10952380952380952,0.11904761904761904,0.11904761904761904,0.11904761904761904,0.11904761904761904,0.11904761904761904,0.11904761904761904,0.11904761904761904,0.11904761904761904,0.11904761904761904,0.11904761904761904,0.11904761904761904,0.11904761904761904,0.11904761904761904,0.11904761904761904,0.11904761904761904,0.11904761904761904,0.10952380952380952,0.1,0.1,0.09047619047619047,0.09047619047619047,0.09047619047619047,0.09047619047619047,0.09047619047619047,0.08095238095238096,0.08095238095238096,0.06190476190476191,0.05238095238095238,0.03333333333333333,0.023809523809523808,0.014285714285714285,0.004761904761904762,-0.004761904761904762,-0.004761904761904762,-0.023809523809523808,-0.03333333333333333,-0.04285714285714286,-0.05238095238095238,-0.06190476190476191,-0.07142857142857142,-0.07142857142857142,-0.08095238095238096,-0.08095238095238096,-0.08095238095238096,-0.08095238095238096,-0.08095238095238096,-0.08095238095238096,-0.08095238095238096,-0.08095238095238096,-0.08095238095238096,-0.08095238095238096,-0.08095238095238096,-0.08095238095238096,-0.08095238095238096,-0.08095238095238096,-0.08095238095238096,-0.08095238095238096,-0.08095238095238096,-0.08095238095238096,-0.07142857142857142,-0.07142857142857142,-0.07142857142857142,-0.07142857142857142,-0.07142857142857142,-0.05238095238095238,-0.05238095238095238,-0.04285714285714286,-0.04285714285714286,-0.03333333333333333,-0.023809523809523808,-0.004761904761904762,0.004761904761904762,0.03333333333333333,0.06190476190476191,0.1,0.16666666666666666,0.23333333333333334,0.32857142857142857,0.40476190476190477,0.4714285714285714,0.5285714285714286,0.5857142857142857,0.6238095238095238,0.6619047619047619,0.7095238095238096,0.7571428571428571,0.8142857142857143,0.8809523809523809,0.9285714285714286,0.9666666666666667,0.9952380952380953,1.0238095238095237,1.0333333333333334,1.042857142857143,1.061904761904762,1.0714285714285714,1.0714285714285714,1.0809523809523809,1.0809523809523809,1.0809523809523809,1.0809523809523809,1.0809523809523809,1.0809523809523809,1.0714285714285714,1.0714285714285714,1.0523809523809524,1.0523809523809524,1.0523809523809524,1.042857142857143,1.042857142857143,1.042857142857143,1.042857142857143,1.042857142857143,1.042857142857143,1.042857142857143,1.042857142857143,1.042857142857143,1.042857142857143,1.042857142857143,1.042857142857143,1.042857142857143,1.042857142857143,1.042857142857143,1.0333333333333334,1.0333333333333334,1.0333333333333334,1.0333333333333334,1.0333333333333334,1.0333333333333334,1.0333333333333334,1.0333333333333334,1.0333333333333334,1.0333333333333334,1.0333333333333334,1.0333333333333334,1.0333333333333334,1.0333333333333334,1.0333333333333334,1.0333333333333334,1.0333333333333334,1.0333333333333334,1.0333333333333334,1.0333333333333334,1.0333333333333334,1.0333333333333334,1.0142857142857142,0.9761904761904762,0.9380952380952381,0.8904761904761904,0.8333333333333334,0.7857142857142857,0.7285714285714285,0.6619047619047619,0.6047619047619047,0.5571428571428572,0.49047619047619045,0.44285714285714284,0.40476190476190477,0.35714285714285715,0.319047619047619,0.3,0.28095238095238095,0.2619047619047619,0.24285714285714285,0.23333333333333334,0.22380952380952382,0.22380952380952382,0.22380952380952382,0.22380952380952382,0.22380952380952382,0.20476190476190476,0.19523809523809524,0.16666666666666666,0.1380952380952381,0.11904761904761904,0.09047619047619047,0.08095238095238096,0.07142857142857142,0.06190476190476191,0.06190476190476191,0.06190476190476191,0.06190476190476191,0.05238095238095238,0.04285714285714286,0.04285714285714286,0.04285714285714286,0.04285714285714286,0.04285714285714286,0.04285714285714286,0.04285714285714286,0.04285714285714286,0.04285714285714286,0.04285714285714286,0.04285714285714286,0.04285714285714286,0.04285714285714286,0.04285714285714286,0.04285714285714286,0.04285714285714286,0.04285714285714286,0.04285714285714286,0.04285714285714286,0.04285714285714286,0.04285714285714286,0.04285714285714286,0.04285714285714286,0.04285714285714286,0.04285714285714286,0.04285714285714286,0.05238095238095238,0.05238095238095238,0.05238095238095238,0.05238095238095238,0.05238095238095238,0.05238095238095238,0.05238095238095238,0.05238095238095238,0.05238095238095238,0.05238095238095238,0.05238095238095238,0.05238095238095238,0.05238095238095238,0.05238095238095238,0.05238095238095238,0.05238095238095238,0.05238095238095238,0.05238095238095238,0.05238095238095238,0.04285714285714286,0.04285714285714286,0.04285714285714286,0.03333333333333333,0.03333333333333333,0.023809523809523808,0.023809523809523808,0.023809523809523808,0.023809523809523808,0.023809523809523808,0.023809523809523808,0.023809523809523808,0.023809523809523808,0.023809523809523808,0.023809523809523808,0.023809523809523808,0.023809523809523808,0.023809523809523808,0.023809523809523808,0.03333333333333333,0.03333333333333333,0.03333333333333333,0.03333333333333333,0.03333333333333333,0.03333333333333333,0.03333333333333333,0.03333333333333333,0.03333333333333333,0.03333333333333333,0.03333333333333333,0.03333333333333333,0.03333333333333333,0.03333333333333333,0.03333333333333333,0.03333333333333333,0.03333333333333333,0.03333333333333333,0.03333333333333333,0.03333333333333333,0.03333333333333333,0.03333333333333333,0.03333333333333333,0.03333333333333333,0.03333333333333333,0.03333333333333333,0.03333333333333333,0.03333333333333333,0.03333333333333333,0.03333333333333333,0.03333333333333333,0.03333333333333333,0.03333333333333333,0.03333333333333333,0.03333333333333333,0.03333333333333333,0.03333333333333333,0.03333333333333333,0.03333333333333333,0.03333333333333333,0.03333333333333333,0.03333333333333333,0.03333333333333333,0.03333333333333333,0.03333333333333333,0.03333333333333333,0.03333333333333333,0.03333333333333333,0.03333333333333333,0.03333333333333333,0.03333333333333333,0.03333333333333333,0.03333333333333333,0.03333333333333333,0.03333333333333333,0.03333333333333333,0.03333333333333333,0.03333333333333333,0.03333333333333333,0.03333333333333333,0.03333333333333333,0.04285714285714286,0.05238095238095238,0.07142857142857142,0.09047619047619047,0.11904761904761904,0.14761904761904762,0.19523809523809524,0.23333333333333334,0.2714285714285714,0.3,0.3380952380952381,0.3476190476190476,0.36666666666666664,0.36666666666666664,0.36666666666666664,0.36666666666666664,0.36666666666666664,0.36666666666666664,0.36666666666666664,0.3761904761904762,0.3761904761904762,0.38571428571428573,0.40476190476190477,0.4142857142857143,0.43333333333333335,0.44285714285714284,0.46190476190476193,0.48095238095238096,0.49047619047619045,0.49047619047619045,0.49047619047619045,0.5,0.5095238095238095,0.5190476190476191,0.5190476190476191,0.5380952380952381,0.5571428571428572,0.5952380952380952,0.6333333333333333,0.6714285714285714,0.719047619047619,0.7571428571428571,0.7952380952380952,0.8238095238095238,0.8333333333333334,0.8428571428571429,0.861904761904762,0.8714285714285714,0.8809523809523809,0.9,0.919047619047619,0.919047619047619,0.9285714285714286,0.9380952380952381,0.9380952380952381,0.9380952380952381,0.9380952380952381,0.9380952380952381,0.9380952380952381,0.9476190476190476,0.9476190476190476,0.9476190476190476,0.9571428571428572,0.9666666666666667,0.9666666666666667,0.9666666666666667,0.9666666666666667,0.9666666666666667,0.9571428571428572,0.9476190476190476,0.9380952380952381,0.919047619047619,0.8809523809523809,0.8523809523809524,0.8238095238095238,0.7952380952380952,0.7571428571428571,0.7095238095238096,0.6428571428571429,0.5476190476190477,0.4523809523809524,0.35714285714285715,0.2523809523809524,0.20476190476190476,0.16666666666666666,0.14761904761904762,0.14761904761904762,0.12857142857142856,0.12857142857142856,0.12857142857142856,0.12857142857142856,0.12857142857142856,0.12857142857142856,0.12857142857142856,0.12857142857142856,0.12857142857142856,0.11904761904761904,0.11904761904761904,0.11904761904761904,0.11904761904761904,0.11904761904761904,0.11904761904761904,0.11904761904761904,0.11904761904761904,0.11904761904761904,0.11904761904761904,0.11904761904761904,0.11904761904761904,0.11904761904761904,0.11904761904761904,0.11904761904761904,0.11904761904761904,0.11904761904761904,0.11904761904761904,0.11904761904761904,0.11904761904761904,0.11904761904761904,0.14761904761904762,0.18571428571428572,0.22380952380952382,0.2619047619047619,0.2904761904761905,0.30952380952380953,0.32857142857142857,0.32857142857142857,0.32857142857142857,0.32857142857142857,0.32857142857142857,0.32857142857142857,0.3380952380952381,0.3380952380952381,0.3476190476190476,0.3476190476190476,0.36666666666666664,0.3761904761904762,0.40476190476190477,0.4142857142857143,0.43333333333333335,0.46190476190476193,0.48095238095238096,0.5,0.5285714285714286,0.5380952380952381,0.5380952380952381,0.5380952380952381,0.5380952380952381,0.5380952380952381,0.5380952380952381,0.5380952380952381,0.5476190476190477,0.5571428571428572,0.5571428571428572,0.5571428571428572,0.5571428571428572,0.5666666666666667,0.5666666666666667,0.5666666666666667,0.5666666666666667,0.5666666666666667,0.5666666666666667,0.5666666666666667,0.5666666666666667,0.5666666666666667,0.5571428571428572,0.5571428571428572,0.5476190476190477,0.5380952380952381,0.5380952380952381,0.5380952380952381,0.5380952380952381,0.5380952380952381,0.5380952380952381,0.5380952380952381,0.5380952380952381,0.5380952380952381,0.5285714285714286,0.5285714285714286,0.5285714285714286,0.5285714285714286,0.5285714285714286,0.5285714285714286,0.5285714285714286,0.5285714285714286,0.5285714285714286,0.5285714285714286,0.5285714285714286,0.5285714285714286,0.5285714285714286,0.5285714285714286,0.5285714285714286,0.5190476190476191,0.49047619047619045,0.4714285714285714,0.43333333333333335,0.40476190476190477,0.3761904761904762,0.3476190476190476,0.32857142857142857,0.30952380952380953,0.30952380952380953,0.3,0.2904761904761905,0.2904761904761905,0.2904761904761905,0.2904761904761905,0.2904761904761905,0.2904761904761905,0.2904761904761905,0.2904761904761905,0.2904761904761905,0.2904761904761905,0.2904761904761905,0.2904761904761905,0.2904761904761905,0.2904761904761905,0.2904761904761905,0.2904761904761905,0.2904761904761905,0.2904761904761905,0.2904761904761905,0.2904761904761905,0.2904761904761905,0.2904761904761905,0.2904761904761905,0.2904761904761905,0.2904761904761905,0.2904761904761905,0.2904761904761905,0.2904761904761905,0.2904761904761905,0.2904761904761905,0.2904761904761905,0.2904761904761905,0.2904761904761905,0.2904761904761905,0.2904761904761905,0.2904761904761905,0.2904761904761905,0.2904761904761905,0.2904761904761905,0.2904761904761905,0.2904761904761905,0.2904761904761905,0.2904761904761905,0.2904761904761905,0.2904761904761905,0.2904761904761905,0.2904761904761905,0.2904761904761905,0.2904761904761905,0.2904761904761905,0.2904761904761905,0.2904761904761905,0.2904761904761905,0.2904761904761905,0.2904761904761905,0.2904761904761905,0.2904761904761905,0.2904761904761905,0.2904761904761905,0.2904761904761905,0.2904761904761905,0.2904761904761905,0.2904761904761905,0.2904761904761905,0.3,0.3,0.30952380952380953,0.319047619047619,0.319047619047619,0.319047619047619,0.319047619047619,0.319047619047619,0.319047619047619,0.319047619047619,0.319047619047619,0.319047619047619,0.319047619047619,0.319047619047619,0.319047619047619,0.319047619047619,0.319047619047619,0.319047619047619,0.319047619047619,0.319047619047619,0.319047619047619,0.319047619047619,0.319047619047619,0.319047619047619,0.319047619047619,0.319047619047619,0.319047619047619,0.319047619047619,0.319047619047619,0.319047619047619,0.319047619047619,0.319047619047619,0.319047619047619,0.319047619047619,0.319047619047619]},"final_keyboard_state":["T","S","A","Z","E","B","R"],"num_clicks":7,"points":13,"cheat":false,"trial_type":"Hangman","trial_index":5,"time_elapsed":36936,"internal_node_id":"0.0-4.0","protocol_sum":"","subject_identifier":414,"subject_sum":[150,128,118,190,46,56,207,137,125,77,108,234,63,172,169,192,55,225,164,227,180,183,116,79,178,83,62,7,117,27,211,10],"subject_pair":207,"STUDY_ID":"66a22c0758a3d5c9d26873c6","PROLIFIC_PID":"601b28841ca7bb2f8edaa293","SESSION_ID":"66a28a09b895e8c942d9e119","practice_instructions":1,"leaderboard_instructions":0,"bonus":0,"reveal_word":false,"self_rating":"3","confidence":"68"},{"view_history":"[{\"page_index\":0,\"viewing_time\":3577.699999988079},{\"page_index\":1,\"viewing_time\":10811}]","rt":14388.899999976158,"trial_type":"instructions","trial_index":6,"time_elapsed":51325,"internal_node_id":"0.0-5.0","protocol_sum":"","subject_identifier":414,"subject_sum":[150,128,118,190,46,56,207,137,125,77,108,234,63,172,169,192,55,225,164,227,180,183,116,79,178,83,62,7,117,27,211,10],"subject_pair":207,"STUDY_ID":"66a22c0758a3d5c9d26873c6","PROLIFIC_PID":"601b28841ca7bb2f8edaa293","SESSION_ID":"66a28a09b895e8c942d9e119","practice_instructions":1,"leaderboard_instructions":0,"bonus":0,"reveal_word":false,"self_rating":"3","confidence":"68"},{"rt":5943.5,"responses":"{\"Q0\":\"...from <b>a previous session</b> that is not part of the upcoming tournament.\"}","question_order":"[0]","trial_type":"survey-multi-choice","trial_index":7,"time_elapsed":57269,"internal_node_id":"0.0-6.0","protocol_sum":"","subject_identifier":414,"subject_sum":[150,128,118,190,46,56,207,137,125,77,108,234,63,172,169,192,55,225,164,227,180,183,116,79,178,83,62,7,117,27,211,10],"subject_pair":207,"correct":true,"test_part":"multichoice_leaderboard","STUDY_ID":"66a22c0758a3d5c9d26873c6","PROLIFIC_PID":"601b28841ca7bb2f8edaa293","SESSION_ID":"66a28a09b895e8c942d9e119","practice_instructions":1,"leaderboard_instructions":0,"bonus":0,"reveal_word":false,"self_rating":"3","confidence":"68"},{"view_history":"[{\"page_index\":0,\"viewing_time\":13466.900000035763}]","rt":13467,"trial_type":"instructions","trial_index":8,"time_elapsed":70736,"internal_node_id":"0.0-8.0","protocol_sum":"","subject_identifier":414,"subject_sum":[150,128,118,190,46,56,207,137,125,77,108,234,63,172,169,192,55,225,164,227,180,183,116,79,178,83,62,7,117,27,211,10],"subject_pair":207,"STUDY_ID":"66a22c0758a3d5c9d26873c6","PROLIFIC_PID":"601b28841ca7bb2f8edaa293","SESSION_ID":"66a28a09b895e8c942d9e119","practice_instructions":1,"leaderboard_instructions":0,"bonus":0,"reveal_word":false,"self_rating":"3","confidence":"68"},{"rt":6783.699999988079,"responses":"{\"Q0\":\"...players' leaderboard position (in terms of <b>points</b>) in an <b>upcoming tournament.</b>\"}","question_order":"[0]","trial_type":"survey-multi-choice","trial_index":9,"time_elapsed":77521,"internal_node_id":"0.0-9.0","protocol_sum":"","subject_identifier":414,"subject_sum":[150,128,118,190,46,56,207,137,125,77,108,234,63,172,169,192,55,225,164,227,180,183,116,79,178,83,62,7,117,27,211,10],"subject_pair":207,"correct":true,"test_part":"multichoice_tournament","STUDY_ID":"66a22c0758a3d5c9d26873c6","PROLIFIC_PID":"601b28841ca7bb2f8edaa293","SESSION_ID":"66a28a09b895e8c942d9e119","practice_instructions":1,"leaderboard_instructions":0,"bonus":0,"reveal_word":false,"self_rating":"3","confidence":"68"},{"view_history":"[{\"page_index\":0,\"viewing_time\":7663.399999976158}]","rt":7663.5,"trial_type":"instructions","trial_index":10,"time_elapsed":85185,"internal_node_id":"0.0-11.0","protocol_sum":"","subject_identifier":414,"subject_sum":[150,128,118,190,46,56,207,137,125,77,108,234,63,172,169,192,55,225,164,227,180,183,116,79,178,83,62,7,117,27,211,10],"subject_pair":207,"STUDY_ID":"66a22c0758a3d5c9d26873c6","PROLIFIC_PID":"601b28841ca7bb2f8edaa293","SESSION_ID":"66a28a09b895e8c942d9e119","practice_instructions":1,"leaderboard_instructions":0,"bonus":0,"reveal_word":false,"self_rating":"3","confidence":"68"},{"view_history":"[{\"page_index\":0,\"viewing_time\":9604.300000011921}]","rt":9604.399999976158,"trial_type":"instructions","trial_index":11,"time_elapsed":94790,"internal_node_id":"0.0-12.0-0.0","protocol_sum":"","subject_identifier":414,"subject_sum":[150,128,118,190,46,56,207,137,125,77,108,234,63,172,169,192,55,225,164,227,180,183,116,79,178,83,62,7,117,27,211,10],"subject_pair":207,"STUDY_ID":"66a22c0758a3d5c9d26873c6","PROLIFIC_PID":"601b28841ca7bb2f8edaa293","SESSION_ID":"66a28a09b895e8c942d9e119","practice_instructions":1,"leaderboard_instructions":0,"bonus":0,"reveal_word":false,"self_rating":"3","confidence":"68"},{"word":"KENTUCKY","click_log":{"letter":["","A","E","K","Y","N","T","U","C"],"t":[0,9008.600000023842,27508.5,29591.600000023842,33108.19999998808,34058.10000002384,35708.10000002384,36674.80000001192,37358.19999998808],"hit":[null,0,1,2,1,1,1,1,1],"asked":["","A","AE","AEK","AEKY","AEKYN","AEKYNT","AEKYNTU","AEKYNTUC"],"word_state":["________","________","_E______","KE____K_","KE____KY","KEN___KY","KENT__KY","KENTU_KY","KENTUCKY"]},"hover_log":{"letter":["?","?","?","?","?","?","?","?","?","?","?","?","?","?","?","?","?","?","?","?","?","?","?","?","?","?","?","?","?","?","?","?","?","?","?","?","?","?","?","?","?","?","?","?","?","?","?","?","?","?","?","?","?","?","?","?","?","?","?","?","?","?","?","?","?","?","?","?","?","?","?","?","?","?","?","?","?","?","?","?","?","?","?","?","?","?","?","?","?","?","?","?","?","?","?","?","?","?","?","?","?","?","?","?","?","?","?","?","?","?","?","?","?","?","?","?","?","?","?","?","?","?","?","?","?","?","?","?","?","?","?","?","?","?","?","?","?","?","?","?","?","?","?","?","?","?","?","?","?","?","?","?","?","?","?","?","?","?","?","?","?","?","?","?","?","?","?","?","?","?","?","?","?","?","?","?","?","?","?","?","?","?","?","?","?","?","?","?","?","?","?","?","?","?","?","?","?","?","?","?","?","?","?","?","?","?","?","?","?","?","?","?","?","?","?","?","?","?","?","?","?","?","?","?","?","?","?","?","?","?","?","?","?","?","?","?","?","?","?","?","?","?","?","?","?","?","?","?","?","?","?","?","?","?","?","?","?","?","?","?","?","?","?","?","?","?","?","?","?","?","?","?","?","?","?","?","?","?","?","?","?","?","?","?","?","?","?","?","?","?","?","?","?","?","?","?","?","?","?","?","?","?","?","?","?","?","?","?","?","?","?","?","?","?","?","?","?","?","?","?","?","?","?","?","?","?","?","?","?","?","?","?","?","?","?","?","?","?","?","?","?","?","?","?","?","?","?","?","?","?","?","?","?","?","?","?","?","?","?","?","?","?","?","?","?","?","?","?","?","?","?","?","?","?","?","?","?","?","?","?","?","?","?","?","?","?","?","?","?","?","?","?","?","?","?","?","?","?","?","?","?","?","?","?","?","?","?","?","?","?","?","?","?","?","?","?","?","?","?","?","?","?","?","?","?","?","?","?","?","?","?","?","?","?","?","?","?","?","?","?","?","?","?","?","?","?","?","?","?","?","?","?","?","?","?","?","?","?","?","?","?","?","?","?","?","?","?","?","?","?","?","?","?","?","?","?","?","?","?","?","?","?","?","?","?","?","?","?","?","?","?","?","?","?","?","?","?","?","?","?","?","?","?","?","?","?","?","?","?","?","?","?","?","?","?","?","?","?","?","?","?","?","?","?","?","?","?","?","?","?","?","?","?","?","?","?","?","?","?","?","?","?","?","?","?","?","?","?","?","?","?","?","?","?","?","?","?","?","?","?","?","?","?","?","?","?","?","?","?","?","?","?","?","?","?","?","?","?","?","?","?","?","?","?","?","?","?","?","?","?","?","?","?","?","?","?","?","?","?","?","?","?","?","?","?","?","?","?","?","?","?","?","?","?","?","?","?","?","?","?","?","?","?","?","?","?","?","?","?","?","?","?","?","?","?","?","?","?","?","?","?","?","?","?","?","?","?","?","?","?","?","?","?","?","?","?","?","?","?","?","?","?","?","?","?","?","?","?","?","?","?","?","?","?","?","?","?","?","?","?","?","?","?","?","?","?","?","?","?","?","?","?","?","?","?","?","?","?","?","?","?","?","?","?","?","?","?","?","?","?","?","?","?","?","?","?","?","?","?","?","?","?","?","?","?","?","?","?","?","?","?","?","?","?","?","?","?","?","?","?","?","?","?","?","?","?","?","?","?","?","?","?","?","?","?","?","?","?","?","?","?","?","?","?","?","?","?","?","?","?","?","?","?","?","?","?","?","?","?","?","?","?","?","?","?","?","?","?","?","?","?","?","?","?","?","?","?","?","?","?","?","?","?","?","?","?","?","?","?","?","?","?","?","?","?","?","?","?","?","?","?","?","?","?","?","?","?","?","?","?","?","?","?","?","?","?","?","?","?","?","?","?","?","?","?","?","?","?","?","?","?","?","?","?","?","?","?","?","?","?","?","?","?","?","?","?","?","?","?","?","?","?","?","?","?","?","?","?","?","?","?","?","?","?","?","?","?","?","?","?","?","?","?","?","?","?","?","?","?","?","?","?","?","?","?","?","?","?","?","?","?","?","?","?","?","?","?","?","?","?","?","?","?","?","?","?","?","?","?","?","?","?","?","?","?","?","?","?","?","?","?","?","?","?","?","?","?","?","?","?","?","?","?","?","?","?","?","?","?","?","?","?","?","?","?","?","?","?","?","?","?","?","?","?","?","?","?","?","?","?","?","?","?","?","?","?","?","?","?","?","?","?","?","?","?","?","?","?","?","?","?","?","?","?","?","?","?","?","?","?","?","?","?","?","?","?","?","?","?","?","?","?","?","?","?","?","?","?","?","?","?","?","?","?","?","?","?","?","?","?","?","?","?","?","?","?","?","?","?","?","?","?","?","?","?","?","?","?","?","?","?","?","?","?","?","?","?","?","?","?","?","?","?","?","?","?","?","?","?","?","?","?","?","?","?","?","?","?","?","?","?","?","?","?","?","?","?","?","?","?","?","?","?","?","?","?","?","?","?","?","?","?","?","?","?","?","?","?","?","?","?","?","?","?","?","?","?","?","?","?","?","?","?","?","?","?","?","?","?","?","?","?","?","?","?","?","?","?","?","?","?","?","?","?","?","?","?","?","?","?","?","?","?","?","?","?","?","?","?","?","?","?","?","?","?","?","?","?","?","?","?","?","?","?","?","?","?","?","?","?","?","?","?","?","?","?","?","?","?","?","?","?","?","?","?","?","?","?","?","?","?","?","?","?","?","?","?","?","?","?","?","?","?","?","?","?","?","?","?","?","?","?","?","?","?","?","?","?","?","?","?","?","?","?","?","?","?","?","?","?","?","?","?","?","?","?","?","?","?","?","?","?","?","?","?","?","?","?","?","?","?","?","?","?","?","?","?","?","?","?","?","?","?","?","?","?","?","?","?","?","?","?","?","?","?","?","?","?","?","?","?","?","?","?","?","?","?","?","?","?","?","?","?","?","?","?","?","?","?","?","?","?","?","?","?","?","?","?","?","?","?","?","?","?","?","?","?","?","?","?","?","?","?","?","?","?","?","?","?","?","?","?","?","?","?","?","?","?","?","?","?","?","?","?","?","?","?","?","?","?","?","?","?","?","?","?","?","?","?","?","?","?","?","?","?","?","?","J","?","?","?","?","?","?","?","?","?","?","?","?","?","?","?","?","?","?","?","?","?","?","?","?","?","J","?","?","?","?","?","?","?","?","?","?","?","?","?","?","?","?","?","?","?","?","?","?","?","?","?","J","?","?","?","?","?","?","?","?","?","?","?","?","?","?","?","?","?","?","?","?","?","?","?","?","?","J","?","?","?","?","?","?","?","?","?","?","?","?","?","?","?","?","?","?","?","?","?","?","?","?","?","J","?","?","?","?","?","?","?","?","?","?","?","?","?","?","?","?","?","?","?","?","?","?","?","?","?","J","?","?","?","?","?","?","?","?","?","?","?","?","?","?","?","?","?","?","?","?","?","?","?","?","?","?","?","?","?","?","?","?","?","?","?","?","?","?","?","?","?","?","?","?","?","?","?","?","?","?","?","?","?","?","?","?","?","?","?","?","?","?","?","?","?","?","?","?","?","?","?","?","?","?","?","?","?","?","?","?","?","?","?","?","?","?","?","?","?","?","?","?","?","?","?","?","?","?","?","?","?","?","?","?","?","?","?","?","?","?","?","?","?","?","?","?","?","?","?","?","?","?","?","?","?","?","?","?","?","?","?","?","?","?","?","?","?","?","?","?","?","?","?","?","?","?","?","?","?","?","?","?","?","?","?","?","?","?","?","?","?","?","?","?","?","?","?","?","?","?","?","?","?","?","?","?","?","?","?","?","?","?","?","?","?","?","?","?","?","?","?","?","?","?","?","?","?","?","?","?","?","?","?","?","?","?","?","?","?","?","?","?","?","?","?","?","?","?","?","?","?","?","?","?","?","?","?","?","?","?","?","?","?","?","?","?","?","?","?","?","?","?","?","?","?","?","?","?","?","?","?","?","?","?","?","?","?","?","?","?","?","?","?","?","?","?","?","?","?","?","?","?","?","?","?","?","?","?","?","?","?","?","?","?","?","?","?","?","?","?","?","?","?","?","?","?","?","?","?","?","?","?","?","?","?","?","?","?","?","?","?","?","?","?","?","?","?","?","?","?","?","?","?","?","?","?","?","?","?","?","?","?","?","?","?","?","?","?","?","?","?","?","?","?","?","?","?","?","?","?","?","?","?","?","?","?","?","?","?","?","?","?","?","?","?","?","?","?","?","?","?","?","?","?","?","?","?","?","?","?","?","?","?","?","?","?","?","?","?","?","?","?","?","?","?","?","?","?","?","?","?","?","?","?","?","?","?","?","?","?","?","?","?","?","?","?","?","?","?","?","?","?","?","?","?","?","?","?","?","?","?","?","?","?","?","?","?","?","?","?","?","?","?","?","?","?","?","?","?","?","?","?","?","?","?","?","?","?","?","B","?","?","?","?","?","?","?","?","?","?","?","?","?","?","?","?","?","?","?","?","?","?","?","?","?","B","?","?","?","?","?","?","?","?","?","?","?","?","?","?","?","?","?","?","?","?","?","?","?","?","?","B","?","?","?","?","?","?","?","?","?","?","?","?","?","?","?","?","?","?","?","?","?","?","?","?","?","B","?","?","?","?","?","?","?","?","?","?","?","?","?","?","?","?","?","?","?","?","?","?","?","?","?","B","?","?","?","?","?","?","?","?","?","?","?","?","?","?","?","?","?","?","?","?","?","?","?","?","?","B","?","?","?","?","?","?","?","?","?","?","?","?","?","?","?","?","?","?","?","?","?","?","?","?","?","B","?","?","?","?","?","?","?","?","?","?","?","?","?","?","?","?","?","?","?","?","?","?","?","?","?","?","?","?","?","?","?","?","?","?","?","?","?","?","?","?","?","?","?","?","?","?","?","?","?","?","?","?","?","?","?","?","?","?","?","?","?","?","?","?","?","?","?","?","?","?","?","?","?","?","?","?","?","?","?","?","?","?","?","?","?","?","?","?","?","?","?","?","?","?","?","?","?","?","?","?","?","?","?","?","?","?","?","?","?","?","?","?","?","?","?","?","?","?","?","?","?","?","?","?","?","?","?","?","?","?","?","?","?","?","?","?","?","?","?","?","?","?","?","?","?","?","?","?","?","?","?","?","?","?","?","?","?","?","?","?","?","?","?","?","?","?","?","?","?","?","?","?","?","?","?","?","?","?","?","?","?","?","?","?","?","?","?","?","?","?","?","?","?","?","?","?","?","?","?","?","?","?","?","?","?","?","?","?","?","?","E","?","?","?","?","?","?","?","?","?","?","?","?","?","?","?","?","?","?","?","?","?","?","?","?","?","?","F","?","?","?","?","?","?","?","?","?","?","?","?","?","?","?","?","?","?","?","?","?","?","?","?","?","?","?","?","?","?","?","?","?","?","?","?","?","?","?","?","?","?","?","?","?","?","?","?","?","?","?","?","?","?","?","?","?","?","?","?","?","?","?","?","?","?","?","?","?","?","?","?","?","?","?","?","?","?","?","?","?","?","?","?","?","?","?","?","?","R","?","?","?","?","?","?","?","?","?","?","?","?","?","?","?","?","?","?","?","?","?","?","?","?","?","?","?","?","?","?","?","?","?","?","?","?","?","?","?","?","?","?","?","?","?","?","?","?","?","?","?","?","?","?","?","?","?","?","?","?","?","?","?","?","?","?","?","?","?","?","?","?","?","?","?","?","?","?","?","?","?","?","?","?","?","?","?","?","?","?","?","?","?","?","?","?","?","?","?","?","?","?","?","?","?","?","?","?","?","?","?","?","?","?","?","?","?","?","?","?","?","?","?","?","?","?","?","?","?","?","?","?","?","?","?","?","?","?","?","?","?","?","?","?","?","?","?","?","?","?","?","?","?","?","?","?","?","?","?","?","?","?","?","?","?","?","?","?","?","?","?","?","?","?","?","?","?","?","?","?","?","?","?","?","?","?","?","?","?","?","?","?","?","?","?","?","?","?","?","?","?","?","?","?","?","?","?","?","?","?","?","?","?","?","?","?","?","?","?","?","?","?","?","?","?","?","?","?","?","?","?","?","?","?","?","?","?","?","?","?","?","?","?","?","?","?","?","?","?","?","?","?","?","?","?","?","?","?","?","?","?","?","?","?","?","?","?","?","?","?","?","?","?","?","?","?","?","?","?","?","?","?","?","?","?","?","?","?","?","?","?","?","?","?","?","?","?","?","?","?","?","?","?","?","?","?","?","?","?","?","?","?","?","?","?","?","?","?","?","?","?","?","?","?","?","?","?","?","?","?","?","?","?","?","?","?","?","?","?","?","?","?","?","?","?","?","?","?","?","?","?","?","?","?","?","?","?","?","?","?","?","?","?","?","?","?","?","?","?","?","?","?","?","?","?","?","?","?","?","?","?","?","?","?","?","?","?","?","?","?","?","?","?","?","?","?","?","?","?","?","?","?","?","?","?","?","?","?","?","?","?","?","?","?","?","?","?","?","?","?","?","?","?","?","?","?","?","?","?","?","?","?","?","?","?","?","?","?","?","?","?","?","?","?","?","?","?","?","?","?","?","?","?","?","?","?","?","?","?","?","?","?","?","?","?","?","?","?","?","?","?","?","?","?","?","?","?","?","?","?","?","?","?","?","?","?","?","?","?","?","?","?","?","?","?","?","?","?","?","?","?","?","?","?","?","?","?","?","?","?","?","?","?","?","?","?","?","?","?","?","?","?","?","?","?","?","?","?","?","?","?","?","?","?","?","?","?","?","?","?","?","?","?","?","?","?","?","?","?","?","?","?","?","?","?","?","?","?","?","?","?","?","?","?","?","?","?","?","?","?","?","?","?","?","?","?","?","?","?","?","?","?","?","?","?","?","?","?","?","?","?","?","?","?","?","?","?","?","?","?","?","?","?","?","?","?","?","?","?","?","?","?","?","?","?","?","?","?","?","?","?","?","?","?","?","?","?","?","?","?","?","?","?","?","?","?","?","?","?","?","?","?","?","?","?","?","?","?","?","?","?","?","?","?","?","?","?","?","?","?","?","?","?","?","?","?","?","?","?","?","?","?","?","?","?","?","?","?","?","?","?","?","?","?","?","?","?","?","?","?","?","?","?","?","?","?","?","?","?","?","?","?","?","?","?","?","?","?","?","?","?","?","?","?","?","?","?","?","?","?","?","?","?","?","?","?","?","?","?","?","?","?","?","?","?","?","?","?","?","?","?","?","?","?","?","?","?","?","?","?","?","?","?","?","?","?","?","?","?","?","?","?","?","?","?","?","?","?","?","?","?","?","?","?","?","?","?","?","?","?","?","?","?","?","?","?","?","?","?","?","?","?","?","?","?","?","?","?","?","?","?","?","?","?","?","?","?","?","?","?","?","?","?","?","?","?","?","?","?","?","?","?","?","?","?","?","?","?","?","?","?","?","?","?","?","?","?","?","?","?","?","?","?","?","?","?","?","?","?","?","?","?","?","?","?","?","?","?","?","?","?","?","?","?","?","?","?","?","?","?","?","?","?","?","?","?","?","?","?","?","?","?","?","?","?","?","?","?","?","?","?","?","?","?","?","?","?","?","?","?","?","?","?","?","?","?","?","?","?","?","?","?","?","?","?","?","?","?","?","?","?","?","?","?","?","?","?","?","?","?","?","?","?","?","?","?","?","?","?","?","?","?","?","?","?","?","?","?","?","?","?","?","?","?","?","?","?","?","?","?","?","?","?","?","?","?","?","?","?","?","?","?","?","?","?","?","?","?","?","?","?","?","?","?","?","?","?","?","?","?","?","?","?","?","?","?","?","?","?","?","?","?","?","?","?","?","?","?","?","?","?","?","?","?","?","?","?","?","?","?","?","?","?","?","?","?","?","?","?","?","?","?","?","?","?","?","?","?","?","?","?","?","?","?","?","?","?","?","?","?","?","?","?","?","?","?","?","?","?","?","?","?","?","?","?","?","?","?","?","?","?","?","?","?","?","?","?","?","?","?","?","?","?","?","?","?","?","?","?","?","?","?","?","?","?","?","?","?","?","?","?","?","?","?","?","?","?","?","?","?","?","?","?","?","?","?","?","?","?","?","?","?","?","?","?","?","?","?","?","?","?","?","?","?","?","?","?","?","?","?","?","?","?","?","?","?","?","?","?","?","?","?","?","?","?","?","?","?","?","?","?","?","?","?","?","?","?","?","?","?","?","?","?","?","?","?","?","?","?","?","?","?","?","?","?","?","?","?","?","?","?","?","?","?","?","?","?","?","?","?","?","?","?","?","?","?","?","?","?","?","?","?","?","?","?","?","?","?","?","?","?","?","?","?","?","?","?","?","?","?","?","?","?","?","?","?","?","?","?","?","?","?","?","?","?","?","?","?","?","?","?","?","?","?","?","?","?","?","?","?","?","?","?","?","?","?","?","?","?","?","?","?","?","?","?","?","?","?","?","?","?","?","?","?","?","?","?","?","?","?","?","?","?","?","?","?","?","?","?","?","?","?","?","?","?","?","?","?","?","?","?","?","?","?","?","?","?","?","?","?","?","?","?","?","?","?","?","?","?","?","?","?","?","?","?","?","?","?","?","?","?","?","?","?","?","?","?","?","?","?","?","?","?","?","?","?","?","?","?","?","?","?","?","?","?","?","?","?","?","?","?","?","?","?","?","?","?","?","?","?","?","?","?","?","?","?","?","?","?","?","?","?","?","?","?","?","?","?","?","?","?","?","?","?","?","?","?","?","?","?","?","?","?","?","?","?","?","?","?","?","?","?","?","?","?","?","?","?","?","?","?","?","?","?","?","?","?","?","?","?","?","?","?","?","?","?","?","?","?","?","?","?","?","?","?","?","?","?","?","?","?","?","?","?","?","?","?","?","?","?","?","?","?","?","?","?","?","?","?","?","?","?","?","?","?","?","?","?","?","?","?","?","?","?","?","?","?","?","?","?","?","?","?","?","?","?","?","?","?","?","?","?","?","?","?","?","?","?","?","?","?","?","?","?","?","?","?","?","?","?","?","?","?","?","?","?","?","?","?","?","?","?","?","?","?","?","?","?","?","?","?","?","?","?","?","?","?","?","?","?","?","?","?","?","?","?","?","?","?","?","?","?","?","?","?","?","?","?","?","?","?","?","?","?","?","?","?","?","?","?","?","?","?","?","?","?","?","?","?","?","?","?","?","?","?","?","?","?","?","?","?","?","?","?","?","?","?","?","?","?","?","?","?","?","?","?","?","?","?","?","?","?","?","?","?","?","?","?","?","?","?","?","?","?","?","?","?","?","?","?","?","?","?","?","?","?","?","?","?","?","?","?","?","?","?","?","?","?","?","?","?","?","?","?","?","?","?","?","?","?","?","?","?","?","?","?","?","?","?","?","?","?","?","?","?","?","?","?","?","?","?","?","?","?","?","?","?","?","?","?","?","?","?","?","?","?","?","?","?","?","?","?","?","?","?","?","?","?","?","?","?","?","?","?","?","?","?","?","?","?","?","?","?","?","?","?","?","?","?","?","?","?","?","?","?","?","?","?","?","?","?","?","?","?","?","?","?","?","?","?","?","?","?","?","?","?","?","?","?","?","?","?","?","?","?","?","?","?","?","?","?","?","?","?","?","?","?","?","?","?","?","?","?","?","?","?","?","?","?","?","?","?","?","?","?","?","?","?","?","?","?","?","?","?","?","?","?","?","?","?","?","?","?","?","?","?","?","?","?","?","?","?","?","?","?","?","?","?","?","?","?","?","?","?","?","?","?","?","?","?","?","?","?","?","?","?","?","?","?","?","?","?","?","?","?","?","?","?","?","?","?","?","?","?","?","?","?","?","?","?","?","?","?","?","?","?","?","?","?","?","?","?","?","?","?","?","?","?","?","?","?","?","?","?","?","?","?","?","?","?","?","?","?","?","?","?","?","?","?","?","?","?","?","?","?","?","?","?","?","?","?","?","?","?","?","?","?","?","?","?","?","?","?","?","?","?","?","?","?","?","?","?","?","?","?","?","?","?","?","?","?","?","?","?","?","?",