[{"success":true,"trial_type":"fullscreen","trial_index":0,"time_elapsed":8039,"internal_node_id":"0.0-0.0","protocol_sum":"","subject_identifier":122,"subject_sum":[208,41,250,58,149,225,116,161,153,52,133,127,83,94,185,66,125,150,114,24,163,110,160,20,183,10,215,4,188,108,141,28],"subject_pair":61,"STUDY_ID":"669a702db1122fc5150a13ce","PROLIFIC_PID":"65dcca0d187f1e33aa00fca1","SESSION_ID":"669b0d61eb343f4f19596040","practice_instructions":1,"leaderboard_instructions":1,"bonus":0,"reveal_word":false,"self_rating":"3","confidence":"100"},{"view_history":"[{\"page_index\":0,\"viewing_time\":10690}]","rt":10696,"trial_type":"instructions","trial_index":1,"time_elapsed":18741,"internal_node_id":"0.0-1.0","protocol_sum":"","subject_identifier":122,"subject_sum":[208,41,250,58,149,225,116,161,153,52,133,127,83,94,185,66,125,150,114,24,163,110,160,20,183,10,215,4,188,108,141,28],"subject_pair":61,"STUDY_ID":"669a702db1122fc5150a13ce","PROLIFIC_PID":"65dcca0d187f1e33aa00fca1","SESSION_ID":"669b0d61eb343f4f19596040","practice_instructions":1,"leaderboard_instructions":1,"bonus":0,"reveal_word":false,"self_rating":"3","confidence":"100"},{"view_history":"[{\"page_index\":0,\"viewing_time\":75886}]","rt":75886,"trial_type":"instructions","trial_index":2,"time_elapsed":94634,"internal_node_id":"0.0-2.0-0.0","protocol_sum":"","subject_identifier":122,"subject_sum":[208,41,250,58,149,225,116,161,153,52,133,127,83,94,185,66,125,150,114,24,163,110,160,20,183,10,215,4,188,108,141,28],"subject_pair":61,"STUDY_ID":"669a702db1122fc5150a13ce","PROLIFIC_PID":"65dcca0d187f1e33aa00fca1","SESSION_ID":"669b0d61eb343f4f19596040","practice_instructions":1,"leaderboard_instructions":1,"bonus":0,"reveal_word":false,"self_rating":"3","confidence":"100"},{"rt":49681,"responses":"{\"Q0\":\"... reveal the word with as <b>few letter guesses</b> as possible\"}","question_order":"[0]","trial_type":"survey-multi-choice","trial_index":3,"time_elapsed":144326,"internal_node_id":"0.0-2.0-1.0","protocol_sum":"","subject_identifier":122,"subject_sum":[208,41,250,58,149,225,116,161,153,52,133,127,83,94,185,66,125,150,114,24,163,110,160,20,183,10,215,4,188,108,141,28],"subject_pair":61,"correct":true,"test_part":"multichoice_nonpretend","STUDY_ID":"669a702db1122fc5150a13ce","PROLIFIC_PID":"65dcca0d187f1e33aa00fca1","SESSION_ID":"669b0d61eb343f4f19596040","practice_instructions":1,"leaderboard_instructions":1,"bonus":0,"reveal_word":false,"self_rating":"3","confidence":"100"},{"view_history":"[{\"page_index\":0,\"viewing_time\":7138}]","rt":7142,"trial_type":"instructions","trial_index":4,"time_elapsed":151475,"internal_node_id":"0.0-3.0","protocol_sum":"","subject_identifier":122,"subject_sum":[208,41,250,58,149,225,116,161,153,52,133,127,83,94,185,66,125,150,114,24,163,110,160,20,183,10,215,4,188,108,141,28],"subject_pair":61,"STUDY_ID":"669a702db1122fc5150a13ce","PROLIFIC_PID":"65dcca0d187f1e33aa00fca1","SESSION_ID":"669b0d61eb343f4f19596040","practice_instructions":1,"leaderboard_instructions":1,"bonus":0,"reveal_word":false,"self_rating":"3","confidence":"100"},{"word":"ZEBRA","click_log":{"letter":["","T","S","C","K","N","E","F","G","R","Y","V","X","B","A","L","P","Z"],"t":[0,40931,60606,99589,101454,103116,105256,106917,108722,115018,117220,124687,126752,129237,133267,136882,139026,144717],"hit":[null,0,0,0,0,0,1,0,0,1,0,0,0,1,1,0,0,1],"asked":["","T","TS","TSC","TSCK","TSCKN","TSCKNE","TSCKNEF","TSCKNEFG","TSCKNEFGR","TSCKNEFGRY","TSCKNEFGRYV","TSCKNEFGRYVX","TSCKNEFGRYVXB","TSCKNEFGRYVXBA","TSCKNEFGRYVXBAL","TSCKNEFGRYVXBALP","TSCKNEFGRYVXBALPZ"],"word_state":["_____","_____","_____","_____","_____","_____","_E___","_E___","_E___","_E_R_","_E_R_","_E_R_","_E_R_","_EBR_","_EBRA","_EBRA","_EBRA","ZEBRA"]},"hover_log":{"letter":["?","?","?","?","?","?","?","?","?","?","?","?","?","?","?","?","?","?","?","?","?","?","?","?","?","?","?","?","?","?","?","?","?","?","?","?","?","?","?","?","?","?","?","?","?","?","?","?","?","?","?","?","?","J","?","?","?","?","?","?","?","?","?","?","?","?","?","?","?","?","?","?","?","?","?","?","?","?","?","?","?","?","?","?","?","?","?","?","?","?","?","?","?","?","?","?","?","?","?","?","?","?","?","?","?","?","?","?","?","?","?","?","?","?","?","?","?","?","?","?","?","?","?","?","?","?","?","?","?","?","?","?","?","?","?","?","?","?","?","?","?","?","?","?","?","?","?","?","?","?","?","?","?","?","?","?","?","?","?","?","?","?","?","?","?","?","?","?","?","?","?","?","?","?","?","?","?","?","?","?","?","?","?","?","?","?","?","?","?","?","?","?","?","?","?","?","?","?","?","?","?","?","?","?","?","?","?","?","?","?","?","?","?","?","?","?","A","A","A","?","?","?","?","?","?","?","?","?","?","?","?","?","?","?","?","?","?","?","?","?","?","?","?","?","?","?","?","?","?","?","?","?","?","?","?","?","?","?","?","?","?","?","?","?","?","?","?","?","?","?","?","?","?","?","?","?","?","?","?","?","?","?","?","?","?","?","?","B","B","B","B","B","B","B","B","B","B","B","B","B","B","B","B","B","B","B","B","B","B","?","?","?","?","?","?","?","?","?","?","?","?","?","?","?","?","?","?","?","?","?","?","?","?","?","?","?","?","?","?","?","?","?","?","?","?","?","?","?","?","?","?","?","?","?","?","?","?","?","?","?","?","?","?","?","?","?","?","?","?","?","?","?","?","?","?","?","?","?","?","?","?","?","?","?","?","?","?","?","?","?","?","?","?","?","?","?","?","?","?","?","?","?","?","?","?","?","?","?","?","?","?","?","?","?","?","?","?","?","?","?","?","?","?","?","?","?","?","?","?","?","?","?","?","?","?","?","?","?","?","?","?","?","?","?","?","?","?","?","?","?","?","?","?","?","?","?","?","?","?","?","?","?","?","?","?","?","?","?","?","?","?","?","?","?","?","?","?","?","?","?","?","?","?","?","?","?","?","?","?","?","?","?","?","?","?","?","?","?","?","?","?","?","?","?","?","?","?","?","?","?","?","?","?","?","?","?","?","?","?","?","?","?","?","?","?","?","?","?","?","?","?","?","?","?","?","?","?","?","?","?","?","?","?","?","?","?","?","?","?","?","?","?","?","?","?","?","?","?","?","?","?","?","?","?","?","?","?","?","?","?","?","?","?","?","?","?","?","?","?","?","?","?","?","?","?","?","?","?","?","?","?","?","?","?","?","?","?","?","?","?","?","?","?","?","?","?","?","?","?","?","?","?","?","?","?","?","?","?","?","?","?","?","?","?","?","?","?","?","?","?","?","?","?","?","?","?","?","?","?","?","?","?","?","?","?","?","?","?","?","?","?","?","?","?","?","?","?","?","?","?","?","?","?","?","?","?","?","?","?","?","?","?","?","?","?","?","?","?","?","?","?","?","?","?","?","?","?","?","?","?","?","?","?","?","?","?","?","?","?","?","?","?","?","?","?","?","?","?","?","?","?","?","?","?","?","?","?","?","?","?","?","?","?","?","?","?","?","?","?","?","?","?","?","?","?","?","?","?","?","?","?","?","?","?","?","?","?","?","?","?","?","?","?","?","?","?","?","?","?","?","?","?","?","?","?","?","?","?","?","?","?","?","?","?","?","?","?","?","?","?","?","?","?","?","?","?","?","?","?","?","?","?","?","?","?","?","?","?","?","?","?","?","?","?","?","?","?","?","?","?","?","?","?","?","?","?","?","?","?","?","?","?","?","?","?","?","?","?","?","?","?","?","?","?","?","?","?","?","?","?","?","?","?","?","?","?","?","?","?","?","?","?","?","?","?","?","?","?","?","?","?","?","?","?","?","?","?","?","?","?","?","?","?","?","?","?","?","?","?","?","?","?","?","?","?","?","?","?","?","?","?","?","?","?","?","?","?","?","?","?","?","?","?","?","?","?","?","?","?","?","?","?","?","?","?","?","?","?","?","?","?","?","?","?","?","?","?","?","?","?","?","?","?","?","?","?","?","?","?","?","?","?","?","?","?","?","?","?","?","?","?","?","?","?","?","?","?","?","?","?","?","?","?","?","?","?","?","?","?","?","?","?","?","?","?","?","?","?","?","?","?","?","?","?","?","?","?","?","?","?","?","?","?","?","?","?","?","?","?","?","?","?","?","?","?","?","?","?","?","?","?","?","?","?","?","?","?","?","?","?","?","?","?","?","?","?","?","?","?","?","?","?","?","?","?","?","?","?","?","?","?","?","?","?","?","?","?","?","?","?","?","?","?","?","?","?","?","?","?","?","?","?","?","?","?","?","?","?","?","?","?","?","?","?","?","?","?","?","?","?","?","?","?","?","?","?","?","?","?","?","?","?","?","?","?","?","?","?","?","?","?","?","?","?","?","?","?","?","?","?","?","?","?","?","?","?","?","?","?","?","?","?","?","?","?","?","?","?","?","?","?","?","?","?","?","?","?","?","?","?","?","?","?","?","?","?","?","?","?","?","?","?","?","?","?","?","?","?","?","?","?","?","?","?","?","?","?","?","?","?","?","?","?","?","?","?","?","?","?","?","?","?","?","?","?","?","?","?","?","?","?","?","?","?","?","?","?","?","?","?","?","?","?","?","?","?","?","?","?","?","?","?","?","?","?","?","?","?","?","?","?","?","?","?","?","?","?","?","?","?","?","?","?","?","?","?","?","?","?","?","?","?","?","?","?","?","?","?","?","?","?","?","?","?","?","?","?","?","?","?","?","?","?","?","?","?","?","?","?","?","?","?","?","?","?","?","?","?","?","?","?","D","D","D","D","D","D","?","?","?","?","?","?","?","?","?","?","?","?","?","?","M","?","?","L","L","L","L","L","L","?","?","?","?","?","?","?","?","?","?","?","?","?","?","?","?","?","?","?","?","?","?","?","?","K","K","K","K","K","K","K","K","K","K","K","K","K","K","K","K","K","K","K","K","K","K","K","K","K","K","K","K","K","K","K","K","K","K","K","?","?","?","?","?","?","?","?","?","?","?","?","?","?","?","?","?","?","?","?","?","?","?","?","?","?","?","?","?","?","?","?","?","?","?","?","?","C","C","C","C","C","C","C","?","?","?","?","?","?","?","?","?","?","?","?","?","?","?","?","?","?","?","?","?","?","?","?","?","?","?","?","?","?","?","?","?","?","?","?","?","?","?","?","?","C","C","C","C","C","C","C","C","?","?","?","?","?","?","?","?","?","?","?","?","?","?","?","?","?","?","?","?","?","?","?","?","?","?","?","?","?","?","?","?","?","?","?","?","?","?","?","?","?","?","?","?","?","?","?","?","?","?","C","C","C","C","?","?","?","?","?","?","?","?","K","K","K","K","K","K","K","K","K","K","K","K","K","K","K","K","K","K","K","K","K","K","?","?","?","?","?","?","L","L","?","?","?","?","?","M","M","M","M","M","M","?","?","?","?","?","?","?","?","?","?","?","?","?","?","?","?","?","?","?","?","?","?","?","?","?","?","?","?","?","?","?","?","?","?","?","?","?","?","?","?","?","?","?","?","?","?","?","?","?","?","?","?","?","?","?","?","?","?","?","?","?","?","?","?","?","?","?","?","?","?","?","?","?","?","?","?","?","?","?","?","?","?","?","?","?","?","?","?","?","?","?","?","?","?","?","?","?","?","?","?","?","?","?","?","?","?","?","?","?","?","?","?","?","?","?","?","?","?","?","?","?","?","?","?","?","?","?","?","?","?","?","?","?","?","?","?","?","?","?","?","?","?","?","?","?","?","?","?","?","?","?","?","?","?","?","?","?","?","?","?","?","?","?","?","?","?","?","?","?","?","?","?","?","?","?","?","?","?","?","?","?","?","?","?","?","?","?","?","?","?","?","?","?","?","?","?","?","?","?","?","?","?","?","?","?","?","?","?","?","?","?","?","?","?","?","?","?","?","?","?","?","?","?","?","?","?","?","?","?","?","?","?","?","?","?","?","?","?","?","?","?","?","?","?","?","?","?","?","?","?","?","?","?","?","?","?","?","?","?","?","?","N","N","N","?","?","?","?","?","?","?","M","M","M","M","M","M","M","M","M","M","?","?","?","?","D","D","D","D","D","D","?","?","?","?","?","?","?","?","?","?","?","?","?","?","?","?","?","?","?","?","?","E","E","E","E","E","E","E","E","E","E","?","?","?","D","D","D","D","D","D","D","D","D","D","D","D","D","D","D","D","D","D","D","D","D","D","D","D","D","D","D","D","D","D","D","D","D","D","D","D","D","D","D","D","D","D","D","D","D","D","D","D","D","D","D","D","D","D","D","?","?","?","?","?","?","?","?","?","?","?","?","?","?","?","?","?","?","?","?","?","?","?","?","?","?","?","?","?","?","?","?","?","?","?","?","?","?","?","?","?","?","?","?","D","D","D","D","?","?","?","?","?","?","?","?","?","?","?","?","?","?","?","?","?","?","?","?","?","?","?","?","?","?","?","?","?","?","?","?","?","?","?","?","?","?","?","?","?","?","?","?","?","?","?","?","?","?","?","?","?","?","?","?","?","?","?","?","?","?","?","?","?","?","?","?","?","?","?","?","?","?","?","?","?","?","?","?","?","?","?","?","?","?","?","?","?","?","?","?","?","?","?","?","?","?","?","?","?","?","?","?","?","?","?","?","?","?","?","?","?","?","?","?","?","?","?","?","?","?","?","?","E","?","?","?","?","?","?","?","?","?","?","?","?","?","?","?","N","N","N","N","N","N","N","N","N","?","?","?","?","?","?","?","?","?","?","?","?","?","?","?","?","?","?","?","?","U","U","U","U","U","?","?","?","T","T","T","T","T","T","T","T","T","T","T","T","T","T","T","T","T","T","T","T","T","T","T","T","T","T","T","T","T","T","T","T","T","T","T","T","T","T","T","T","T","T","T","T","T","T","T","T","T","T","T","T","T","T","T","T","T","T","T","T","T","T","T","T","T","T","T","T","T","T","T","T","T","T","T","T","T","T","T","T","T","T","T","T","T","T","T","T","T","T","T","T","T","T","T","T","T","T","T","T","T","T","T","T","T","T","T","T","T","T","T","T","T","T","T","T","T","T","T","T","T","T","T","T","T","T","T","T","T","T","T","T","T","T","T","T","T","T","T","T","T","T","T","T","T","T","T","T","T","T","T","T","T","T","T","T","T","T","T","T","T","T","T","T","T","T","T","T","T","T","T","T","T","T","T","T","T","T","T","T","T","T","T","T","T","T","T","T","T","T","T","T","T","T","T","T","T","T","T","T","T","T","T","T","T","T","T","T","T","T","T","T","T","T","T","T","T","T","T","T","T","T","T","T","T","T","T","T","T","T","T","T","T","T","T","T","T","T","T","T","T","T","T","T","T","T","T","T","T","T","T","T","T","T","T","T","T","T","T","T","T","T","T","T","T","T","T","T","T","T","T","T","T","T","T","T","T","T","T","T","T","T","T","T","T","T","T","T","T","T","T","T","T","T","T","T","T","T","T","T","T","T","T","T","T","T","T","T","T","T","T","T","T","T","T","T","T","T","T","T","T","T","T","T","T","T","T","T","T","T","T","T","T","T","T","T","T","T","T","T","T","T","T","T","T","T","T","T","T","T","T","T","T","T","T","T","T","T","T","T","T","T","?","?","?","?","J","J","J","?","?","?","?","A","A","A","?","?","?","?","?","?","?","?","?","?","?","?","?","?","?","?","?","?","?","?","?","?","?","?","?","?","?","?","?","?","?","?","?","?","?","?","C","C","C","C","C","C","C","C","C","C","C","C","?","?","?","?","?","?","?","?","?","?","?","?","?","?","?","?","?","?","?","?","?","?","?","?","?","?","?","?","?","?","?","?","K","K","K","K","K","K","K","K","K","K","K","K","K","K","K","K","K","K","K","K","K","K","K","K","K","K","K","K","K","K","K","?","?","?","?","?","?","?","?","?","?","L","L","L","L","?","?","?","?","?","?","?","?","?","?","?","?","?","?","?","?","?","?","?","?","?","?","?","?","?","?","?","?","?","?","?","?","?","?","?","?","?","?","E","E","E","E","E","E","E","E","E","E","E","E","E","E","E","E","E","E","E","E","E","E","E","E","E","E","E","E","E","E","E","E","E","E","E","E","E","E","E","E","E","E","E","E","?","?","?","?","?","?","?","?","?","?","?","?","?","?","?","?","?","?","?","?","?","?","?","?","?","?","?","?","?","?","?","?","?","?","?","?","?","?","?","?","?","?","?","?","?","?","?","?","?","?","?","?","?","?","?","?","?","?","?","?","?","?","?","?","?","?","?","?","?","?","?","?","?","?","?","?","?","?","?","?","?","?","?","?","?","?","?","?","?","?","?","?","?","?","?","?","?","?","?","?","?","?","?","?","?","?","?","?","?","?","?","?","?","?","?","?","?","?","?","?","?","?","?","?","?","?","?","?","?","?","?","?","?","?","?","?","?","?","?","?","?","?","?","?","?","?","?","?","?","?","?","?","?","?","?","?","?","?","?","?","?","?","?","?","?","E","E","E","E","E","E","E","E","E","E","E","E","E","E","E","E","E","E","E","E","E","E","E","E","E","E","E","E","E","E","E","E","E","?","?","?","?","?","?","?","?","?","?","?","?","?","?","?","?","?","?","?","?","?","?","?","?","?","?","?","?","?","?","?","?","?","?","?","D","D","D","D","D","D","D","D","D","D","D","D","D","D","D","D","D","D","D","D","D","D","D","D","D","D","D","D","D","D","D","D","D","D","D","D","D","D","D","D","D","D","D","D","D","D","?","?","C","C","C","C","C","C","C","C","C","C","C","C","C","C","C","C","C","C","C","C","C","C","C","C","C","C","C","C","C","C","C","C","C","C","C","C","C","C","C","C","C","C","C","C","C","C","C","C","C","C","C","C","C","C","C","C","C","?","?","?","?","?","?","?","?","?","?","?","?","?","?","?","?","?","?","?","?","?","?","?","?","?","?","?","?","?","?","?","?","?","?","?","?","?","?","?","?","?","?","?","?","?","?","?","?","?","?","?","?","?","?","?","?","?","?","?","?","?","?","?","?","?","?","?","?","?","?","?","?","?","?","?","?","?","?","?","?","?","?","?","?","?","?","?","?","?","?","?","?","?","?","?","?","?","?","?","?","?","?","?","?","?","?","?","?","?","?","?","?","?","?","?","?","?","?","?","?","?","?","?","?","?","?","?","?","?","?","?","?","?","?","?","?","?","?","?","?","?","?","?","?","?","?","?","?","?","?","?","?","?","?","?","?","?","?","?","?","?","?","?","?","?","?","?","?","?","?","?","D","D","D","D","D","?","?","?","?","?","?","?","?","?","?","?","?","?","?","?","?","?","?","?","K","K","K","K","?","?","?","?","?","?","?","?","?","?","?","?","?","?","?","?","?","?","?","?","?","?","S","S","S","S","S","S","S","S","S","S","S","S","S","S","S","S","S","S","S","S","S","S","S","S","S","S","S","S","S","S","S","S","S","S","S","S","S","S","S","S","S","S","S","S","S","S","S","S","S","S","S","S","S","S","S","S","S","S","S","S","S","S","S","S","S","S","S","S","S","S","S","S","S","S","S","S","S","S","S","S","S","S","S","S","S","S","S","S","S","S","S","S","S","S","S","S","S","S","S","S","S","S","S","S","S","S","S","S","S","S","S","S","S","S","S","S","S","S","S","S","S","S","S","S","S","S","S","S","S","S","S","S","S","S","?","?","?","K","K","?","?","?","?","C","C","C","C","C","?","?","?","D","D","D","D","D","D","D","D","D","D","D","D","D","D","D","D","D","D","D","D","D","D","D","D","D","D","D","D","D","D","D","D","?","?","?","?","?","?","?","?","?","?","?","?","?","?","?","?","?","?","?","?","?","?","?","?","?","?","?","?","?","?","?","?","?","?","?","?","?","?","?","?","?","?","?","?","?","?","?","?","?","?","?","?","?","?","D","D","D","D","D","D","D","D","?","?","?","?","?","?","?","?","E","E","E","E","E","E","E","E","E","E","E","E","E","E","E","E","E","E","E","E","E","E","E","E","E","E","E","E","E","E","E","E","E","E","E","E","E","E","E","E","E","E","E","E","E","E","E","E","E","E","E","E","E","E","E","E","E","E","E","E","E","E","E","E","E","E","E","E","E","E","E","E","E","E","E","E","E","E","E","E","E","E","E","E","E","E","E","E","E","E","E","E","E","E","E","E","E","E","E","E","E","E","E","E","E","E","E","E","E","E","E","E","E","E","E","E","E","E","E","E","E","E","E","E","E","?","?","?","?","?","?","?","?","?","?","?","?","?","?","?","?","?","?","?","?","?","?","?","?","?","?","?","?","?","?","?","?","?","?","?","?","?","?","?","?","?","?","?","?","?","?","?","?","?","?","?","?","?","?","?","?","?","?","?","?","?","?","?","?","?","?","?","?","?","?","?","?","?","?","?","?","?","?","?","?","?","?","?","?","?","?","?","?","?","?","?","?","?","?","?","?","?","?","?","?","?","?","?","?","?","?","?","?","?","?","?","?","?","?","?","?","?","?","?","?","?","?","?","?","?","?","?","?","?","?","?","?","?","?","?","?","?","?","?","?","?","?","?","?","?","?","?","?","?","?","?","?","?","?","?","?","?","?","?","?","?","?","?","?","?","?","?","?","?","?","?","?","?","?","?","?","?","?","?","?","?","?","?","?","?","?","?","?","?","?","?","?","?","?","?","?","?","?","?","?","?","?","?","?","?","?","?","?","?","?","?","?","?","?","?","?","?","?","?","?","?","?","?","?","?","?","?","?","?","?","?","?","?","?","?","?","?","?","?","?","?","?","?","?","?","?","?","?","?","?","?","?","?","?","?","?","?","?","?","?","?","?","?","?","?","?","?","?","?","?","?","?","?","?","?","?","?","?","?","?","?","?","?","?","?","?","?","?","?","?","?","?","?","?","?","?","?","?","?","?","?","?","?","?","?","?","?","?","?","?","?","?","?","?","?","?","?","?","?","?","?","?","?","?","?","?","?","?","?","?","?","?","?","?","?","?","?","?","?","?","?","?","?","?","?","?","?","?","?","?","?","?","?","?","?","?","?","?","?","?","?","?","?","?","?","?","?","?","?","?","?","?","?","?","?","?","?","?","?","?","?","?","?","?","?","?","?","?","?","?","?","?","?","?","?","?","?","?","?","?","?","?","?","?","?","?","?","?","?","?","?","?","?","?","?","?","?","?","?","?","?","?","?","?","?","?","?","?","?","?","?","?","?","?","?","?","?","?","?","?","?","?","?","?","?","?","?","?","?","?","?","?","?","?","?","?","?","?","?","?","?","?","?","?","?","?","?","?","?","?","?","?","?","?","?","?","?","?","?","?","?","?","?","?","?","?","?","?","?","?","?","?","?","?","?","?","?","?","?","?","?","?","?","?","?","?","?","?","?","?","?","?","?","?","?","?","?","?","?","?","?","?","?","?","?","?","?","?","?","?","?","?","?","?","?","?","?","?","?","?","?","?","?","?","?","?","?","?","?","?","?","?","?","?","?","?","?","D","D","D","D","D","D","?","?","?","?","?","?","?","?","?","?","?","?","?","?","?","?","?","?","?","?","?","?","?","?","?","?","?","?","?","?","?","?","?","?","?","?","?","?","?","?","?","?","?","?","?","?","?","?","?","?","?","?","?","?","?","?","?","?","?","?","?","?","?","?","?","?","?","?","?","?","?","?","?","?","?","?","M","M","M","M","M","M","M","M","M","M","M","M","M","M","M","M","M","?","?","?","?","?","?","?","?","?","?","?","?","?","?","?","?","?","?","?","?","?","?","?","?","?","?","?","?","?","?","?","?","?","?","?","?","?","?","?","?","?","?","?","?","?","?","?","?","?","?","?","?","?","?","?","?","?","?","?","?","?","?","?","?","?","?","?","?","?","?","?","?","?","?","?","?","?","?","?","?","?","?","?","?","?","?","?","?","?","?","?","?","?","?","?","?","?","?","?","?","?","?","?","?","?","?","?","?","?","?","?","?","?","?","?","?","?","?","?","?","?","?","?","?","?","?","?","?","?","?","?","?","?","?","?","?","?","?","?","?","?","?","?","?","?","?","?","?","?","?","?","?","?","?","?","?","?","?","?","?","?","?","?","?","?","?","?","?","?","?","?","?","?","?","?","?","L","L","L","L","?","K","K","K","K","K","K","K","K","K","K","K","K","K","K","K","K","K","K","K","K","K","K","K","K","K","K","K","K","K","K","K","K","K","K","K","K","K","K","K","K","K","K","K","K","K","K","K","K","K","K","K","K","K","K","K","K","K","K","K","K","K","K","K","K","K","K","K","K","K","K","K","K","K","K","K","K","K","K","K","K","K","K","K","K","K","K","K","K","K","K","K","K","K","K","K","K","K","K","K","K","K","K","K","K","K","K","K","K","K","K","K","K","K","K","K","K","K","K","K","K","K","K","K","K","K","K","K","K","K","K","K","K","K","K","K","K","K","K","K","K","K","K","K","K","K","K","K","K","K","K","K","K","K","K","K","K","K","K","K","K","K","K","K","K","K","K","K","K","K","K","K","K","K","K","K","K","K","K","K","K","K","K","K","K","K","K","K","K","K","K","K","K","K","K","K","K","K","K","K","K","K","K","K","K","K","K","K","K","K","K","K","K","K","K","K","K","K","K","K","K","K","K","K","K","K","K","?","?","?","?","?","?","?","?","?","?","?","?","?","?","?","?","?","?","?","?","?","?","?","?","?","?","?","?","?","?","?","?","?","?","?","?","?","?","?","?","?","?","?","?","?","?","?","?","?","L","L","L","L","L","L","L","L","L","L","L","L","L","L","L","L","L","L","L","L","L","L","L","L","L","L","L","L","L","L","L","L","L","L","L","L","L","L","L","L","L","L","L","L","L","L","?","?","?","?","?","?","?","?","?","?","?","?","?","?","?","?","?","?","?","?","?","?","?","?","?","?","?","?","?","?","?","?","?","?","?","?","?","?","?","?","?","?","?","?","?","C","C","C","C","C","C","C","C","C","C","C","C","C","C","C","C","C","C","C","C","C","C","C","C","C","C","C","C","C","C","C","C","C","C","C","C","C","C","C","C","C","C","C","C","C","C","C","C","C","C","C","C","C","C","C","C","C","C","C","C","C","C","C","C","C","C","C","C","C","C","C","C","C","?","?","?","?","?","?","?","?","?","?","?","?","?","?","?","?","?","?","?","?","?","?","?","?","?","?","?","?","?","?","?","?","?","?","?","?","?","K","K","K","?","L","L","L","L","L","L","?","M","M","M","M","M","?","?","?","N","N","N","N","N","N","N","N","N","N","N","?","?","?","?","N","N","N","N","N","N","N","N","N","?","?","?","?","?","?","?","?","?","?","N","N","?","?","O","O","O","O","O","O","O","O","O","O","O","O","O","O","O","O","O","O","O","O","O","O","O","?","?","?","?","?","?","?","?","?","?","?","?","?","?","?","?","?","?","?","?","?","?","?","G","G","G","G","G","G","G","G","G","G","G","G","G","G","G","G","G","G","G","G","G","G","G","G","G","G","G","G","G","G","G","G","G","G","G","G","G","G","G","G","G","G","G","F","F","F","?","E","E","?","?","?","?","?","?","?","?","?","?","?","?","?","?","?","?","?","B","B","B","B","B","B","B","B","B","B","B","B","B","B","B","B","B","B","B","B","B","B","B","B","B","B","B","B","B","B","B","B","B","B","B","B","B","B","B","B","B","B","B","B","B","B","B","B","B","B","B","B","B","B","B","B","B","B","B","B","B","B","B","B","B","B","B","B","B","B","B","B","B","B","B","B","B","B","B","B","B","B","B","B","B","B","B","B","B","B","B","B","B","B","B","B","B","B","B","B","B","B","B","B","B","B","B","B","B","B","B","B","B","B","B","B","B","B","B","B","B","?","?","C","C","C","C","C","C","C","C","C","C","C","C","C","C","C","C","C","C","C","C","C","C","C","C","C","C","C","C","C","C","C","C","C","C","C","C","C","C","C","C","C","C","C","C","C","C","C","C","C","C","C","C","C","C","C","C","C","C","C","C","C","C","C","C","C","C","C","C","C","C","C","C","C","C","C","C","C","C","C","C","C","C","C","C","C","C","C","C","C","C","C","C","C","C","C","C","C","C","C","C","C","C","C","C","C","C","C","C","C","C","C","C","C","C","C","C","C","C","C","C","C","C","C","C","C","C","C","C","C","C","C","C","C","C","C","C","C","C","C","C","C","C","C","C","C","C","C","C","C","C","C","C","C","C","C","C","C","C","C","C","C","C","C","C","C","C","C","C","C","C","C","C","C","C","C","C","C","C","C","C","C","C","C","C","C","C","C","C","C","C","C","C","C","C","C","C","C","C","C","C","C","C","C","C","C","C","C","C","C","C","C","C","C","C","C","C","C","C","C","C","C","C","C","C","C","C","C","C","C","C","C","C","C","C","C","C","C","C","C","C","C","C","C","C","C","C","C","C","C","C","C","C","C","C","C","C","C","C","C","C","C","C","C","C","C","C","C","C","C","C","C","C","C","C","C","C","C","C","C","C","C","C","C","C","C","C","C","C","C","C","C","C","C","C","C","C","C","C","C","C","C","C","C","C","C","C","C","C","C","C","?","?","?","?","?","?","?","?","?","K","K","K","K","K","K","K","K","K","K","K","K","K","K","K","K","K","K","K","K","K","K","K","K","K","K","K","K","K","K","K","K","K","K","K","K","K","K","K","K","K","K","K","K","K","K","K","K","K","K","K","K","K","K","K","K","K","K","K","K","K","K","K","K","K","K","K","K","K","K","K","K","K","K","K","?","?","?","L","L","?","?","?","?","?","?","?","?","?","?","?","?","?","?","?","?","?","?","?","N","N","N","N","N","N","N","N","N","N","N","N","N","N","N","N","N","N","N","N","N","N","N","N","N","N","N","N","N","N","N","N","N","N","N","N","N","N","N","N","N","N","N","N","N","N","N","N","N","N","N","N","N","N","N","N","N","N","N","N","N","N","N","N","N","N","N","N","N","N","N","N","N","N","N","N","N","N","N","N","N","N","N","N","N","N","N","N","N","?","?","?","?","?","?","?","F","F","F","?","?","?","?","?","?","?","?","?","E","E","E","E","E","E","E","E","E","E","E","E","E","E","E","E","E","E","E","E","E","E","E","E","E","E","E","E","E","E","E","E","E","E","E","E","E","E","E","E","E","E","E","E","E","E","E","E","E","E","E","E","E","E","E","E","E","E","E","E","E","E","E","E","E","E","E","E","E","E","E","E","E","E","E","E","E","E","E","E","E","E","E","E","E","E","E","E","E","E","E","E","E","E","E","E","E","E","E","E","?","?","?","F","F","F","F","F","F","F","F","F","F","F","F","F","F","F","F","F","F","F","F","F","F","F","F","F","F","F","F","F","F","F","F","F","F","F","F","F","F","F","F","F","F","F","F","F","F","F","F","F","F","F","F","F","F","F","F","F","F","F","F","F","F","F","F","F","F","F","F","F","F","F","F","F","F","F","F","F","F","F","F","F","F","F","F","F","F","F","F","F","?","?","?","?","?","?","?","G","G","G","G","G","G","G","G","G","G","G","G","G","G","G","G","G","G","G","G","G","G","G","G","G","G","G","G","G","G","G","G","G","G","G","G","G","G","G","G","G","G","G","G","G","G","G","G","G","G","G","G","G","G","G","G","G","G","G","G","G","G","G","G","G","G","G","G","G","G","G","G","G","G","G","G","G","G","G","G","G","G","G","G","G","G","G","G","G","G","G","G","G","G","G","G","G","G","G","G","G","G","?","?","?","H","H","H","H","H","H","H","H","H","H","H","H","H","H","?","?","?","?","?","?","Q","Q","Q","Q","Q","Q","Q","Q","Q","Q","Q","Q","Q","Q","Q","Q","Q","Q","Q","Q","Q","Q","Q","Q","Q","Q","Q","Q","Q","Q","Q","Q","Q","Q","Q","Q","Q","Q","Q","Q","Q","Q","Q","Q","Q","Q","Q","Q","Q","?","?","?","R","R","R","R","R","R","R","R","R","R","R","R","R","R","R","R","R","R","R","R","R","R","R","R","R","R","R","R","R","R","R","R","R","R","R","R","R","R","R","R","R","R","R","R","R","R","R","R","R","R","R","R","R","R","R","R","R","R","R","R","R","R","R","R","R","R","R","R","R","R","R","R","R","R","R","R","R","R","R","R","R","R","R","R","R","R","R","R","R","R","R","R","R","R","R","R","R","R","R","R","R","R","R","R","R","R","R","R","R","R","R","R","R","R","R","R","R","R","R","R","R","R","R","R","R","R","R","R","R","R","R","R","R","R","R","R","R","R","R","R","R","R","R","R","R","R","R","R","R","R","R","R","R","R","R","R","R","R","R","R","R","R","R","R","R","R","R","R","R","R","R","R","R","R","R","R","R","R","R","R","R","R","R","R","R","R","R","R","R","R","R","R","R","R","R","R","R","R","R","R","R","R","R","R","R","R","R","R","R","R","R","R","R","R","R","R","R","R","R","R","R","R","R","R","R","R","R","R","R","R","R","R","R","R","R","R","R","R","R","R","R","R","R","R","R","R","R","R","R","R","R","R","R","R","R","R","R","R","R","R","R","R","R","R","R","R","R","R","R","R","R","R","R","R","R","R","R","R","R","R","R","R","R","R","R","R","R","R","R","R","R","?","?","?","?","?","?","?","?","?","?","?","Z","Z","Z","Z","Z","Z","Z","Z","Z","Z","Z","Z","?","?","Y","Y","Y","Y","Y","Y","Y","Y","Y","Y","Y","Y","Y","Y","Y","Y","Y","Y","Y","Y","Y","Y","Y","Y","Y","Y","Y","Y","Y","Y","Y","Y","Y","Y","Y","Y","Y","Y","Y","Y","Y","Y","Y","Y","Y","Y","Y","Y","Y","Y","Y","Y","Y","Y","Y","Y","Y","Y","Y","Y","Y","Y","Y","Y","Y","Y","Y","Y","Y","Y","Y","Y","Y","Y","Y","Y","Y","Y","Y","Y","Y","Y","Y","Y","Y","Y","Y","Y","Y","Y","Y","Y","Y","Y","Y","Y","Y","Y","Y","Y","Y","Y","Y","Y","Y","Y","Y","Y","Y","Y","Y","Y","Y","Y","Y","Y","Y","Y","Y","Y","Y","Y","Y","Y","Y","Y","Y","Y","Y","Y","Y","Y","Y","Y","Y","?","?","?","?","?","?","X","X","X","X","X","X","X","X","X","X","X","X","X","X","X","X","X","X","X","X","?","?","?","?","?","?","?","?","?","?","?","?","?","?","?","?","?","?","?","?","?","?","?","?","?","?","?","?","?","?","?","?","?","?","?","?","?","?","?","?","?","?","?","?","?","?","?","?","?","?","?","?","?","?","?","?","?","?","?","?","?","?","?","?","?","U","U","U","U","U","U","U","U","U","U","U","U","U","U","U","U","U","U","U","U","U","U","U","U","U","U","U","U","U","U","U","U","U","U","U","U","U","U","U","U","U","U","U","U","U","U","U","U","U","U","U","U","U","U","U","U","U","U","U","U","U","U","U","U","U","U","U","U","U","U","U","U","U","U","U","U","U","U","U","U","U","U","U","U","U","U","U","U","U","U","U","U","U","U","U","U","U","U","U","U","U","U","U","U","U","U","U","U","U","U","U","U","U","U","U","U","U","U","U","U","U","U","U","U","U","U","U","U","U","U","U","U","U","U","U","U","U","U","U","U","U","U","U","U","U","U","U","U","U","U","U","U","U","U","U","U","U","U","U","U","U","U","U","U","U","U","U","U","U","U","U","U","U","U","U","U","U","U","U","U","U","U","U","U","U","U","U","U","U","U","U","U","U","U","U","U","?","?","?","V","V","V","V","V","V","V","V","V","V","V","V","V","V","V","V","V","V","V","V","V","V","V","V","V","V","V","V","V","V","V","V","V","V","V","V","V","V","V","V","V","V","V","V","V","V","V","V","V","V","V","V","V","V","V","V","V","V","V","V","V","V","V","V","V","V","V","V","V","V","V","V","V","V","V","V","V","V","V","V","V","V","V","V","V","V","V","V","V","?","?","W","W","W","W","W","W","W","W","?","?","?","X","X","X","X","X","X","X","X","X","X","X","X","X","X","X","X","X","X","X","X","X","X","X","X","X","X","X","X","X","X","X","X","X","X","X","X","X","X","X","X","X","X","X","X","X","X","X","X","X","X","X","X","X","X","X","X","X","X","X","X","X","X","X","X","X","X","X","X","X","X","X","X","X","X","X","X","X","X","X","X","X","X","X","X","X","X","X","X","X","?","W","?","?","?","L","L","?","K","K","K","?","?","?","?","?","?","?","?","?","?","?","?","?","?","?","?","?","?","?","?","?","?","B","B","B","B","B","B","B","B","B","B","B","B","B","B","B","B","B","B","B","B","B","B","B","B","B","B","B","B","B","B","B","B","B","B","B","B","B","B","B","B","B","B","B","B","B","B","B","B","B","B","B","B","B","B","B","B","B","B","B","B","B","B","B","B","B","B","B","B","B","B","B","B","B","B","B","B","B","B","B","B","B","B","B","B","B","B","B","B","B","B","B","B","B","B","B","B","B","B","B","B","B","B","B","B","B","B","B","B","B","B","B","B","B","B","B","B","B","B","B","B","B","B","B","B","B","B","B","B","B","B","B","B","B","B","B","B","B","B","B","B","B","B","B","B","B","B","B","B","B","B","B","B","B","B","B","B","B","B","B","B","B","B","B","B","B","B","B","B","B","B","B","B","B","B","B","B","B","B","B","B","B","B","B","B","B","B","B","B","B","B","B","B","B","B","B","B","B","B","B","B","B","B","B","B","B","B","B","B","B","B","B","B","B","B","B","B","?","?","?","?","?","A","A","A","A","A","A","A","A","A","A","A","A","A","A","A","A","A","A","A","A","A","A","A","A","A","A","A","A","A","A","A","A","A","A","A","A","A","A","A","A","A","A","A","A","A","A","A","A","A","A","A","A","A","A","A","A","A","A","A","A","A","A","A","A","A","A","A","A","A","A","A","A","A","A","A","A","A","A","A","A","A","A","A","A","A","A","A","A","A","A","A","A","A","A","A","A","A","A","A","A","A","A","A","A","A","A","A","A","A","A","A","A","A","A","A","A","A","A","A","A","A","A","A","A","A","B","B","B","?","?","?","?","?","?","?","?","?","?","?","?","?","?","?","?","?","?","?","?","?","?","?","?","?","?","?","?","?","?","?","?","?","?","?","L","L","L","L","L","L","L","L","L","L","L","L","L","L","L","L","L","L","L","L","L","L","L","L","L","L","?","?","?","?","?","?","?","?","?","?","?","?","?","?","?","?","?","?","?","?","?","?","?","?","?","?","?","?","?","?","?","?","?","?","?","?","?","?","?","?","?","?","?","L","L","L","L","L","L","L","L","L","L","L","L","L","L","L","L","L","L","L","L","L","L","L","L","L","L","L","L","L","L","L","L","L","L","L","L","L","L","L","L","L","L","L","L","L","L","L","L","L","L","L","L","L","L","L","L","L","L","L","L","L","L","L","L","L","L","L","L","L","L","L","L","L","L","L","L","L","L","L","L","L","L","L","L","L","L","L","L","L","L","L","L","L","L","L","L","L","?","?","M","M","M","M","M","M","M","M","M","M","?","?","N","N","N","N","N","N","N","?","?","?","O","O","O","O","O","O","O","O","O","?","?","P","P","P","P","P","P","P","P","P","P","P","P","P","P","P","P","P","P","P","P","P","P","P","P","P","P","P","P","P","P","P","P","P","P","P","P","P","P","P","P","P","P","P","P","P","P","P","P","P","P","P","P","P","P","P","P","P","P","P","P","P","P","P","P","P","P","P","P","P","P","P","P","P","P","P","P","P","P","P","P","P","P","P","P","P","P","P","P","P","P","P","P","P","P","P","P","P","P","P","P","P","P","P","P","P","P","P","P","P","P","P","P","P","P","P","P","P","P","P","P","P","P","P","?","?","?","?","?","?","?","?","?","Q","Q","Q","Q","Q","Q","Q","Q","Q","Q","Q","Q","Q","Q","Q","Q","Q","Q","Q","Q","Q","Q","Q","Q","Q","Q","Q","Q","Q","Q","Q","?","?","?","?","?","Z","Z","Z","Z","Z","Z","Z","Z","Z","Z","Z","Z","Z","Z","Z","?","?","?","?","?","Q","Q","Q","Q","Q","Q","Q","Q","Q","Q","Q","Q","Q","Q","Q","Q","Q","Q","Q","Q","Q","Q","Q","Q","Q","Q","Q","Q","Q","Q","Q","Q","Q","Q","Q","Q","Q","Q","Q","Q","Q","Q","Q","Q","Q","Q","Q","Q","Q","Q","Q","Q","Q","Q","Q","Q","Q","Q","Q","Q","Q","Q","Q","Q","Q","Q","Q","Q","Q","Q","Q","Q","Q","Q","Q","Q","Q","Q","Q","Q","Q","Q","Q","Q","Q","Q","?","Z","Z","Z","Z","Z","Z","Z","?","?","?","?","?","?","?","?","?","?","?","?","?","?","?","?","?","?","?","?","?","?","Z","Z","Z","Z","Z","Z","Z","Z","Z","Z","Z","Z","Z","Z","Z","Z","Z","Z","Z","Z","Z","Z","Z","Z","Z","Z","Z","Z","Z","Z","Z","Z","Z","Z","Z","Z","Z","Z","Z","Z","Z","Z","Z","Z","Z","Z","Z","Z","Z","Z","Z","Z","Z","Z","Z","Z","Z","Z","Z","Z","Z","Z","Z","Z","Z","Z","Z","Z","Z","Z","Z","Z","Z","Z","Z","Z","Z","Z","Z","Z","Z","Z","Z","Z","Z","Z","Z","Z","Z","Z","Z","Z","Z","Z","Z","Z","Z","Z","Z","Z","Z","Z","Z","Z","Z","Z","Z","Z","Z","Z","Z","Z","Z","Z","Z","Z","Z","Z","Z","Z","Z","Z","Z","Z","Z","Z","Z","Z","Z","Z","Z","Z","Z","Z","Z","Z","Z","Z","Z","Z","Z","Z","Z","Z","Z","Z","Z","Z","Z","Z","Z","Z","Z","Z","Z","Z","Z","Z","Z","Z","Z","Z","Z","Z","Z","Z","Z","Z","Z","Z","Z","Z","Z","Z","Z","Z","Z"],"t":[70,83,103,116,132,151,198,202,231,264,283,287,300,330,353,385,401,416,421,447,466,479,497,514,535,552,573,585,611,633,655,679,683,712,729,746,768,786,805,816,830,847,864,887,917,932,937,963,979,995,1019,1043,1058,1069,1084,1114,1134,1150,1167,1182,1198,1217,1233,1251,1266,1282,1298,1315,1332,1352,1367,1383,1399,1416,1431,1451,1468,1483,1498,1515,1532,1550,1567,1584,1599,1614,1631,1649,1665,1683,1712,1728,1744,1769,1791,1808,1836,1860,1875,1896,1912,1939,1958,1987,2014,2028,2037,2064,2081,2097,2114,2130,2149,2165,2181,2197,2218,2237,2248,2268,2283,2297,2314,2335,2348,2368,2378,2399,2415,2431,2447,2467,2498,2518,2533,2537,2564,2580,2598,2615,2632,2648,2664,2681,2713,2728,2747,2760,2780,2796,2820,2850,2861,2880,2897,2914,2931,2948,2964,2980,2997,3014,3031,3048,3065,3081,3098,3114,3132,3147,3165,3181,3197,3214,3231,3248,3273,3294,3308,3327,3345,3361,3380,3392,3413,3432,3447,3463,3481,3501,3515,3532,3547,3568,3588,3602,3615,3632,3649,3667,3683,3694,3716,3732,3748,3767,3783,3797,3815,3832,3850,3867,3887,3901,3939,3953,3978,3995,4023,4045,4053,4081,4098,4114,4144,4175,4195,4202,4230,4247,4266,4282,4298,4313,4329,4346,4365,4382,4398,4414,4431,4447,4464,4481,4510,4525,4529,4549,4567,4583,4599,4618,4632,4647,4660,4684,4699,4716,4730,4745,4765,4782,4803,4820,4834,4864,4880,4897,4914,4930,4947,4958,4977,4995,5013,5032,5049,5064,5079,5096,5113,5129,5168,5180,5198,5214,5230,5247,5266,5280,5296,5312,5330,5343,5370,5385,5409,5427,5444,5460,5482,5498,5530,5538,5570,5597,5601,5631,5649,5663,5681,5695,5713,5729,5747,5764,5781,5830,5852,5865,5873,5882,5913,5930,5947,5963,5979,6016,6033,6062,6078,6094,6112,6128,6151,6169,6184,6208,6225,6242,6259,6288,6301,6332,6345,6349,6366,6382,6398,6419,6442,6464,6483,6498,6511,6529,6545,6560,6579,6596,6613,6636,6664,6682,6695,6701,6725,6745,6762,6779,6796,6813,6829,6846,6870,6899,6919,6933,6960,6977,6996,7007,7030,7046,7059,7079,7096,7112,7131,7147,7163,7180,7198,7214,7231,7245,7263,7279,7296,7320,7344,7352,7380,7396,7413,7432,7448,7463,7478,7494,7518,7551,7562,7579,7596,7619,7637,7648,7661,7677,7695,7714,7731,7750,7767,7781,7794,7811,7828,7866,7891,7898,7913,7929,7944,7979,7994,8000,8028,8045,8062,8080,8103,8130,8150,8165,8169,8185,8213,8229,8247,8264,8283,8298,8319,8330,8347,8367,8383,8423,8430,8460,8477,8494,8507,8565,8582,8586,8601,8616,8632,8647,8667,8681,8699,8711,8732,8750,8766,8784,8819,8835,8849,8864,8881,8910,8915,8946,8964,8989,9003,9008,9049,9069,9083,9097,9100,9129,9150,9166,9183,9200,9237,9265,9280,9286,9301,9330,9348,9365,9384,9399,9416,9430,9446,9464,9480,9496,9512,9529,9549,9572,9591,9598,9616,9633,9650,9669,9682,9699,9715,9732,9749,9768,9782,9797,9815,9831,9850,9865,9897,9901,9929,9946,9964,9983,9999,10016,10031,10047,10064,10080,10102,10130,10136,10150,10164,10182,10215,10233,10246,10264,10279,10297,10315,10329,10347,10365,10381,10396,10413,10430,10447,10464,10479,10497,10515,10531,10550,10565,10580,10596,10613,10630,10648,10665,10683,10713,10717,10758,10794,10810,10820,10850,10875,10894,10910,10928,10944,10959,10988,11014,11031,11036,11052,11080,11096,11113,11136,11151,11165,11182,11200,11214,11236,11247,11265,11285,11300,11317,11332,11352,11364,11383,11400,11415,11431,11446,11472,11484,11494,11519,11534,11549,11565,11581,11598,11617,11647,11652,11680,11697,11728,11742,11770,11797,11827,11834,11859,11875,11892,11911,11927,11942,11961,11981,11995,12018,12045,12062,12064,12104,12125,12129,12161,12169,12183,12200,12213,12231,12249,12265,12281,12297,12312,12333,12348,12369,12383,12400,12417,12431,12444,12464,12498,12514,12518,12546,12564,12579,12597,12614,12630,12646,12662,12683,12702,12714,12728,12747,12761,12781,12798,12816,12832,12849,12879,12896,12911,12929,12945,12961,12988,13007,13016,13031,13047,13063,13080,13098,13114,13129,13145,13179,13197,13217,13232,13236,13268,13296,13308,13312,13328,13344,13381,13401,13414,13425,13433,13447,13461,13479,13498,13514,13530,13547,13563,13585,13601,13617,13631,13645,13661,13685,13713,13724,13730,13766,13785,13803,13816,13831,13857,13880,13898,13920,13943,13948,13964,13980,14003,14026,14034,14061,14078,14095,14113,14130,14149,14168,14180,14198,14214,14230,14246,14269,14292,14300,14314,14331,14350,14378,14394,14429,14445,14464,14482,14499,14514,14529,14547,14562,14583,14602,14616,14629,14647,14663,14682,14702,14710,14732,14748,14765,14785,14798,14814,14833,14847,14864,14882,14900,14913,14934,14950,14963,14979,14999,15017,15033,15049,15064,15079,15101,15116,15133,15149,15167,15181,15195,15228,15250,15265,15275,15295,15313,15331,15347,15361,15378,15397,15412,15428,15445,15463,15479,15499,15517,15529,15547,15563,15579,15597,15616,15633,15648,15662,15679,15697,15713,15728,15751,15777,15797,15835,15864,15880,15885,15899,15931,15959,15976,15994,16007,16034,16064,16082,16096,16101,16115,16144,16162,16183,16215,16226,16245,16263,16294,16313,16318,16345,16361,16364,16382,16412,16430,16448,16462,16484,16510,16514,16531,16545,16561,16581,16598,16612,16630,16660,16676,16698,16716,16743,16750,16761,16781,16796,16815,16833,16851,16865,16881,16898,16912,16931,16947,16963,16989,17001,17028,17045,17062,17081,17101,17114,17133,17148,17163,17178,17201,17217,17245,17262,17279,17296,17317,17348,17358,17380,17396,17412,17429,17445,17462,17477,17495,17515,17530,17548,17563,17597,17615,17632,17647,17660,17678,17695,17711,17733,17752,17770,17779,17798,17815,17830,17853,17871,17885,17897,17912,17929,17962,17966,17994,18010,18027,18044,18065,18085,18101,18124,18146,18165,18184,18197,18212,18232,18247,18263,18280,18297,18318,18348,18363,18376,18380,18397,18413,18439,18451,18477,18498,18515,18533,18547,18561,18578,18593,18615,18634,18656,18662,18680,18694,18712,18729,18749,18765,18783,18810,18827,18849,18878,18895,18901,18914,18946,18962,18980,18996,19011,19028,19045,19065,19083,19098,19110,19124,19141,19164,19179,19209,19225,19242,19258,19278,19293,19315,19332,19354,19368,19383,19399,19416,19442,19458,19475,19493,19508,19531,19549,19566,19596,19602,19611,19630,19651,19666,19680,19697,19729,19747,19750,19779,19795,19814,19830,19849,19864,19879,19896,19912,19947,19967,19992,19998,20013,20029,20046,20066,20106,20128,20134,20150,20179,20196,20213,20229,20259,20278,20293,20319,20343,20347,20366,20381,20400,20414,20431,20447,20465,20478,20497,20515,20532,20546,20564,20580,20598,20615,20631,20649,20677,20694,20711,20729,20745,20761,20778,20794,20816,20842,20860,20875,20901,20923,20945,20952,20977,20995,21010,21027,21045,21061,21079,21096,21114,21129,21145,21163,21182,21199,21226,21239,21261,21279,21300,21328,21344,21365,21380,21396,21412,21428,21444,21462,21478,21495,21511,21530,21547,21565,21580,21599,21615,21629,21644,21666,21686,21695,21746,21766,21780,21783,21810,21827,21848,21865,21882,21897,21914,21928,21944,21958,21979,21996,22012,22027,22044,22061,22077,22095,22113,22131,22151,22168,22179,22198,22210,22232,22243,22262,22279,22296,22316,22331,22347,22365,22385,22400,22426,22441,22461,22478,22494,22512,22527,22545,22562,22578,22597,22613,22629,22644,22662,22678,22696,22713,22731,22746,22762,22774,22794,22811,22827,22844,22861,22879,22895,22918,22939,22962,22966,22995,23025,23044,23054,23094,23115,23141,23150,23179,23191,23209,23228,23244,23262,23278,23294,23312,23332,23347,23362,23377,23394,23425,23442,23472,23483,23508,23521,23544,23560,23578,23595,23611,23628,23645,23663,23679,23694,23710,23727,23744,23761,23778,23793,23843,23849,23877,23903,23917,23931,23939,23967,23982,24012,24026,24059,24075,24079,24098,24114,24131,24178,24185,24212,24232,24246,24263,24278,24294,24310,24329,24346,24364,24380,24397,24412,24428,24446,24462,24477,24495,24511,24548,24565,24583,24598,24612,24630,24647,24663,24679,24698,24713,24728,24747,24766,24781,24798,24815,24830,24860,24875,24892,24906,24967,24981,24998,25015,25032,25047,25063,25082,25096,25115,25130,25149,25160,25194,25209,25213,25243,25261,25284,25309,25314,25343,25364,25377,25396,25411,25428,25447,25462,25478,25494,25511,25528,25545,25567,25581,25609,25628,25642,25662,25677,25694,25711,25740,25760,25765,25780,25797,25811,25831,25849,25865,25884,25897,25928,25948,25964,25980,25994,26010,26027,26046,26065,26079,26094,26111,26127,26144,26164,26182,26198,26212,26226,26243,26262,26298,26315,26330,26334,26361,26380,26398,26415,26443,26459,26475,26488,26530,26546,26562,26577,26594,26611,26633,26659,26665,26695,26711,26727,26745,26761,26781,26800,26817,26831,26845,26862,26877,26898,26915,26932,26949,26962,26979,26995,27012,27030,27045,27065,27080,27095,27111,27134,27159,27173,27203,27222,27230,27250,27265,27295,27317,27343,27346,27378,27395,27412,27429,27445,27462,27477,27494,27510,27528,27545,27562,27578,27594,27611,27627,27645,27662,27676,27694,27710,27728,27772,27780,27796,27812,27829,27846,27865,27881,27898,27910,27929,27948,27964,27980,27995,28010,28032,28047,28061,28081,28099,28113,28130,28146,28164,28180,28197,28214,28229,28246,28262,28281,28299,28323,28338,28359,28371,28391,28406,28424,28439,28463,28482,28506,28516,28544,28560,28577,28594,28610,28626,28645,28660,28677,28694,28730,28747,28766,28775,28792,28810,28827,28843,28865,28883,28896,28912,28928,28945,28960,28979,29001,29024,29028,29047,29062,29085,29112,29129,29131,29165,29185,29200,29208,29230,29246,29262,29280,29301,29318,29331,29359,29377,29406,29429,29445,29467,29479,29510,29527,29549,29572,29580,29591,29611,29627,29640,29662,29677,29709,29723,29728,29747,29765,29791,29811,29823,29829,29846,29862,29884,29912,29926,29929,29947,29962,29979,29996,30015,30030,30047,30063,30081,30098,30113,30131,30149,30164,30180,30194,30211,30236,30262,30278,30286,30316,30343,30355,30378,30392,30409,30426,30443,30459,30477,30495,30512,30527,30544,30559,30576,30596,30613,30628,30645,30660,30683,30701,30712,30723,30747,30762,30773,30788,30812,30829,30847,30868,30882,30910,30928,30948,30969,30993,31006,31013,31030,31047,31077,31094,31110,31127,31143,31161,31177,31193,31211,31240,31245,31275,31290,31313,31336,31355,31362,31381,31396,31415,31444,31460,31476,31492,31510,31527,31543,31560,31579,31596,31615,31629,31643,31664,31683,31699,31724,31744,31766,31784,31794,31809,31827,31845,31864,31889,31899,31923,31940,31958,31973,31997,32021,32026,32047,32058,32079,32102,32112,32124,32173,32191,32194,32228,32244,32260,32277,32293,32310,32327,32356,32378,32391,32399,32427,32442,32459,32481,32498,32511,32530,32557,32580,32597,32614,32641,32664,32684,32696,32723,32740,32759,32773,32797,32816,32844,32855,32875,32900,32922,32945,32961,32977,32994,33008,33027,33043,33060,33076,33094,33111,33127,33146,33162,33176,33194,33210,33230,33244,33259,33276,33293,33310,33327,33347,33377,33389,33410,33426,33445,33462,33481,33493,33511,33527,33546,33562,33590,33607,33624,33640,33656,33672,33690,33708,33721,33744,33760,33776,33793,33810,33827,33843,33860,33880,33894,33911,33932,33944,33963,33980,33994,34009,34027,34043,34060,34077,34094,34110,34125,34143,34159,34177,34194,34211,34226,34251,34272,34276,34296,34305,34328,34345,34368,34378,34397,34428,34445,34460,34476,34492,34508,34523,34542,34558,34577,34594,34618,34638,34660,34682,34711,34727,34730,34759,34778,34798,34813,34827,34843,34859,34876,34893,34911,34928,34943,34961,34982,34996,35011,35027,35043,35059,35077,35094,35113,35127,35143,35159,35176,35192,35210,35243,35261,35274,35284,35295,35329,35347,35362,35379,35394,35410,35426,35442,35460,35479,35496,35512,35525,35542,35559,35576,35598,35624,35630,35657,35672,35696,35713,35729,35746,35762,35790,35805,35832,35863,35880,35897,35903,35914,35940,35948,35966,35980,35997,36013,36031,36042,36063,36081,36095,36112,36130,36146,36165,36180,36195,36212,36227,36247,36279,36297,36312,36329,36345,36361,36379,36397,36411,36427,36444,36461,36480,36499,36514,36529,36545,36556,36577,36613,36632,36649,36679,36690,36710,36725,36743,36760,36777,36795,36815,36830,36845,36862,36877,36894,36912,36926,36942,36966,36979,37006,37033,37050,37062,37078,37094,37110,37129,37149,37158,37193,37198,37226,37243,37262,37281,37296,37312,37328,37342,37358,37375,37394,37411,37426,37444,37461,37476,37493,37509,37526,37544,37561,37576,37592,37615,37635,37642,37660,37677,37695,37711,37738,37763,37768,37794,37811,37833,37864,37890,37907,37924,37941,37964,37995,38017,38032,38055,38074,38089,38107,38124,38141,38161,38206,38212,38240,38257,38273,38294,38307,38325,38343,38360,38390,38405,38423,38441,38456,38474,38491,38508,38524,38544,38560,38575,38592,38609,38626,38649,38668,38674,38697,38726,38740,38758,38775,38792,38810,38844,38854,38863,38892,38911,38928,38957,38974,38990,39020,39031,39042,39060,39078,39099,39114,39131,39145,39161,39177,39197,39212,39228,39242,39261,39276,39310,39317,39329,39358,39375,39391,39408,39424,39442,39458,39481,39515,39526,39545,39560,39575,39592,39610,39628,39645,39661,39680,39707,39714,39743,39764,39797,39810,39813,39844,39862,39888,39915,39934,39941,39993,40006,40009,40043,40065,40080,40094,40110,40127,40166,40180,40197,40211,40228,40244,40260,40279,40296,40313,40328,40346,40363,40379,40395,40411,40427,40447,40460,40478,40495,40512,40528,40545,40560,40577,40593,40611,40630,40645,40675,40682,40718,40764,40791,40808,40824,40845,40864,40890,40894,40928,40945,40969,40981,40997,41013,41029,41046,41062,41079,41095,41112,41127,41144,41161,41177,41192,41210,41228,41244,41263,41278,41293,41311,41327,41345,41359,41382,41393,41412,41425,41442,41470,41476,41509,41525,41546,41563,41579,41594,41608,41625,41641,41658,41682,41702,41710,41740,41756,41773,41789,41813,41830,41854,41868,41875,41894,41912,41928,41944,41960,41981,41998,42025,42041,42058,42081,42118,42129,42142,42157,42177,42196,42214,42231,42245,42258,42277,42296,42315,42332,42345,42362,42380,42395,42410,42424,42451,42467,42474,42494,42526,42544,42563,42579,42607,42619,42625,42645,42662,42677,42694,42712,42741,42750,42762,42797,42812,42828,42844,42860,42885,42906,42911,42943,42959,42978,42995,43012,43030,43055,43072,43090,43105,43121,43138,43164,43179,43199,43222,43226,43255,43270,43278,43293,43312,43329,43345,43363,43378,43395,43426,43443,43464,43478,43494,43510,43527,43543,43566,43582,43599,43615,43641,43657,43674,43695,43717,43728,43756,43778,43794,43818,43830,43855,43871,43895,43910,43929,43943,43957,43975,43995,44014,44031,44045,44059,44076,44093,44116,44140,44157,44172,44191,44213,44241,44256,44266,44281,44294,44309,44328,44353,44368,44382,44394,44412,44426,44445,44475,44478,44508,44525,44542,44558,44579,44600,44623,44629,44657,44680,44700,44726,44735,44757,44779,44797,44825,44832,44841,44860,44877,44908,44930,44942,44958,44975,44997,45015,45027,45058,45063,45091,45107,45129,45156,45172,45190,45210,45228,45252,45271,45278,45308,45326,45343,45360,45382,45393,45426,45442,45462,45477,45492,45508,45525,45544,45560,45577,45593,45610,45625,45642,45657,45675,45692,45712,45732,45747,45762,45778,45798,45810,45840,45853,45887,45913,45929,45945,45961,45977,45993,46010,46025,46043,46059,46075,46091,46109,46129,46157,46174,46188,46230,46248,46262,46279,46295,46311,46327,46346,46361,46379,46395,46412,46430,46456,46473,46487,46509,46527,46544,46559,46578,46595,46610,46626,46641,46659,46677,46694,46711,46727,46743,46761,46779,46806,46841,46852,46858,46879,46898,46914,46941,46954,46975,46994,47010,47025,47041,47074,47093,47105,47114,47129,47140,47159,47179,47196,47212,47227,47245,47279,47294,47297,47313,47328,47343,47363,47376,47396,47413,47430,47445,47462,47477,47495,47515,47529,47545,47562,47591,47607,47632,47644,47665,47674,47694,47712,47728,47745,47761,47777,47794,47811,47826,47846,47861,47877,47890,47913,47928,47945,47963,47977,47994,48012,48027,48044,48061,48077,48094,48108,48128,48145,48163,48183,48193,48210,48227,48245,48257,48278,48293,48310,48323,48342,48361,48379,48405,48421,48444,48465,48488,48491,48512,48528,48544,48562,48579,48597,48630,48642,48661,48674,48694,48709,48726,48762,48772,48779,48807,48823,48842,48857,48874,48890,48908,48925,48941,48957,48973,48990,49008,49023,49040,49057,49074,49090,49107,49124,49141,49166,49194,49211,49225,49231,49259,49274,49292,49309,49324,49340,49357,49374,49389,49407,49431,49454,49472,49488,49506,49519,49541,49557,49574,49591,49608,49636,49660,49684,49706,49721,49738,49752,49774,49791,49807,49824,49841,49876,49893,49898,49926,49942,49962,49988,50024,50036,50063,50082,50093,50122,50139,50158,50176,50202,50220,50238,50255,50287,50308,50315,50327,50345,50375,50390,50407,50424,50443,50462,50478,50493,50508,50528,50543,50560,50577,50594,50607,50627,50645,50660,50676,50690,50707,50723,50740,50757,50776,50791,50808,50824,50842,50859,50875,50891,50908,50926,50943,50959,50975,50991,51009,51025,51040,51058,51075,51091,51114,51136,51143,51161,51205,51219,51241,51257,51273,51292,51327,51348,51364,51379,51406,51424,51438,51459,51477,51508,51524,51529,51557,51575,51594,51609,51626,51645,51660,51676,51693,51709,51726,51742,51758,51775,51791,51807,51825,51842,51858,51886,51906,51910,51929,51945,51961,51991,51994,52025,52043,52058,52076,52091,52114,52139,52145,52175,52191,52209,52227,52244,52257,52274,52293,52310,52325,52347,52372,52380,52394,52410,52428,52471,52484,52493,52525,52540,52557,52577,52595,52610,52623,52641,52661,52677,52691,52707,52723,52741,52757,52774,52792,52808,52825,52840,52858,52877,52893,52910,52924,52941,52957,52974,52993,53009,53024,53041,53058,53077,53094,53111,53126,53141,53171,53189,53209,53226,53247,53261,53276,53294,53311,53326,53342,53363,53378,53392,53412,53437,53463,53482,53490,53510,53528,53543,53562,53577,53595,53623,53640,53658,53674,53694,53709,53725,53743,53758,53772,53790,53806,53824,53842,53858,53875,53893,53910,53927,53943,53957,53974,53990,54006,54040,54060,54073,54089,54093,54124,54140,54156,54173,54190,54206,54232,54259,54275,54280,54292,54309,54323,54357,54371,54389,54395,54409,54426,54442,54460,54494,54509,54512,54540,54556,54592,54609,54620,54628,54658,54676,54693,54720,54762,54771,54791,54807,54823,54839,54856,54873,54889,54907,54924,54941,54957,54973,54989,55007,55023,55040,55057,55072,55090,55107,55125,55151,55161,55188,55206,55244,55263,55277,55293,55296,55309,55342,55358,55374,55389,55408,55423,55440,55459,55479,55492,55509,55523,55540,55557,55575,55595,55611,55627,55641,55657,55674,55690,55727,55758,55767,55776,55807,55828,55844,55861,55876,55892,55908,55925,55941,55962,55987,56004,56021,56049,56071,56076,56108,56124,56159,56170,56192,56210,56224,56242,56259,56274,56292,56321,56339,56357,56400,56410,56438,56455,56493,56506,56509,56540,56558,56575,56592,56607,56624,56642,56658,56676,56691,56708,56725,56741,56759,56777,56795,56809,56824,56840,56856,56874,56893,56910,56924,56942,56960,56978,56994,57010,57026,57040,57057,57072,57090,57107,57126,57144,57159,57176,57191,57210,57226,57241,57257,57273,57290,57308,57325,57341,57359,57374,57392,57408,57425,57440,57456,57474,57489,57508,57525,57543,57561,57576,57591,57607,57625,57641,57657,57673,57691,57712,57730,57745,57771,57787,57812,57850,57863,57878,57905,57921,57938,57954,57970,57987,58003,58025,58059,58073,58090,58093,58126,58142,58157,58173,58191,58207,58225,58242,58263,58278,58293,58310,58323,58341,58363,58377,58393,58411,58423,58444,58460,58477,58493,58510,58539,58547,58575,58591,58608,58624,58641,58659,58674,58692,58706,58724,58740,58756,58774,58791,58809,58824,58841,58859,58876,58894,58920,58938,58953,58971,58984,59006,59053,59061,59087,59104,59123,59138,59157,59174,59208,59224,59240,59258,59274,59290,59308,59324,59340,59357,59374,59391,59408,59424,59441,59457,59472,59490,59511,59526,59540,59557,59573,59589,59606,59635,59658,59668,59676,59711,59726,59754,59771,59786,59804,59824,59836,59856,59873,59889,59907,59924,59941,59957,59981,60000,60013,60027,60042,60080,60094,60120,60156,60163,60178,60213,60231,60261,60289,60296,60324,60328,60343,60375,60392,60410,60437,60454,60470,60487,60503,60520,60537,60553,60569,60586,60604,60622,60634,60656,60673,60690,60706,60723,60739,60756,60773,60788,60806,60822,60841,60871,60884,60906,60922,60939,60957,60974,60990,61006,61021,61039,61056,61073,61088,61105,61123,61139,61155,61173,61189,61208,61222,61239,61254,61272,61289,61306,61324,61339,61356,61373,61390,61406,61426,61441,61458,61472,61491,61507,61523,61540,61556,61573,61590,61605,61623,61639,61656,61672,61689,61705,61722,61753,61770,61787,61804,61820,61841,61862,61876,61892,61912,61928,61944,61968,61992,62017,62037,62040,62058,62073,62091,62108,62127,62145,62162,62177,62192,62214,62223,62244,62259,62276,62292,62309,62327,62344,62362,62376,62393,62408,62427,62445,62460,62476,62492,62511,62525,62538,62556,62574,62592,62608,62626,62642,62659,62687,62694,62722,62739,62756,62776,62795,62805,62822,62839,62858,62875,62892,62907,62923,62938,62956,62976,62993,63009,63024,63040,63056,63073,63090,63106,63131,63150,63174,63192,63209,63230,63254,63266,63289,63308,63328,63346,63365,63380,63388,63409,63429,63442,63474,63489,63507,63526,63540,63555,63574,63604,63616,63642,63659,63674,63693,63708,63723,63738,63761,63790,63801,63827,63851,63867,63872,63891,63908,63926,63956,63960,64004,64009,64041,64059,64073,64088,64106,64125,64140,64155,64172,64189,64206,64222,64239,64255,64271,64289,64305,64324,64354,64370,64387,64400,64424,64440,64455,64473,64488,64505,64522,64538,64569,64593,64608,64624,64638,64655,64670,64694,64716,64732,64740,64760,64774,64794,64809,64823,64841,64857,64874,64892,64908,64925,64940,64955,64972,64991,65021,65038,65055,65069,65086,65105,65118,65138,65155,65173,65191,65217,65236,65253,65268,65287,65309,65324,65344,65372,65386,65392,65408,65428,65456,65472,65488,65506,65522,65539,65575,65591,65595,65624,65639,65661,65678,65691,65708,65725,65742,65757,65776,65791,65819,65832,65838,65858,65876,65893,65912,65930,65943,65958,65972,65990,66009,66028,66042,66058,66076,66093,66109,66142,66158,66175,66190,66205,66223,66241,66260,66278,66289,66307,66323,66339,66357,66375,66390,66406,66424,66440,66455,66472,66500,66511,66539,66556,66574,66590,66605,66622,66639,66655,66684,66706,66712,66729,66756,66773,66790,66804,66821,66838,66856,66873,66890,66907,66926,66942,66958,66973,66991,67006,67026,67045,67059,67075,67090,67107,67124,67141,67157,67174,67192,67210,67226,67241,67261,67276,67291,67308,67325,67341,67358,67375,67391,67420,67437,67452,67470,67487,67511,67539,67560,67572,67588,67593,67608,67639,67656,67673,67692,67709,67726,67741,67756,67773,67789,67807,67826,67842,67859,67874,67888,67905,67923,67943,67971,67981,67988,68010,68024,68043,68058,68074,68091,68109,68126,68143,68158,68177,68192,68223,68242,68258,68274,68288,68305,68324,68340,68358,68374,68402,68418,68445,68473,68479,68511,68537,68543,68571,68588,68606,68626,68644,68659,68674,68688,68705,68728,68752,68758,68789,68806,68823,68843,68859,68875,68890,68904,68921,68938,68957,68974,68989,69004,69038,69043,69078,69109,69124,69127,69141,69179,69205,69210,69238,69255,69290,69310,69325,69340,69342,69372,69390,69408,69424,69440,69456,69476,69489,69509,69523,69541,69556,69573,69588,69626,69641,69657,69668,69673,69704,69728,69743,69753,69774,69788,69808,69824,69840,69872,69892,69906,69909,69925,69940,69971,69989,70006,70016,70041,70071,70086,70100,70128,70150,70175,70186,70202,70221,70238,70254,70271,70287,70304,70321,70339,70351,70372,70388,70412,70431,70439,70458,70488,70495,70509,70539,70555,70572,70588,70605,70622,70641,70662,70677,70686,70718,70741,70749,70772,70792,70804,70821,70838,70858,70875,70891,70907,70922,70939,70957,70974,70990,71007,71022,71038,71055,71079,71102,71110,71138,71156,71172,71194,71214,71222,71237,71256,71269,71297,71308,71320,71340,71361,71376,71393,71404,71424,71440,71458,71475,71491,71507,71523,71539,71555,71574,71592,71609,71639,71657,71671,71688,71705,71721,71738,71755,71771,71789,71806,71825,71843,71861,71874,71890,71909,71926,71940,71957,71977,72007,72023,72042,72070,72086,72103,72120,72142,72177,72192,72222,72239,72255,72270,72288,72305,72329,72347,72356,72380,72392,72423,72441,72455,72471,72489,72506,72526,72547,72557,72570,72589,72605,72622,72644,72657,72674,72689,72707,72726,72737,72762,72776,72789,72805,72824,72839,72860,72876,72888,72902,72923,72945,72960,72975,72990,73005,73022,73042,73052,73074,73099,73120,73123,73157,73172,73188,73204,73221,73239,73254,73286,73309,73326,73348,73361,73376,73387,73405,73424,73438,73457,73471,73489,73507,73525,73555,73567,73570,73591,73609,73626,73644,73657,73671,73692,73711,73737,73754,73780,73799,73802,73825,73842,73858,73875,73892,73908,73925,73956,73973,73990,74007,74039,74055,74061,74090,74105,74121,74138,74155,74172,74189,74206,74224,74240,74257,74271,74287,74304,74325,74341,74356,74372,74389,74404,74421,74437,74453,74470,74488,74504,74521,74541,74559,74575,74590,74605,74621,74639,74658,74672,74702,74719,74736,74752,74771,74782,74807,74839,74854,74873,74891,74919,74936,74950,74984,75008,75025,75038,75055,75071,75087,75103,75120,75144,75168,75173,75206,75224,75241,75256,75270,75287,75304,75320,75337,75355,75371,75388,75403,75420,75437,75460,75485,75494,75505,75524,75537,75555,75571,75587,75608,75624,75640,75657,75673,75707,75723,75728,75753,75771,75790,75807,75822,75837,75855,75872,75890,75908,75926,75942,75953,75974,75990,76006,76023,76039,76056,76073,76088,76122,76138,76159,76178,76193,76209,76220,76239,76269,76286,76303,76320,76334,76355,76373,76392,76408,76436,76452,76471,76489,76505,76522,76540,76556,76572,76588,76604,76623,76639,76656,76674,76702,76720,76735,76752,76770,76785,76808,76832,76848,76853,76873,76891,76923,76934,76944,76958,76987,77005,77025,77046,77058,77073,77094,77109,77121,77141,77169,77183,77203,77220,77238,77258,77283,77301,77306,77323,77338,77357,77373,77386,77407,77422,77441,77458,77470,77507,77523,77527,77542,77556,77575,77593,77606,77622,77641,77657,77674,77690,77725,77736,77743,77771,77789,77807,77829,77853,77869,77887,77906,77927,77943,77970,78000,78025,78039,78057,78072,78089,78105,78122,78138,78157,78176,78192,78207,78222,78240,78256,78271,78307,78322,78326,78359,78378,78392,78408,78423,78439,78454,78471,78489,78505,78523,78542,78558,78572,78588,78608,78624,78640,78667,78685,78700,78717,78734,78751,78767,78782,78805,78819,78843,78868,78876,78912,78936,78942,78958,78971,78990,79010,79023,79040,79071,79090,79106,79120,79127,79140,79170,79186,79204,79219,79238,79254,79271,79287,79307,79323,79340,79356,79372,79389,79405,79443,79459,79477,79489,79506,79526,79540,79556,79574,79589,79605,79622,79638,79654,79671,79688,79705,79722,79739,79755,79772,79789,79806,79825,79839,79856,79872,79889,79906,79920,79945,79966,79970,79989,80006,80022,80036,80056,80092,80119,80126,80159,80177,80189,80205,80222,80236,80255,80271,80288,80319,80323,80353,80370,80387,80404,80423,80439,80452,80469,80486,80503,80519,80535,80551,80569,80594,80620,80640,80653,80656,80686,80710,80735,80741,80770,80787,80805,80822,80841,80858,80873,80887,80904,80920,80938,80955,80971,80988,81005,81023,81043,81058,81073,81091,81117,81135,81151,81167,81184,81207,81220,81238,81254,81272,81292,81319,81323,81354,81374,81391,81406,81421,81438,81456,81472,81489,81506,81521,81537,81554,81571,81586,81605,81621,81638,81656,81674,81688,81704,81721,81738,81755,81784,81800,81817,81834,81853,81865,81887,81904,81921,81937,81953,81970,81988,82004,82021,82037,82055,82071,82088,82105,82121,82136,82154,82171,82188,82204,82221,82238,82258,82273,82288,82304,82338,82356,82386,82398,82428,82455,82460,82487,82503,82522,82542,82559,82570,82589,82606,82622,82644,82657,82670,82693,82706,82738,82753,82773,82789,82804,82821,82837,82854,82874,82889,82905,82921,82937,82955,82974,82991,83008,83022,83037,83055,83069,83087,83108,83123,83138,83155,83171,83187,83207,83222,83239,83255,83271,83289,83307,83324,83340,83354,83374,83386,83404,83420,83441,83455,83472,83490,83506,83525,83538,83555,83571,83586,83604,83623,83639,83655,83684,83692,83707,83722,83738,83754,83791,83806,83810,83837,83853,83877,83899,83906,83922,83939,83954,83970,83987,84022,84041,84056,84070,84086,84111,84137,84141,84169,84187,84211,84233,84249,84267,84285,84301,84316,84342,84373,84387,84392,84407,84423,84436,84455,84472,84487,84506,84523,84538,84556,84572,84587,84607,84624,84640,84654,84671,84709,84724,84738,84742,84768,84787,84808,84834,84840,84856,84872,84890,84905,84923,84940,84957,84972,84987,85007,85023,85040,85056,85071,85090,85105,85138,85155,85160,85171,85186,85211,85239,85255,85258,85274,85289,85306,85322,85339,85356,85375,85389,85404,85422,85436,85458,85473,85489,85519,85542,85575,85587,85605,85621,85639,85655,85668,85697,85718,85726,85739,85756,85774,85801,85819,85838,85852,85870,85891,85912,85934,85939,85971,85985,86014,86035,86040,86071,86087,86105,86123,86138,86153,86171,86186,86207,86224,86239,86254,86269,86287,86305,86320,86336,86353,86373,86388,86405,86421,86437,86453,86474,86502,86507,86536,86553,86574,86590,86609,86619,86636,86653,86670,86689,86709,86730,86753,86770,86792,86804,86822,86838,86855,86871,86892,86918,86932,86954,86972,86990,87008,87022,87040,87055,87071,87087,87103,87119,87136,87165,87172,87203,87215,87237,87256,87274,87290,87304,87320,87337,87368,87384,87403,87434,87450,87470,87490,87510,87528,87553,87571,87595,87613,87638,87660,87674,87684,87708,87722,87742,87757,87773,87789,87807,87822,87837,87858,87875,87888,87905,87922,87959,87973,87977,88003,88022,88038,88052,88070,88101,88118,88136,88155,88186,88190,88220,88237,88258,88284,88299,88317,88335,88354,88374,88390,88406,88432,88450,88469,88484,88504,88521,88538,88556,88571,88587,88606,88622,88639,88654,88669,88687,88704,88720,88735,88754,88770,88785,88805,88824,88841,88856,88871,88886,88902,88920,88936,88970,89004,89023,89043,89057,89072,89088,89105,89122,89139,89157,89174,89188,89205,89223,89240,89258,89273,89289,89303,89322,89339,89357,89373,89389,89405,89420,89437,89457,89473,89491,89504,89523,89533,89556,89573,89588,89606,89621,89639,89657,89669,89687,89705,89723,89739,89755,89769,89791,89804,89822,89841,89856,89873,89889,89904,89921,89938,89955,89971,89990,90006,90021,90039,90057,90071,90086,90106,90122,90137,90157,90172,90190,90205,90217,90238,90255,90271,90287,90304,90323,90338,90352,90375,90387,90408,90432,90452,90465,90485,90502,90537,90548,90569,90586,90603,90618,90635,90653,90669,90685,90703,90719,90753,90764,90786,90801,90823,90833,90851,90867,90885,90901,90919,90937,90955,90972,90988,91003,91020,91036,91054,91074,91095,91116,91136,91147,91178,91195,91227,91242,91256,91274,91294,91307,91320,91340,91358,91369,91390,91406,91422,91436,91457,91472,91487,91506,91521,91550,91557,91573,91588,91605,91623,91653,91668,91672,91706,91722,91738,91753,91770,91787,91803,91822,91837,91853,91886,91893,91903,91923,91938,91955,91974,91990,92004,92020,92037,92055,92089,92098,92119,92135,92153,92169,92189,92209,92222,92253,92291,92320,92332,92359,92373,92389,92406,92433,92450,92468,92482,92504,92521,92538,92570,92576,92606,92621,92639,92655,92684,92702,92714,92732,92753,92774,92802,92819,92838,92853,92871,92886,92901,92919,92937,92954,92971,92988,93006,93023,93039,93054,93070,93086,93102,93120,93137,93154,93173,93200,93214,93239,93258,93275,93298,93302,93323,93339,93356,93373,93402,93419,93438,93453,93469,93487,93503,93519,93552,93566,93573,93602,93620,93635,93651,93669,93686,93703,93719,93736,93753,93778,93790,93817,93831,93854,93874,93891,93905,93921,93937,93955,93970,94000,94019,94022,94051,94068,94091,94120,94126,94139,94167,94181,94202,94219,94238,94255,94274,94292,94304,94316,94339,94352,94373,94389,94401,94417,94448,94453,94471,94486,94504,94520,94568,94573,94607,94634,94654,94657,94685,94701,94719,94735,94752,94769,94787,94804,94820,94837,94852,94868,94891,94915,94922,94939,94969,94984,95002,95033,95045,95067,95085,95102,95139,95151,95155,95184,95204,95223,95249,95270,95284,95302,95319,95336,95353,95369,95386,95401,95418,95434,95474,95485,95503,95520,95538,95554,95570,95587,95604,95619,95637,95665,95680,95688,95718,95756,95776,95801,95806,95836,95852,95868,95884,95907,95928,95941,95953,95966,95984,96006,96022,96033,96050,96068,96088,96101,96121,96138,96164,96167,96189,96205,96226,96239,96269,96286,96305,96319,96343,96355,96374,96388,96405,96422,96434,96452,96470,96488,96504,96520,96541,96556,96566,96602,96619,96637,96640,96654,96670,96709,96737,96741,96755,96784,96819,96840,96853,96872,96885,96892,96921,96937,96952,96968,96984,97001,97017,97035,97050,97068,97085,97102,97118,97136,97152,97167,97184,97201,97221,97236,97252,97267,97284,97302,97318,97335,97353,97368,97385,97402,97418,97435,97452,97468,97483,97501,97517,97535,97551,97568,97585,97601,97618,97635,97649,97668,97685,97701,97717,97735,97751,97767,97784,97801,97818,97835,97851,97868,97883,97900,97918,97935,97951,97968,97985,98001,98018,98035,98051,98068,98085,98101,98119,98134,98151,98168,98184,98203,98218,98234,98251,98268,98284,98301,98317,98335,98352,98368,98386,98406,98421,98449,98466,98481,98499,98515,98539,98555,98569,98585,98608,98630,98636,98656,98673,98690,98705,98725,98737,98768,98786,98803,98820,98839,98853,98869,98884,98900,98918,98936,98960,98972,98985,99004,99021,99047,99071,99083,99087,99119,99137,99155,99172,99187,99203,99218,99234,99252,99269,99289,99302,99319,99334,99352,99370,99399,99418,99433,99453,99472,99488,99504,99518,99534,99551,99569,99587,99602,99618,99634,99652,99667,99684,99702,99717,99735,99750,99766,99784,99802,99817,99835,99850,99867,99883,99901,99917,99934,99951,99968,99983,100002,100017,100037,100049,100067,100083,100100,100116,100133,100151,100167,100183,100198,100216,100233,100250,100266,100283,100300,100317,100333,100353,100368,100382,100401,100415,100434,100451,100470,100488,100515,100532,100549,100567,100578,100601,100618,100634,100651,100668,100685,100701,100718,100736,100751,100768,100784,100801,100818,100834,100850,100867,100883,100900,100917,100935,100950,100967,100984,100995,101018,101033,101050,101065,101083,101100,101117,101134,101149,101166,101185,101203,101221,101237,101251,101267,101300,101318,101322,101338,101354,101372,101401,101418,101434,101452,101482,101498,101520,101539,101556,101567,101587,101604,101619,101635,101651,101666,101684,101701,101717,101734,101752,101768,101786,101802,101818,101835,101853,101868,101885,101901,101917,101934,101952,101973,101988,102004,102019,102038,102054,102070,102087,102103,102120,102136,102152,102170,102186,102202,102219,102235,102255,102271,102287,102303,102321,102336,102353,102370,102387,102404,102433,102445,102468,102485,102503,102519,102535,102551,102567,102585,102601,102615,102634,102654,102672,102687,102703,102717,102734,102752,102775,102798,102821,102840,102855,102869,102886,102902,102916,102934,102951,102971,102986,103003,103018,103047,103071,103090,103113,103120,103148,103165,103184,103202,103224,103239,103248,103267,103288,103306,103335,103364,103381,103396,103423,103439,103453,103468,103487,103503,103519,103537,103552,103571,103586,103604,103619,103635,103653,103670,103686,103702,103720,103737,103753,103770,103786,103802,103820,103836,103854,103871,103886,103904,103920,103940,103955,103969,103988,104004,104033,104049,104064,104085,104102,104118,104134,104151,104167,104185,104202,104217,104234,104251,104268,104286,104304,104320,104335,104353,104368,104385,104403,104433,104446,104471,104488,104506,104524,104539,104553,104571,104587,104614,104630,104648,104671,104695,104716,104720,104751,104768,104789,104808,104820,104830,104853,104886,104902,104907,104934,104950,104966,104984,105001,105028,105047,105054,105083,105101,105123,105151,105158,105167,105199,105207,105221,105250,105271,105280,105302,105324,105351,105366,105371,105401,105417,105436,105453,105468,105486,105501,105517,105533,105552,105568,105584,105600,105617,105633,105650,105673,105687,105702,105719,105735,105751,105768,105795,105807,105817,105837,105863,105883,105900,105917,105932,105950,105968,105983,106000,106017,106034,106051,106068,106084,106100,106117,106137,106153,106169,106185,106202,106220,106234,106251,106268,106284,106300,106317,106335,106351,106370,106386,106402,106419,106437,106453,106471,106486,106502,106520,106535,106550,106569,106598,106614,106641,106656,106671,106687,106704,106720,106737,106755,106769,106785,106806,106831,106848,106866,106885,106908,106932,106937,106967,106984,107001,107024,107039,107050,107071,107087,107104,107120,107136,107154,107170,107187,107205,107221,107234,107251,107269,107286,107301,107321,107351,107368,107386,107403,107419,107437,107452,107468,107484,107500,107518,107534,107551,107567,107584,107600,107618,107639,107656,107671,107689,107703,107718,107740,107758,107774,107800,107815,107836,107852,107868,107884,107902,107932,107947,107965,107979,108001,108019,108035,108055,108072,108087,108104,108131,108148,108165,108183,108197,108217,108240,108253,108269,108283,108298,108316,108352,108369,108387,108399,108406,108433,108437,108467,108485,108504,108531,108548,108566,108606,108619,108631,108650,108664,108684,108699,108716,108738,108750,108765,108790,108801,108822,108844,108855,108880,108899,108912,108933,108949,108965,108983,109000,109017,109033,109050,109066,109082,109100,109116,109133,109152,109168,109186,109201,109216,109232,109251,109270,109286,109301,109318,109332,109349,109366,109384,109400,109416,109434,109449,109465,109484,109504,109519,109536,109552,109569,109585,109601,109617,109633,109651,109668,109685,109701,109720,109735,109751,109769,109784,109801,109818,109835,109853,109869,109884,109901,109931,109948,109968,109978,110001,110018,110049,110063,110085,110101,110117,110134,110151,110173,110193,110216,110233,110251,110266,110284,110301,110318,110333,110352,110369,110385,110399,110416,110432,110449,110467,110484,110503,110520,110546,110564,110580,110596,110614,110634,110656,110679,110686,110701,110717,110752,110767,110774,110789,110805,110822,110839,110856,110871,110888,110903,110920,110936,110952,110970,110986,111003,111021,111034,111052,111068,111085,111100,111119,111135,111181,111184,111203,111216,111230,111249,111265,111297,111306,111318,111335,111350,111370,111390,111402,111419,111436,111455,111469,111489,111501,111519,111533,111550,111568,111587,111604,111621,111638,111653,111671,111683,111699,111734,111751,111768,111771,111787,111816,111834,111852,111873,111888,111900,111919,111938,111957,111969,111986,111999,112017,112035,112065,112073,112099,112115,112133,112151,112169,112185,112203,112219,112235,112251,112269,112285,112307,112317,112336,112352,112370,112396,112419,112439,112456,112469,112498,112514,112531,112547,112568,112590,112613,112622,112654,112681,112699,112716,112735,112751,112769,112784,112801,112816,112834,112852,112869,112884,112899,112917,112934,112950,112969,112986,113001,113020,113035,113051,113066,113089,113111,113121,113136,113150,113168,113201,113218,113220,113249,113265,113283,113300,113318,113332,113349,113367,113384,113401,113418,113434,113449,113467,113486,113506,113531,113536,113566,113583,113600,113617,113634,113653,113671,113690,113698,113722,113739,113753,113769,113784,113802,113816,113837,113854,113867,113884,113903,113919,113934,113949,113967,113986,114002,114019,114035,114050,114068,114087,114117,114136,114151,114168,114184,114210,114222,114251,114270,114289,114301,114318,114332,114348,114366,114389,114401,114416,114439,114464,114468,114486,114505,114517,114534,114554,114569,114584,114601,114621,114636,114662,114679,114687,114716,114732,114749,114766,114783,114802,114817,114837,114853,114868,114885,114901,114916,114933,114949,114967,114991,115016,115034,115039,115065,115082,115099,115123,115136,115151,115169,115199,115216,115232,115248,115266,115283,115300,115316,115332,115349,115367,115385,115400,115416,115432,115449,115465,115482,115498,115519,115536,115552,115566,115582,115598,115615,115632,115647,115665,115682,115700,115715,115733,115749,115766,115782,115800,115816,115832,115849,115865,115882,115900,115916,115934,115951,115968,115984,116000,116016,116034,116050,116066,116085,116102,116117,116136,116150,116170,116184,116200,116215,116232,116250,116267,116284,116299,116316,116335,116350,116367,116385,116400,116416,116434,116451,116469,116483,116500,116518,116547,116561,116600,116614,116622,116636,116666,116688,116711,116719,116736,116766,116784,116802,116820,116836,116852,116868,116885,116903,116916,116933,116949,116967,116984,116999,117020,117039,117062,117080,117105,117118,117147,117153,117183,117202,117217,117233,117251,117267,117283,117303,117321,117339,117349,117368,117383,117402,117418,117435,117453,117469,117485,117503,117518,117534,117550,117568,117585,117602,117618,117634,117651,117667,117684,117701,117717,117734,117751,117767,117784,117801,117816,117833,117851,117867,117884,117902,117919,117934,117951,117970,117996,118014,118032,118059,118069,118098,118115,118132,118150,118165,118183,118199,118216,118234,118249,118267,118282,118300,118316,118333,118349,118366,118385,118401,118418,118434,118450,118467,118485,118503,118519,118536,118552,118568,118580,118598,118616,118630,118648,118673,118692,118700,118718,118737,118753,118769,118785,118802,118819,118834,118853,118869,118886,118903,118919,118935,118951,118970,118987,119002,119018,119044,119051,119070,119086,119103,119117,119135,119154,119167,119185,119203,119221,119236,119252,119272,119287,119317,119333,119364,119382,119399,119417,119433,119449,119467,119484,119503,119519,119548,119560,119585,119606,119614,119630,119648,119665,119680,119698,119713,119738,119758,119771,119787,119812,119830,119845,119862,119886,119915,119922,119968,119997,120001,120034,120063,120083,120088,120113,120133,120151,120168,120183,120199,120215,120233,120250,120266,120283,120301,120318,120333,120349,120367,120383,120400,120416,120434,120450,120466,120484,120500,120516,120535,120549,120565,120585,120602,120620,120634,120649,120664,120682,120705,120732,120736,120767,120805,120828,120851,120854,120882,120898,120923,120948,120950,120982,121000,121016,121031,121051,121068,121097,121110,121129,121145,121167,121197,121204,121231,121249,121269,121280,121308,121318,121328,121350,121368,121385,121399,121418,121432,121449,121480,121504,121522,121530,121549,121572,121584,121605,121616,121636,121651,121667,121685,121699,121718,121733,121750,121766,121784,121803,121817,121834,121870,121885,121890,121903,121931,121948,121971,121997,122003,122031,122049,122071,122084,122096,122118,122135,122152,122168,122186,122200,122218,122232,122254,122267,122285,122315,122319,122349,122368,122386,122400,122415,122432,122451,122468,122484,122500,122515,122532,122548,122566,122586,122600,122616,122632,122650,122668,122683,122698,122715,122737,122759,122767,122796,122813,122835,122854,122871,122882,122902,122918,122933,122964,122987,123004,123013,123034,123051,123069,123084,123100,123118,123137,123151,123167,123184,123201,123218,123235,123251,123267,123283,123306,123336,123348,123366,123371,123399,123416,123431,123449,123466,123482,123498,123515,123532,123549,123566,123584,123600,123613,123633,123649,123668,123685,123702,123717,123734,123748,123766,123782,123800,123816,123833,123850,123867,123883,123902,123918,123934,123950,123967,123984,124005,124022,124028,124051,124065,124084,124100,124115,124134,124151,124165,124185,124202,124216,124234,124248,124265,124284,124305,124318,124346,124354,124381,124388,124417,124434,124450,124468,124485,124512,124528,124548,124563,124584,124601,124622,124633,124650,124672,124681,124705,124716,124732,124750,124767,124784,124801,124815,124832,124852,124865,124885,124899,124918,124931,124953,124964,124982,124997,125014,125036,125063,125082,125098,125116,125131,125148,125162,125181,125198,125212,125230,125244,125260,125278,125297,125319,125340,125348,125365,125380,125396,125414,125430,125445,125471,125495,125513,125526,125548,125579,125584,125596,125618,125634,125648,125669,125699,125717,125732,125749,125767,125782,125798,125815,125834,125849,125865,125881,125898,125914,125931,125948,125971,125998,126004,126019,126035,126049,126064,126101,126105,126136,126152,126165,126181,126197,126216,126234,126248,126263,126280,126297,126314,126330,126347,126364,126381,126398,126415,126431,126447,126463,126481,126497,126521,126554,126568,126599,126615,126631,126649,126679,126696,126713,126733,126749,126770,126783,126800,126816,126832,126852,126867,126883,126896,126915,126933,126948,126966,126982,126999,127015,127031,127048,127064,127085,127101,127116,127135,127151,127179,127201,127216,127235,127249,127267,127283,127301,127317,127335,127355,127381,127395,127414,127432,127449,127468,127486,127502,127519,127535,127552,127568,127587,127602,127619,127647,127660,127682,127699,127719,127734,127749,127766,127785,127801,127817,127834,127850,127867,127885,127900,127917,127936,127951,127966,127984,128000,128029,128044,128062,128078,128098,128115,128139,128161,128168,128198,128216,128234,128251,128267,128283,128301,128315,128331,128348,128366,128387,128399,128417,128434,128449,128465,128482,128495,128515,128532,128549,128567,128583,128599,128617,128632,128648,128665,128682,128698,128714,128733,128751,128784,128797,128814,128833,128851,128865,128898,128911,128947,128981,128988,129013,129032,129060,129082,129087,129114,129133,129150,129166,129183,129200,129219,129235,129253,129267,129282,129297,129315,129332,129348,129365,129381,129400,129416,129432,129450,129479,129492,129514,129530,129547,129566,129582,129597,129614,129630,129647,129664,129682,129700,129716,129732,129748,129763,129780,129796,129813,129837,129860,129864,129897,129913,129930,129948,129963,129981,129996,130013,130030,130053,130076,130083,130097,130117,130146,130162,130180,130199,130215,130231,130249,130266,130284,130299,130314,130330,130349,130365,130400,130412,130428,130447,130464,130487,130511,130517,130533,130547,130566,130599,130610,130619,130647,130663,130685,130703,130720,130730,130748,130766,130784,130801,130815,130851,130865,130880,130895,130913,130935,130955,130968,130997,131001,131037,131054,131062,131081,131098,131115,131132,131148,131170,131196,131200,131230,131251,131269,131291,131300,131315,131331,131347,131369,131383,131400,131429,131447,131463,131480,131497,131513,131529,131546,131563,131579,131599,131620,131642,131654,131668,131698,131735,131748,131763,131779,131801,131820,131834,131849,131865,131885,131904,131919,131932,131947,131971,131981,131999,132018,132035,132045,132070,132081,132095,132113,132135,132148,132164,132178,132195,132216,132237,132262,132276,132296,132314,132331,132348,132370,132386,132399,132417,132434,132448,132466,132495,132512,132526,132549,132570,132585,132598,132617,132644,132667,132671,132699,132716,132735,132749,132767,132784,132801,132816,132834,132849,132866,132883,132899,132912,132933,132950,132966,132999,133011,133031,133047,133064,133080,133100,133118,133132,133148,133164,133183,133206,133215,133226,133250,133295,133301,133331,133350,133367,133395,133411,133427,133443,133464,133484,133500,133516,133532,133550,133565,133582,133599,133614,133630,133649,133664,133680,133697,133713,133730,133747,133763,133781,133798,133813,133831,133847,133864,133881,133898,133914,133930,133947,133965,133981,134001,134017,134035,134050,134068,134096,134109,134131,134149,134167,134182,134200,134211,134232,134248,134266,134281,134300,134315,134331,134348,134365,134382,134399,134416,134433,134449,134465,134480,134496,134514,134537,134551,134562,134584,134603,134618,134635,134650,134668,134685,134702,134732,134754,134769,134796,134808,134831,134849,134864,134879,134898,134915,134933,134948,134965,134981,134999,135016,135034,135049,135065,135084,135099,135117,135135,135151,135167,135183,135199,135215,135231,135249,135266,135283,135298,135315,135333,135348,135365,135382,135399,135416,135431,135448,135464,135479,135498,135513,135530,135548,135564,135581,135600,135618,135635,135650,135669,135684,135699,135715,135732,135752,135767,135784,135801,135817,135833,135849,135866,135885,135900,135916,135932,135949,135965,135983,136000,136016,136031,136049,136068,136085,136099,136115,136131,136145,136166,136182,136198,136215,136232,136249,136268,136282,136300,136316,136334,136348,136364,136381,136400,136412,136432,136449,136465,136481,136497,136515,136532,136551,136564,136580,136599,136613,136635,136651,136667,136680,136694,136715,136730,136746,136765,136781,136810,136832,136836,136851,136881,136897,136916,136932,136946,136962,136981,136998,137016,137032,137050,137066,137081,137098,137115,137132,137151,137164,137181,137197,137213,137232,137248,137264,137279,137297,137312,137331,137350,137368,137382,137399,137417,137434,137451,137468,137494,137509,137531,137551,137567,137585,137600,137619,137631,137650,137667,137684,137701,137719,137732,137749,137766,137784,137801,137816,137833,137850,137867,137884,137910,137928,137944,137964,137979,137998,138015,138031,138049,138067,138096,138113,138137,138147,138178,138191,138215,138231,138269,138280,138285,138314,138333,138347,138366,138382,138399,138430,138443,138473,138500,138515,138532,138549,138553,138565,138594,138613,138631,138647,138663,138679,138696,138713,138729,138746,138762,138782,138798,138816,138831,138847,138864,138881,138897,138926,138943,138960,138983,139001,139044,139047,139079,139096,139113,139133,139149,139167,139182,139198,139213,139229,139248,139265,139282,139295,139314,139331,139349,139364,139379,139395,139413,139428,139446,139465,139482,139498,139514,139529,139546,139562,139579,139595,139613,139630,139647,139663,139679,139702,139715,139727,139748,139765,139781,139798,139815,139832,139848,139866,139881,139899,139916,139930,139948,139965,139981,139998,140016,140033,140050,140066,140083,140100,140114,140131,140150,140166,140183,140199,140233,140248,140266,140280,140299,140318,140345,140357,140379,140395,140415,140432,140449,140464,140482,140499,140515,140530,140547,140562,140580,140598,140613,140627,140646,140662,140680,140702,140727,140732,140766,140781,140799,140815,140831,140845,140862,140879,140897,140912,140930,140947,140963,140980,140997,141015,141032,141051,141077,141097,141108,141132,141148,141165,141181,141197,141212,141231,141246,141262,141279,141296,141312,141331,141347,141363,141380,141399,141416,141433,141450,141466,141482,141497,141518,141543,141559,141577,141603,141612,141638,141648,141662,141682,141698,141714,141731,141747,141765,141779,141799,141815,141857,141865,141875,141897,141929,141943,141966,141983,141997,142015,142032,142048,142065,142082,142099,142129,142144,142186,142194,142208,142230,142251,142262,142281,142294,142311,142330,142347,142370,142378,142394,142409,142431,142445,142465,142481,142502,142515,142534,142551,142567,142579,142598,142613,142633,142650,142680,142699,142718,142730,142762,142777,142799,142817,142837,142846,142869,142898,142915,142923,142932,142964,142981,142997,143012,143029,143079,143098,143105,143118,143132,143149,143159,143184,143203,143218,143246,143265,143296,143310,143329,143346,143367,143387,143395,143414,143428,143443,143465,143485,143495,143512,143532,143544,143562,143578,143611,143627,143630,143668,143686,143697,143711,143729,143749,143775,143796,143822,143838,143848,143868,143885,143913,143929,143946,143966,143983,143998,144013,144030,144046,144065,144085,144094,144115,144130,144145,144163,144185,144206,144213,144229,144252,144269,144284,144297,144314,144329,144347,144366,144382,144398,144418,144434,144466,144482,144497,144514,144528,144545,144562,144579,144598,144615,144632,144650,144663,144681,144701,144733,144743,144771,144799,144815,144826,144844,144848,144883,144898,144915,144930,144946,144962,144979,144995,145013,145029,145045,145062,145078,145095,145113,145128,145145,145161,145179,145196,145213,145231,145249,145263,145279,145296,145311,145335,145351,145366,145382,145395,145415,145431,145445,145464,145494,145512,145530,145547,145561,145578,145594,145611,145630,145660,145676,145692,145711,145727,145746,145764,145780,145797,145812,145832,145847,145861,145878,145899,145916,145945,145949,145978,146000,146018,146027,146046,146062,146085,146111,146117,146132,146148,146163,146180,146197,146231,146243,146250,146278,146299,146315,146329,146347,146363,146379,146395,146411,146433,146456,146465,146480,146497,146514,146531,146544,146573,146601,146613,146618,146652,146665,146674,146696,146713,146733],"hit":[null],"x":[-1.6054421768707483,-1.6054421768707483,-1.6054421768707483,-1.6054421768707483,-1.6054421768707483,-1.6054421768707483,-1.6054421768707483,-1.6054421768707483,-1.6054421768707483,-1.6054421768707483,-1.6054421768707483,-1.6054421768707483,-1.6054421768707483,-1.6054421768707483,-1.6054421768707483,-1.6054421768707483,-1.6054421768707483,-1.6054421768707483,-1.6054421768707483,-1.6054421768707483,-1.6054421768707483,-1.6054421768707483,-1.6054421768707483,-1.6054421768707483,-1.6054421768707483,-1.6054421768707483,-1.6054421768707483,-1.6054421768707483,-1.6054421768707483,-1.6054421768707483,-1.6054421768707483,-1.6054421768707483,-1.6054421768707483,-1.6054421768707483,-1.6054421768707483,-1.6054421768707483,-1.6054421768707483,-1.6054421768707483,-1.6054421768707483,-1.6054421768707483,-1.6054421768707483,-1.6054421768707483,-1.6054421768707483,-1.6054421768707483,-1.6054421768707483,-1.6054421768707483,-1.6054421768707483,-1.6054421768707483,-1.6054421768707483,-1.6054421768707483,-1.6054421768707483,-1.6054421768707483,-1.6054421768707483,-0.01020408163265306,-0.04081632653061224,-0.10204081632653061,-0.12244897959183673,-0.14285714285714285,-0.1564625850340136,-0.17006802721088435,-0.17346938775510204,-0.17687074829931973,-0.17687074829931973,-0.17006802721088435,-0.1564625850340136,-0.13945578231292516,-0.12585034013605442,-0.11224489795918367,-0.10204081632653061,-0.09183673469387756,-0.07482993197278912,-0.06462585034013606,-0.05442176870748299,-0.04421768707482993,-0.034013605442176874,-0.02040816326530612,0,0.034013605442176874,0.061224489795918366,0.08503401360544217,0.1054421768707483,0.12244897959183673,0.13945578231292516,0.16326530612244897,0.1836734693877551,0.19727891156462585,0.2108843537414966,0.21768707482993196,0.22789115646258504,0.23809523809523808,0.23809523809523808,0.24489795918367346,0.24489795918367346,0.24489795918367346,0.24489795918367346,0.24489795918367346,0.23469387755102042,0.20748299319727892,0.19047619047619047,0.17346938775510204,0.16666666666666666,0.1598639455782313,0.1564625850340136,0.15306122448979592,0.15306122448979592,0.15306122448979592,0.15306122448979592,0.1564625850340136,0.1598639455782313,0.16326530612244897,0.17006802721088435,0.17687074829931973,0.19727891156462585,0.20748299319727892,0.21768707482993196,0.22448979591836735,0.23129251700680273,0.23469387755102042,0.23809523809523808,0.23809523809523808,0.23809523809523808,0.24149659863945577,0.24149659863945577,0.24489795918367346,0.24489795918367346,0.25170068027210885,0.25170068027210885,0.25170068027210885,0.2619047619047619,0.2619047619047619,0.2653061224489796,0.2687074829931973,0.272108843537415,0.2789115646258503,0.282312925170068,0.2857142857142857,0.2925170068027211,0.29591836734693877,0.29931972789115646,0.29931972789115646,0.30612244897959184,0.3129251700680272,0.3163265306122449,0.3197278911564626,0.3231292517006803,0.32653061224489793,0.3333333333333333,0.3333333333333333,0.3333333333333333,0.3333333333333333,0.3333333333333333,0.3333333333333333,0.3333333333333333,0.3333333333333333,0.3333333333333333,0.3333333333333333,0.3333333333333333,0.3333333333333333,0.3333333333333333,0.3333333333333333,0.3333333333333333,0.3333333333333333,0.3333333333333333,0.3333333333333333,0.3197278911564626,0.29591836734693877,0.2755102040816326,0.25510204081632654,0.23809523809523808,0.22448979591836735,0.2108843537414966,0.19727891156462585,0.19047619047619047,0.1836734693877551,0.17687074829931973,0.17687074829931973,0.17006802721088435,0.17006802721088435,0.17006802721088435,0.17006802721088435,0.17006802721088435,0.17006802721088435,0.17006802721088435,0.17006802721088435,0.17006802721088435,0.17006802721088435,0.17006802721088435,0.17006802721088435,0.17006802721088435,0.17346938775510204,0.17687074829931973,0.1836734693877551,0.1870748299319728,0.19047619047619047,0.19047619047619047,0.20068027210884354,0.20748299319727892,0.2108843537414966,0.21768707482993196,0.22448979591836735,0.23129251700680273,0.23469387755102042,0.23809523809523808,0.24149659863945577,0.24489795918367346,0.25170068027210885,0.25510204081632654,0.25510204081632654,0.25510204081632654,0.24829931972789115,0.23809523809523808,0.22448979591836735,0.2108843537414966,0.17687074829931973,0.11904761904761904,0.07142857142857142,0.027210884353741496,0.006802721088435374,-0.013605442176870748,-0.047619047619047616,-0.08163265306122448,-0.12244897959183673,-0.14965986394557823,-0.17687074829931973,-0.23809523809523808,-0.272108843537415,-0.32653061224489793,-0.3741496598639456,-0.42517006802721086,-0.4557823129251701,-0.4965986394557823,-0.5238095238095238,-0.5578231292517006,-0.5816326530612245,-0.608843537414966,-0.6224489795918368,-0.6326530612244898,-0.6496598639455783,-0.6666666666666666,-0.673469387755102,-0.6870748299319728,-0.7074829931972789,-0.7210884353741497,-0.7346938775510204,-0.7414965986394558,-0.7551020408163265,-0.7653061224489796,-0.7755102040816326,-0.782312925170068,-0.7891156462585034,-0.7959183673469388,-0.7959183673469388,-0.8027210884353742,-0.8027210884353742,-0.8027210884353742,-0.8027210884353742,-0.8027210884353742,-0.8027210884353742,-0.8027210884353742,-0.7891156462585034,-0.7687074829931972,-0.7414965986394558,-0.7074829931972789,-0.6496598639455783,-0.6360544217687075,-0.5680272108843537,-0.5306122448979592,-0.4965986394557823,-0.47278911564625853,-0.4489795918367347,-0.41836734693877553,-0.4013605442176871,-0.38095238095238093,-0.36054421768707484,-0.3401360544217687,-0.3129251700680272,-0.2891156462585034,-0.2585034013605442,-0.24489795918367346,-0.20408163265306123,-0.17006802721088435,-0.1360544217687075,-0.09523809523809523,-0.030612244897959183,0.027210884353741496,0.06462585034013606,0.09863945578231292,0.12585034013605442,0.14285714285714285,0.16666666666666666,0.18027210884353742,0.19047619047619047,0.19727891156462585,0.19727891156462585,0.19727891156462585,0.19727891156462585,0.19727891156462585,0.19727891156462585,0.19727891156462585,0.19727891156462585,0.19727891156462585,0.19727891156462585,0.19727891156462585,0.19727891156462585,0.19727891156462585,0.19727891156462585,0.19727891156462585,0.19727891156462585,0.19727891156462585,0.19727891156462585,0.19727891156462585,0.19727891156462585,0.19727891156462585,0.19727891156462585,0.20068027210884354,0.20408163265306123,0.2108843537414966,0.22448979591836735,0.23809523809523808,0.25170068027210885,0.2585034013605442,0.2653061224489796,0.2789115646258503,0.2789115646258503,0.282312925170068,0.2857142857142857,0.2857142857142857,0.2925170068027211,0.2925170068027211,0.2925170068027211,0.2925170068027211,0.2925170068027211,0.2925170068027211,0.2925170068027211,0.2925170068027211,0.2925170068027211,0.2925170068027211,0.2925170068027211,0.2925170068027211,0.2925170068027211,0.2925170068027211,0.2925170068027211,0.2925170068027211,0.2925170068027211,0.2925170068027211,0.2925170068027211,0.2925170068027211,0.2925170068027211,0.2925170068027211,0.2925170068027211,0.2925170068027211,0.2925170068027211,0.2925170068027211,0.2925170068027211,0.2925170068027211,0.2925170068027211,0.2925170068027211,0.2925170068027211,0.2925170068027211,0.2925170068027211,0.2925170068027211,0.2925170068027211,0.2925170068027211,0.2925170068027211,0.2925170068027211,0.2925170068027211,0.2925170068027211,0.2925170068027211,0.2925170068027211,0.2925170068027211,0.2925170068027211,0.2925170068027211,0.2925170068027211,0.2925170068027211,0.2925170068027211,0.2925170068027211,0.2925170068027211,0.2925170068027211,0.29931972789115646,0.30612244897959184,0.30952380952380953,0.3129251700680272,0.3163265306122449,0.3197278911564626,0.3197278911564626,0.3197278911564626,0.3197278911564626,0.3197278911564626,0.32653061224489793,0.32653061224489793,0.3299319727891156,0.3333333333333333,0.336734693877551,0.3401360544217687,0.3401360544217687,0.3435374149659864,0.3469387755102041,0.35034013605442177,0.35034013605442177,0.35374149659863946,0.35374149659863946,0.35374149659863946,0.35374149659863946,0.35714285714285715,0.35714285714285715,0.36054421768707484,0.36054421768707484,0.36054421768707484,0.36394557823129253,0.36394557823129253,0.36394557823129253,0.36394557823129253,0.36394557823129253,0.36394557823129253,0.36394557823129253,0.36394557823129253,0.36394557823129253,0.36394557823129253,0.36394557823129253,0.36394557823129253,0.36394557823129253,0.36394557823129253,0.36394557823129253,0.36394557823129253,0.36394557823129253,0.36394557823129253,0.36394557823129253,0.36394557823129253,0.36394557823129253,0.36394557823129253,0.36394557823129253,0.36394557823129253,0.36394557823129253,0.36394557823129253,0.36394557823129253,0.36394557823129253,0.36394557823129253,0.36394557823129253,0.36394557823129253,0.36394557823129253,0.36394557823129253,0.36394557823129253,0.36394557823129253,0.36394557823129253,0.36394557823129253,0.36394557823129253,0.36394557823129253,0.3673469387755102,0.3707482993197279,0.3741496598639456,0.3741496598639456,0.38095238095238093,0.3877551020408163,0.391156462585034,0.3945578231292517,0.40476190476190477,0.40816326530612246,0.41156462585034015,0.41496598639455784,0.4217687074829932,0.4217687074829932,0.43197278911564624,0.4387755102040816,0.4489795918367347,0.4557823129251701,0.46938775510204084,0.4965986394557823,0.5034013605442177,0.5068027210884354,0.5170068027210885,0.5272108843537415,0.5340136054421769,0.5374149659863946,0.5374149659863946,0.5408163265306123,0.54421768707483,0.54421768707483,0.54421768707483,0.54421768707483,0.54421768707483,0.54421768707483,0.54421768707483,0.54421768707483,0.54421768707483,0.54421768707483,0.54421768707483,0.54421768707483,0.54421768707483,0.54421768707483,0.54421768707483,0.54421768707483,0.54421768707483,0.54421768707483,0.54421768707483,0.54421768707483,0.54421768707483,0.54421768707483,0.54421768707483,0.54421768707483,0.54421768707483,0.54421768707483,0.54421768707483,0.54421768707483,0.54421768707483,0.54421768707483,0.54421768707483,0.54421768707483,0.54421768707483,0.54421768707483,0.54421768707483,0.54421768707483,0.54421768707483,0.54421768707483,0.54421768707483,0.54421768707483,0.54421768707483,0.54421768707483,0.54421768707483,0.54421768707483,0.54421768707483,0.54421768707483,0.54421768707483,0.54421768707483,0.54421768707483,0.54421768707483,0.54421768707483,0.54421768707483,0.54421768707483,0.54421768707483,0.54421768707483,0.54421768707483,0.54421768707483,0.54421768707483,0.54421768707483,0.54421768707483,0.54421768707483,0.54421768707483,0.54421768707483,0.54421768707483,0.54421768707483,0.54421768707483,0.54421768707483,0.54421768707483,0.54421768707483,0.54421768707483,0.54421768707483,0.54421768707483,0.54421768707483,0.54421768707483,0.54421768707483,0.54421768707483,0.54421768707483,0.54421768707483,0.54421768707483,0.54421768707483,0.54421768707483,0.54421768707483,0.54421768707483,0.54421768707483,0.54421768707483,0.54421768707483,0.54421768707483,0.54421768707483,0.54421768707483,0.54421768707483,0.54421768707483,0.54421768707483,0.54421768707483,0.54421768707483,0.54421768707483,0.54421768707483,0.54421768707483,0.54421768707483,0.54421768707483,0.54421768707483,0.54421768707483,0.54421768707483,0.54421768707483,0.54421768707483,0.54421768707483,0.54421768707483,0.54421768707483,0.54421768707483,0.54421768707483,0.54421768707483,0.54421768707483,0.54421768707483,0.54421768707483,0.54421768707483,0.54421768707483,0.54421768707483,0.5306122448979592,0.5204081632653061,0.5068027210884354,0.4897959183673469,0.47278911564625853,0.45918367346938777,0.4489795918367347,0.43537414965986393,0.42517006802721086,0.40816326530612246,0.3979591836734694,0.37755102040816324,0.3673469387755102,0.36054421768707484,0.3469387755102041,0.336734693877551,0.3299319727891156,0.3231292517006803,0.3163265306122449,0.30952380952380953,0.30272108843537415,0.2925170068027211,0.2857142857142857,0.282312925170068,0.272108843537415,0.2653061224489796,0.2585034013605442,0.2482993