"success","trial_type","trial_index","time_elapsed","internal_node_id","protocol_sum","subject_identifier","subject_sum","subject_pair","STUDY_ID","PROLIFIC_PID","SESSION_ID","practice_instructions","leaderboard_instructions","bonus","reveal_word","self_rating","confidence","view_history","rt","responses","question_order","correct","test_part","word","final_keyboard_state","num_clicks","points","cheat","position_RT","position","player","i_game","true_position","distance","last_word","response","stimulus","confidence_slider_self_response"
"true","fullscreen",0,3736,"0.0-0.0",NA,526,"75,232,65,17,166,19,101,75,54,36,21,229,99,203,118,7,223,123,32,59,93,48,56,2,168,165,70,6,27,188,120,71",263,"66a3ed3c5d10d0e7d8a6b9da","669d682efab2137fa356f7ba","66a45b72502a5cd3c95525ef",1,2,0,"false",2,75,"",NA,"","","","","","",NA,NA,"",NA,NA,NA,NA,NA,NA,"",NA,"",NA
"","instructions",1,8528,"0.0-1.0",NA,526,"75,232,65,17,166,19,101,75,54,36,21,229,99,203,118,7,223,123,32,59,93,48,56,2,168,165,70,6,27,188,120,71",263,"66a3ed3c5d10d0e7d8a6b9da","669d682efab2137fa356f7ba","66a45b72502a5cd3c95525ef",1,2,0,"false",2,75,"[{""page_index"":0,""viewing_time"":4790}]",4790,"","","","","","",NA,NA,"",NA,NA,NA,NA,NA,NA,"",NA,"",NA
"","instructions",2,23773,"0.0-2.0-0.0",NA,526,"75,232,65,17,166,19,101,75,54,36,21,229,99,203,118,7,223,123,32,59,93,48,56,2,168,165,70,6,27,188,120,71",263,"66a3ed3c5d10d0e7d8a6b9da","669d682efab2137fa356f7ba","66a45b72502a5cd3c95525ef",1,2,0,"false",2,75,"[{""page_index"":0,""viewing_time"":15244}]",15244,"","","","","","",NA,NA,"",NA,NA,NA,NA,NA,NA,"",NA,"",NA
"","survey-multi-choice",3,29677,"0.0-2.0-1.0",NA,526,"75,232,65,17,166,19,101,75,54,36,21,229,99,203,118,7,223,123,32,59,93,48,56,2,168,165,70,6,27,188,120,71",263,"66a3ed3c5d10d0e7d8a6b9da","669d682efab2137fa356f7ba","66a45b72502a5cd3c95525ef",1,2,0,"false",2,75,"",5903,"{""Q0"":""... reveal the word with as <b>few letter guesses</b> as possible""}","[0]","true","multichoice_nonpretend","","",NA,NA,"",NA,NA,NA,NA,NA,NA,"",NA,"",NA
"","instructions",4,50979,"0.0-3.0",NA,526,"75,232,65,17,166,19,101,75,54,36,21,229,99,203,118,7,223,123,32,59,93,48,56,2,168,165,70,6,27,188,120,71",263,"66a3ed3c5d10d0e7d8a6b9da","669d682efab2137fa356f7ba","66a45b72502a5cd3c95525ef",1,2,0,"false",2,75,"[{""page_index"":0,""viewing_time"":21299}]",21299,"","","","","","",NA,NA,"",NA,NA,NA,NA,NA,NA,"",NA,"",NA
"","Hangman",5,91122,"0.0-4.0",NA,526,"75,232,65,17,166,19,101,75,54,36,21,229,99,203,118,7,223,123,32,59,93,48,56,2,168,165,70,6,27,188,120,71",263,"66a3ed3c5d10d0e7d8a6b9da","669d682efab2137fa356f7ba","66a45b72502a5cd3c95525ef",1,2,0,"false",2,75,"",NA,"","","","","ZEBRA","E,A,P,S,B,Z,R",7,13,"false",NA,NA,NA,NA,NA,NA,"",NA,"",NA
"","instructions",6,111829,"0.0-5.0",NA,526,"75,232,65,17,166,19,101,75,54,36,21,229,99,203,118,7,223,123,32,59,93,48,56,2,168,165,70,6,27,188,120,71",263,"66a3ed3c5d10d0e7d8a6b9da","669d682efab2137fa356f7ba","66a45b72502a5cd3c95525ef",1,2,0,"false",2,75,"[{""page_index"":0,""viewing_time"":6038},{""page_index"":1,""viewing_time"":14669}]",20707,"","","","","","",NA,NA,"",NA,NA,NA,NA,NA,NA,"",NA,"",NA
"","survey-multi-choice",7,119238,"0.0-6.0",NA,526,"75,232,65,17,166,19,101,75,54,36,21,229,99,203,118,7,223,123,32,59,93,48,56,2,168,165,70,6,27,188,120,71",263,"66a3ed3c5d10d0e7d8a6b9da","669d682efab2137fa356f7ba","66a45b72502a5cd3c95525ef",1,2,0,"false",2,75,"",7406,"{""Q0"":""...from <b>a previous session</b> that is not part of the upcoming tournament.""}","[0]","true","multichoice_leaderboard","","",NA,NA,"",NA,NA,NA,NA,NA,NA,"",NA,"",NA
"","instructions",8,129308,"0.0-8.0",NA,526,"75,232,65,17,166,19,101,75,54,36,21,229,99,203,118,7,223,123,32,59,93,48,56,2,168,165,70,6,27,188,120,71",263,"66a3ed3c5d10d0e7d8a6b9da","669d682efab2137fa356f7ba","66a45b72502a5cd3c95525ef",1,2,0,"false",2,75,"[{""page_index"":0,""viewing_time"":10071}]",10071,"","","","","","",NA,NA,"",NA,NA,NA,NA,NA,NA,"",NA,"",NA
"","survey-multi-choice",9,135752,"0.0-9.0",NA,526,"75,232,65,17,166,19,101,75,54,36,21,229,99,203,118,7,223,123,32,59,93,48,56,2,168,165,70,6,27,188,120,71",263,"66a3ed3c5d10d0e7d8a6b9da","669d682efab2137fa356f7ba","66a45b72502a5cd3c95525ef",1,2,0,"false",2,75,"",6442,"{""Q0"":""...how well players did (in terms of <b>points</b>) in <b>previous games.</b>""}","[0]","false","multichoice_tournament","","",NA,NA,"",NA,NA,NA,NA,NA,NA,"",NA,"",NA
"","instructions",10,141227,"0.0-10.0-0.0",NA,526,"75,232,65,17,166,19,101,75,54,36,21,229,99,203,118,7,223,123,32,59,93,48,56,2,168,165,70,6,27,188,120,71",263,"66a3ed3c5d10d0e7d8a6b9da","669d682efab2137fa356f7ba","66a45b72502a5cd3c95525ef",1,2,0,"false",2,75,"[{""page_index"":0,""viewing_time"":5474}]",5474,"","","","","","",NA,NA,"",NA,NA,NA,NA,NA,NA,"",NA,"",NA
"","survey-multi-choice",11,151507,"0.0-10.0-1.0",NA,526,"75,232,65,17,166,19,101,75,54,36,21,229,99,203,118,7,223,123,32,59,93,48,56,2,168,165,70,6,27,188,120,71",263,"66a3ed3c5d10d0e7d8a6b9da","669d682efab2137fa356f7ba","66a45b72502a5cd3c95525ef",1,2,0,"false",2,75,"",10279,"{""Q0"":""...how well players did (in terms of <b>points</b>) in <b>previous games.</b>""}","[0]","false","multichoice_tournament","","",NA,NA,"",NA,NA,NA,NA,NA,NA,"",NA,"",NA
"","instructions",12,153680,"0.0-10.1-0.1",NA,526,"75,232,65,17,166,19,101,75,54,36,21,229,99,203,118,7,223,123,32,59,93,48,56,2,168,165,70,6,27,188,120,71",263,"66a3ed3c5d10d0e7d8a6b9da","669d682efab2137fa356f7ba","66a45b72502a5cd3c95525ef",1,2,0,"false",2,75,"[{""page_index"":0,""viewing_time"":2172}]",2172,"","","","","","",NA,NA,"",NA,NA,NA,NA,NA,NA,"",NA,"",NA
"","survey-multi-choice",13,159479,"0.0-10.1-1.1",NA,526,"75,232,65,17,166,19,101,75,54,36,21,229,99,203,118,7,223,123,32,59,93,48,56,2,168,165,70,6,27,188,120,71",263,"66a3ed3c5d10d0e7d8a6b9da","669d682efab2137fa356f7ba","66a45b72502a5cd3c95525ef",1,2,0,"false",2,75,"",5799,"{""Q0"":""...players' leaderboard position (in terms of <b>points</b>) in an <b>upcoming tournament.</b>""}","[0]","true","multichoice_tournament","","",NA,NA,"",NA,NA,NA,NA,NA,NA,"",NA,"",NA
"","instructions",14,170557,"0.0-11.0",NA,526,"75,232,65,17,166,19,101,75,54,36,21,229,99,203,118,7,223,123,32,59,93,48,56,2,168,165,70,6,27,188,120,71",263,"66a3ed3c5d10d0e7d8a6b9da","669d682efab2137fa356f7ba","66a45b72502a5cd3c95525ef",1,2,0,"false",2,75,"[{""page_index"":0,""viewing_time"":11077}]",11077,"","","","","","",NA,NA,"",NA,NA,NA,NA,NA,NA,"",NA,"",NA
"","instructions",15,178778,"0.0-12.0-0.0",NA,526,"75,232,65,17,166,19,101,75,54,36,21,229,99,203,118,7,223,123,32,59,93,48,56,2,168,165,70,6,27,188,120,71",263,"66a3ed3c5d10d0e7d8a6b9da","669d682efab2137fa356f7ba","66a45b72502a5cd3c95525ef",1,2,0,"false",2,75,"[{""page_index"":0,""viewing_time"":8222}]",8222,"","","","","","",NA,NA,"",NA,NA,NA,NA,NA,NA,"",NA,"",NA
"","Hangman_replay",16,216021,"0.0-12.0-1.0",NA,526,"75,232,65,17,166,19,101,75,54,36,21,229,99,203,118,7,223,123,32,59,93,48,56,2,168,165,70,6,27,188,120,71",263,"66a3ed3c5d10d0e7d8a6b9da","669d682efab2137fa356f7ba","66a45b72502a5cd3c95525ef",1,2,0,"false",2,75,"",NA,"","","","","HAWAII","A,H,W,I",4,15,"false",NA,NA,NA,NA,NA,NA,"",NA,"",NA
"","instructions",17,219299,"0.0-12.0-2.0",NA,526,"75,232,65,17,166,19,101,75,54,36,21,229,99,203,118,7,223,123,32,59,93,48,56,2,168,165,70,6,27,188,120,71",263,"66a3ed3c5d10d0e7d8a6b9da","669d682efab2137fa356f7ba","66a45b72502a5cd3c95525ef",1,2,0,"false",2,75,"[{""page_index"":0,""viewing_time"":3277}]",3278,"","","","","","",NA,NA,"",NA,NA,NA,NA,NA,NA,"",NA,"",NA
"","Guess_leaderboard",18,226865,"0.0-12.0-3.0",NA,526,"75,232,65,17,166,19,101,75,54,36,21,229,99,203,118,7,223,123,32,59,93,48,56,2,168,165,70,6,27,188,120,71",263,"66a3ed3c5d10d0e7d8a6b9da","669d682efab2137fa356f7ba","66a45b72502a5cd3c95525ef",1,2,0,"false",2,75,"",NA,"","","","","HAWAII","",NA,NA,"",6813,12,73,0,23,11,"",NA,"",NA
"","instructions",19,230121,"0.0-12.0-0.1",NA,526,"75,232,65,17,166,19,101,75,54,36,21,229,99,203,118,7,223,123,32,59,93,48,56,2,168,165,70,6,27,188,120,71",263,"66a3ed3c5d10d0e7d8a6b9da","669d682efab2137fa356f7ba","66a45b72502a5cd3c95525ef",1,2,0,"false",2,75,"[{""page_index"":0,""viewing_time"":3255}]",3255,"","","","","","",NA,NA,"",NA,NA,NA,NA,NA,NA,"",NA,"",NA
"","Hangman_replay",20,269043,"0.0-12.0-1.1",NA,526,"75,232,65,17,166,19,101,75,54,36,21,229,99,203,118,7,223,123,32,59,93,48,56,2,168,165,70,6,27,188,120,71",263,"66a3ed3c5d10d0e7d8a6b9da","669d682efab2137fa356f7ba","66a45b72502a5cd3c95525ef",1,2,0,"false",2,75,"",NA,"","","","","THIRTY FOUR","T,Y,E,H,I,O,U,R,F",9,14,"false",NA,NA,NA,NA,NA,NA,"",NA,"",NA
"","instructions",21,272028,"0.0-12.0-2.1",NA,526,"75,232,65,17,166,19,101,75,54,36,21,229,99,203,118,7,223,123,32,59,93,48,56,2,168,165,70,6,27,188,120,71",263,"66a3ed3c5d10d0e7d8a6b9da","669d682efab2137fa356f7ba","66a45b72502a5cd3c95525ef",1,2,0,"false",2,75,"[{""page_index"":0,""viewing_time"":2985}]",2985,"","","","","","",NA,NA,"",NA,NA,NA,NA,NA,NA,"",NA,"",NA
"","Guess_leaderboard",22,275335,"0.0-12.0-3.1",NA,526,"75,232,65,17,166,19,101,75,54,36,21,229,99,203,118,7,223,123,32,59,93,48,56,2,168,165,70,6,27,188,120,71",263,"66a3ed3c5d10d0e7d8a6b9da","669d682efab2137fa356f7ba","66a45b72502a5cd3c95525ef",1,2,0,"false",2,75,"",NA,"","","","","THIRTY FOUR","",NA,NA,"",2553,32,74,1,40,8,"",NA,"",NA
"","instructions",23,287201,"0.0-12.0-0.2",NA,526,"75,232,65,17,166,19,101,75,54,36,21,229,99,203,118,7,223,123,32,59,93,48,56,2,168,165,70,6,27,188,120,71",263,"66a3ed3c5d10d0e7d8a6b9da","669d682efab2137fa356f7ba","66a45b72502a5cd3c95525ef",1,2,0,"false",2,75,"[{""page_index"":0,""viewing_time"":11865}]",11865,"","","","","","",NA,NA,"",NA,NA,NA,NA,NA,NA,"",NA,"",NA
"","Hangman_replay",24,327732,"0.0-12.0-1.2",NA,526,"75,232,65,17,166,19,101,75,54,36,21,229,99,203,118,7,223,123,32,59,93,48,56,2,168,165,70,6,27,188,120,71",263,"66a3ed3c5d10d0e7d8a6b9da","669d682efab2137fa356f7ba","66a45b72502a5cd3c95525ef",1,2,0,"false",2,75,"",NA,"","","","","NECTARINE","A,E,R,P,T,S,N,C,I",9,13,"false",NA,NA,NA,NA,NA,NA,"",NA,"",NA
"","instructions",25,329079,"0.0-12.0-2.2",NA,526,"75,232,65,17,166,19,101,75,54,36,21,229,99,203,118,7,223,123,32,59,93,48,56,2,168,165,70,6,27,188,120,71",263,"66a3ed3c5d10d0e7d8a6b9da","669d682efab2137fa356f7ba","66a45b72502a5cd3c95525ef",1,2,0,"false",2,75,"[{""page_index"":0,""viewing_time"":1348}]",1348,"","","","","","",NA,NA,"",NA,NA,NA,NA,NA,NA,"",NA,"",NA
"","Guess_leaderboard",26,335342,"0.0-12.0-3.2",NA,526,"75,232,65,17,166,19,101,75,54,36,21,229,99,203,118,7,223,123,32,59,93,48,56,2,168,165,70,6,27,188,120,71",263,"66a3ed3c5d10d0e7d8a6b9da","669d682efab2137fa356f7ba","66a45b72502a5cd3c95525ef",1,2,0,"false",2,75,"",NA,"","","","","NECTARINE","",NA,NA,"",5505,66,23,2,32,34,"",NA,"",NA
"","instructions",27,336625,"0.0-12.0-0.3",NA,526,"75,232,65,17,166,19,101,75,54,36,21,229,99,203,118,7,223,123,32,59,93,48,56,2,168,165,70,6,27,188,120,71",263,"66a3ed3c5d10d0e7d8a6b9da","669d682efab2137fa356f7ba","66a45b72502a5cd3c95525ef",1,2,0,"false",2,75,"[{""page_index"":0,""viewing_time"":1281}]",1281,"","","","","","",NA,NA,"",NA,NA,NA,NA,NA,NA,"",NA,"",NA
"","Hangman_replay",28,379484,"0.0-12.0-1.3",NA,526,"75,232,65,17,166,19,101,75,54,36,21,229,99,203,118,7,223,123,32,59,93,48,56,2,168,165,70,6,27,188,120,71",263,"66a3ed3c5d10d0e7d8a6b9da","669d682efab2137fa356f7ba","66a45b72502a5cd3c95525ef",1,2,0,"false",2,75,"",NA,"","","","","SHAKIRA","A,R,S,H,K,I",6,15,"false",NA,NA,NA,NA,NA,NA,"",NA,"",NA
"","instructions",29,381899,"0.0-12.0-2.3",NA,526,"75,232,65,17,166,19,101,75,54,36,21,229,99,203,118,7,223,123,32,59,93,48,56,2,168,165,70,6,27,188,120,71",263,"66a3ed3c5d10d0e7d8a6b9da","669d682efab2137fa356f7ba","66a45b72502a5cd3c95525ef",1,2,0,"false",2,75,"[{""page_index"":0,""viewing_time"":2415}]",2415,"","","","","","",NA,NA,"",NA,NA,NA,NA,NA,NA,"",NA,"",NA
"","Guess_leaderboard",30,383819,"0.0-12.0-3.3",NA,526,"75,232,65,17,166,19,101,75,54,36,21,229,99,203,118,7,223,123,32,59,93,48,56,2,168,165,70,6,27,188,120,71",263,"66a3ed3c5d10d0e7d8a6b9da","669d682efab2137fa356f7ba","66a45b72502a5cd3c95525ef",1,2,0,"false",2,75,"",NA,"","","","","SHAKIRA","",NA,NA,"",1160,56,81,3,78,22,"",NA,"",NA
"","instructions",31,384832,"0.0-12.0-0.4",NA,526,"75,232,65,17,166,19,101,75,54,36,21,229,99,203,118,7,223,123,32,59,93,48,56,2,168,165,70,6,27,188,120,71",263,"66a3ed3c5d10d0e7d8a6b9da","669d682efab2137fa356f7ba","66a45b72502a5cd3c95525ef",1,2,0,"false",2,75,"[{""page_index"":0,""viewing_time"":1013}]",1013,"","","","","","",NA,NA,"",NA,NA,NA,NA,NA,NA,"",NA,"",NA
"","Hangman_replay",32,398936,"0.0-12.0-1.4",NA,526,"75,232,65,17,166,19,101,75,54,36,21,229,99,203,118,7,223,123,32,59,93,48,56,2,168,165,70,6,27,188,120,71",263,"66a3ed3c5d10d0e7d8a6b9da","669d682efab2137fa356f7ba","66a45b72502a5cd3c95525ef",1,2,0,"false",2,75,"",NA,"","","","","WRIST","A,K,W,I,R,S,T",7,13,"false",NA,NA,NA,NA,NA,NA,"",NA,"",NA
"","instructions",33,399874,"0.0-12.0-2.4",NA,526,"75,232,65,17,166,19,101,75,54,36,21,229,99,203,118,7,223,123,32,59,93,48,56,2,168,165,70,6,27,188,120,71",263,"66a3ed3c5d10d0e7d8a6b9da","669d682efab2137fa356f7ba","66a45b72502a5cd3c95525ef",1,2,0,"false",2,75,"[{""page_index"":0,""viewing_time"":938}]",938,"","","","","","",NA,NA,"",NA,NA,NA,NA,NA,NA,"",NA,"",NA
"","Guess_leaderboard",34,404402,"0.0-12.0-3.4",NA,526,"75,232,65,17,166,19,101,75,54,36,21,229,99,203,118,7,223,123,32,59,93,48,56,2,168,165,70,6,27,188,120,71",263,"66a3ed3c5d10d0e7d8a6b9da","669d682efab2137fa356f7ba","66a45b72502a5cd3c95525ef",1,2,0,"false",2,75,"",NA,"","","","","WRIST","",NA,NA,"",3775,72,85,4,4,68,"",NA,"",NA
"","survey-text",35,409703,"0.0-13.0",NA,526,"75,232,65,17,166,19,101,75,54,36,21,229,99,203,118,7,223,123,32,59,93,48,56,2,168,165,70,6,27,188,120,71",263,"66a3ed3c5d10d0e7d8a6b9da","669d682efab2137fa356f7ba","66a45b72502a5cd3c95525ef",1,2,0,"false",2,75,"",5295,"{""Q0"":""wrist""}","","","","","",NA,NA,"",NA,NA,NA,NA,NA,NA,"wrist",NA,"",NA
"","survey-multi-choice",36,418737,"0.0-14.0",NA,526,"75,232,65,17,166,19,101,75,54,36,21,229,99,203,118,7,223,123,32,59,93,48,56,2,168,165,70,6,27,188,120,71",263,"66a3ed3c5d10d0e7d8a6b9da","669d682efab2137fa356f7ba","66a45b72502a5cd3c95525ef",1,2,0,"false",2,75,"",9033,"{""Q0"":""2. I would be <b>second</b> out of the six of us.""}","[0]","","self-rating","","",NA,NA,"",NA,2,NA,NA,NA,NA,"",NA,"",NA
"","html-slider-response",37,421943,"0.0-15.0",NA,526,"75,232,65,17,166,19,101,75,54,36,21,229,99,203,118,7,223,123,32,59,93,48,56,2,168,165,70,6,27,188,120,71",263,"66a3ed3c5d10d0e7d8a6b9da","669d682efab2137fa356f7ba","66a45b72502a5cd3c95525ef",1,2,0,"false",2,75,"",3205,"","","","","","",NA,NA,"",NA,NA,NA,NA,NA,NA,"",75,"<p>Overall, how confident were you in your answer to this last question?</p>",75
"","survey-text",38,521502,"0.0-16.0",NA,526,"75,232,65,17,166,19,101,75,54,36,21,229,99,203,118,7,223,123,32,59,93,48,56,2,168,165,70,6,27,188,120,71",263,"66a3ed3c5d10d0e7d8a6b9da","669d682efab2137fa356f7ba","66a45b72502a5cd3c95525ef",1,2,0,"false",2,75,"",99556,"{""Q0"":""I assume you're trying to gauge whether we can tell if someone is genuinely trying or whether they're cheating in some capacity (ie: using a letter predicting tool online or something of the sort). Those who make mistakes are typically genuinely trying, but those who get it perfectly will likely make less mistakes in the actual tournament.""}","","","","","",NA,NA,"",NA,NA,NA,NA,NA,NA,"",NA,"",NA
"","survey-text",39,545464,"0.0-17.0",NA,526,"75,232,65,17,166,19,101,75,54,36,21,229,99,203,118,7,223,123,32,59,93,48,56,2,168,165,70,6,27,188,120,71",263,"66a3ed3c5d10d0e7d8a6b9da","669d682efab2137fa356f7ba","66a45b72502a5cd3c95525ef",1,2,0,"false",2,75,"",23959,"{""Q0"":""I really did just try and see if it was someone who was using a tool to succeed or whether it was someone earnestly trying.""}","","","","","",NA,NA,"",NA,NA,NA,NA,NA,NA,"",NA,"",NA
"","instructions",40,546655,"0.0-18.0",NA,526,"75,232,65,17,166,19,101,75,54,36,21,229,99,203,118,7,223,123,32,59,93,48,56,2,168,165,70,6,27,188,120,71",263,"66a3ed3c5d10d0e7d8a6b9da","669d682efab2137fa356f7ba","66a45b72502a5cd3c95525ef",1,2,0,"false",2,75,"[{""page_index"":0,""viewing_time"":1190}]",1190,"","","","","","",NA,NA,"",NA,NA,NA,NA,NA,NA,"",NA,"",NA
