[{"success":true,"trial_type":"fullscreen","trial_index":0,"time_elapsed":4490,"internal_node_id":"0.0-0.0","protocol_sum":"","subject_identifier":311,"subject_sum":[33,14,59,22,12,53,88,24,80,148,37,185,217,233,253,62,162,226,135,242,196,58,19,229,190,136,23,20,13,176,185,230],"subject_pair":155,"STUDY_ID":"66a0b3911f23dfc7665bb169","PROLIFIC_PID":"6135e00cdb42bb8c6bc32b71","SESSION_ID":"66a123f03968ebe6916716b3","practice_instructions":1,"leaderboard_instructions":0,"bonus":0,"reveal_word":true,"self_rating":"6","confidence":"72"},{"view_history":"[{\"page_index\":0,\"viewing_time\":5040.5}]","rt":5040.900000095367,"trial_type":"instructions","trial_index":1,"time_elapsed":9533,"internal_node_id":"0.0-1.0","protocol_sum":"","subject_identifier":311,"subject_sum":[33,14,59,22,12,53,88,24,80,148,37,185,217,233,253,62,162,226,135,242,196,58,19,229,190,136,23,20,13,176,185,230],"subject_pair":155,"STUDY_ID":"66a0b3911f23dfc7665bb169","PROLIFIC_PID":"6135e00cdb42bb8c6bc32b71","SESSION_ID":"66a123f03968ebe6916716b3","practice_instructions":1,"leaderboard_instructions":0,"bonus":0,"reveal_word":true,"self_rating":"6","confidence":"72"},{"view_history":"[{\"page_index\":0,\"viewing_time\":47786.39999985695}]","rt":47786.699999809265,"trial_type":"instructions","trial_index":2,"time_elapsed":57321,"internal_node_id":"0.0-2.0-0.0","protocol_sum":"","subject_identifier":311,"subject_sum":[33,14,59,22,12,53,88,24,80,148,37,185,217,233,253,62,162,226,135,242,196,58,19,229,190,136,23,20,13,176,185,230],"subject_pair":155,"STUDY_ID":"66a0b3911f23dfc7665bb169","PROLIFIC_PID":"6135e00cdb42bb8c6bc32b71","SESSION_ID":"66a123f03968ebe6916716b3","practice_instructions":1,"leaderboard_instructions":0,"bonus":0,"reveal_word":true,"self_rating":"6","confidence":"72"},{"rt":9700,"responses":"{\"Q0\":\"... reveal the word with as <b>few letter guesses</b> as possible\"}","question_order":"[0]","trial_type":"survey-multi-choice","trial_index":3,"time_elapsed":67024,"internal_node_id":"0.0-2.0-1.0","protocol_sum":"","subject_identifier":311,"subject_sum":[33,14,59,22,12,53,88,24,80,148,37,185,217,233,253,62,162,226,135,242,196,58,19,229,190,136,23,20,13,176,185,230],"subject_pair":155,"correct":true,"test_part":"multichoice_nonpretend","STUDY_ID":"66a0b3911f23dfc7665bb169","PROLIFIC_PID":"6135e00cdb42bb8c6bc32b71","SESSION_ID":"66a123f03968ebe6916716b3","practice_instructions":1,"leaderboard_instructions":0,"bonus":0,"reveal_word":true,"self_rating":"6","confidence":"72"},{"view_history":"[{\"page_index\":0,\"viewing_time\":1361}]","rt":1361.2999999523163,"trial_type":"instructions","trial_index":4,"time_elapsed":68388,"internal_node_id":"0.0-3.0","protocol_sum":"","subject_identifier":311,"subject_sum":[33,14,59,22,12,53,88,24,80,148,37,185,217,233,253,62,162,226,135,242,196,58,19,229,190,136,23,20,13,176,185,230],"subject_pair":155,"STUDY_ID":"66a0b3911f23dfc7665bb169","PROLIFIC_PID":"6135e00cdb42bb8c6bc32b71","SESSION_ID":"66a123f03968ebe6916716b3","practice_instructions":1,"leaderboard_instructions":0,"bonus":0,"reveal_word":true,"self_rating":"6","confidence":"72"},{"word":"ZEBRA","click_log":{"letter":["","H","I","O","U","E","A","S","R","T","K","L","M","N","B","Z"],"t":[0,9454.899999856949,17094.799999952316,19086.89999985695,20690.5,22276.699999809265,31201.299999952316,61013.5,69501.39999985695,83666.89999985695,111101.89999985695,112214.89999985695,113212.79999995232,114190.29999995232,115307.89999985695,117821.69999980927],"hit":[null,0,0,0,0,1,1,0,1,0,0,0,0,0,1,1],"asked":["","H","HI","HIO","HIOU","HIOUE","HIOUEA","HIOUEAS","HIOUEASR","HIOUEASRT","HIOUEASRTK","HIOUEASRTKL","HIOUEASRTKLM","HIOUEASRTKLMN","HIOUEASRTKLMNB","HIOUEASRTKLMNBZ"],"word_state":["_____","_____","_____","_____","_____","_E___","_E__A","_E__A","_E_RA","_E_RA","_E_RA","_E_RA","_E_RA","_E_RA","_EBRA","ZEBRA"]},"hover_log":{"letter":["?","?","?","?","?","?","?","?","?","?","?","?","?","?","?","?","?","?","?","?","?","?","?","?","?","?","?","?","?","?","?","?","?","?","?","?","?","?","?","?","?","?","?","?","?","?","?","?","?","?","?","?","?","?","?","?","?","?","?","?","?","?","?","?","?","?","?","?","?","?","?","?","?","?","?","?","?","?","?","?","?","?","?","?","?","?","?","?","?","?","?","?","?","?","?","?","?","?","?","?","?","?","?","?","?","?","?","?","?","?","?","?","?","?","?","?","?","?","?","?","?","?","?","B","?","?","?","?","?","?","?","?","?","?","?","?","?","?","?","?","?","?","?","?","?","?","?","?","?","?","?","?","?","?","?","?","?","?","?","?","?","?","?","?","?","?","?","?","?","?","?","?","?","?","?","?","?","?","?","?","?","?","?","?","?","?","?","?","?","?","?","?","?","?","?","?","?","?","?","?","?","?","?","?","?","?","?","?","?","?","?","?","?","?","?","?","?","?","?","?","?","?","?","?","?","?","?","?","?","?","?","?","?","?","?","?","?","?","?","?","?","?","?","?","?","?","?","?","?","?","?","?","?","?","?","?","?","?","?","?","?","?","?","?","?","?","?","?","?","?","?","?","?","?","?","?","?","?","?","?","?","?","?","?","?","?","?","?","?","?","?","?","?","?","?","?","?","?","?","?","?","?","?","?","?","?","?","?","?","?","?","?","?","?","?","?","?","?","?","?","?","?","?","?","?","?","?","?","?","?","?","?","?","?","?","?","?","?","?","?","?","?","?","?","?","?","?","?","?","?","?","?","?","?","?","?","?","?","?","?","?","?","?","?","?","?","?","?","?","?","?","?","?","?","?","?","?","?","?","?","?","?","?","?","?","?","?","?","?","?","?","?","?","?","?","?","?","?","?","?","?","?","?","?","?","?","?","?","?","?","?","?","?","?","?","?","?","?","?","?","?","?","?","?","?","?","?","?","?","?","?","?","?","?","?","?","?","?","?","?","?","?","?","?","?","?","?","?","?","?","?","?","?","?","?","?","?","?","?","?","?","C","C","?","?","?","L","L","L","L","L","L","L","L","?","M","M","M","M","M","M","?","?","?","?","?","?","?","?","?","?","N","N","N","N","N","N","N","?","?","?","?","?","?","?","?","?","?","?","?","?","G","G","G","G","G","G","G","G","G","G","G","G","G","G","?","?","?","?","?","?","?","?","?","H","H","H","H","H","H","H","H","H","H","H","H","H","H","H","H","H","H","H","H","H","H","H","H","H","H","H","H","H","H","H","H","H","H","H","H","H","H","H","H","H","H","H","H","H","H","H","H","H","H","H","H","H","H","H","H","H","H","H","H","H","H","H","H","H","H","H","H","H","H","H","H","H","H","H","H","H","H","H","H","H","H","H","H","H","H","H","H","H","H","H","H","H","H","H","H","H","H","H","H","H","H","H","H","H","H","H","H","H","H","H","H","H","H","H","H","H","H","H","H","H","H","H","H","H","H","H","H","H","H","H","H","H","H","H","H","H","H","H","H","H","H","H","H","H","H","H","H","H","H","H","H","H","H","H","H","H","H","H","H","H","H","H","H","H","H","H","H","H","H","H","H","H","H","H","H","H","H","H","H","H","H","H","H","H","H","H","H","H","H","H","H","H","H","H","H","H","H","H","H","H","H","H","H","H","H","H","H","H","H","H","H","H","H","H","H","H","H","H","H","H","H","H","H","H","H","H","H","H","H","H","H","H","H","H","H","H","H","H","H","H","H","H","H","H","H","H","H","H","H","H","H","H","H","H","H","H","H","H","H","H","H","H","H","H","H","H","H","H","H","H","H","H","H","H","H","H","H","H","H","H","H","H","H","H","H","H","H","H","H","H","H","H","H","H","H","H","H","H","H","H","H","H","H","H","H","H","H","H","H","H","H","H","H","H","H","H","H","H","H","H","H","H","H","?","?","?","?","?","?","?","?","?","?","?","?","?","?","?","?","?","?","?","?","?","?","?","?","?","?","?","?","?","?","?","?","?","?","?","?","?","?","?","?","?","?","?","?","?","?","?","?","?","?","?","?","?","?","?","?","?","?","?","I","I","I","I","I","I","I","I","I","I","I","I","I","I","I","I","I","I","I","I","I","I","I","I","I","I","I","I","I","I","I","I","I","I","I","I","I","I","I","I","I","I","I","I","I","I","I","I","I","I","I","I","I","I","I","I","I","I","I","I","I","I","I","I","I","I","I","I","I","I","I","I","I","I","I","I","I","I","I","I","I","I","I","I","I","I","I","I","I","I","I","I","I","I","I","I","I","I","I","I","I","I","I","I","I","I","I","I","I","I","I","I","I","I","I","I","I","I","I","I","I","I","I","I","I","I","I","I","I","I","I","I","I","I","I","I","I","I","I","I","I","I","I","I","I","I","I","I","I","I","I","I","I","I","I","I","I","I","I","I","I","I","I","I","I","I","I","I","I","I","I","I","I","I","I","I","I","H","?","?","?","?","?","?","?","?","?","?","?","?","?","?","?","?","?","?","?","?","?","?","?","?","O","O","O","O","O","O","O","O","O","O","O","O","O","O","O","O","O","O","O","O","O","O","O","O","O","O","O","O","O","O","O","O","O","O","O","O","O","O","O","O","O","O","O","O","O","O","O","O","O","O","O","O","O","O","O","O","O","O","O","O","O","O","O","O","O","O","O","O","O","O","O","O","O","O","O","O","O","O","O","O","O","O","O","O","N","?","?","?","?","?","?","?","?","U","U","U","U","U","U","U","U","U","U","U","U","U","U","U","U","U","U","U","U","U","U","U","U","U","U","U","U","U","U","U","U","U","U","U","U","U","U","U","U","U","U","U","U","U","U","U","U","U","U","U","U","U","U","U","U","U","U","U","U","U","U","U","U","U","U","U","?","?","?","M","M","M","M","M","M","M","M","M","M","M","?","?","?","?","?","?","?","?","?","?","?","?","?","?","?","?","E","E","E","E","E","E","E","E","E","E","E","E","E","E","E","E","E","E","E","E","E","E","E","E","E","E","E","E","E","E","E","E","E","E","E","E","E","E","E","E","E","E","E","E","E","E","E","E","E","E","E","E","E","E","E","E","E","E","E","E","E","E","E","E","E","E","E","E","E","E","E","E","E","E","E","E","E","E","E","E","E","E","E","E","E","E","E","E","E","E","E","E","E","E","E","E","E","E","E","E","E","E","E","E","E","E","E","E","E","E","E","E","E","E","E","E","E","E","E","E","E","E","E","E","E","E","E","E","E","E","E","E","E","E","E","E","E","E","E","E","E","E","E","E","E","E","E","E","E","E","E","E","E","E","E","E","E","E","E","E","E","E","E","E","E","E","E","E","E","E","E","E","E","E","E","E","E","E","E","E","E","E","E","E","E","E","E","E","E","E","E","E","E","E","E","E","E","E","E","E","E","E","E","E","E","E","E","E","E","E","E","E","E","E","E","E","E","E","E","E","E","E","E","E","E","E","E","E","E","E","E","E","E","E","E","E","E","E","E","E","E","E","E","E","E","E","E","E","E","E","E","E","E","E","E","E","E","E","E","E","E","E","E","E","E","E","E","E","E","E","E","E","E","E","E","E","E","E","E","E","E","E","E","E","E","E","E","E","E","E","E","E","E","E","E","E","E","E","E","E","E","E","E","E","E","E","E","E","E","E","E","E","E","E","E","E","E","E","E","E","E","E","E","E","E","E","E","E","E","E","E","E","E","E","E","E","E","E","E","E","E","E","E","E","E","E","E","E","E","E","E","E","E","E","E","E","E","E","E","E","E","E","E","E","E","E","E","E","E","E","E","E","E","E","E","E","E","E","E","E","E","E","E","E","E","E","E","E","E","E","E","E","E","E","E","E","E","E","E","E","E","E","E","E","E","E","E","E","E","E","E","E","E","E","E","E","E","E","E","E","E","E","E","E","E","E","E","E","E","E","E","E","E","E","E","E","E","E","E","E","E","E","E","E","E","E","E","E","E","E","E","E","E","E","E","E","E","E","E","E","E","E","E","E","E","E","E","E","E","E","E","E","E","E","E","E","E","E","E","E","E","E","E","E","E","E","E","E","E","E","E","E","E","E","E","E","E","E","E","?","?","D","?","C","C","C","C","?","?","B","B","B","B","B","B","B","B","B","B","B","B","B","B","B","B","B","?","?","A","A","A","A","A","A","A","A","A","A","A","A","A","A","A","A","A","A","A","A","A","A","A","A","A","A","A","A","A","A","A","A","A","A","A","A","A","A","A","A","A","A","A","A","A","A","A","A","A","A","A","A","A","A","A","A","A","A","A","A","A","A","A","A","A","A","A","A","A","A","A","A","A","A","A","A","A","A","A","A","A","A","A","A","A","A","A","A","A","A","A","A","A","A","A","A","A","A","A","A","A","A","A","A","A","A","A","A","A","A","A","A","A","A","A","A","A","A","A","A","A","A","A","A","A","A","A","A","A","A","A","A","A","A","A","A","A","A","A","A","A","A","A","A","A","A","A","A","A","A","A","A","A","A","A","A","A","A","A","A","A","A","A","A","A","A","A","A","A","A","A","A","A","A","A","A","A","A","A","A","A","A","A","A","A","A","A","A","A","A","A","A","A","A","A","A","A","A","A","A","A","A","A","A","A","A","A","A","A","A","A","A","A","A","A","A","A","A","A","A","A","A","A","A","A","A","A","A","A","A","A","A","A","A","A","A","A","A","A","A","A","A","A","A","A","A","A","A","A","A","A","A","A","A","A","A","A","A","A","A","A","A","A","A","A","A","A","A","A","A","A","A","A","A","A","A","A","A","A","A","A","A","A","A","A","A","A","A","A","A","A","A","A","A","A","A","A","A","A","A","A","A","A","A","A","A","A","A","A","A","A","A","A","A","A","A","A","A","A","A","A","A","A","A","A","A","A","A","A","A","A","A","A","A","A","A","A","A","A","A","A","A","A","A","A","A","A","A","A","A","A","A","A","A","A","A","A","A","A","A","A","A","A","A","A","A","A","A","A","A","A","A","A","A","A","A","A","A","A","A","A","A","A","A","A","A","A","A","A","A","A","A","A","A","A","A","A","A","A","A","A","A","A","A","A","A","A","A","A","A","A","A","A","A","A","A","A","A","A","A","A","A","A","A","A","A","A","A","A","A","A","A","A","A","A","A","A","A","A","A","A","A","A","A","A","A","A","A","A","A","A","A","A","A","A","A","A","A","A","A","A","A","A","A","A","A","A","A","A","A","A","A","A","A","A","A","A","A","A","A","A","A","A","A","A","A","A","A","A","A","A","A","A","A","A","A","A","A","A","A","A","A","A","A","A","A","A","A","A","A","A","A","A","A","A","A","A","A","A","A","A","A","A","A","A","A","A","A","A","A","A","A","A","A","A","A","A","A","A","A","A","A","A","A","A","A","A","A","A","A","A","A","A","A","A","A","A","A","A","A","A","A","A","A","A","A","A","A","A","A","A","A","A","A","A","A","A","A","A","A","A","A","A","A","A","A","A","A","A","A","A","A","A","A","A","A","A","A","A","A","A","A","A","A","A","A","A","A","A","A","A","A","A","A","A","A","A","A","A","A","A","A","A","A","A","A","A","A","A","A","A","A","A","A","A","A","A","A","A","A","A","A","A","A","A","A","A","A","A","A","A","A","A","A","A","A","A","A","A","A","A","A","A","A","A","A","A","A","A","A","A","A","A","A","A","A","A","A","A","A","A","A","A","A","A","A","A","A","A","A","?","B","B","B","B","B","B","B","B","?","?","?","?","?","?","?","?","?","?","?","?","?","?","?","?","?","?","?","?","?","?","?","?","?","?","?","?","?","?","B","B","B","B","B","B","B","B","B","B","B","B","B","B","B","B","B","B","B","B","B","B","B","B","B","B","B","B","B","B","B","B","B","B","B","B","B","B","B","B","B","B","B","B","B","B","B","B","B","B","B","B","B","B","B","B","B","B","B","B","B","B","B","B","B","B","B","B","B","B","B","B","B","B","B","B","B","B","B","B","B","B","B","B","B","B","B","B","B","B","B","B","B","B","B","B","B","B","B","B","B","B","B","B","?","?","?","?","?","?","C","C","C","C","C","C","C","C","C","C","C","C","C","C","C","C","C","C","C","C","C","C","C","C","C","C","C","C","C","C","C","C","C","C","C","C","C","C","C","C","C","C","C","C","C","C","C","C","C","C","C","C","C","C","C","C","C","C","C","C","C","C","C","C","C","C","C","C","C","C","C","C","C","C","C","C","C","C","C","C","C","C","C","C","C","C","C","C","C","C","C","C","C","C","C","C","C","C","C","C","C","C","C","C","C","C","C","C","C","C","C","C","C","C","C","C","C","C","C","C","C","C","C","C","C","C","C","C","C","C","C","C","C","C","C","C","C","C","C","C","C","C","C","C","C","C","C","C","C","C","C","C","C","C","C","C","C","C","C","C","C","C","C","C","C","C","C","C","C","C","C","C","C","C","C","C","C","C","C","C","C","C","C","C","C","C","C","C","C","C","C","C","C","C","C","C","C","C","C","C","C","C","C","C","C","C","C","C","C","C","C","C","C","C","C","C","C","C","C","C","C","C","C","C","C","C","C","C","C","C","C","C","C","C","C","C","C","C","C","C","C","C","C","C","C","C","C","C","C","C","C","C","C","C","C","C","C","C","C","C","C","C","C","C","C","C","C","C","C","C","C","C","C","C","C","C","C","C","C","C","C","C","C","C","C","C","C","C","C","C","C","C","C","C","C","C","C","C","C","C","C","C","C","C","C","C","C","C","C","C","C","C","C","C","C","C","C","C","C","C","C","C","C","C","C","C","C","C","C","C","C","C","C","C","C","C","C","C","C","C","C","C","C","C","C","C","C","C","C","C","C","C","C","C","C","C","C","C","C","C","C","C","C","C","C","C","C","C","C","C","C","C","?","?","?","?","?","?","?","?","?","?","?","?","?","?","?","?","?","?","?","?","?","?","?","?","?","?","?","?","?","?","?","?","?","C","C","C","C","C","C","C","C","C","C","C","C","C","C","C","C","C","C","C","C","C","C","C","C","C","C","C","C","C","C","C","C","C","C","C","C","C","C","C","C","C","C","C","C","C","C","C","C","C","C","C","C","C","C","C","C","C","C","C","C","C","C","C","C","C","C","C","C","C","C","C","C","C","C","C","C","C","C","C","C","C","C","C","C","C","C","C","C","C","C","C","C","C","C","C","C","C","C","C","C","C","C","C","C","C","C","C","C","C","C","C","C","C","C","C","C","C","C","C","C","C","C","C","C","C","C","C","C","C","C","C","C","C","C","C","C","C","C","C","C","C","C","C","C","C","C","C","C","C","C","C","C","C","C","C","C","C","C","C","C","C","C","C","C","C","C","C","C","C","C","C","C","C","C","C","C","C","C","C","C","C","C","C","C","C","C","C","C","C","C","C","C","C","C","C","C","C","C","C","C","C","C","C","C","C","C","C","C","C","C","C","C","C","C","C","C","C","C","C","C","C","C","C","C","C","C","C","C","C","C","C","C","C","C","C","C","C","C","C","C","C","C","C","C","C","C","C","C","C","C","C","C","C","C","C","C","C","C","C","C","C","C","C","C","C","C","C","C","C","C","C","C","C","C","C","C","C","C","C","C","C","C","C","C","C","C","C","C","C","C","C","C","C","C","C","C","C","C","C","C","C","C","C","C","C","C","C","C","C","C","C","C","C","C","C","C","C","C","?","?","?","?","?","?","?","?","?","?","?","?","?","?","?","?","?","?","?","?","?","?","J","J","J","J","J","J","J","J","J","J","J","J","J","J","J","J","J","J","J","J","J","J","J","J","J","J","J","J","J","J","J","J","?","?","?","K","K","K","K","K","K","K","K","K","K","K","K","K","K","K","K","K","K","K","K","K","K","K","K","K","K","K","K","K","K","K","K","K","K","K","K","K","K","K","K","K","K","K","K","K","K","K","K","K","K","K","K","?","?","?","?","?","?","?","?","?","?","?","?","?","?","?","?","?","?","?","?","?","?","?","?","?","?","?","?","?","?","?","?","?","?","?","?","?","?","?","?","?","?","?","?","?","?","?","?","?","?","?","?","?","?","?","?","?","?","?","?","?","?","?","?","?","?","?","?","?","?","?","?","?","?","?","?","?","?","?","?","?","?","?","?","?","?","?","S","S","S","S","S","S","S","S","S","S","S","S","S","S","S","S","S","S","S","S","S","S","S","S","S","S","S","S","S","S","S","S","S","S","S","S","S","S","S","S","S","S","S","S","S","S","S","S","S","S","S","S","S","S","S","S","S","S","S","S","S","S","S","S","S","S","S","S","S","S","S","S","S","S","S","S","S","S","S","S","S","S","S","S","S","S","S","S","S","S","S","S","S","S","S","S","S","S","S","S","S","S","S","S","S","S","S","S","S","S","S","S","S","S","S","S","S","S","S","S","S","S","S","S","?","T","?","M","?","N","N","N","N","N","N","?","?","?","?","?","?","?","?","?","?","?","?","?","?","?","?","?","?","?","?","?","?","?","?","?","?","?","?","?","?","?","?","?","?","?","?","?","?","?","?","?","?","?","?","?","?","?","?","?","?","?","?","?","?","?","?","?","?","N","N","N","N","N","N","N","N","N","N","?","?","M","M","M","M","M","M","M","M","M","M","M","M","M","M","M","M","M","M","M","M","M","M","M","M","M","M","M","M","M","M","M","M","M","M","M","M","M","M","M","M","M","M","M","M","M","M","M","M","M","M","M","M","M","M","M","M","M","M","M","M","M","M","M","M","M","M","M","M","M","M","M","M","M","M","M","M","M","M","M","M","M","M","M","M","M","M","M","M","M","M","M","M","M","M","M","M","M","M","M","M","M","M","M","M","M","M","M","M","M","M","M","M","M","M","M","M","M","M","M","M","M","M","M","M","M","M","M","M","M","M","M","M","M","M","M","M","M","M","M","M","M","M","M","M","M","M","M","M","M","M","M","M","M","M","M","M","M","M","M","M","M","M","M","M","M","M","M","M","M","M","M","M","M","M","M","M","M","M","M","M","M","M","M","M","M","M","M","M","M","M","M","M","M","M","M","M","M","M","M","M","M","M","M","M","M","M","M","M","M","M","M","M","M","M","M","M","M","M","M","M","M","M","M","M","M","M","M","M","M","M","M","M","M","M","M","M","M","M","M","M","M","M","M","M","M","M","M","M","M","M","M","M","M","M","M","M","M","M","M","M","M","M","M","M","M","M","M","M","M","M","M","M","M","M","M","M","M","M","M","M","M","M","M","M","M","M","M","M","M","M","M","M","M","M","M","M","M","M","M","M","M","M","M","M","M","M","M","M","M","M","M","M","M","M","M","M","Q","R","R","?","?","?","?","?","?","?","?","?","?","?","?","?","?","?","?","?","?","?","?","R","R","R","R","R","R","R","R","R","R","R","R","R","R","R","R","R","R","R","R","R","R","R","R","R","R","R","R","R","R","R","R","R","R","R","R","R","R","R","R","R","R","R","R","R","R","R","R","R","R","R","R","R","R","R","R","R","R","R","R","R","R","R","R","R","R","R","R","R","R","R","R","R","R","R","R","R","R","R","R","R","R","R","R","R","R","R","R","R","R","R","R","R","R","R","R","R","R","R","R","R","R","R","R","R","R","R","R","R","R","R","R","R","R","R","R","R","R","R","R","R","R","R","R","R","R","R","R","R","R","R","R","R","R","R","R","R","R","R","R","R","R","R","R","R","R","R","R","R","R","R","R","R","R","R","R","R","R","R","R","R","R","R","R","R","R","R","R","R","R","R","R","R","R","R","R","R","R","R","R","R","R","R","R","R","R","R","R","R","R","R","R","R","R","R","R","R","R","R","R","R","R","R","R","R","R","R","R","R","R","R","R","R","R","R","R","R","R","R","R","R","R","R","R","R","R","R","R","R","R","R","R","R","R","R","R","R","R","R","R","R","R","R","R","R","R","R","R","R","R","R","R","R","R","R","R","R","R","R","R","R","R","R","R","R","R","R","R","R","R","R","R","R","R","R","R","R","R","R","R","R","R","R","R","R","R","R","R","R","R","R","R","R","R","R","R","R","R","R","R","R","R","R","R","R","R","R","R","R","R","R","R","R","R","R","R","R","R","R","R","R","R","R","R","R","R","R","R","R","R","R","R","R","R","R","R","R","R","R","R","R","R","R","R","R","R","R","R","R","R","R","R","R","R","R","R","R","R","R","R","R","R","R","R","R","R","R","R","R","R","R","R","R","R","R","R","R","R","R","R","R","R","R","R","R","R","R","R","R","R","R","R","R","R","R","R","R","R","R","R","R","R","R","R","R","R","R","R","R","R","R","R","R","R","R","R","R","R","R","R","R","R","R","R","R","R","R","R","R","R","R","R","R","R","R","R","R","R","R","R","R","R","R","R","R","R","R","R","R","R","R","R","R","R","R","R","R","R","R","R","R","R","R","R","R","R","R","R","R","R","R","R","R","R","R","R","R","R","R","R","R","R","R","R","R","R","R","R","R","R","R","R","R","R","R","R","R","R","R","R","R","R","R","R","R","R","R","R","R","R","R","R","R","R","R","R","R","R","R","R","R","R","R","R","R","R","R","R","R","R","R","R","R","R","R","R","R","R","R","R","R","R","R","R","R","R","R","R","R","R","R","R","R","R","R","R","R","R","R","R","R","R","R","R","R","R","R","R","R","R","R","R","R","R","R","R","R","R","R","R","R","R","R","R","R","R","R","R","R","R","R","R","R","R","R","R","R","R","R","R","R","R","R","R","R","R","R","R","R","R","R","R","R","R","R","R","R","R","R","R","R","R","R","R","R","R","R","R","R","R","R","R","R","R","R","R","R","R","R","R","R","R","R","R","R","R","R","R","R","R","R","R","R","R","R","R","R","R","R","R","R","R","R","?","Q","Q","Q","Q","Q","Q","Q","Q","Q","Q","Q","Q","Q","Q","Q","Q","?","?","?","?","?","P","P","P","P","P","P","P","P","P","P","P","P","P","P","P","P","P","P","P","P","P","P","P","P","P","P","P","P","P","P","P","P","P","P","P","P","P","P","P","P","P","P","P","P","P","P","P","P","P","P","P","P","P","P","P","P","P","P","P","P","P","P","P","P","P","P","P","P","P","P","?","?","O","O","O","O","?","?","?","?","?","?","?","?","?","?","V","V","V","?","U","U","U","U","U","U","U","U","U","U","U","?","?","?","?","?","?","T","T","T","T","T","T","T","T","T","T","T","T","T","T","T","T","T","T","T","T","T","T","T","T","T","T","T","T","T","T","T","T","T","T","T","T","T","T","T","T","T","T","T","T","T","T","T","T","T","T","T","T","T","T","T","T","T","T","T","T","T","T","T","T","T","T","T","T","T","T","T","T","T","T","T","T","T","T","T","T","T","T","T","T","T","T","T","T","T","T","T","T","T","T","T","T","T","T","T","T","T","T","T","T","T","T","T","T","T","T","T","T","T","T","T","T","T","T","T","T","T","T","T","T","T","T","T","T","T","T","T","T","T","T","T","T","T","T","T","T","T","T","T","T","T","T","T","T","T","T","T","T","T","T","T","T","T","T","T","T","T","T","T","T","T","T","T","T","T","T","T","T","T","T","T","T","T","T","T","T","T","T","T","T","T","T","T","T","T","T","T","T","T","T","T","T","T","T","T","T","T","T","T","T","T","T","T","T","T","T","T","T","T","T","T","T","T","T","T","T","T","T","T","T","T","T","T","T","T","T","T","T","T","T","T","T","T","T","T","T","T","T","T","T","T","T","T","T","T","T","T","T","T","T","T","T","T","T","T","T","T","T","T","T","T","T","T","T","T","T","T","T","T","T","T","T","T","T","T","T","T","T","T","T","T","T","T","T","T","T","T","T","T","T","T","T","T","T","T","T","T","T","T","T","T","T","T","T","T","T","T","T","T","T","T","T","T","T","T","T","T","T","T","T","T","T","T","T","T","T","T","T","T","T","T","T","T","T","T","T","T","T","T","T","T","T","T","T","T","T","T","T","T","T","T","T","T","T","T","T","T","T","T","T","T","T","T","T","T","T","T","T","T","T","T","T","T","T","T","T","T","T","T","T","T","T","T","T","T","T","T","T","T","T","?","?","?","?","?","?","?","L","L","L","L","L","L","L","L","L","L","L","L","L","L","L","L","L","L","L","L","L","L","L","L","L","L","L","L","L","L","L","L","L","L","L","L","L","L","L","L","L","L","L","L","L","L","L","L","L","L","L","L","L","L","L","L","L","L","L","L","L","L","L","L","L","L","L","L","L","L","L","L","L","L","L","L","L","L","L","L","L","L","L","L","L","L","L","L","L","?","?","?","?","M","M","M","M","M","M","M","M","M","M","M","M","M","M","M","M","M","M","M","M","M","M","M","M","M","M","M","M","M","M","M","M","M","M","M","M","M","M","M","M","M","M","M","M","M","M","M","M","?","?","?","?","?","?","?","?","?","?","?","?","?","?","?","?","?","?","?","?","?","?","?","?","?","?","?","?","?","F","F","F","F","F","F","F","F","F","F","F","F","F","F","F","F","F","F","F","F","F","F","F","F","F","F","F","F","F","F","F","F","F","F","F","F","F","F","F","F","F","F","F","F","F","F","F","F","F","F","F","F","F","F","F","F","F","F","F","F","F","F","F","F","F","F","F","F","F","F","F","F","F","F","F","F","F","F","F","F","F","F","F","F","F","F","F","F","F","F","F","F","F","F","F","F","F","F","F","F","F","F","F","F","F","F","F","F","F","F","F","F","F","F","F","F","F","F","F","F","F","F","F","F","F","F","F","F","F","F","F","F","F","F","F","F","F","F","F","F","F","F","F","F","F","F","F","F","F","F","F","F","F","F","F","F","F","F","F","F","F","F","F","F","F","F","F","F","F","F","F","F","F","F","F","F","F","F","F","F","F","F","F","F","F","F","F","F","F","F","F","F","F","F","F","F","F","F","F","F","F","F","F","F","F","F","F","F","F","F","F","F","F","F","F","F","F","F","F","F","F","F","F","F","F","F","F","F","F","F","F","F","F","F","F","F","F","F","F","F","F","F","F","F","F","F","F","F","F","F","F","F","F","F","F","F","F","F","F","F","F","F","F","F","F","F","F","F","F","F","F","F","F","F","F","F","F","F","F","F","F","F","F","F","F","F","F","F","F","F","F","F","F","F","F","F","F","F","F","F","F","F","F","F","F","F","F","F","F","F","F","F","F","F","F","F","F","F","F","F","F","F","F","F","F","F","F","F","F","F","F","F","F","F","F","F","F","F","F","F","F","F","F","F","F","F","F","F","F","F","F","F","F","F","F","F","F","F","F","F","F","F","F","F","F","F","F","F","F","F","F","F","F","F","F","F","F","F","F","F","F","F","F","F","F","F","F","F","F","F","F","F","F","F","F","F","F","F","F","F","F","F","F","F","F","F","F","F","F","F","F","F","F","F","F","F","F","F","F","F","F","F","F","F","F","F","F","F","F","F","F","F","F","F","F","F","F","F","F","F","F","F","F","F","F","F","F","F","F","F","F","F","F","F","F","F","F","F","F","F","F","F","F","F","F","F","F","F","F","F","F","F","F","F","F","F","F","F","F","F","F","F","F","F","F","F","F","F","F","F","F","F","F","F","F","F","F","F","F","F","F","F","F","F","F","F","F","F","F","F","F","F","F","F","F","F","F","F","F","F","F","F","F","F","F","F","F","F","F","F","F","F","F","F","F","F","F","F","F","F","F","F","F","F","F","F","F","F","F","F","F","F","F","F","F","F","F","F","F","F","F","F","F","F","F","F","F","F","F","F","F","F","F","F","F","F","F","F","F","F","F","F","F","F","F","?","?","?","?","?","?","?","?","?","?","?","?","?","?","?","?","N","N","N","N","N","N","N","N","N","N","N","N","N","N","N","N","N","N","N","N","N","N","N","N","N","N","N","N","N","N","N","?","?","?","?","?","?","?","?","?","?","?","?","?","?","?","?","?","?","?","?","?","?","?","?","?","?","?","?","?","?","?","?","?","?","?","?","?","?","?","?","?","?","?","?","?","?","?","?","?","?","?","?","?","?","?","?","?","?","?","?","?","?","?","?","?","?","?","?","?","?","?","?","?","?","?","?","?","M","M","M","?","?","?","?","?","?","?","?","?","?","?","?","?","?","?","?","?","?","?","?","?","?","?","?","?","?","?","?","?","?","?","?","?","?","?","?","?","?","?","?","?","?","?","?","?","?","?","?","?","?","?","?","B","B","B","B","B","B","B","B","B","B","B","B","B","B","B","B","B","B","B","B","B","B","B","B","B","B","B","B","B","B","B","B","B","B","B","B","B","B","B","B","B","B","B","B","B","B","B","B","B","B","B","B","B","B","B","B","B","B","B","B","B","B","B","B","B","B","B","B","B","B","B","B","B","B","B","B","B","B","B","B","B","B","B","B","B","B","B","B","B","B","B","B","B","B","B","B","B","B","B","B","B","B","B","B","B","B","B","B","B","B","B","B","B","B","B","B","B","B","B","B","B","B","B","B","B","B","B","B","B","B","B","B","B","B","B","B","B","B","B","B","B","B","B","B","B","B","B","B","B","B","B","B","B","B","B","B","B","B","B","B","B","B","B","B","B","B","B","B","B","B","B","B","B","B","B","B","B","B","B","B","B","B","B","B","B","B","B","B","B","B","B","B","B","B","B","B","B","B","B","B","B","B","B","B","B","B","B","B","B","B","B","B","B","B","B","B","B","B","B","B","B","B","B","B","B","B","B","B","B","B","B","B","B","B","B","B","B","B","B","B","B","B","B","B","B","B","B","B","B","B","B","B","B","B","B","B","B","B","B","B","B","B","B","B","B","B","B","B","B","B","B","B","B","B","B","B","B","B","B","B","B","B","B","B","B","B","B","B","B","B","B","B","B","B","B","B","B","B","B","B","B","B","B","B","B","B","B","B","B","B","B","B","B","B","B","B","B","B","B","B","B","B","B","B","B","B","B","B","B","B","B","B","B","B","B","B","B","B","B","B","B","B","B","B","B","B","B","B","B","B","B","B","B","B","B","B","B","B","?","K","K","K","K","K","K","K","K","K","K","K","K","K","K","K","K","K","K","K","K","K","K","K","K","K","K","K","K","K","K","K","K","K","K","K","K","K","K","K","K","K","K","K","K","K","K","K","K","K","K","K","K","K","K","K","K","K","K","K","K","K","K","K","K","K","K","K","K","K","K","K","K","K","K","K","K","K","K","K","K","K","?","?","?","L","L","L","L","L","L","L","L","L","L","L","L","L","L","L","L","L","L","L","L","L","L","L","L","L","L","L","L","L","L","L","L","L","L","L","L","L","L","L","L","L","L","L","L","L","L","L","L","L","L","L","L","L","L","L","L","?","M","M","M","M","M","M","M","M","M","M","M","M","M","M","M","M","M","M","M","M","M","M","M","M","M","M","M","M","M","M","M","M","M","M","M","M","M","M","M","M","M","M","M","M","M","M","M","M","M","M","M","M","M","M","M","?","?","?","N","N","N","N","N","N","N","N","N","N","N","N","N","N","N","N","N","N","N","N","N","N","N","N","N","N","N","N","N","N","N","N","N","N","N","N","N","N","N","N","N","N","N","N","N","N","N","?","?","?","?","?","?","?","C","C","C","C","C","C","C","C","C","?","?","?","?","B","B","B","B","B","B","B","B","B","B","B","B","B","B","B","B","B","B","B","B","B","B","B","B","B","B","B","B","B","B","B","B","B","B","B","B","B","B","B","B","B","B","B","B","B","B","B","B","B","B","B","B","B","B","B","B","B","B","B","B","B","B","B","B","B","B","B","B","B","B","B","B","B","B","B","B","B","B","B","B","B","B","B","B","B","B","B","B","B","B","B","B","B","B","B","B","B","B","B","B","B","B","B","B","B","B","B","B","B","B","B","B","B","?","?","?","?","?","?","L","L","L","M","M","N","?","?","?","?","?","?","Z","Z","?","?","?","?","?","?","?","?","?","?","?","?","?","?","?","?","?","?","?","?","?","?","Z","Z","Z","Z","Z","Z","Z","Z","Z","Z","Z","Z","Z","Z","Z","Z","Z","Z","Z","Z","Z","Z","Z","Z","Z","Z","Z","Z","Z","Z","Z","Z","Z","Z","Z","Z","Z","Z","Z","Z","Z","Z","Z","Z","Z","Z","Z","Z","Z","Z","Z","Z","Z","Z","Z","Z","Z","Z","Z","Z","Z","Z","Z","Z","Z","Z","Z","Z","Z","Z","Z","Z","Z","Z","Z","Z","Z","Z","Z","Z","Z","Z","Z","Z","Z","Z","Z","Z","Z","Z","Z","Z","Z","Z","Z","Z","Z","Z","Z","Z","Z","Z","Z","Z","Z","Z","Z","Z","Z","Z","Z","Z","Z","Z","Z","Z","Z","Z","Z","Z","Z","Z","Z","Z","Z","Z","Z","Z","Z","Z","Z","Z","Z","Z","Z","Z","Z","Z","Z","Z"],"t":[19,32,52,70,87,103,121,136,153,170,187,203,220,236,253,270,286,304,321,336,353,369,385,402,419,436,453,469,487,502,519,536,553,569,586,603,619,636,653,669,686,702,719,736,753,769,786,803,819,836,853,869,886,903,919,936,953,969,986,1003,1019,1036,1053,1069,1086,1103,1119,1136,1153,1169,1186,1203,1220,1237,1252,1269,1286,1303,1319,1336,1353,1369,1386,1403,1419,1437,1452,1469,1486,1502,1519,1536,1553,1569,1586,1602,1619,1636,1653,1669,1686,1703,1719,1736,1752,1769,1786,1802,1819,1836,1852,1869,1886,1902,1919,1936,1952,1969,1986,2002,2019,2036,2054,2072,2086,2103,2120,2136,2153,2170,2186,2203,2221,2235,2253,2270,2286,2303,2320,2336,2353,2370,2386,2403,2420,2436,2453,2470,2486,2502,2520,2536,2553,2570,2586,2603,2620,2636,2653,2669,2686,2703,2720,2736,2753,2770,2787,2803,2820,2835,2853,2869,2886,2903,2919,2936,2953,2969,2986,3002,3020,3037,3052,3069,3086,3102,3119,3136,3153,3169,3186,3203,3220,3236,3252,3268,3285,3301,3318,3335,3351,3368,3385,3402,3418,3437,3452,3469,3486,3502,3519,3536,3553,3569,3586,3603,3619,3636,3653,3669,3686,3703,3719,3736,3753,3769,3786,3803,3819,3836,3852,3869,3886,3902,3919,3936,3952,3969,3986,4003,4020,4036,4052,4069,4086,4102,4119,4136,4152,4169,4186,4203,4219,4236,4252,4268,4286,4302,4319,4336,4352,4369,4386,4402,4419,4436,4452,4469,4486,4502,4519,4536,4552,4569,4586,4602,4619,4636,4652,4669,4686,4702,4719,4736,4752,4769,4786,4802,4819,4836,4852,4869,4886,4903,4919,4936,4952,4969,4986,5002,5019,5036,5052,5069,5086,5102,5119,5136,5152,5169,5186,5202,5220,5236,5253,5269,5286,5302,5319,5336,5352,5369,5386,5402,5419,5436,5452,5469,5486,5502,5519,5536,5552,5569,5586,5602,5619,5636,5652,5669,5686,5702,5719,5736,5752,5769,5785,5802,5819,5836,5852,5869,5886,5902,5919,5936,5952,5969,5986,6002,6019,6035,6052,6069,6086,6102,6119,6136,6152,6170,6186,6202,6220,6235,6252,6269,6286,6302,6319,6336,6352,6369,6386,6402,6419,6436,6452,6469,6485,6501,6519,6536,6553,6569,6586,6602,6619,6636,6652,6669,6686,6702,6719,6736,6752,6769,6786,6802,6819,6836,6852,6869,6886,6902,6919,6936,6952,6969,6986,7002,7019,7036,7052,7069,7086,7102,7119,7136,7152,7169,7186,7202,7220,7236,7252,7269,7287,7301,7319,7336,7352,7369,7386,7402,7419,7436,7452,7469,7486,7502,7519,7536,7552,7569,7586,7602,7619,7636,7652,7669,7686,7703,7718,7735,7752,7769,7786,7803,7819,7836,7852,7869,7886,7902,7919,7936,7952,7969,7986,8002,8019,8036,8052,8069,8086,8102,8119,8136,8152,8169,8186,8202,8219,8236,8253,8269,8286,8303,8319,8336,8353,8369,8386,8403,8419,8436,8453,8469,8486,8503,8519,8536,8553,8569,8586,8603,8619,8636,8653,8669,8685,8703,8719,8736,8753,8769,8786,8802,8819,8836,8853,8869,8886,8902,8919,8936,8952,8969,8986,9002,9019,9036,9052,9069,9086,9102,9119,9136,9153,9168,9185,9202,9219,9235,9252,9269,9286,9302,9319,9336,9352,9369,9386,9402,9419,9436,9457,9469,9486,9503,9519,9536,9553,9570,9586,9602,9619,9636,9653,9669,9687,9703,9719,9736,9753,9770,9786,9802,9819,9836,9852,9869,9886,9902,9919,9936,9952,9969,9986,10002,10019,10036,10052,10069,10086,10104,10118,10136,10152,10169,10186,10202,10220,10235,10252,10269,10286,10302,10319,10336,10352,10371,10385,10402,10419,10436,10452,10469,10486,10502,10519,10536,10552,10569,10585,10602,10619,10636,10652,10669,10686,10702,10719,10736,10752,10769,10786,10802,10818,10836,10852,10869,10886,10902,10919,10936,10952,10969,10986,11002,11019,11036,11052,11069,11086,11102,11119,11136,11152,11169,11186,11202,11219,11236,11252,11269,11286,11302,11319,11336,11352,11369,11386,11402,11419,11436,11452,11469,11486,11502,11519,11536,11552,11570,11585,11602,11619,11636,11652,11669,11686,11702,11719,11736,11752,11769,11786,11802,11819,11835,11853,11869,11886,11902,11919,11936,11952,11969,11986,12002,12019,12036,12052,12069,12086,12102,12119,12136,12152,12169,12186,12202,12220,12236,12252,12268,12286,12302,12319,12336,12353,12369,12386,12402,12419,12436,12452,12469,12486,12502,12519,12536,12552,12569,12586,12602,12619,12636,12652,12669,12686,12702,12719,12736,12752,12769,12787,12802,12819,12836,12852,12869,12886,12902,12919,12936,12952,12969,12986,13002,13019,13035,13053,13068,13086,13102,13119,13136,13152,13169,13185,13202,13220,13235,13252,13269,13285,13302,13319,13336,13352,13369,13386,13402,13419,13436,13452,13469,13486,13503,13519,13536,13552,13569,13585,13602,13619,13635,13652,13669,13685,13702,13719,13735,13752,13769,13786,13802,13819,13836,13852,13869,13886,13902,13919,13936,13952,13969,13986,14002,14019,14035,14052,14069,14086,14102,14119,14136,14152,14169,14186,14202,14219,14236,14252,14269,14286,14302,14319,14336,14352,14368,14386,14402,14419,14436,14452,14469,14486,14501,14519,14536,14552,14569,14586,14602,14619,14636,14652,14669,14686,14702,14719,14736,14752,14769,14786,14802,14819,14836,14852,14869,14886,14902,14919,14936,14952,14969,14985,15002,15019,15036,15052,15069,15086,15102,15119,15136,15152,15169,15186,15202,15220,15236,15252,15269,15286,15303,15319,15336,15353,15369,15386,15403,15419,15436,15453,15469,15486,15504,15519,15536,15552,15569,15586,15603,15619,15636,15652,15669,15686,15702,15719,15736,15752,15769,15786,15803,15819,15836,15851,15868,15885,15902,15919,15936,15952,15969,15985,16002,16019,16035,16052,16069,16086,16102,16119,16136,16152,16169,16186,16202,16219,16235,16252,16269,16285,16302,16319,16336,16352,16369,16385,16402,16419,16436,16452,16469,16485,16502,16519,16536,16552,16569,16586,16602,16619,16635,16652,16669,16685,16702,16719,16736,16752,16769,16786,16802,16819,16836,16852,16869,16885,16902,16919,16935,16952,16969,16985,17002,17019,17035,17052,17069,17085,17102,17119,17136,17152,17169,17186,17202,17220,17235,17252,17269,17286,17302,17319,17337,17351,17369,17385,17402,17419,17436,17452,17469,17485,17502,17519,17536,17552,17569,17586,17602,17619,17635,17652,17669,17686,17702,17719,17736,17752,17769,17785,17803,17819,17835,17852,17869,17885,17902,17919,17935,17952,17969,17985,18002,18019,18035,18053,18069,18086,18102,18119,18135,18152,18169,18186,18202,18219,18236,18252,18269,18286,18302,18319,18336,18353,18369,18386,18402,18419,18436,18452,18469,18486,18502,18519,18535,18552,18569,18586,18602,18619,18636,18652,18669,18686,18702,18719,18736,18752,18769,18787,18802,18819,18835,18852,18869,18885,18903,18918,18935,18952,18969,18985,19002,19019,19035,19052,19069,19085,19102,19119,19136,19152,19169,19186,19202,19219,19235,19252,19269,19285,19302,19319,19335,19352,19369,19385,19402,19419,19435,19452,19469,19486,19502,19519,19535,19552,19569,19585,19602,19619,19635,19652,19669,19685,19702,19719,19735,19752,19769,19785,19802,19819,19835,19852,19868,19885,19902,19919,19935,19952,19969,19985,20002,20019,20035,20052,20069,20086,20103,20119,20136,20152,20169,20185,20202,20219,20242,20268,20285,20302,20318,20335,20352,20369,20385,20402,20419,20435,20452,20469,20485,20502,20519,20535,20552,20569,20585,20602,20619,20635,20652,20669,20685,20702,20719,20735,20752,20769,20785,20802,20819,20835,20852,20869,20885,20902,20919,20935,20952,20969,20985,21002,21019,21036,21052,21069,21086,21102,21119,21136,21152,21169,21185,21202,21220,21235,21252,21269,21285,21302,21318,21335,21351,21369,21385,21402,21419,21436,21452,21469,21486,21502,21519,21535,21552,21569,21586,21602,21619,21636,21652,21668,21685,21702,21719,21736,21752,21769,21785,21802,21819,21835,21852,21869,21886,21902,21919,21936,21952,21969,21985,22002,22019,22036,22052,22069,22085,22102,22119,22136,22152,22169,22185,22202,22219,22235,22252,22269,22289,22302,22319,22336,22352,22369,22386,22402,22419,22436,22453,22469,22486,22502,22519,22536,22552,22569,22586,22602,22619,22636,22652,22669,22686,22702,22719,22735,22752,22769,22786,22802,22819,22836,22852,22869,22886,22902,22919,22935,22952,22969,22986,23002,23019,23036,23052,23069,23086,23102,23119,23135,23151,23169,23186,23202,23219,23235,23252,23269,23285,23302,23319,23335,23352,23369,23386,23402,23419,23435,23452,23469,23485,23502,23519,23536,23552,23569,23585,23602,23619,23635,23652,23669,23685,23702,23719,23735,23752,23769,23785,23802,23819,23836,23852,23869,23885,23902,23919,23936,23952,23969,23986,24002,24019,24035,24052,24069,24086,24102,24119,24136,24152,24169,24186,24202,24219,24234,24252,24269,24285,24302,24319,24336,24352,24369,24385,24402,24419,24436,24452,24469,24485,24502,24519,24535,24552,24569,24585,24602,24618,24635,24652,24669,24685,24702,24719,24736,24752,24769,24786,24802,24819,24836,24852,24869,24885,24902,24919,24935,24952,24969,24986,25002,25019,25036,25052,25069,25085,25103,25119,25136,25152,25169,25185,25202,25219,25236,25252,25269,25285,25302,25319,25335,25352,25369,25386,25402,25419,25436,25452,25469,25485,25502,25519,25536,25552,25569,25585,25602,25619,25635,25652,25669,25685,25702,25719,25735,25752,25769,25785,25802,25819,25835,25852,25869,25885,25902,25919,25935,25952,25969,25986,26002,26019,26036,26052,26069,26087,26101,26119,26136,26152,26169,26185,26202,26219,26235,26252,26269,26285,26302,26319,26334,26351,26368,26385,26401,26418,26435,26459,26469,26485,26506,26526,26551,26583,26601,26618,26635,26651,26668,26685,26701,26718,26735,26751,26768,26785,26801,26818,26835,26851,26868,26885,26901,26918,26935,26951,26968,26985,27001,27018,27035,27051,27068,27085,27101,27118,27135,27151,27168,27185,27201,27218,27235,27251,27268,27285,27301,27318,27335,27351,27368,27385,27401,27418,27435,27451,27468,27485,27501,27518,27535,27552,27568,27585,27601,27618,27635,27651,27668,27685,27701,27718,27735,27751,27768,27785,27801,27818,27835,27851,27868,27885,27908,27934,27951,27968,27985,28001,28018,28035,28051,28068,28085,28101,28118,28135,28151,28168,28185,28201,28219,28234,28251,28268,28285,28301,28318,28335,28351,28368,28385,28401,28418,28435,28451,28468,28484,28501,28518,28535,28551,28568,28585,28601,28618,28635,28651,28668,28685,28701,28718,28735,28751,28768,28784,28801,28818,28834,28851,28868,28885,28901,28918,28935,28951,28968,28984,29001,29018,29034,29051,29068,29085,29102,29119,29135,29152,29169,29185,29202,29219,29236,29252,29270,29285,29302,29318,29335,29352,29368,29385,29402,29419,29435,29452,29469,29485,29502,29519,29535,29552,29569,29586,29601,29618,29635,29652,29668,29685,29702,29719,29735,29752,29769,29785,29802,29819,29835,29852,29868,29885,29902,29918,29935,29952,29968,29985,30002,30019,30035,30052,30069,30086,30102,30119,30136,30152,30168,30185,30202,30219,30236,30252,30269,30286,30302,30319,30336,30352,30369,30386,30402,30419,30435,30451,30468,30485,30502,30519,30535,30552,30569,30585,30603,30619,30635,30652,30669,30685,30702,30719,30735,30752,30769,30785,30802,30819,30836,30853,30869,30885,30902,30919,30935,30952,30968,30985,31002,31018,31035,31052,31068,31085,31102,31118,31135,31152,31168,31185,31203,31219,31234,31252,31269,31285,31302,31319,31335,31352,31369,31385,31402,31419,31435,31452,31469,31485,31502,31519,31536,31552,31568,31585,31602,31619,31635,31652,31669,31685,31702,31719,31735,31752,31769,31785,31802,31820,31835,31852,31869,31885,31902,31919,31935,31952,31969,31985,32002,32019,32035,32052,32069,32085,32102,32119,32135,32152,32169,32185,32202,32219,32235,32252,32269,32285,32302,32318,32335,32352,32368,32385,32402,32418,32435,32452,32469,32485,32502,32519,32535,32552,32569,32585,32602,32619,32635,32652,32669,32685,32702,32719,32735,32752,32768,32786,32801,32818,32835,32852,32868,32885,32902,32919,32935,32952,32969,32985,33002,33019,33035,33052,33069,33085,33102,33119,33135,33152,33168,33185,33203,33218,33235,33252,33269,33285,33302,33318,33335,33352,33368,33385,33402,33419,33435,33452,33469,33485,33502,33519,33535,33552,33569,33585,33602,33619,33635,33652,33669,33685,33702,33718,33735,33752,33768,33785,33802,33819,33835,33852,33869,33885,33902,33919,33935,33952,33969,33985,34002,34019,34035,34052,34069,34085,34102,34119,34135,34152,34168,34185,34202,34219,34235,34251,34268,34285,34302,34318,34335,34352,34369,34385,34402,34419,34435,34452,34469,34485,34502,34519,34535,34552,34568,34585,34601,34618,34635,34652,34669,34685,34702,34718,34735,34752,34769,34785,34802,34819,34835,34852,34868,34885,34902,34919,34935,34952,34968,34985,35002,35019,35035,35052,35069,35085,35102,35118,35136,35152,35169,35185,35202,35219,35234,35252,35269,35285,35302,35319,35335,35352,35369,35385,35402,35418,35435,35452,35469,35485,35502,35518,35535,35552,35568,35585,35602,35619,35635,35652,35669,35685,35702,35718,35735,35752,35768,35785,35802,35819,35835,35852,35869,35885,35902,35919,35935,35952,35969,35985,36002,36019,36035,36053,36068,36085,36102,36118,36135,36152,36169,36185,36202,36219,36235,36252,36268,36285,36302,36318,36335,36352,36369,36385,36402,36419,36435,36452,36468,36485,36502,36519,36535,36552,36569,36585,36602,36618,36635,36652,36669,36685,36702,36718,36735,36752,36768,36785,36802,36818,36835,36852,36868,36885,36902,36918,36935,36952,36968,36985,37002,37018,37035,37052,37068,37085,37102,37119,37136,37152,37169,37185,37202,37219,37235,37252,37268,37285,37302,37319,37335,37352,37368,37385,37402,37419,37435,37453,37468,37485,37502,37519,37535,37552,37568,37585,37602,37619,37635,37652,37669,37685,37701,37718,37734,37751,37768,37784,37801,37818,37834,37851,37868,37884,37901,37918,37935,37952,37968,37985,38002,38018,38035,38052,38069,38085,38102,38118,38135,38152,38168,38185,38202,38218,38235,38251,38268,38285,38302,38319,38335,38352,38368,38385,38402,38418,38435,38452,38468,38485,38502,38518,38535,38552,38568,38585,38602,38618,38635,38652,38668,38685,38702,38718,38735,38752,38768,38785,38802,38818,38835,38852,38868,38885,38902,38918,38935,38952,38968,38985,39002,39019,39035,39052,39068,39085,39102,39118,39135,39152,39168,39185,39202,39219,39234,39251,39268,39284,39302,39318,39335,39352,39368,39385,39402,39418,39435,39452,39468,39485,39502,39519,39535,39552,39568,39585,39602,39618,39635,39652,39668,39685,39702,39718,39735,39752,39769,39785,39802,39819,39836,39852,39868,39885,39902,39918,39935,39951,39968,39985,40002,40019,40035,40052,40068,40085,40102,40118,40135,40152,40168,40185,40202,40219,40235,40252,40269,40284,40301,40318,40335,40352,40368,40385,40402,40419,40435,40452,40468,40485,40502,40519,40535,40552,40568,40585,40602,40618,40635,40652,40668,40685,40702,40718,40735,40752,40768,40785,40802,40818,40835,40852,40868,40885,40902,40918,40935,40952,40968,40985,41002,41018,41035,41052,41068,41085,41102,41118,41135,41152,41168,41185,41202,41219,41235,41251,41268,41285,41302,41319,41335,41352,41369,41385,41402,41418,41435,41452,41468,41485,41502,41518,41535,41552,41568,41585,41602,41618,41635,41652,41668,41685,41702,41718,41734,41752,41769,41785,41802,41818,41835,41852,41868,41885,41902,41918,41935,41952,41968,41985,42002,42018,42035,42052,42068,42085,42102,42118,42135,42152,42168,42185,42202,42219,42235,42252,42268,42285,42302,42318,42335,42352,42368,42385,42402,42418,42435,42452,42469,42485,42502,42519,42535,42552,42568,42585,42602,42618,42635,42652,42668,42685,42702,42718,42735,42752,42768,42785,42802,42818,42835,42852,42868,42885,42903,42918,42935,42952,42968,42985,43002,43019,43035,43052,43069,43085,43102,43118,43135,43151,43168,43185,43202,43219,43235,43252,43268,43285,43302,43319,43335,43352,43368,43385,43402,43418,43435,43452,43468,43485,43502,43518,43535,43552,43568,43585,43602,43618,43635,43652,43668,43685,43702,43718,43735,43752,43768,43785,43802,43818,43835,43852,43868,43885,43902,43918,43935,43952,43968,43985,44002,44018,44035,44052,44068,44085,44102,44118,44135,44152,44168,44185,44202,44219,44235,44252,44268,44285,44302,44319,44335,44352,44368,44386,44401,44418,44435,44451,44468,44485,44502,44518,44534,44551,44569,44585,44602,44619,44635,44652,44669,44685,44702,44719,44735,44752,44769,44785,44801,44818,44835,44851,44868,44885,44902,44918,44935,44952,44968,44985,45002,45019,45035,45052,45068,45085,45102,45118,45135,45152,45167,45185,45202,45219,45234,45251,45268,45285,45302,45318,45335,45352,45368,45385,45402,45419,45435,45452,45468,45485,45502,45518,45535,45552,45568,45585,45602,45618,45635,45652,45668,45685,45702,45718,45735,45752,45768,45785,45802,45818,45835,45852,45868,45885,45902,45918,45935,45952,45968,45985,46001,46018,46035,46052,46068,46085,46102,46119,46135,46152,46168,46185,46202,46219,46234,46252,46268,46285,46302,46318,46335,46353,46368,46385,46402,46418,46435,46452,46468,46485,46502,46518,46535,46551,46567,46585,46602,46618,46635,46652,46668,46685,46702,46718,46735,46752,46768,46785,46802,46818,46835,46852,46868,46885,46902,46918,46935,46952,46968,46985,47002,47018,47035,47052,47068,47085,47102,47118,47135,47152,47168,47185,47202,47219,47235,47252,47268,47285,47302,47318,47335,47352,47368,47385,47402,47418,47435,47451,47468,47485,47501,47518,47535,47552,47568,47585,47602,47618,47635,47652,47668,47685,47701,47718,47735,47752,47768,47785,47802,47818,47835,47852,47868,47885,47902,47918,47935,47952,47968,47985,48001,48018,48035,48051,48068,48085,48102,48118,48135,48152,48167,48184,48201,48219,48234,48251,48268,48285,48302,48318,48335,48352,48368,48385,48401,48418,48435,48452,48468,48485,48502,48518,48535,48552,48568,48585,48602,48618,48635,48652,48668,48685,48702,48718,48735,48752,48768,48785,48801,48818,48835,48851,48868,48885,48902,48918,48935,48952,48969,48985,49002,49018,49035,49052,49068,49085,49102,49118,49135,49152,49169,49185,49202,49219,49235,49252,49268,49285,49302,49318,49335,49352,49368,49385,49402,49418,49435,49451,49468,49485,49502,49518,49535,49552,49568,49585,49602,49618,49635,49652,49668,49685,49702,49718,49735,49752,49768,49785,49802,49818,49835,49852,49868,49885,49902,49918,49935,49952,49968,49985,50002,50018,50035,50052,50068,50085,50101,50118,50135,50152,50168,50185,50202,50219,50235,50252,50268,50285,50302,50318,50335,50351,50368,50385,50401,50418,50435,50451,50468,50485,50502,50518,50535,50552,50568,50585,50602,50618,50635,50652,50668,50685,50702,50718,50735,50753,50768,50785,50802,50818,50835,50853,50868,50885,50902,50918,50935,50952,50968,50985,51002,51018,51035,51052,51068,51085,51102,51118,51135,51152,51168,51185,51202,51218,51235,51251,51268,51285,51302,51319,51335,51352,51368,51385,51402,51419,51435,51452,51468,51485,51502,51518,51534,51552,51568,51585,51602,51618,51635,51652,51668,51685,51702,51718,51735,51752,51768,51785,51802,51819,51835,51851,51868,51884,51901,51918,51935,51952,51968,51985,52001,52018,52035,52051,52068,52085,52101,52118,52135,52152,52168,52185,52202,52219,52234,52251,52267,52284,52301,52317,52334,52351,52368,52385,52401,52418,52435,52451,52468,52485,52502,52518,52535,52552,52568,52585,52601,52618,52635,52651,52668,52685,52702,52718,52735,52752,52768,52785,52801,52818,52835,52851,52868,52885,52902,52918,52934,52951,52968,52985,53001,53018,53035,53051,53068,53085,53101,53118,53135,53152,53168,53185,53202,53219,53235,53252,53268,53285,53302,53318,53335,53351,53368,53385,53401,53418,53435,53452,53468,53485,53501,53518,53535,53552,53568,53585,53601,53618,53635,53652,53668,53685,53701,53718,53735,53752,53768,53785,53802,53818,53835,53852,53868,53885,53902,53918,53935,53952,53968,53985,54001,54018,54035,54051,54068,54085,54101,54118,54135,54152,54168,54185,54201,54219,54235,54251,54268,54285,54301,54318,54335,54351,54368,54385,54401,54417,54435,54451,54468,54485,54501,54518,54535,54551,54568,54585,54601,54618,54635,54651,54668,54685,54701,54718,54735,54751,54768,54785,54801,54818,54835,54852,54868,54885,54901,54918,54935,54951,54968,54985,55001,55018,55035,55052,55068,55085,55101,55118,55135,55152,55168,55185,55201,55218,55234,55251,55268,55285,55301,55318,55335,55351,55368,55385,55401,55418,55435,55452,55468,55485,55501,55518,55535,55552,55568,55585,55602,55618,55635,55651,55668,55684,55701,55718,55735,55752,55768,55785,55801,55818,55836,55851,55868,55885,55901,55918,55935,55951,55968,55985,56001,56018,56035,56051,56068,56085,56101,56118,56135,56152,56168,56185,56202,56218,56235,56251,56268,56284,56301,56318,56335,56351,56368,56385,56401,56418,56435,56451,56468,56485,56501,56518,56535,56551,56568,56585,56601,56618,56635,56651,56668,56685,56701,56718,56735,56752,56768,56785,56802,56818,56835,56852,56868,56885,56902,56918,56935,56952,56968,56985,57002,57018,57035,57052,57068,57085,57102,57118,57135,57151,57169,57185,57202,57219,57236,57251,57268,57285,57302,57318,57335,57352,57368,57385,57401,57418,57435,57451,57468,57485,57502,57518,57534,57552,57568,57585,57602,57618,57635,57651,57668,57685,57702,57718,57735,57752,57768,57785,57802,57818,57835,57851,57868,57885,57901,57918,57935,57951,57968,57985,58001,58018,58035,58051,58068,58085,58102,58118,58135,58151,58168,58185,58201,58219,58235,58251,58268,58285,58301,58318,58335,58351,58368,58385,58401,58418,58435,58452,58468,58485,58501,58518,58535,58551,58568,58585,58601,58618,58635,58651,58668,58685,58702,58718,58735,58752,58768,58785,58802,58818,58835,58852,58868,58885,58902,58918,58935,58952,58968,58985,59002,59018,59035,59052,59068,59085,59101,59118,59135,59152,59168,59185,59202,59219,59234,59251,59268,59284,59301,59317,59334,59351,59367,59385,59402,59418,59435,59451,59468,59485,59501,59518,59535,59551,59568,59585,59601,59618,59635,59651,59668,59685,59701,59718,59735,59751,59768,59785,59801,59818,59835,59851,59868,59885,59901,59918,59935,59952,59969,59984,60001,60018,60035,60051,60069,60085,60102,60118,60135,60151,60169,60185,60201,60219,60235,60251,60268,60285,60301,60318,60335,60352,60368,60385,60401,60418,60435,60452,60467,60485,60501,60518,60535,60551,60568,60585,60601,60618,60635,60651,60668,60685,60701,60718,60735,60751,60768,60785,60801,60818,60835,60852,60868,60885,60901,60918,60935,60951,60968,60985,61001,61018,61035,61051,61068,61085,61101,61118,61135,61152,61168,61185,61201,61218,61235,61251,61268,61285,61302,61318,61334,61351,61368,61385,61401,61418,61435,61451,61468,61485,61501,61518,61535,61551,61568,61585,61601,61618,61635,61651,61668,61685,61701,61718,61735,61751,61768,61785,61801,61818,61835,61851,61868,61885,61901,61918,61935,61951,61968,61985,62001,62018,62035,62051,62068,62085,62101,62118,62135,62151,62168,62185,62201,62219,62234,62251,62267,62285,62301,62318,62334,62351,62368,62385,62401,62418,62435,62451,62468,62485,62501,62518,62535,62552,62568,62585,62601,62618,62635,62651,62668,62685,62701,62718,62735,62755,62767,62785,62801,62818,62835,62851,62868,62885,62901,62918,62935,62951,62968,62984,63001,63018,63034,63051,63068,63084,63101,63118,63135,63151,63168,63185,63202,63219,63234,63251,63267,63284,63302,63319,63335,63352,63368,63385,63402,63418,63435,63452,63468,63485,63502,63519,63535,63551,63568,63585,63601,63618,63635,63651,63668,63685,63701,63718,63735,63751,63768,63785,63801,63818,63835,63851,63868,63885,63901,63918,63935,63951,63968,63985,64001,64018,64035,64051,64068,64085,64101,64118,64135,64151,64168,64185,64201,64219,64235,64251,64268,64285,64301,64318,64335,64351,64368,64385,64401,64418,64435,64451,64468,64485,64501,64518,64535,64551,64568,64585,64601,64618,64635,64651,64668,64685,64701,64718,64735,64751,64768,64785,64801,64818,64835,64851,64868,64885,64901,64918,64935,64951,64968,64985,65001,65018,65035,65051,65068,65085,65101,65118,65135,65152,65168,65185,65201,65218,65235,65251,65268,65285,65301,65318,65335,65351,65368,65385,65401,65418,65435,65451,65468,65485,65501,65518,65535,65551,65568,65584,65601,65618,65635,65651,65668,65685,65701,65718,65735,65751,65768,65785,65801,65818,65835,65851,65868,65885,65901,65918,65935,65951,65968,65985,66001,66018,66034,66051,66068,66084,66101,66118,66135,66152,66168,66185,66201,66218,66235,66251,66268,66285,66301,66318,66335,66351,66368,66385,66401,66418,66435,66451,66468,66485,66501,66518,66535,66551,66568,66585,66601,66618,66635,66651,66668,66685,66701,66718,66735,66751,66768,66785,66801,66818,66835,66851,66868,66885,66901,66918,66935,66951,66968,66985,67001,67019,67034,67051,67068,67085,67101,67118,67135,67152,67168,67185,67201,67218,67235,67251,67268,67285,67302,67318,67335,67351,67368,67385,67401,67418,67435,67451,67468,67485,67501,67518,67535,67551,67568,67585,67601,67618,67635,67651,67668,67685,67701,67718,67735,67751,67768,67785,67801,67818,67835,67851,67868,67885,67901,67918,67935,67951,67968,67985,68001,68018,68035,68051,68067,68085,68101,68118,68135,68151,68168,68185,68201,68219,68235,68251,68268,68285,68301,68318,68335,68351,68368,68385,68401,68417,68434,68451,68468,68485,68501,68518,68534,68551,68568,68585,68601,68618,68635,68651,68668,68685,68702,68718,68735,68751,68769,68785,68801,68818,68835,68851,68868,68884,68901,68918,68934,68951,68968,68985,69001,69018,69035,69051,69068,69085,69101,69118,69134,69152,69168,69185,69201,69219,69235,69251,69268,69284,69300,69318,69334,69351,69368,69385,69401,69418,69435,69451,69468,69484,69502,69518,69535,69551,69568,69585,69601,69618,69634,69651,69668,69685,69701,69718,69735,69751,69768,69785,69801,69818,69834,69851,69868,69884,69901,69918,69935,69951,69968,69985,70002,70018,70035,70051,70068,70085,70101,70118,70135,70152,70168,70185,70201,70218,70235,70251,70268,70285,70301,70318,70335,70351,70368,70385,70401,70417,70434,70450,70467,70484,70501,70518,70534,70552,70568,70585,70601,70618,70635,70651,70668,70685,70701,70718,70735,70751,70768,70785,70801,70818,70835,70851,70868,70885,70901,70918,70935,70951,70968,70985,71001,71018,71035,71051,71068,71085,71101,71118,71134,71151,71168,71184,71201,71218,71235,71251,71268,71284,71301,71318,71335,71351,71368,71385,71401,71418,71435,71451,71468,71484,71501,71518,71535,71551,71568,71585,71601,71618,71635,71651,71668,71685,71701,71718,71735,71751,71769,71785,71800,71817,71834,71851,71868,71885,71900,71917,71934,71950,71967,71984,72002,72018,72034,72051,72068,72084,72102,72118,72134,72151,72168,72185,72201,72218,72235,72251,72268,72284,72301,72319,72334,72351,72368,72384,72401,72418,72435,72451,72468,72484,72501,72518,72534,72551,72571,72585,72601,72618,72635,72652,72670,72685,72701,72718,72735,72751,72768,72786,72802,72818,72835,72851,72868,72885,72901,72917,72934,72951,72968,72985,73001,73020,73035,73051,73067,73083,73101,73118,73135,73151,73168,73184,73201,73219,73235,73251,73268,73285,73302,73318,73334,73352,73368,73385,73401,73417,73434,73451,73468,73485,73502,73518,73535,73551,73567,73584,73600,73617,73634,73651,73668,73684,73701,73718,73734,73752,73768,73785,73801,73818,73835,73851,73868,73885,73901,73918,73935,73951,73969,73984,74001,74018,74034,74051,74068,74084,74101,74118,74134,74151,74169,74184,74201,74217,74234,74251,74268,74285,74301,74318,74334,74351,74368,74384,74401,74418,74435,74451,74468,74484,74501,74518,74535,74551,74568,74584,74601,74618,74634,74651,74668,74685,74702,74719,74735,74751,74768,74785,74804,74818,74835,74851,74868,74884,74901,74918,74936,74951,74968,74985,75001,75018,75034,75051,75068,75085,75101,75119,75135,75151,75168,75184,75201,75218,75235,75252,75268,75285,75302,75318,75334,75351,75370,75384,75401,75417,75435,75451,75468,75484,75501,75518,75534,75552,75568,75585,75601,75618,75634,75652,75667,75685,75701,75717,75734,75750,75767,75784,75802,75818,75834,75850,75867,75884,75900,75917,75934,75951,75967,75983,76001,76017,76034,76051,76067,76084,76100,76117,76134,76151,76168,76184,76201,76218,76235,76251,76268,76284,76301,76318,76334,76352,76368,76385,76401,76417,76435,76451,76468,76484,76501,76518,76534,76551,76568,76584,76601,76618,76634,76651,76668,76684,76701,76718,76735,76751,76768,76784,76801,76818,76834,76851,76868,76884,76901,76918,76934,76951,76968,76984,77001,77018,77034,77052,77068,77085,77101,77118,77134,77151,77168,77184,77201,77218,77234,77251,77268,77284,77301,77318,77335,77352,77368,77384,77401,77418,77434,77452,77468,77484,77502,77518,77534,77551,77568,77584,77601,77618,77634,77651,77668,77684,77702,77718,77734,77752,77768,77784,77801,77818,77834,77851,77868,77884,77901,77918,77935,77951,77968,77985,78001,78017,78034,78051,78068,78085,78101,78118,78135,78152,78168,78184,78200,78217,78234,78250,78267,78284,78301,78317,78334,78351,78368,78384,78401,78418,78434,78451,78468,78484,78501,78518,78534,78551,78568,78584,78601,78618,78634,78651,78668,78684,78701,78717,78734,78750,78767,78784,78800,78818,78834,78851,78869,78885,78901,78919,78935,78951,78968,78985,79001,79018,79034,79051,79068,79084,79101,79118,79135,79151,79168,79185,79201,79218,79234,79251,79268,79284,79301,79318,79334,79351,79368,79384,79401,79418,79434,79451,79468,79484,79501,79517,79534,79551,79568,79585,79601,79618,79634,79651,79668,79685,79702,79718,79734,79752,79769,79784,79801,79818,79834,79851,79868,79884,79901,79917,79934,79951,79968,79984,80001,80018,80034,80051,80068,80086,80102,80117,80135,80151,80168,80185,80201,80219,80235,80252,80268,80284,80302,80318,80335,80352,80369,80384,80401,80417,80434,80451,80468,80485,80501,80518,80535,80552,80568,80584,80602,80618,80634,80651,80669,80684,80701,80718,80735,80751,80768,80785,80801,80818,80835,80851,80868,80885,80901,80918,80934,80951,80968,80986,81000,81018,81034,81051,81068,81084,81101,81118,81135,81151,81168,81184,81201,81218,81234,81251,81268,81284,81301,81318,81334,81351,81368,81384,81401,81418,81434,81451,81468,81484,81501,81518,81535,81551,81568,81585,81601,81618,81635,81651,81668,81685,81701,81718,81734,81751,81768,81784,81801,81818,81835,81851,81868,81884,81901,81918,81935,81951,81968,81984,82001,82018,82035,82051,82068,82085,82101,82118,82135,82151,82168,82185,82201,82218,82235,82251,82268,82285,82301,82318,82335,82351,82367,82384,82401,82418,82434,82451,82468,82485,82501,82518,82535,82551,82568,82584,82601,82618,82634,82651,82667,82684,82701,82718,82734,82751,82768,82784,82801,82818,82834,82851,82868,82885,82901,82918,82934,82951,82968,82984,83001,83018,83034,83051,83068,83084,83101,83118,83134,83151,83168,83185,83201,83218,83234,83251,83268,83284,83301,83318,83334,83351,83368,83384,83401,83418,83434,83451,83468,83485,83501,83518,83534,83551,83568,83584,83601,83617,83634,83651,83668,83684,83701,83718,83734,83752,83767,83784,83801,83818,83835,83851,83868,83884,83901,83918,83935,83951,83968,83984,84001,84018,84034,84051,84068,84084,84101,84118,84134,84151,84168,84184,84201,84219,84234,84251,84268,84284,84301,84318,84335,84351,84368,84384,84401,84418,84434,84451,84468,84484,84501,84518,84534,84551,84568,84584,84601,84618,84634,84651,84668,84684,84701,84718,84734,84751,84768,84784,84801,84818,84834,84851,84868,84884,84901,84918,84934,84951,84967,84984,85001,85018,85034,85051,85068,85084,85100,85118,85134,85151,85168,85184,85201,85218,85234,85251,85268,85284,85301,85318,85334,85351,85368,85384,85401,85418,85434,85451,85468,85484,85501,85518,85534,85551,85568,85584,85601,85618,85634,85651,85668,85684,85701,85718,85734,85751,85768,85784,85801,85818,85834,85851,85868,85884,85901,85918,85934,85951,85968,85984,86001,86018,86034,86051,86067,86084,86101,86118,86134,86151,86168,86184,86201,86219,86234,86251,86268,86284,86301,86318,86334,86351,86368,86384,86401,86418,86435,86451,86468,86484,86501,86517,86534,86551,86568,86584,86601,86618,86634,86651,86668,86684,86701,86718,86734,86751,86768,86785,86801,86818,86834,86851,86868,86884,86901,86918,86934,86951,86968,86984,87001,87018,87034,87051,87068,87084,87101,87118,87134,87151,87168,87184,87201,87218,87234,87251,87268,87284,87301,87318,87334,87351,87368,87384,87401,87418,87434,87451,87468,87485,87501,87518,87535,87551,87568,87584,87601,87617,87634,87651,87668,87684,87701,87718,87734,87751,87767,87783,87801,87818,87834,87851,87868,87884,87902,87917,87934,87951,87968,87984,88001,88018,88034,88051,88068,88084,88101,88118,88135,88150,88168,88184,88201,88218,88234,88251,88268,88284,88301,88318,88334,88351,88368,88384,88401,88418,88434,88451,88468,88484,88501,88518,88534,88551,88568,88584,88601,88618,88634,88651,88668,88684,88701,88718,88734,88751,88768,88784,88801,88818,88834,88851,88868,88884,88901,88918,88934,88951,88968,88984,89001,89018,89034,89051,89068,89084,89101,89118,89134,89151,89168,89184,89201,89218,89236,89250,89267,89284,89301,89318,89334,89351,89368,89384,89401,89418,89434,89451,89468,89484,89501,89518,89534,89551,89568,89584,89601,89618,89634,89651,89668,89684,89701,89718,89734,89751,89768,89784,89801,89818,89834,89851,89868,89884,89901,89918,89934,89951,89968,89984,90001,90018,90034,90051,90067,90084,90101,90118,90135,90151,90168,90184,90201,90218,90234,90251,90267,90284,90301,90318,90335,90351,90368,90385,90401,90418,90435,90451,90468,90484,90501,90518,90535,90551,90568,90586,90600,90617,90634,90651,90668,90685,90701,90718,90735,90751,90768,90784,90801,90818,90834,90851,90867,90884,90901,90918,90934,90951,90967,90984,91001,91018,91034,91051,91068,91084,91101,91118,91134,91151,91167,91184,91201,91217,91234,91251,91268,91284,91301,91318,91334,91351,91368,91384,91401,91418,91434,91452,91468,91484,91501,91518,91534,91551,91568,91584,91600,91618,91634,91651,91668,91684,91701,91718,91734,91751,91768,91784,91801,91818,91834,91851,91868,91884,91901,91918,91936,91950,91967,91984,92001,92018,92034,92051,92068,92084,92101,92117,92134,92152,92167,92184,92201,92218,92234,92251,92267,92283,92302,92317,92333,92351,92367,92384,92401,92417,92434,92451,92467,92484,92501,92517,92534,92551,92568,92584,92601,92617,92634,92651,92668,92684,92701,92717,92734,92751,92768,92784,92801,92818,92834,92851,92868,92884,92901,92918,92934,92951,92967,92984,93003,93018,93034,93051,93067,93084,93101,93118,93134,93151,93167,93184,93201,93218,93234,93251,93268,93285,93300,93317,93336,93351,93368,93384,93401,93418,93434,93451,93468,93484,93501,93517,93534,93551,93568,93584,93601,93617,93634,93651,93668,93684,93701,93717,93734,93751,93767,93784,93801,93818,93834,93851,93868,93884,93901,93917,93934,93951,93968,93984,94001,94018,94034,94051,94068,94084,94101,94118,94134,94151,94168,94184,94201,94218,94234,94251,94268,94284,94301,94318,94334,94351,94368,94384,94401,94417,94434,94451,94468,94484,94501,94517,94534,94551,94568,94584,94601,94617,94634,94650,94667,94684,94701,94717,94734,94751,94767,94784,94801,94817,94834,94851,94867,94884,94901,94918,94934,94951,94968,94984,95001,95018,95034,95051,95067,95084,95101,95117,95134,95151,95168,95184,95201,95218,95234,95250,95268,95284,95301,95317,95334,95351,95368,95384,95401,95417,95434,95451,95468,95484,95501,95517,95534,95551,95568,95584,95600,95617,95634,95651,95668,95684,95701,95718,95734,95751,95767,95784,95801,95817,95834,95851,95867,95884,95901,95917,95934,95951,95968,95984,96001,96017,96034,96051,96069,96084,96101,96118,96134,96151,96168,96183,96201,96218,96234,96251,96268,96284,96301,96317,96334,96351,96367,96384,96401,96418,96434,96451,96467,96484,96501,96517,96534,96551,96567,96584,96601,96618,96634,96651,96668,96684,96701,96718,96734,96751,96768,96784,96801,96817,96834,96851,96867,96884,96901,96917,96934,96951,96967,96984,97001,97017,97034,97051,97068,97084,97101,97118,97134,97151,97168,97184,97201,97218,97234,97251,97267,97284,97301,97317,97334,97351,97367,97384,97401,97417,97433,97451,97467,97484,97501,97517,97534,97551,97567,97585,97601,97617,97634,97651,97667,97684,97701,97717,97734,97751,97767,97784,97801,97817,97834,97851,97867,97884,97901,97917,97934,97951,97967,97984,98001,98017,98034,98051,98068,98084,98101,98117,98134,98151,98167,98184,98201,98218,98234,98251,98268,98284,98301,98317,98334,98351,98367,98384,98401,98418,98434,98451,98467,98484,98501,98518,98534,98551,98567,98584,98601,98617,98634,98651,98667,98684,98701,98717,98734,98751,98767,98784,98801,98817,98833,98851,98867,98884,98901,98918,98934,98951,98968,98984,99001,99017,99034,99051,99067,99084,99101,99117,99134,99151,99168,99184,99201,99218,99234,99251,99267,99284,99301,99317,99334,99350,99367,99384,99401,99417,99434,99451,99467,99484,99501,99517,99534,99551,99567,99584,99601,99617,99634,99651,99667,99684,99701,99717,99734,99751,99767,99784,99801,99818,99834,99851,99867,99884,99901,99918,99934,99951,99967,99984,100001,100018,100034,100051,100067,100084,100101,100117,100134,100151,100168,100185,100200,100217,100234,100251,100267,100284,100301,100317,100334,100351,100367,100384,100401,100417,100434,100451,100467,100484,100501,100517,100534,100551,100567,100584,100601,100617,100634,100651,100667,100684,100701,100717,100734,100751,100767,100784,100801,100817,100834,100851,100867,100884,100901,100917,100934,100951,100967,100984,101001,101018,101034,101051,101068,101084,101101,101117,101134,101151,101167,101184,101201,101218,101234,101251,101267,101284,101301,101317,101334,101351,101367,101384,101401,101417,101434,101451,101468,101484,101501,101517,101534,101555,101567,101583,101601,101618,101634,101651,101667,101684,101701,101718,101734,101751,101768,101784,101801,101818,101834,101851,101868,101884,101901,101918,101934,101951,101967,101984,102001,102018,102034,102051,102068,102084,102101,102118,102134,102151,102168,102184,102201,102218,102234,102251,102268,102284,102301,102318,102334,102351,102367,102384,102401,102418,102434,102451,102467,102484,102501,102517,102534,102551,102567,102584,102601,102617,102634,102651,102667,102684,102701,102717,102734,102751,102767,102784,102801,102817,102834,102851,102868,102884,102901,102917,102934,102952,102967,102984,103001,103017,103034,103051,103067,103084,103101,103117,103134,103151,103168,103184,103201,103217,103234,103251,103267,103284,103301,103317,103334,103351,103367,103384,103400,103417,103434,103451,103467,103484,103501,103517,103535,103551,103567,103584,103601,103617,103635,103651,103667,103685,103701,103718,103734,103751,103767,103784,103801,103817,103834,103851,103867,103884,103901,103917,103934,103951,103967,103984,104001,104017,104034,104051,104067,104084,104101,104117,104134,104151,104168,104184,104201,104217,104234,104251,104267,104284,104302,104317,104334,104351,104367,104384,104401,104417,104434,104451,104467,104484,104501,104518,104534,104551,104567,104584,104601,104617,104634,104651,104667,104684,104701,104717,104734,104751,104767,104784,104800,104817,104834,104851,104867,104884,104901,104917,104934,104951,104967,104984,105001,105017,105034,105051,105067,105084,105101,105117,105134,105151,105167,105184,105201,105217,105234,105251,105267,105284,105301,105317,105334,105351,105367,105384,105401,105417,105434,105451,105468,105484,105500,105517,105534,105551,105567,105584,105601,105617,105634,105651,105667,105683,105701,105717,105734,105751,105767,105784,105801,105817,105834,105851,105867,105884,105901,105917,105934,105951,105967,105984,106001,106017,106034,106051,106067,106084,106101,106117,106134,106151,106167,106184,106201,106217,106234,106251,106267,106284,106301,106317,106334,106351,106367,106384,106401,106417,106434,106451,106467,106484,106501,106517,106534,106551,106567,106584,106601,106617,106634,106651,106667,106684,106700,106717,106734,106751,106767,106784,106801,106817,106834,106851,106867,106884,106900,106917,106934,106951,106967,106984,107001,107017,107034,107051,107067,107085,107100,107117,107134,107151,107167,107184,107201,107218,107234,107251,107267,107284,107301,107317,107334,107351,107367,107384,107401,107417,107434,107451,107467,107484,107501,107517,107534,107551,107567,107584,107601,107617,107634,107651,107667,107684,107701,107717,107734,107751,107767,107784,107801,107818,107834,107851,107867,107884,107901,107917,107934,107951,107967,107984,108001,108017,108034,108051,108067,108084,108101,108117,108134,108151,108167,108184,108201,108217,108233,108250,108267,108284,108301,108317,108334,108351,108367,108384,108401,108417,108434,108450,108467,108484,108501,108517,108534,108551,108567,108584,108600,108617,108633,108650,108667,108684,108700,108717,108734,108751,108767,108784,108801,108817,108834,108851,108867,108884,108901,108917,108934,108950,108967,108984,109001,109017,109034,109050,109067,109084,109101,109117,109134,109151,109168,109184,109201,109217,109234,109251,109267,109284,109300,109317,109334,109350,109367,109384,109401,109417,109434,109451,109467,109484,109501,109517,109534,109551,109567,109584,109601,109617,109634,109651,109667,109684,109700,109717,109734,109751,109767,109784,109800,109817,109834,109852,109867,109884,109900,109917,109934,109951,109967,109984,110001,110017,110034,110050,110067,110084,110101,110117,110134,110150,110167,110184,110201,110217,110234,110250,110267,110284,110300,110317,110334,110351,110367,110383,110400,110417,110434,110450,110468,110484,110501,110517,110534,110551,110568,110584,110601,110618,110634,110651,110668,110684,110701,110718,110734,110751,110768,110784,110801,110817,110834,110851,110867,110884,110901,110917,110934,110951,110967,110984,111001,111017,111034,111050,111067,111084,111104,111117,111134,111151,111168,111184,111200,111217,111234,111251,111267,111284,111300,111317,111334,111351,111367,111384,111401,111417,111434,111451,111467,111484,111500,111517,111534,111551,111567,111584,111601,111617,111634,111650,111667,111684,111700,111717,111734,111751,111767,111784,111801,111817,111834,111851,111867,111884,111901,111918,111934,111951,111967,111985,112001,112017,112034,112050,112067,112084,112101,112117,112134,112151,112167,112184,112200,112217,112234,112250,112266,112283,112299,112316,112334,112351,112367,112384,112401,112417,112434,112451,112467,112485,112500,112516,112533,112550,112566,112583,112600,112617,112634,112650,112667,112684,112700,112717,112734,112750,112767,112784,112801,112817,112834,112851,112868,112884,112901,112917,112934,112951,112967,112984,113001,113017,113034,113050,113067,113084,113100,113117,113134,113151,113167,113184,113201,113217,113234,113251,113268,113284,113300,113317,113334,113350,113367,113384,113401,113417,113434,113450,113467,113484,113501,113517,113534,113551,113567,113584,113601,113617,113634,113650,113667,113684,113701,113717,113734,113751,113768,113784,113801,113817,113834,113851,113867,113883,113900,113917,113934,113951,113967,113984,114001,114017,114034,114051,114067,114084,114100,114117,114134,114151,114167,114184,114200,114217,114234,114251,114267,114284,114301,114317,114334,114351,114367,114384,114401,114417,114434,114451,114467,114484,114500,114517,114534,114550,114567,114584,114601,114618,114634,114651,114667,114684,114701,114717,114734,114751,114768,114784,114801,114818,114834,114851,114867,114884,114901,114917,114934,114951,114967,114984,115001,115018,115034,115051,115067,115084,115101,115118,115134,115151,115168,115184,115201,115217,115234,115250,115267,115284,115300,115317,115334,115350,115367,115384,115401,115417,115434,115451,115467,115484,115500,115517,115534,115551,115567,115584,115601,115617,115634,115650,115667,115684,115700,115717,115734,115751,115767,115784,115801,115817,115834,115850,115867,115884,115901,115917,115934,115951,115967,115984,116000,116017,116034,116051,116067,116084,116101,116117,116134,116150,116167,116184,116201,116217,116234,116250,116266,116284,116300,116317,116334,116350,116367,116384,116400,116417,116434,116451,116467,116484,116500,116517,116534,116551,116567,116584,116601,116617,116633,116650,116667,116684,116700,116717,116734,116750,116767,116784,116800,116817,116834,116851,116867,116884,116901,116917,116934,116951,116967,116984,117001,117018,117034,117051,117067,117084,117100,117117,117134,117151,117168,117184,117201,117217,117234,117251,117267,117284,117300,117317,117334,117351,117367,117384,117401,117417,117434,117451,117467,117484,117500,117517,117534,117550,117567,117584,117601,117617,117634,117651,117667,117684,117700,117717,117734,117751,117767,117784,117801,117817,117838,117851,117868,117884,117901,117917,117935,117950,117967,117984,118001,118017,118034,118051,118067,118084,118100,118117,118134,118151,118167,118184,118201,118217,118234,118251,118267,118284,118301,118317,118334,118351,118367,118384,118401,118417,118434,118451,118467,118484,118501,118517,118534,118550,118567,118584,118601,118617,118634,118651,118667,118684,118701,118717,118734,118751,118767,118784,118800,118817,118834,118851,118867,118884,118900,118917,118934,118951,118967,118984,119001,119017,119034,119051,119067,119084,119101,119117,119134,119151,119168,119184,119201,119217,119234,119251,119267,119286,119299,119318,119334,119351,119367,119384,119401,119417,119434,119451,119467,119484,119501,119517,119534,119551,119567,119584,119600,119617,119634,119651,119667,119684,119701,119717,119734,119750,119767,119784,119801,119817,119837],"hit":[null],"x":[-2.0408163265306123,-2.0408163265306123,-2.0408163265306123,-2.0408163265306123,-2.0408163265306123,-2.0408163265306123,-2.0408163265306123,-2.0408163265306123,-2.0408163265306123,-2.0408163265306123,-2.0408163265306123,-2.0408163265306123,-2.0408163265306123,-2.0408163265306123,-2.0408163265306123,-2.0408163265306123,-2.0408163265306123,-2.0408163265306123,-2.0408163265306123,-2.0408163265306123,-2.0408163265306123,-2.0408163265306123,-2.0408163265306123,-2.0408163265306123,-2.0408163265306123,-2.0408163265306123,-2.0408163265306123,-2.0408163265306123,-2.0408163265306123,-2.0408163265306123,-2.0408163265306123,-2.0408163265306123,-2.0408163265306123,-2.0408163265306123,-2.0408163265306123,-2.0408163265306123,-2.0408163265306123,-2.0408163265306123,-2.0408163265306123,-2.0408163265306123,-2.0408163265306123,-2.0408163265306123,-2.0408163265306123,-2.0408163265306123,-2.0408163265306123,-2.0408163265306123,-2.0408163265306123,-2.0408163265306123,-2.0408163265306123,-2.0408163265306123,-2.0408163265306123,-2.0408163265306123,-2.0408163265306123,-2.0408163265306123,-2.0408163265306123,-2.0408163265306123,-2.0408163265306123,-2.0408163265306123,-2.0408163265306123,-2.0408163265306123,-2.0408163265306123,-2.0408163265306123,-2.0408163265306123,-2.0408163265306123,-2.0408163265306123,-2.0408163265306123,-2.0408163265306123,-2.0408163265306123,-2.0408163265306123,-2.0408163265306123,-2.0408163265306123,-2.0408163265306123,-2.0408163265306123,-2.0408163265306123,-2.0408163265306123,-2.0408163265306123,-2.0408163265306123,-2.0408163265306123,-2.0408163265306123,-2.0408163265306123,-2.0408163265306123,-2.0408163265306123,-2.0408163265306123,-2.0408163265306123,-2.0408163265306123,-2.0408163265306123,-2.0408163265306123,-2.0408163265306123,-2.0408163265306123,-2.0408163265306123,-2.0408163265306123,-2.0408163265306123,-2.0408163265306123,-2.0408163265306123,-2.0408163265306123,-2.0408163265306123,-2.0408163265306123,-2.0408163265306123,-2.0408163265306123,-2.0408163265306123,-2.0408163265306123,-2.0408163265306123,-2.0408163265306123,-2.0408163265306123,-2.0408163265306123,-2.0408163265306123,-2.0408163265306123,-2.0408163265306123,-2.0408163265306123,-2.0408163265306123,-2.0408163265306123,-2.0408163265306123,-2.0408163265306123,-2.0408163265306123,-2.0408163265306123,-2.0408163265306123,-2.0408163265306123,-2.0408163265306123,-2.0408163265306123,-2.0408163265306123,-2.0408163265306123,-2.0408163265306123,0.10884353741496598,0.11904761904761904,0.1360544217687075,0.14625850340136054,0.14965986394557823,0.15306122448979592,0.1564625850340136,0.1564625850340136,0.1598639455782313,0.1598639455782313,0.16326530612244897,0.16326530612244897,0.16666666666666666,0.17006802721088435,0.17346938775510204,0.18027210884353742,0.1870748299319728,0.20748299319727892,0.25170068027210885,0.272108843537415,0.29591836734693877,0.32653061224489793,0.3401360544217687,0.37755102040816324,0.41496598639455784,0.4217687074829932,0.42857142857142855,0.43537414965986393,0.43537414965986393,0.4387755102040816,0.4421768707482993,0.4421768707482993,0.4421768707482993,0.4421768707482993,0.4421768707482993,0.4421768707482993,0.4421768707482993,0.4421768707482993,0.4421768707482993,0.445578231292517,0.445578231292517,0.4489795918367347,0.4523809523809524,0.4557823129251701,0.46258503401360546,0.46598639455782315,0.47278911564625853,0.47619047619047616,0.47959183673469385,0.48299319727891155,0.48639455782312924,0.4897959183673469,0.4897959183673469,0.4931972789115646,0.4965986394557823,0.4965986394557823,0.5,0.5,0.5,0.5,0.5,0.5,0.5,0.5,0.5,0.5,0.5,0.5,0.5,0.5,0.5,0.5,0.5,0.5,0.5,0.5,0.5,0.5,0.5,0.5,0.5,0.5,0.5,0.5,0.5,0.5,0.5,0.5,0.5,0.5,0.5,0.5,0.5,0.5,0.5,0.5,0.5,0.5,0.5,0.5,0.5,0.5,0.5,0.5,0.5,0.5,0.5,0.5,0.5,0.5,0.5,0.5,0.5,0.5,0.5,0.5,0.5,0.5,0.5,0.5,0.5,0.5,0.5,0.5,0.5,0.5,0.5,0.5,0.5,0.5,0.5,0.5,0.5,0.5,0.5,0.5,0.5,0.5,0.5,0.5,0.5,0.5,0.5,0.5,0.5,0.5,0.5,0.5,0.5,0.5,0.5,0.5,0.5,0.5,0.5,0.5,0.5,0.5,0.5,0.5,0.5,0.5,0.5,0.5,0.5,0.5,0.5,0.5,0.5,0.5,0.5,0.5,0.5,0.5,0.5,0.5,0.5,0.5,0.5,0.5,0.5,0.5,0.5,0.5,0.5,0.5,0.5,0.5,0.5,0.5,0.5,0.5,0.5,0.5,0.5,0.5,0.5,0.5,0.5,0.5,0.5,0.5,0.5,0.5,0.5,0.5,0.5,0.5,0.5,0.5,0.5,0.5,0.5,0.5,0.5,0.5,0.5,0.5,0.5,0.5,0.5,0.5,0.5,0.5,0.5,0.5,0.5,0.5,0.5,0.5,0.5,0.5,0.5,0.5,0.5,0.5,0.5,0.5,0.5,0.5,0.5,0.5,0.5,0.5,0.5,0.5,0.5,0.5,0.5,0.5,0.5,0.5,0.5,0.5,0.5,0.5,0.5,0.5,0.5,0.5,0.5,0.5,0.5,0.5,0.5,0.5,0.5,0.5,0.5,0.5,0.5,0.5,0.5,0.5,0.5,0.5,0.5,0.5,0.5,0.5,0.5,0.5,0.5,0.5,0.5,0.5,0.5,0.5,0.5,0.5,0.5,0.5,0.5,0.5,0.5,0.5,0.5,0.5,0.5,0.5,0.5,0.5,0.5,0.5,0.5,0.5,0.5,0.48639455782312924,0.46598639455782315,0.42857142857142855,0.4013605442176871,0.391156462585034,0.37755102040816324,0.3707482993197279,0.36394557823129253,0.36394557823129253,0.35714285714285715,0.35374149659863946,0.35034013605442177,0.3435374149659864,0.3401360544217687,0.336734693877551,0.3333333333333333,0.3333333333333333,0.3333333333333333,0.3333333333333333,0.3333333333333333,0.3299319727891156,0.3299319727891156,0.3299319727891156,0.3299319727891156,0.3299319727891156,0.3299319727891156,0.3333333333333333,0.3333333333333333,0.3333333333333333,0.3299319727891156,0.3231292517006803,0.3231292517006803,0.3197278911564626,0.3197278911564626,0.3231292517006803,0.3231292517006803,0.3231292517006803,0.3231292517006803,0.3231292517006803,0.3231292517006803,0.3231292517006803,0.3231292517006803,0.32653061224489793,0.3299319727891156,0.3333333333333333,0.35034013605442177,0.3843537414965986,0.4013605442176871,0.42857142857142855,0.4489795918367347,0.45918367346938777,0.46938775510204084,0.47959183673469385,0.47959183673469385,0.48639455782312924,0.48639455782312924,0.48639455782312924,0.4897959183673469,0.4897959183673469,0.4931972789115646,0.5034013605442177,0.5272108843537415,0.5408163265306123,0.5612244897959183,0.5714285714285714,0.5748299319727891,0.5816326530612245,0.5918367346938775,0.5952380952380952,0.5986394557823129,0.6054421768707483,0.608843537414966,0.6190476190476191,0.6428571428571429,0.6564625850340136,0.6904761904761905,0.7142857142857143,0.7244897959183674,0.7448979591836735,0.7653061224489796,0.7755102040816326,0.7993197278911565,0.8231292517006803,0.8333333333333334,0.8469387755102041,0.8571428571428571,0.8605442176870748,0.8673469387755102,0.8741496598639455,0.8809523809523809,0.8877551020408163,0.8945578231292517,0.8979591836734694,0.9047619047619048,0.9081632653061225,0.9115646258503401,0.9149659863945578,0.9217687074829932,0.9251700680272109,0.9319727891156463,0.935374149659864,0.9387755102040817,0.9421768707482994,0.9455782312925171,0.9455782312925171,0.9489795918367347,0.9489795918367347,0.9523809523809523,0.9523809523809523,0.95578231292517,0.9591836734693877,0.9591836734693877,0.9659863945578231,0.9693877551020408,0.9761904761904762,0.9829931972789115,0.9897959183673469,0.9931972789115646,0.9931972789115646,0.9965986394557823,0.9965986394557823,0.9965986394557823,1,1,1,1,1,1,1,1,1,1,1,1,1,1,1,1,1,1,1,1,1,1,1,1,1,1,1,1,1,1,1,1,1,1,1,1,1,1,1,1,1,1,1,1,1,1,1,1,1,1,1,1,1,1,1,1,1,1,1,1,1,1,1,1,1,1,1,1,1,1,1,1,1,1,1,1,1,1,1,1,1,1,1,1,1,1,1,1,1,1,1,1,1,1,1,1,1,1,1,1,1,1,1,1,1,1,1,1,1,1,1,1,1,1,1,1,1,1,1,1,1,1,1,1,1,1,1,1,1,1,1,1,1,1,1,1,1,1,1,1,1,1,1,1,1,1,1,1,1,1,1,1,1,1,1,1,1,1,1,1,1,1,1,1,1,1,1,1,1,1,1,1,1,1,1,1,1,1,1,1,1,1,1,1,1,1,1,1,1,1,1,1,1,1,1,1,1,1,1,1,1,1,1,1,1,1,1,1,1,1,1,1,1,1,1,1,1,1,1,1,1,1,1,1,1,1,1,1,1,1,1,1,1,1,1,1,1,1,1,1,1,1,1,1,1,1,1,1,1,1,1,1,1,1,1,1,1,1,1,1,1,1,1,1,1,1,1,1,1,1,1,1,1,1,1,1,1,1,1,1,1,1,1,1,1,1,1,1,1,1,1,1,1,1,1,1,1,1,1,1,1,1,1,1,0.9863945578231292,0.9693877551020408,0.9489795918367347,0.9387755102040817,0.935374149659864,0.9319727891156463,0.9285714285714286,0.9251700680272109,0.9217687074829932,0.9149659863945578,0.9115646258503401,0.9047619047619048,0.8979591836734694,0.8945578231292517,0.8877551020408163,0.8809523809523809,0.8775510204081632,0.8741496598639455,0.8707482993197279,0.8673469387755102,0.8639455782312925,0.8639455782312925,0.8605442176870748,0.8605442176870748,0.8571428571428571,0.8571428571428571,0.8571428571428571,0.8571428571428571,0.8571428571428571,0.8537414965986394,0.8537414965986394,0.8537414965986394,0.8537414965986394,0.8503401360544217,0.8503401360544217,0.8503401360544217,0.8503401360544217,0.8469387755102041,0.8469387755102041,0.8469387755102041,0.8469387755102041,0.8469387755102041,0.8469387755102041,0.8469387755102041,0.8469387755102041,0.8469387755102041,0.8469387755102041,0.8469387755102041,0.8469387755102041,0.8469387755102041,0.8469387755102041,0.8469387755102041,0.8503401360544217,0.8503401360544217,0.8571428571428571,0.8605442176870748,0.8707482993197279,0.8809523809523809,0.8877551020408163,0.9183673469387755,0.9931972789115646,1.0442176870748299,1.1122448979591837,1.1428571428571428,1.1496598639455782,1.1564625850340136,1.163265306122449,1.1666666666666667,1.1700680272108843,1.1734693877551021,1.1768707482993197,1.1768707482993197,1.1802721088435375,1.1802721088435375,1.183673469387755,1.183673469387755,1.183673469387755,1.183673469387755,1.1870748299319729,1.1870748299319729,1.1870748299319729,1.183673469387755,1.183673469387755,1.1802721088435375,1.1768707482993197,1.1700680272108843,1.1700680272108843,1.163265306122449,1.1598639455782314,1.1564625850340136,1.153061224489796,1.1496598639455782,1.1496598639455782,1.1462585034013606,1.1462585034013606,1.1462585034013606,1.1428571428571428,1.1428571428571428,1.1428571428571428,1.1428571428571428,1.1394557823129252,1.1394557823129252,1.1394557823129252,1.1394557823129252,1.1394557823129252,1.1394557823129252,1.1394557823129252,1.1394557823129252,1.1394557823129252,1.1394557823129252,1.1394557823129252,1.1394557823129252,1.1394557823129252,1.1394557823129252,1.1394557823129252,1.1394557823129252,1.1394557823129252,1.1394557823129252,1.1394557823129252,1.1394557823129252,1.1394557823129252,1.1394557823129252,1.1394557823129252,1.1394557823129252,1.1394557823129252,1.1394557823129252,1.1394557823129252,1.1394557823129252,1.1394557823129252,1.1394557823129252,1.1394557823129252,1.1394557823129252,1.1394557823129252,1.1394557823129252,1.1394557823129252,1.1394557823129252,1.1394557823129252,1.1394557823129252,1.1394557823129252,1.1394557823129252,1.1394557823129252,1.1394557823129252,1.1394557823129252,1.1394557823129252,1.1394557823129252,1.1394557823129252,1.1394557823129252,1.1394557823129252,1.1394557823129252,1.1394557823129252,1.1394557823129252,1.1394557823129252,1.1394557823129252,1.1394557823129252,1.1394557823129252,1.1394557823129252,1.1394557823129252,1.1394557823129252,1.1394557823129252,1.1394557823129252,1.1394557823129252,1.1394557823129252,1.1394557823129252,1.1394557823129252,1.1394557823129252,1.1394557823129252,1.1394557823129252,1.1394557823129252,1.1394557823129252,1.1394557823129252,1.1394557823129252,1.1394557823129252,1.1394557823129252,1.1394557823129252,1.1394557823129252,1.1394557823129252,1.1394557823129252,1.1394557823129252,1.1394557823129252,1.1394557823129252,1.1394557823129252,1.1394557823129252,1.1394557823129252,1.1394557823129252,1.1394557823129252,1.1394557823129252,1.1394557823129252,1.1394557823129252,1.1394557823129252,1.1394557823129252,1.1394557823129252,1.1394557823129252,1.1394557823129252,1.1394557823129252,1.1394557823129252,1.1394557823129252,1.1394557823129252,1.1394557823129252,1.1394557823129252,1.1394557823129252,1.1394557823129252,1.1394557823129252,1.1394557823129252,1.1394557823129252,1.1394557823129252,1.1394557823129252,1.1394557823129252,1.1394557823129252,1.1394557823129252,1.1394557823129252,1.1394557823129252,1.1394557823129252,1.1394557823129252,1.1394557823129252,1.1394557823129252,1.1394557823129252,1.1394557823129252,1.1394557823129252,1.1394557823129252,1.1394557823129252,1.1394557823129252,1.1394557823129252,1.1394557823129252,1.1394557823129252,1.1394557823129252,1.1394557823129252,1.1394557823129252,1.1394557823129252,1.1394557823129252,1.1394557823129252,1.1394557823129252,1.1394557823129252,1.1394557823129252,1.1394557823129252,1.1394557823129252,1.1394557823129252,1.1394557823129252,1.1394557823129252,1.1088435374149659,1.034013605442177,0.9829931972789115,0.9625850340136054,0.9285714285714286,0.9115646258503401,0.9047619047619048,0.8979591836734694,0.8945578231292517,0.891156462585034,0.8877551020408163,0.8809523809523809,0.8775510204081632,0.8673469387755102,0.8571428571428571,0.8571428571428571,0.8537414965986394,0.8503401360544217,0.8503401360544217,0.8469387755102041,0.8435374149659864,0.8367346938775511,0.8231292517006803,0.7959183673469388,0.782312925170068,0.7653061224489796,0.7551020408163265,0.7517006802721088,0.7448979591836735,0.7380952380952381,0.7346938775510204,0.7312925170068028,0.7244897959183674,0.717687074829932,0.717687074829932,0.7142857142857143,0.7142857142857143,0.7108843537414966,0.7108843537414966,0.7108843537414966,0.7108843537414966,0.7108843537414966,0.7108843537414966,0.7108843537414966,0.7108843537414966,0.7108843537414966,0.7108843537414966,0.7108843537414966,0.7108843537414966,0.7108843537414966,0.7108843537414966,0.7108843537414966,0.7108843537414966,0.7108843537414966,0.7108843537414966,0.7108843537414966,0.7108843537414966,0.7108843537414966,0.7108843537414966,0.7108843537414966,0.7108843537414966,0.7108843537414966,0.7108843537414966,0.7108843537414966,0.7108843537414966,0.7108843537414966,0.7108843537414966,0.7108843537414966,0.7108843537414966,0.7108843537414966,0.7108843537414966,0.7108843537414966,0.7108843537414966,0.7108843537414966,0.7108843537414966,0.7108843537414966,0.7108843537414966,0.7108843537414966,0.7108843537414966,0.7108843537414966,0.7108843537414966,0.7108843537414966,0.7108843537414966,0.7108843537414966,0.7108843537414966,0.7108843537414966,0.7108843537414966,0.7108843537414966,0.7108843537414966,0.7108843537414966,0.7108843537414966,0.7108843537414966,0.7108843537414966,0.7108843537414966,0.7108843537414966,0.7108843537414966,0.7108843537414966,0.7108843537414966,0.7108843537414966,0.7108843537414966,0.7108843537414966,0.7108843537414966,0.7108843537414966,0.7108843537414966,0.7108843537414966,0.7108843537414966,0.7108843537414966,0.7108843537414966,0.7108843537414966,0.7108843537414966,0.608843537414966,0.5034013605442177,0.46598639455782315,0.41156462585034015,0.3843537414965986,0.37755102040816324,0.36394557823129253,0.3435374149659864,0.336734693877551,0.3163265306122449,0.30272108843537415,0.2925170068027211,0.2857142857142857,0.2857142857142857,0.282312925170068,0.282312925170068,0.282312925170068,0.2789115646258503,0.2789115646258503,0.2789115646258503,0.2789115646258503,0.2789115646258503,0.2789115646258503,0.2789115646258503,0.2789115646258503,0.2789115646258503,0.2789115646258503,0.2789115646258503,0.2789115646258503,0.2789115646258503,0.2789115646258503,0.2789115646258503,0.2789115646258503,0.2789115646258503,0.2789115646258503,0.2789115646258503,0.2789115646258503,0.2789115646258503,0.2789115646258503,0.2789115646258503,0.2789115646258503,0.2789115646258503,0.2789115646258503,0.2789115646258503,0.2789115646258503,0.2789115646258503,0.2789115646258503,0.2789115646258503,0.2789115646258503,0.2789115646258503,0.2789115646258503,0.2789115646258503,0.2789115646258503,0.2789115646258503,0.2789115646258503,0.2789115646258503,0.2789115646258503,0.2789115646258503,0.2789115646258503,0.2789115646258503,0.2789115646258503,0.2789115646258503,0.2789115646258503,0.2789115646258503,0.2789115646258503,0.2789115646258503,0.2789115646258503,0.2789115646258503,0.2789115646258503,0.2789115646258503,0.2789115646258503,0.2789115646258503,0.2789115646258503,0.2789115646258503,0.2789115646258503,0.2789115646258503,0.30952380952380953,0.32653061224489793,0.36394557823129253,0.38095238095238093,0.3877551020408163,0.4013605442176871,0.41836734693877553,0.42517006802721086,0.43197278911564624,0.4387755102040816,0.4421768707482993,0.445578231292517,0.4489795918367347,0.4523809523809524,0.4523809523809524,0.4557823129251701,0.4557823129251701,0.45918367346938777,0.46258503401360546,0.46938775510204084,0.47278911564625853,0.48639455782312924,0.4965986394557823,0.5,0.5102040816326531,0.5136054421768708,0.5170068027210885,0.5238095238095238,0.5306122448979592,0.5374149659863946,0.54421768707483,0.5476190476190477,0.5510204081632653,0.5510204081632653,0.5544217687074829,0.5544217687074829,0.5544217687074829,0.5578231292517006,0.5578231292517006,0.5612244897959183,0.5612244897959183,0.564625850340136,0.564625850340136,0.564625850340136,0.564625850340136,0.564625850340136,0.564625850340136,0.564625850340136,0.564625850340136,0.564625850340136,0.564625850340136,0.564625850340136,0.564625850340136,0.564625850340136,0.564625850340136,0.564625850340136,0.564625850340136,0.564625850340136,0.564625850340136,0.564625850340136,0.564625850340136,0.564625850340136,0.564625850340136,0.564625850340136,0.564625850340136,0.564625850340136,0.564625850340136,0.564625850340136,0.564625850340136,0.564625850340136,0.564625850340136,0.564625850340136,0.564625850340136,0.564625850340136,0.564625850340136,0.564625850340136,0.564625850340136,0.564625850340136,0.564625850340136,0.564625850340136,0.564625850340136,0.564625850340136,0.564625850340136,0.564625850340136,0.564625850340136,0.564625850340136,0.564625850340136,0.564625850340136,0.564625850340136,0.564625850340136,0.564625850340136,0.564625850340136,0.564625850340136,0.564625850340136,0.564625850340136,0.564625850340136,0.564625850340136,0.564625850340136,0.564625850340136,0.564625850340136,0.564625850340136,0.564625850340136,0.564625850340136,0.564625850340136,0.564625850340136,0.564625850340136,0.564625850340136,0.564625850340136,0.564625850340136,0.564625850340136,0.564625850340136,0.564625850340136,0.564625850340136,0.564625850340136,0.564625850340136,0.564625850340136,0.564625850340136,0.564625850340136,0.564625850340136,0.564625850340136,0.564625850340136,0.564625850340136,0.564625850340136,0.564625850340136,0.564625850340136,0.564625850340136,0.564625850340136,0.564625850340136,0.564625850340136,0.564625850340136,0.564625850340136,0.564625850340136,0.564625850340136,0.564625850340136,0.564625850340136,0.564625850340136,0.564625850340136,0.564625850340136,0.564625850340136,0.564625850340136,0.564625850340136,0.564625850340136,0.564625850340136,0.564625850340136,0.564625850340136,0.564625850340136,0.564625850340136,0.564625850340136,0.564625850340136,0.564625850340136,0.564625850340136,0.564625850340136,0.564625850340136,0.564625850340136,0.564625850340136,0.564625850340136,0.564625850340136,0.564625850340136,0.564625850340136,0.564625850340136,0.564625850340136,0.564625850340136,0.564625850340136,0.564625850340136,0.564625850340136,0.564625850340136,0.564625850340136,0.564625850340136,0.564625850340136,0.564625850340136,0.564625850340136,0.564625850340136,0.564625850340136,0.564625850340136,0.564625850340136,0.564625850340136,0.564625850340136,0.564625850340136,0.564625850340136,0.564625850340136,0.564625850340136,0.564625850340136,0.564625850340136,0.564625850340136,0.564625850340136,0.564625850340136,0.564625850340136,0.564625850340136,0.564625850340136,0.564625850340136,0.564625850340136,0.564625850340136,0.564625850340136,0.564625850340136,0.564625850340136,0.564625850340136,0.564625850340136,0.564625850340136,0.564625850340136,0.564625850340136,0.564625850340136,0.564625850340136,0.564625850340136,0.564625850340136,0.564625850340136,0.564625850340136,0.564625850340136,0.564625850340136,0.564625850340136,0.564625850340136,0.564625850340136,0.564625850340136,0.564625850340136,0.564625850340136,0.564625850340136,0.564625850340136,0.564625850340136,0.564625850340136,0.564625850340136,0.564625850340136,0.564625850340136,0.564625850340136,0.564625850340136,0.564625850340136,0.564625850340136,0.564625850340136,0.564625850340136,0.564625850340136,0.564625850340136,0.564625850340136,0.564625850340136,0.564625850340136,0.564625850340136,0.564625850340136,0.564625850340136,0.564625850340136,0.564625850340136,0.564625850340136,0.564625850340136,0.564625850340136,0.564625850340136,0.564625850340136,0.564625850340136,0.564625850340136,0.564625850340136,0.564625850340136,0.564625850340136,0.564625850340136,0.564625850340136,0.564625850340136,0.564625850340136,0.564625850340136,0.564625850340136,0.564625850340136,0.564625850340136,0.564625850340136,0.564625850340136,0.564625850340136,0.564625850340136,0.564625850340136,0.564625850340136,0.564625850340136,0.564625850340136,0.564625850340136,0.564625850340136,0.564625850340136,0.564625850340136,0.564625850340136,0.564625850340136,0.564625850340136,0.564625850340136,0.564625850340136,0.564625850340136,0.564625850340136,0.564625850340136,0.564625850340136,0.564625850340136,0.564625850340136,0.564625850340136,0.564625850340136,0.564625850340136,0.564625850340136,0.564625850340136,0.564625850340136,0.564625850340136,0.564625850340136,0.564625850340136,0.564625850340136,0.564625850340136,0.564625850340136,0.564625850340136,0.564625850340136,0.564625850340136,0.564625850340136,0.564625850340136,0.564625850340136,0.564625850340136,0.564625850340136,0.564625850340136,0.564625850340136,0.564625850340136,0.564625850340136,0.564625850340136,0.564625850340136,0.564625850340136,0.564625850340136,0.564625850340136,0.564625850340136,0.564625850340136,0.564625850340136,0.564625850340136,0.564625850340136,0.564625850340136,0.564625850340136,0.564625850340136,0.564625850340136,0.564625850340136,0.564625850340136,0.564625850340136,0.564625850340136,0.564625850340136,0.564625850340136,0.564625850340136,0.564625850340136,0.564625850340136,0.564625850340136,0.564625850340136,0.564625850340136,0.564625850340136,0.564625850340136,0.564625850340136,0.564625850340136,0.564625850340136,0.564625850340136,0.564625850340136,0.564625850340136,0.564625850340136,0.564625850340136,0.564625850340136,0.564625850340136,0.564625850340136,0.564625850340136,0.564625850340136,0.564625850340136,0.564625850340136,0.564625850340136,0.564625850340136,0.564625850340136,0.564625850340136,0.564625850340136,0.564625850340136,0.564625850340136,0.564625850340136,0.564625850340136,0.564625850340136,0.564625850340136,0.564625850340136,0.564625850340136,0.564625850340136,0.564625850340136,0.564625850340136,0.564625850340136,0.564625850340136,0.564625850340136,0.564625850340136,0.564625850340136,0.564625850340136,0.564625850340136,0.564625850340136,0.564625850340136,0.564625850340136,0.564625850340136,0.564625850340136,0.564625850340136,0.564625850340136,0.564625850340136,0.564625850340136,0.564625850340136,0.564625850340136,0.564625850340136,0.564625850340136,0.564625850340136,0.564625850340136,0.564625850340136,0.564625850340136,0.564625850340136,0.564625850340136,0.564625850340136,0.564625850340136,0.564625850340136,0.564625850340136,0.564625850340136,0.564625850340136,0.564625850340136,0.564625850340136,0.564625850340136,0.564625850340136,0.564625850340136,0.564625850340136,0.564625850340136,0.564625850340136,0.564625850340136,0.564625850340136,0.564625850340136,0.564625850340136,0.564625850340136,0.564625850340136,0.564625850340136,0.564625850340136,0.564625850340136,0.564625850340136,0.564625850340136,0.564625850340136,0.564625850340136,0.564625850340136,0.564625850340136,0.564625850340136,0.564625850340136,0.564625850340136,0.564625850340136,0.564625850340136,0.564625850340136,0.564625850340136,0.564625850340136,0.564625850340136,0.564625850340136,0.564625850340136,0.564625850340136,0.564625850340136,0.564625850340136,0.564625850340136,0.564625850340136,0.564625850340136,0.564625850340136,0.564625850340136,0.564625850340136,0.564625850340136,0.564625850340136,0.564625850340136,0.564625850340136,0.564625850340136,0.564625850340136,0.564625850340136,0.564625850340136,0.564625850340136,0.564625850340136,0.564625850340136,0.564625850340136,0.564625850340136,0.564625850340136,0.564625850340136,0.564625850340136,0.564625850340136,0.564625850340136,0.5646258