[{"success":true,"trial_type":"fullscreen","trial_index":0,"time_elapsed":6602,"internal_node_id":"0.0-0.0","protocol_sum":"","subject_identifier":125,"subject_sum":[129,184,160,63,151,232,120,124,83,254,26,134,189,160,66,182,240,222,155,14,201,192,147,87,225,7,201,155,164,214,148,138],"subject_pair":62,"STUDY_ID":"669a702db1122fc5150a13ce","PROLIFIC_PID":"5d612ae16512d700159face7","SESSION_ID":"669b18f033978b9acd1b070b","practice_instructions":1,"leaderboard_instructions":1,"bonus":1,"reveal_word":true,"self_rating":"3","confidence":"76"},{"view_history":"[{\"page_index\":0,\"viewing_time\":9143}]","rt":9143.399999976158,"trial_type":"instructions","trial_index":1,"time_elapsed":15747,"internal_node_id":"0.0-1.0","protocol_sum":"","subject_identifier":125,"subject_sum":[129,184,160,63,151,232,120,124,83,254,26,134,189,160,66,182,240,222,155,14,201,192,147,87,225,7,201,155,164,214,148,138],"subject_pair":62,"STUDY_ID":"669a702db1122fc5150a13ce","PROLIFIC_PID":"5d612ae16512d700159face7","SESSION_ID":"669b18f033978b9acd1b070b","practice_instructions":1,"leaderboard_instructions":1,"bonus":1,"reveal_word":true,"self_rating":"3","confidence":"76"},{"view_history":"[{\"page_index\":0,\"viewing_time\":23938.600000023842}]","rt":23939,"trial_type":"instructions","trial_index":2,"time_elapsed":39687,"internal_node_id":"0.0-2.0-0.0","protocol_sum":"","subject_identifier":125,"subject_sum":[129,184,160,63,151,232,120,124,83,254,26,134,189,160,66,182,240,222,155,14,201,192,147,87,225,7,201,155,164,214,148,138],"subject_pair":62,"STUDY_ID":"669a702db1122fc5150a13ce","PROLIFIC_PID":"5d612ae16512d700159face7","SESSION_ID":"669b18f033978b9acd1b070b","practice_instructions":1,"leaderboard_instructions":1,"bonus":1,"reveal_word":true,"self_rating":"3","confidence":"76"},{"rt":16429.699999928474,"responses":"{\"Q0\":\"... reveal the word with as <b>few letter guesses</b> as possible\"}","question_order":"[0]","trial_type":"survey-multi-choice","trial_index":3,"time_elapsed":56119,"internal_node_id":"0.0-2.0-1.0","protocol_sum":"","subject_identifier":125,"subject_sum":[129,184,160,63,151,232,120,124,83,254,26,134,189,160,66,182,240,222,155,14,201,192,147,87,225,7,201,155,164,214,148,138],"subject_pair":62,"correct":true,"test_part":"multichoice_nonpretend","STUDY_ID":"669a702db1122fc5150a13ce","PROLIFIC_PID":"5d612ae16512d700159face7","SESSION_ID":"669b18f033978b9acd1b070b","practice_instructions":1,"leaderboard_instructions":1,"bonus":1,"reveal_word":true,"self_rating":"3","confidence":"76"},{"view_history":"[{\"page_index\":0,\"viewing_time\":2833.7000000476837}]","rt":2834,"trial_type":"instructions","trial_index":4,"time_elapsed":58955,"internal_node_id":"0.0-3.0","protocol_sum":"","subject_identifier":125,"subject_sum":[129,184,160,63,151,232,120,124,83,254,26,134,189,160,66,182,240,222,155,14,201,192,147,87,225,7,201,155,164,214,148,138],"subject_pair":62,"STUDY_ID":"669a702db1122fc5150a13ce","PROLIFIC_PID":"5d612ae16512d700159face7","SESSION_ID":"669b18f033978b9acd1b070b","practice_instructions":1,"leaderboard_instructions":1,"bonus":1,"reveal_word":true,"self_rating":"3","confidence":"76"},{"word":"ZEBRA","click_log":{"letter":["","A","E","O","I","L","N","C","D","S","T","R","P","Z","B"],"t":[0,8258.899999976158,22736.699999928474,42179.699999928474,46959.60000002384,51027.299999952316,59033.60000002384,64915.5,66649,69978.69999992847,71998.89999997616,73591.79999995232,80368.69999992847,86667.69999992847,88238.89999997616],"hit":[null,1,1,0,0,0,0,0,0,0,0,1,0,1,1],"asked":["","A","AE","AEO","AEOI","AEOIL","AEOILN","AEOILNC","AEOILNCD","AEOILNCDS","AEOILNCDST","AEOILNCDSTR","AEOILNCDSTRP","AEOILNCDSTRPZ","AEOILNCDSTRPZB"],"word_state":["_____","____A","_E__A","_E__A","_E__A","_E__A","_E__A","_E__A","_E__A","_E__A","_E__A","_E_RA","_E_RA","ZE_RA","ZEBRA"]},"hover_log":{"letter":["?","?","?","?","?","?","?","?","J","?","K","?","?","V","?","?","?","?","?","?","?","?","?","?","?","?","?","?","?","?","?","?","?","?","?","?","?","?","?","?","?","?","?","?","?","?","?","?","?","?","?","?","?","?","?","?","?","?","?","?","?","?","?","?","?","?","?","?","?","?","?","?","?","?","?","?","?","?","?","?","?","?","?","?","?","?","?","?","?","?","?","?","?","?","?","?","?","?","?","?","?","?","?","?","?","?","?","?","?","?","?","?","?","?","?","?","?","?","?","?","?","?","?","?","?","?","?","?","?","?","?","?","?","?","?","?","?","?","?","?","?","?","?","?","?","?","?","?","?","?","?","?","?","?","?","?","?","?","?","?","?","?","?","?","?","?","?","?","?","?","?","?","?","?","?","?","?","?","?","?","?","?","?","?","?","?","?","?","?","?","?","?","?","?","?","?","?","?","?","?","?","?","?","?","?","?","?","?","?","?","?","?","?","?","?","?","?","?","?","?","?","?","?","?","?","?","?","?","?","?","?","?","?","?","?","?","?","?","?","?","?","?","?","?","?","?","?","?","?","?","?","?","?","?","?","?","?","?","?","?","?","?","?","?","?","?","?","?","?","?","?","?","?","?","?","?","?","?","?","?","?","?","?","?","?","?","?","?","?","?","?","?","?","?","?","?","?","?","?","?","?","?","?","?","?","?","?","?","?","?","?","?","?","?","?","?","?","?","?","?","?","?","?","?","?","?","?","?","?","?","?","?","?","?","?","?","?","?","?","?","?","?","?","?","?","?","?","?","?","?","?","?","?","?","?","?","?","?","?","?","?","?","?","?","?","?","?","?","?","?","?","?","?","?","?","?","?","?","?","?","?","?","?","?","?","?","?","?","?","?","?","?","?","?","?","?","?","?","?","?","?","?","?","?","?","?","?","?","?","?","?","W","W","W","W","W","W","W","W","?","?","?","?","L","L","L","L","L","L","L","L","L","L","L","L","L","L","L","L","L","L","L","L","L","?","?","?","?","?","?","?","?","A","A","A","A","A","A","A","A","A","A","A","A","A","A","A","A","A","A","A","A","A","A","A","A","A","A","A","A","A","A","A","A","A","A","A","A","A","A","A","A","A","A","A","A","A","A","A","A","A","A","A","A","A","A","A","A","A","?","K","K","?","U","?","?","?","?","?","?","?","?","?","?","?","?","?","?","?","?","?","?","?","?","?","?","?","?","?","?","?","?","?","?","?","?","?","?","?","?","?","?","?","?","?","?","?","?","?","?","?","?","?","?","?","?","?","?","?","?","?","?","?","?","?","?","?","?","?","?","?","?","?","?","?","?","?","?","?","?","?","?","?","?","?","?","?","?","?","?","?","?","?","?","?","?","?","?","?","?","?","?","?","?","?","?","?","?","?","?","?","?","?","?","?","?","?","?","?","?","?","?","?","?","?","?","?","?","?","?","?","?","?","?","?","?","?","?","?","?","?","?","?","?","?","?","L","?","C","?","?","?","?","?","?","?","?","?","?","?","?","?","?","?","?","?","?","?","?","?","?","?","?","?","?","?","?","?","?","?","?","?","?","?","?","?","?","?","?","?","?","?","?","?","?","?","?","?","?","?","?","?","?","?","?","?","?","?","?","?","?","?","?","?","?","?","?","?","?","?","?","?","?","?","?","?","?","?","?","?","?","?","?","?","?","?","?","?","?","?","?","?","?","?","?","?","?","?","?","?","?","?","?","?","?","?","?","?","?","?","?","?","?","?","?","?","?","?","?","?","?","?","?","?","?","?","?","?","?","?","?","?","?","?","?","?","?","?","?","?","?","?","?","?","?","?","?","?","?","?","?","?","?","?","?","?","?","?","?","?","?","?","?","?","?","?","?","?","?","?","?","?","?","?","?","?","?","?","?","?","?","?","?","?","?","?","?","?","?","?","?","?","?","?","?","?","?","?","?","?","?","?","?","?","?","?","?","?","?","?","?","?","?","?","?","?","?","?","?","?","?","?","?","?","?","?","?","?","?","?","?","?","?","?","?","?","?","?","?","?","?","?","?","?","?","?","?","?","?","?","?","?","?","?","?","?","?","?","?","?","?","?","?","?","?","?","?","?","?","?","?","?","?","?","?","?","?","?","?","?","?","?","?","?","?","?","?","?","?","?","?","?","?","?","?","?","?","?","?","?","?","?","?","?","?","?","?","?","?","?","?","?","?","?","?","?","?","?","?","?","?","?","?","?","?","?","?","?","?","?","?","?","?","?","?","?","?","?","?","?","?","?","?","?","?","?","?","?","?","?","?","?","?","?","?","?","?","?","?","?","?","?","?","?","?","?","?","?","?","?","?","?","?","?","?","?","?","?","?","?","?","?","?","?","?","?","?","?","?","?","?","?","?","?","?","?","?","?","?","?","?","?","?","?","?","?","?","?","?","?","?","?","?","?","?","?","?","?","?","?","?","?","?","?","?","?","?","?","?","?","?","?","?","?","?","?","?","?","?","?","?","?","?","?","?","?","?","?","?","?","?","?","?","?","?","?","?","?","?","?","?","?","?","?","?","?","?","?","?","?","?","?","?","?","?","?","?","?","?","?","?","?","?","?","?","?","?","?","?","?","?","?","?","?","?","?","?","?","?","?","?","?","?","?","?","?","?","?","?","?","?","?","?","?","?","?","?","?","?","?","?","?","?","?","?","?","?","?","?","?","?","?","?","?","?","?","?","?","?","?","?","?","?","E","E","E","E","E","E","E","E","E","E","E","E","E","E","E","E","E","E","E","E","E","E","E","?","?","?","?","?","?","V","V","V","V","?","?","?","?","?","?","?","?","?","?","?","?","?","?","?","?","?","?","?","?","?","?","?","?","V","V","V","V","V","V","V","V","V","?","?","?","?","?","?","?","W","W","W","W","W","W","W","W","W","W","W","W","W","W","W","W","W","W","W","W","W","W","W","W","?","N","N","?","?","?","?","?","?","?","?","?","?","?","?","?","?","?","?","?","?","?","?","E","E","E","E","E","E","E","E","E","E","E","E","E","E","E","E","E","E","E","E","E","E","E","E","E","E","E","E","E","E","E","E","E","E","E","E","E","E","E","E","E","E","E","E","E","E","E","E","E","E","E","E","E","E","E","E","E","E","E","E","E","E","E","E","E","E","E","E","E","E","E","E","E","E","E","E","E","E","E","E","E","E","E","E","E","E","E","E","E","E","E","E","E","E","E","E","E","E","E","E","E","E","E","E","E","E","E","E","E","E","E","E","E","E","E","E","E","E","E","E","E","E","E","E","E","E","E","E","E","E","E","E","E","E","E","E","E","E","E","E","E","E","E","E","E","E","E","E","E","E","E","E","E","E","E","E","E","E","E","E","E","E","E","E","E","E","E","E","E","E","E","E","E","E","E","E","E","E","E","E","E","E","E","E","E","E","E","E","E","E","E","E","E","E","E","E","E","E","E","E","E","E","E","E","E","E","E","E","E","E","E","E","E","E","E","E","E","E","E","E","E","E","E","E","E","E","E","E","E","E","E","E","E","E","E","E","E","E","E","E","E","E","E","E","E","E","E","E","E","E","E","E","E","E","E","E","E","E","E","E","E","E","E","E","E","E","E","E","E","E","E","E","E","E","E","E","E","E","E","E","E","E","E","E","E","E","E","E","E","E","E","E","E","E","E","?","?","?","?","?","?","?","?","?","?","?","?","?","?","?","?","?","?","?","?","?","?","?","?","?","?","?","V","?","?","?","?","?","?","?","?","?","?","?","?","?","?","?","?","?","?","?","?","?","?","?","?","?","?","?","?","?","?","?","?","?","?","?","?","?","?","?","?","?","?","?","?","?","?","?","?","?","?","?","?","?","?","?","?","?","?","?","?","?","?","?","?","?","?","?","?","?","?","?","?","?","?","?","?","?","?","?","?","?","?","?","?","?","?","?","?","?","?","?","?","?","?","?","?","?","?","?","?","?","?","?","?","?","?","?","?","?","?","?","?","?","?","?","?","?","?","?","?","?","?","?","?","?","?","?","?","?","?","?","?","?","?","?","?","?","?","?","?","?","?","?","?","?","?","?","?","?","?","?","?","?","?","?","?","?","?","?","?","?","?","?","?","?","?","?","?","?","?","?","?","?","?","?","?","?","?","?","?","?","?","?","?","?","?","?","?","?","?","?","?","?","?","?","?","?","?","?","?","?","?","?","?","?","?","?","?","?","?","?","?","?","?","?","?","?","?","?","?","?","?","?","?","?","?","?","?","?","?","?","?","?","?","?","?","?","?","?","?","X","?","?","?","?","Q","?","?","R","R","R","R","R","R","R","R","R","R","R","R","R","R","R","R","R","R","R","R","R","R","R","R","R","R","?","?","?","?","?","?","?","?","?","?","?","?","?","?","?","?","?","?","?","?","?","?","?","?","?","?","?","?","?","?","?","?","?","?","?","?","?","?","?","?","?","?","?","?","?","?","?","?","?","?","?","?","?","?","?","?","?","?","?","?","?","?","?","?","?","?","?","?","?","?","?","?","?","?","?","?","?","?","?","?","?","?","?","?","?","?","?","?","?","?","?","?","?","?","?","?","?","?","?","?","?","?","?","?","?","?","?","?","?","?","?","?","?","?","?","?","?","?","?","?","?","?","?","?","?","?","?","?","?","?","?","?","?","?","?","?","?","?","?","?","?","?","?","?","?","?","?","?","?","?","?","?","?","?","?","?","?","?","?","?","?","?","?","?","?","?","?","?","?","?","?","?","?","?","?","?","?","?","?","?","?","?","?","?","?","?","?","?","?","?","?","?","?","?","?","?","?","?","?","?","?","?","?","?","?","?","?","?","?","?","?","?","?","?","?","?","?","?","?","?","?","?","?","?","?","?","?","?","?","?","?","?","?","?","?","?","?","?","?","?","?","?","?","?","?","?","?","?","?","?","?","?","?","?","?","?","?","?","?","?","?","?","?","?","?","?","?","?","?","?","?","?","?","?","?","?","?","?","?","?","?","?","?","?","?","?","?","?","?","?","?","?","?","?","?","?","?","?","?","?","?","?","?","?","?","?","?","?","?","?","?","?","?","?","?","?","?","?","?","?","?","?","?","?","?","?","?","?","?","?","?","?","?","?","?","?","?","?","?","?","?","?","?","?","?","?","?","?","?","?","?","?","?","?","?","?","?","?","?","?","?","?","?","?","?","?","?","?","?","?","?","?","?","?","?","?","?","?","?","?","?","?","?","?","?","?","?","?","?","?","?","?","?","?","?","?","?","?","?","?","?","?","?","?","?","?","?","?","?","?","?","?","?","?","?","?","?","?","?","?","?","?","?","?","?","I","I","?","?","?","?","?","?","?","?","?","?","?","?","?","?","?","?","?","?","?","?","?","?","?","?","?","?","?","?","?","?","?","?","?","?","?","?","?","?","?","?","?","?","?","?","?","?","?","?","?","?","?","?","?","?","?","?","?","?","?","?","?","?","?","?","?","?","?","?","?","?","?","?","?","?","?","?","?","?","?","?","?","?","?","?","?","?","?","?","?","?","?","?","?","?","?","?","?","?","?","?","?","H","H","H","?","P","O","O","O","?","?","?","?","?","?","?","?","?","?","?","?","?","?","?","?","?","?","?","?","?","?","?","?","?","?","?","?","?","?","?","?","?","?","?","?","?","?","?","O","O","O","O","O","O","O","O","O","O","O","O","O","O","O","O","O","O","O","O","O","O","O","O","O","O","O","O","O","O","O","O","O","O","O","O","O","O","O","O","O","O","O","O","O","O","O","O","O","O","O","O","O","O","O","O","O","O","O","O","O","O","O","O","O","O","O","O","O","O","O","O","O","O","O","O","O","O","O","O","O","O","O","O","O","O","O","O","O","O","O","O","O","O","O","O","O","O","O","O","O","O","O","O","O","O","O","O","O","O","O","O","O","O","O","O","O","O","O","O","O","O","O","O","O","O","?","?","?","?","?","?","?","U","U","?","T","T","T","T","T","T","T","T","T","T","T","T","T","T","T","T","T","T","T","T","T","T","T","T","T","T","T","T","?","?","?","?","?","?","S","S","S","S","S","S","S","S","S","S","S","S","S","S","S","S","S","S","S","S","S","S","S","S","S","S","S","S","S","S","S","S","S","S","S","S","S","S","S","S","S","S","S","S","S","S","S","S","S","S","?","?","?","?","?","?","?","L","?","M","M","N","N","?","O","?","?","?","?","?","?","?","?","?","?","?","?","?","?","?","?","?","?","H","?","?","?","?","?","?","?","?","?","?","?","?","?","?","?","?","?","?","?","?","?","?","?","?","?","I","I","I","I","I","I","I","I","I","I","I","I","I","I","I","I","I","I","I","I","I","I","I","I","I","I","I","I","I","I","I","I","I","I","I","I","I","I","I","I","I","I","I","I","I","I","I","I","I","I","I","I","I","I","I","I","I","I","I","I","I","I","I","I","I","I","I","I","I","I","I","I","I","I","I","I","I","I","I","I","I","I","I","I","I","I","I","I","I","I","I","I","I","I","I","I","I","I","I","I","I","I","I","I","I","I","I","I","I","I","I","I","I","?","H","H","?","?","?","?","?","?","?","?","?","?","?","?","?","?","?","?","?","?","?","?","?","?","?","?","?","?","?","?","?","?","?","?","?","?","?","?","?","?","?","?","?","?","?","?","?","?","?","?","?","?","?","?","?","?","?","?","?","?","?","?","?","?","?","?","?","?","?","?","?","?","?","?","?","?","?","?","?","?","?","?","?","?","?","?","?","L","L","L","L","L","L","L","L","L","L","L","L","L","L","L","L","L","L","L","L","L","L","L","L","L","L","L","L","L","L","L","L","L","L","L","L","L","L","L","L","L","L","L","L","L","L","L","L","L","L","L","L","L","L","L","L","L","L","L","L","L","L","L","L","L","L","L","L","L","L","L","L","L","L","L","L","L","L","L","L","L","L","L","L","L","L","L","L","L","L","L","L","L","L","L","L","L","L","L","L","L","L","L","L","L","L","L","L","L","L","L","L","L","L","L","L","L","L","L","L","L","L","L","L","L","L","L","L","L","L","L","L","L","L","L","L","L","L","L","L","L","L","L","L","L","L","L","L","L","L","L","L","L","L","L","L","L","L","L","L","L","L","L","L","L","L","L","L","L","L","L","L","L","L","L","L","L","L","L","L","L","L","L","L","L","L","L","L","L","L","L","L","L","L","L","L","L","L","L","L","L","L","L","L","L","L","L","L","L","L","L","L","L","L","L","L","L","L","L","L","L","L","L","L","L","L","L","L","L","L","L","L","L","L","L","L","L","L","L","L","L","L","L","L","L","L","L","L","L","L","L","L","L","L","L","L","L","L","L","L","L","L","L","L","L","L","L","L","L","L","L","L","L","L","L","L","L","L","L","L","L","L","L","L","L","L","L","L","L","L","L","L","L","L","L","L","L","L","L","L","L","L","L","L","L","L","L","L","L","L","L","L","L","L","L","L","L","L","L","L","L","L","L","L","L","L","L","L","L","L","L","L","L","L","L","L","L","L","L","L","L","L","L","L","L","L","L","L","L","L","L","L","L","L","L","L","L","L","L","L","L","L","L","L","L","L","L","L","L","L","L","L","L","L","L","L","L","L","L","L","L","L","L","L","L","L","L","L","L","L","L","L","L","L","L","L","L","L","L","L","L","L","L","L","L","L","L","L","L","L","L","L","L","L","L","L","L","L","L","L","L","L","L","L","L","L","L","L","L","L","L","L","L","L","L","L","L","L","L","L","L","L","L","L","L","L","L","L","L","L","L","L","L","L","L","L","L","L","L","L","L","L","L","L","L","L","L","L","L","L","L","L","L","L","L","L","L","L","L","L","L","L","L","L","L","L","L","L","L","L","L","L","L","L","?","?","?","?","?","?","?","M","M","M","M","M","M","M","M","M","M","M","M","M","M","M","M","M","?","?","?","?","N","N","N","N","N","N","N","N","N","N","N","N","N","N","N","N","N","N","N","N","N","N","N","N","N","N","N","N","N","N","N","N","N","N","N","N","N","N","N","N","N","N","N","N","N","N","N","N","N","N","N","N","N","N","N","N","N","N","N","N","N","N","N","N","N","N","N","N","N","N","N","N","N","N","N","N","N","N","N","N","N","N","N","N","N","N","N","N","N","N","N","N","N","N","N","N","N","N","N","N","N","N","N","N","N","N","N","N","N","N","N","N","N","N","N","N","N","N","N","N","N","N","N","N","N","N","N","N","N","N","N","N","N","N","N","?","O","P","?","Q","R","R","R","R","R","R","R","R","R","R","R","R","R","R","R","R","R","R","R","R","R","R","R","R","R","R","R","R","R","R","R","R","R","R","R","R","?","?","?","?","?","?","?","?","X","X","X","X","X","X","X","X","X","X","X","X","X","X","X","X","X","X","X","X","X","X","X","X","X","X","X","X","X","X","X","X","X","X","X","X","X","X","X","X","X","X","X","X","X","X","X","X","X","?","W","W","W","W","W","W","?","?","?","?","?","?","?","?","?","?","?","?","?","?","?","?","?","?","?","V","V","V","V","V","V","V","V","V","V","V","V","V","V","V","V","V","V","V","V","V","V","V","V","V","V","V","V","V","V","V","M","M","?","?","?","?","?","?","?","?","?","?","?","?","?","?","?","?","?","?","?","C","C","C","C","C","C","C","C","C","C","C","C","C","C","C","C","C","C","C","C","C","C","C","C","C","C","C","C","C","C","C","C","C","C","C","C","C","C","C","C","C","C","C","C","C","C","C","C","C","C","C","C","C","C","C","C","C","C","C","C","C","C","C","C","C","C","C","C","C","C","C","C","C","C","C","C","C","C","C","C","C","C","C","C","C","C","C","C","C","C","C","C","C","C","C","C","C","C","C","C","C","C","C","C","C","C","C","C","C","C","C","C","C","C","C","C","C","C","C","C","C","C","C","C","C","C","C","C","C","C","C","C","C","C","C","C","C","C","C","C","C","C","C","C","C","C","C","?","D","D","D","D","D","D","D","D","D","D","D","D","D","D","D","D","D","D","D","D","D","D","D","D","D","D","D","D","D","D","D","D","D","D","D","D","D","D","D","D","D","D","D","D","D","D","D","D","D","D","D","D","D","D","D","D","D","D","D","D","D","D","D","D","D","D","D","D","D","D","D","D","D","D","D","D","D","D","D","D","D","D","D","D","D","D","D","D","D","D","D","?","C","C","C","C","C","C","C","C","C","C","C","C","?","?","?","?","?","?","?","?","?","?","?","B","B","B","B","B","B","B","B","B","B","B","B","B","B","B","B","B","B","B","B","B","B","B","B","B","B","B","B","B","B","B","B","B","B","?","?","?","K","K","K","K","K","K","K","K","K","K","K","K","K","K","K","K","K","?","?","?","?","?","S","S","S","S","S","S","?","?","?","?","?","?","?","?","?","?","?","?","?","?","?","?","?","?","?","?","?","?","?","?","?","?","?","?","?","?","S","S","S","S","S","S","S","S","S","S","S","S","S","S","S","S","S","S","S","S","S","S","S","S","S","S","S","S","S","S","S","S","S","S","S","S","S","S","S","S","S","S","S","S","S","S","S","S","S","S","S","S","?","?","T","T","T","T","T","T","T","T","T","T","T","T","T","T","T","T","T","T","T","T","T","T","T","T","T","T","T","T","T","T","T","T","T","T","T","T","T","T","T","T","T","T","T","T","T","T","T","T","T","T","T","T","T","T","T","T","T","T","T","T","T","T","T","T","T","T","T","T","T","T","T","T","T","T","T","T","T","T","T","T","T","T","T","T","T","T","T","T","T","T","T","T","T","T","T","T","T","T","T","T","T","T","T","T","T","T","T","T","T","T","T","T","T","T","T","T","T","T","T","T","T","T","T","T","T","T","T","T","T","T","R","R","?","?","?","?","?","?","?","?","?","?","?","?","?","?","?","?","?","?","?","?","R","R","R","R","R","R","R","R","R","R","R","R","R","R","R","R","R","R","R","R","R","R","R","R","R","R","R","R","R","R","R","R","R","R","R","R","R","R","R","R","R","R","R","R","R","R","R","R","R","R","R","R","R","R","R","R","R","R","R","R","R","R","R","R","R","R","R","R","R","R","R","?","?","Q","Q","Q","Q","Q","Q","Q","Q","?","?","?","?","?","?","?","?","?","?","?","?","?","?","?","?","?","?","?","?","?","?","?","?","?","?","?","?","?","?","?","?","?","?","?","?","?","?","?","?","?","?","?","?","?","?","?","?","?","?","?","?","?","?","?","?","?","?","?","?","?","?","?","?","?","?","?","?","?","?","?","?","?","?","?","?","?","?","?","?","?","?","?","?","?","?","?","?","?","?","?","?","?","?","?","?","?","?","?","?","?","?","?","?","?","?","?","?","?","?","?","?","?","?","?","?","?","?","?","?","?","?","?","?","?","?","?","?","?","?","?","?","?","?","?","?","?","?","?","?","?","?","?","?","?","?","?","?","?","?","?","?","?","?","?","?","?","?","?","?","?","?","?","?","?","?","?","?","?","?","?","?","?","?","?","?","?","?","?","?","?","?","?","?","?","?","?","?","?","?","?","?","?","?","?","?","?","?","?","?","?","?","?","?","?","?","?","?","?","?","?","?","?","?","?","?","?","?","?","?","?","?","?","?","?","?","?","?","?","?","?","?","?","?","?","?","?","?","?","?","?","?","?","?","?","?","?","?","?","?","?","?","?","?","?","?","?","?","?","?","?","?","?","?","?","?","?","?","?","?","?","?","?","?","?","?","?","?","?","?","?","?","?","?","?","?","?","?","P","P","?","?","?","?","?","?","?","?","?","?","?","?","?","?","?","?","?","?","?","?","?","?","?","P","P","P","P","P","P","P","P","P","P","P","P","P","P","P","P","P","P","P","P","P","P","P","P","P","P","P","P","P","P","P","P","P","P","P","P","P","P","P","P","P","P","P","P","P","P","P","P","P","P","P","P","P","P","P","P","P","P","P","P","P","P","P","P","P","P","P","P","P","P","P","P","P","P","P","P","P","P","P","P","P","P","P","P","P","P","P","P","P","P","P","P","P","P","P","P","P","P","P","P","P","P","P","P","P","P","P","P","P","P","P","P","P","P","P","P","P","P","P","P","P","P","P","P","P","P","P","P","P","P","P","P","P","P","P","P","P","P","P","P","P","P","P","P","P","P","P","P","P","P","P","P","P","?","?","?","?","?","?","?","Y","Y","Y","Y","Y","Y","Y","Y","Y","Y","Y","Y","Y","Y","Y","Y","Y","Y","Y","Y","Y","Y","Y","Y","Y","Y","Y","Y","Y","Y","Y","Y","Y","Y","Y","Y","Y","Y","Y","Y","Y","Y","Y","Y","?","?","X","X","X","X","X","X","X","X","X","X","X","X","X","X","X","X","X","X","X","X","X","X","X","X","X","X","X","X","X","X","X","X","X","X","X","X","X","X","X","X","X","X","X","X","X","X","X","X","X","X","X","X","X","X","X","X","X","X","X","X","X","X","X","X","X","X","X","X","X","X","X","X","X","X","X","X","X","X","X","X","X","X","X","X","X","X","X","X","X","X","X","X","X","X","X","X","X","X","X","X","X","X","X","X","X","X","X","X","X","X","X","X","X","X","X","X","X","X","X","X","X","X","?","W","W","W","?","V","V","V","V","V","V","V","V","V","V","V","V","V","V","V","V","V","V","V","V","?","U","U","U","U","U","U","U","U","U","U","U","U","U","U","V","V","W","?","Y","Y","Y","Z","Z","Z","Z","Z","Z","Z","Z","Z","Z","Z","Z","Z","Z","Z","Z","Z","Z","Z","Z","Z","Z","Z","Z","Z","Z","Z","Z","Z","Z","Z","Z","Z","Z","Z","Z","Z","Z","Z","Z","Z","Z","Z","Z","Z","Z","Z","Z","Z","Z","Z","Z","Z","Z","Z","Z","Z","Z","Y","?","?","?","L","K","K","?","?","?","?","?","?","?","?","?","?","?","?","?","?","?","?","?","?","?","?","?","?","?","?","?","?","?","?","?","?","?","?","?","?","?","?","?","?","?","?","?","?","B","B","B","B","B","B","B","B","B","B","B","B","B","B","B","B","B","B","B","B","B","B","B","B","B","B","B","B","B","B","B","B","B","B","B","B","B","B","B","B","B","B","B","B","B","B","B","B","B","B","B","B","B","B","B","?","?","L","?","V","V","V","V","V","V","V","V","V","V","V","V","V","V","V","V","V","V","V","V","V","V","V","V","V","V","V","V","V","V","V","V","V","V","V","V","V","V","V","V","V","V","V","V","V","V","V","V","V","V","V","V","V","V","V","V","V","V","V","V","V","V","V","V","V","V","V","?","?","?","?","?","?","?","?","?","?","?","?","?","?","?","?","?","?","?","?","?","?","?","?","?","?","?","?","?","?","?"],"t":[46,51,65,81,98,114,143,148,167,183,199,215,231,248,265,281,298,315,331,348,364,381,398,415,432,448,464,481,498,514,530,547,563,581,597,614,630,647,664,680,697,714,730,748,764,780,797,814,830,847,864,881,897,914,930,947,964,980,997,1014,1030,1047,1064,1080,1097,1114,1132,1148,1164,1180,1197,1214,1230,1247,1264,1280,1297,1314,1331,1348,1364,1381,1398,1414,1432,1447,1464,1480,1497,1513,1531,1548,1564,1581,1597,1614,1631,1647,1663,1681,1697,1714,1730,1747,1764,1780,1797,1814,1831,1847,1864,1881,1897,1914,1931,1947,1964,1980,1997,2014,2030,2047,2064,2080,2097,2114,2130,2148,2164,2181,2197,2215,2231,2247,2264,2281,2298,2313,2331,2347,2364,2380,2397,2415,2431,2447,2464,2480,2497,2514,2531,2547,2564,2581,2597,2614,2630,2647,2664,2680,2697,2714,2731,2747,2764,2780,2797,2814,2830,2847,2864,2880,2898,2914,2930,2948,2964,2981,2997,3014,3030,3047,3064,3080,3097,3114,3131,3147,3164,3180,3197,3214,3230,3247,3264,3281,3297,3314,3330,3347,3364,3380,3397,3414,3430,3447,3464,3481,3497,3514,3530,3547,3564,3581,3597,3614,3631,3647,3664,3681,3697,3714,3730,3748,3764,3781,3798,3814,3830,3847,3864,3881,3897,3914,3931,3947,3964,3981,3997,4014,4031,4047,4064,4081,4097,4115,4130,4147,4164,4181,4197,4214,4230,4247,4264,4281,4297,4314,4331,4347,4364,4381,4398,4415,4432,4447,4464,4480,4497,4514,4531,4547,4564,4581,4597,4614,4630,4648,4664,4680,4697,4714,4730,4747,4764,4780,4798,4814,4831,4847,4864,4880,4897,4914,4930,4947,4964,4980,4997,5014,5031,5047,5064,5081,5097,5115,5131,5149,5164,5180,5198,5214,5231,5247,5264,5281,5297,5314,5330,5347,5364,5381,5397,5414,5431,5449,5464,5481,5497,5514,5531,5547,5564,5581,5597,5614,5631,5648,5664,5680,5698,5714,5730,5748,5764,5781,5797,5814,5831,5847,5865,5882,5897,5914,5931,5947,5964,5981,5997,6015,6031,6047,6064,6081,6097,6114,6131,6148,6164,6181,6198,6214,6232,6247,6264,6282,6297,6314,6331,6347,6364,6381,6397,6415,6431,6447,6464,6481,6497,6514,6531,6547,6564,6581,6598,6614,6630,6648,6664,6681,6698,6714,6731,6748,6764,6781,6797,6815,6832,6849,6865,6883,6898,6915,6932,6949,6965,6981,6998,7015,7031,7048,7065,7082,7098,7114,7131,7147,7165,7181,7198,7215,7231,7247,7264,7281,7298,7314,7331,7348,7364,7381,7398,7415,7433,7448,7465,7482,7498,7515,7532,7548,7566,7581,7598,7615,7632,7648,7664,7682,7697,7714,7731,7748,7765,7781,7798,7815,7831,7848,7865,7881,7898,7914,7931,7948,7964,7981,7998,8015,8031,8048,8065,8081,8098,8114,8131,8150,8165,8182,8199,8215,8232,8249,8266,8283,8298,8315,8332,8350,8365,8383,8399,8417,8432,8448,8466,8482,8499,8515,8532,8549,8566,8583,8599,8615,8632,8648,8666,8681,8699,8716,8732,8748,8765,8782,8798,8815,8832,8848,8865,8881,8898,8915,8932,8949,8965,8981,8998,9015,9031,9048,9065,9082,9098,9115,9132,9148,9166,9181,9198,9215,9231,9249,9265,9281,9298,9314,9332,9348,9365,9381,9398,9415,9431,9448,9466,9482,9498,9515,9531,9549,9565,9581,9598,9615,9632,9648,9665,9682,9698,9715,9732,9749,9765,9781,9799,9815,9831,9848,9865,9882,9899,9915,9931,9948,9965,9982,9998,10015,10031,10048,10065,10082,10098,10116,10131,10148,10166,10181,10198,10215,10232,10248,10265,10282,10298,10315,10332,10349,10365,10383,10398,10415,10433,10448,10465,10482,10498,10516,10531,10548,10565,10581,10599,10615,10631,10649,10665,10682,10698,10715,10731,10748,10765,10782,10798,10815,10832,10848,10866,10882,10899,10916,10932,10949,10965,10982,11000,11016,11032,11049,11066,11081,11098,11115,11131,11149,11165,11182,11198,11216,11232,11249,11265,11282,11298,11315,11332,11349,11366,11383,11399,11416,11432,11449,11466,11482,11499,11516,11532,11550,11565,11582,11600,11616,11633,11649,11666,11683,11699,11716,11732,11749,11765,11782,11799,11816,11832,11848,11865,11883,11898,11915,11932,11948,11965,11982,11998,12015,12031,12048,12065,12082,12098,12115,12132,12150,12165,12182,12198,12215,12232,12248,12265,12282,12298,12315,12332,12348,12365,12382,12398,12416,12432,12449,12465,12482,12499,12515,12532,12549,12565,12582,12598,12615,12632,12649,12666,12682,12698,12716,12732,12748,12766,12782,12798,12816,12832,12848,12865,12882,12899,12915,12932,12949,12965,12983,12998,13015,13032,13048,13065,13082,13098,13116,13132,13148,13166,13182,13198,13216,13232,13248,13265,13282,13299,13315,13332,13349,13365,13382,13399,13415,13432,13449,13465,13482,13499,13515,13532,13548,13565,13582,13599,13616,13633,13648,13665,13682,13699,13715,13732,13749,13765,13782,13799,13815,13832,13849,13866,13882,13899,13915,13932,13949,13965,13982,13999,14015,14032,14049,14065,14082,14099,14115,14133,14149,14165,14182,14198,14215,14232,14248,14265,14282,14298,14315,14332,14348,14366,14382,14398,14416,14432,14448,14465,14482,14499,14515,14532,14549,14565,14582,14599,14615,14632,14649,14665,14682,14699,14715,14732,14749,14766,14782,14799,14816,14832,14849,14865,14882,14899,14915,14932,14950,14966,14982,14999,15015,15032,15049,15065,15083,15099,15116,15132,15149,15165,15183,15199,15216,15232,15249,15266,15282,15299,15316,15332,15349,15366,15382,15399,15416,15432,15450,15465,15482,15499,15515,15532,15549,15565,15582,15599,15616,15633,15649,15665,15683,15699,15717,15733,15749,15765,15783,15799,15816,15833,15849,15866,15882,15899,15916,15932,15949,15965,15982,15999,16016,16032,16049,16065,16083,16099,16115,16133,16150,16166,16183,16200,16217,16233,16249,16266,16283,16299,16316,16333,16349,16366,16382,16399,16416,16432,16449,16465,16482,16500,16516,16532,16549,16566,16582,16599,16616,16632,16649,16666,16683,16699,16717,16732,16749,16766,16782,16799,16816,16832,16849,16866,16883,16899,16916,16932,16949,16966,16982,16999,17016,17032,17049,17066,17083,17099,17115,17133,17149,17167,17182,17199,17217,17232,17249,17266,17283,17299,17316,17332,17349,17366,17382,17399,17416,17432,17449,17466,17482,17499,17516,17533,17549,17566,17583,17599,17616,17633,17649,17666,17683,17699,17717,17733,17749,17766,17783,17799,17816,17833,17850,17866,17883,17899,17916,17933,17949,17966,17982,17999,18016,18032,18049,18066,18083,18099,18117,18133,18150,18166,18182,18200,18217,18233,18250,18265,18283,18301,18316,18333,18349,18366,18382,18399,18416,18432,18449,18466,18483,18499,18516,18532,18550,18566,18584,18600,18617,18633,18649,18666,18682,18699,18716,18733,18750,18766,18783,18800,18816,18833,18850,18866,18883,18899,18916,18933,18949,18966,18983,18999,19016,19033,19049,19066,19083,19099,19117,19133,19149,19166,19182,19199,19217,19233,19250,19266,19283,19300,19316,19333,19350,19366,19383,19400,19416,19432,19451,19467,19483,19499,19516,19532,19549,19566,19583,19599,19616,19633,19649,19666,19683,19699,19716,19733,19750,19766,19783,19800,19816,19833,19849,19867,19883,19899,19916,19933,19949,19966,19983,20000,20016,20032,20049,20066,20084,20100,20117,20133,20149,20167,20183,20200,20217,20233,20249,20266,20283,20299,20316,20333,20349,20366,20383,20399,20416,20433,20450,20466,20483,20500,20516,20533,20550,20567,20583,20600,20617,20633,20650,20666,20683,20699,20716,20733,20749,20766,20782,20799,20816,20833,20849,20866,20883,20899,20916,20933,20950,20967,20983,21000,21016,21033,21050,21067,21083,21100,21117,21133,21150,21167,21183,21200,21217,21233,21250,21266,21283,21300,21316,21333,21350,21366,21384,21400,21418,21433,21449,21466,21483,21501,21516,21533,21550,21566,21583,21599,21616,21633,21650,21667,21683,21700,21717,21733,21750,21767,21783,21800,21817,21833,21850,21867,21883,21900,21917,21934,21949,21966,21983,21999,22016,22034,22050,22067,22083,22100,22116,22133,22150,22166,22184,22200,22218,22233,22249,22267,22283,22300,22317,22333,22350,22366,22383,22400,22416,22433,22450,22466,22484,22500,22516,22533,22550,22567,22583,22600,22616,22633,22650,22666,22684,22700,22716,22733,22750,22766,22783,22801,22817,22833,22850,22866,22884,22900,22916,22934,22950,22967,22983,23000,23017,23033,23051,23066,23083,23100,23116,23134,23150,23167,23184,23200,23217,23234,23250,23266,23284,23300,23317,23333,23350,23368,23383,23400,23417,23433,23450,23466,23483,23500,23516,23533,23550,23566,23583,23600,23616,23634,23650,23666,23684,23700,23717,23733,23750,23767,23783,23800,23817,23833,23851,23867,23883,23900,23916,23933,23950,23967,23983,24000,24016,24033,24050,24067,24084,24100,24116,24133,24150,24167,24183,24200,24218,24234,24250,24267,24283,24300,24317,24334,24350,24367,24384,24400,24417,24433,24450,24467,24484,24500,24517,24534,24550,24567,24584,24600,24618,24633,24650,24667,24683,24700,24717,24733,24750,24767,24783,24800,24817,24833,24850,24867,24883,24900,24917,24933,24951,24967,24983,25000,25017,25034,25050,25067,25084,25100,25117,25134,25150,25167,25183,25200,25217,25233,25250,25267,25283,25300,25317,25333,25351,25367,25384,25400,25417,25434,25450,25467,25484,25500,25517,25534,25550,25567,25584,25600,25618,25634,25651,25667,25683,25700,25717,25734,25750,25767,25784,25800,25817,25834,25850,25867,25884,25900,25917,25933,25950,25967,25983,26001,26017,26034,26050,26067,26084,26100,26118,26134,26151,26167,26184,26201,26217,26234,26250,26267,26284,26301,26317,26334,26351,26368,26384,26400,26417,26434,26450,26468,26484,26500,26517,26534,26551,26567,26584,26600,26617,26634,26650,26667,26685,26700,26717,26734,26750,26767,26784,26800,26817,26834,26851,26867,26885,26901,26917,26934,26950,26967,26985,27001,27017,27034,27050,27067,27084,27100,27118,27134,27150,27167,27184,27200,27218,27234,27250,27267,27284,27300,27317,27334,27351,27367,27385,27400,27417,27434,27452,27467,27484,27501,27517,27534,27551,27567,27584,27601,27617,27634,27650,27667,27684,27700,27717,27734,27751,27767,27784,27801,27817,27834,27851,27868,27884,27901,27917,27934,27951,27967,27984,28000,28017,28034,28051,28067,28085,28101,28117,28134,28150,28167,28184,28200,28218,28234,28250,28267,28284,28300,28318,28334,28350,28368,28385,28401,28417,28434,28451,28467,28484,28501,28517,28534,28551,28567,28585,28601,28617,28634,28650,28667,28684,28701,28717,28734,28751,28768,28784,28800,28817,28834,28850,28868,28884,28900,28917,28934,28951,28968,28984,29000,29017,29034,29051,29067,29084,29101,29117,29134,29151,29167,29184,29201,29219,29234,29251,29268,29284,29301,29317,29334,29351,29367,29384,29401,29417,29434,29451,29467,29485,29501,29517,29534,29551,29567,29584,29600,29618,29634,29651,29667,29684,29700,29718,29734,29750,29768,29785,29801,29817,29834,29852,29868,29885,29901,29917,29935,29951,29967,29984,30001,30018,30034,30051,30067,30084,30101,30118,30135,30151,30167,30184,30201,30218,30234,30251,30267,30284,30301,30318,30334,30351,30368,30384,30401,30418,30434,30451,30467,30484,30501,30517,30535,30551,30567,30584,30601,30618,30634,30651,30668,30685,30701,30718,30734,30751,30768,30785,30801,30818,30835,30851,30867,30885,30901,30917,30934,30951,30968,30985,31001,31018,31034,31051,31068,31084,31101,31118,31134,31151,31169,31184,31201,31218,31235,31251,31268,31284,31301,31318,31334,31351,31367,31385,31401,31419,31435,31451,31468,31485,31501,31518,31535,31552,31568,31585,31602,31619,31635,31652,31668,31685,31701,31718,31735,31752,31768,31785,31802,31819,31835,31851,31869,31885,31901,31918,31935,31951,31967,31985,32001,32018,32035,32051,32068,32085,32101,32118,32135,32151,32168,32184,32201,32218,32235,32251,32268,32285,32302,32318,32336,32351,32368,32385,32401,32418,32435,32451,32468,32485,32501,32518,32535,32551,32568,32584,32601,32618,32635,32651,32669,32685,32701,32718,32734,32751,32768,32785,32801,32818,32835,32851,32868,32885,32901,32918,32934,32951,32968,32985,33001,33018,33034,33051,33068,33085,33101,33119,33134,33151,33169,33184,33201,33219,33235,33251,33268,33285,33301,33318,33334,33352,33368,33384,33401,33418,33435,33451,33468,33485,33501,33518,33535,33551,33568,33584,33601,33618,33635,33651,33668,33685,33702,33718,33735,33751,33768,33785,33801,33818,33836,33851,33868,33885,33902,33918,33934,33951,33968,33985,34002,34019,34035,34052,34068,34085,34101,34119,34135,34152,34168,34185,34201,34219,34234,34251,34268,34285,34301,34318,34336,34351,34368,34385,34401,34418,34435,34451,34468,34485,34501,34518,34535,34551,34569,34585,34601,34619,34634,34651,34668,34685,34701,34718,34735,34752,34768,34785,34802,34818,34835,34851,34868,34885,34902,34918,34935,34952,34968,34985,35001,35018,35035,35051,35069,35085,35101,35119,35135,35151,35169,35185,35202,35219,35235,35251,35269,35286,35303,35318,35335,35352,35368,35385,35402,35418,35435,35452,35468,35485,35501,35518,35535,35552,35568,35585,35602,35619,35635,35651,35668,35685,35701,35718,35735,35752,35768,35785,35802,35818,35835,35852,35868,35885,35902,35918,35935,35952,35968,35985,36002,36018,36035,36052,36068,36085,36102,36118,36135,36152,36168,36185,36202,36219,36235,36252,36268,36285,36302,36318,36335,36352,36369,36385,36401,36418,36435,36452,36469,36485,36502,36518,36535,36552,36568,36586,36602,36618,36635,36652,36668,36686,36702,36719,36735,36752,36768,36785,36802,36818,36836,36852,36868,36885,36902,36918,36935,36952,36968,36985,37003,37018,37035,37052,37068,37086,37102,37119,37135,37152,37168,37185,37203,37219,37235,37252,37268,37285,37302,37319,37335,37352,37368,37385,37402,37418,37435,37452,37468,37485,37502,37518,37535,37552,37569,37585,37602,37619,37636,37652,37669,37685,37702,37718,37735,37752,37769,37785,37802,37819,37835,37852,37868,37885,37902,37918,37935,37952,37969,37985,38002,38018,38035,38052,38069,38087,38102,38120,38135,38152,38169,38186,38202,38220,38235,38252,38269,38286,38302,38319,38335,38353,38369,38385,38402,38419,38435,38452,38469,38485,38502,38518,38535,38552,38568,38586,38602,38618,38635,38652,38669,38685,38702,38720,38735,38752,38769,38785,38803,38819,38835,38853,38869,38885,38902,38919,38936,38952,38969,38986,39002,39019,39035,39052,39069,39086,39102,39121,39136,39152,39169,39186,39203,39220,39236,39253,39269,39286,39302,39319,39336,39352,39369,39386,39402,39419,39436,39452,39469,39487,39502,39519,39535,39552,39570,39586,39602,39619,39635,39652,39669,39685,39702,39719,39735,39752,39769,39785,39803,39819,39835,39853,39869,39886,39902,39919,39935,39953,39969,39985,40002,40019,40035,40052,40069,40086,40102,40120,40135,40152,40170,40186,40202,40220,40236,40252,40269,40286,40302,40319,40335,40352,40369,40385,40402,40419,40435,40452,40469,40486,40502,40519,40536,40552,40569,40586,40602,40619,40636,40652,40669,40686,40703,40719,40736,40752,40769,40787,40803,40819,40837,40853,40870,40887,40903,40920,40936,40953,40970,40985,41002,41019,41036,41052,41069,41085,41103,41119,41136,41152,41169,41186,41202,41220,41236,41253,41269,41286,41303,41321,41338,41353,41370,41386,41403,41419,41437,41453,41470,41486,41503,41519,41536,41553,41570,41587,41603,41620,41637,41653,41670,41687,41703,41721,41736,41752,41770,41786,41803,41820,41836,41853,41869,41886,41903,41919,41936,41953,41969,41986,42003,42019,42036,42052,42070,42086,42103,42120,42136,42152,42169,42187,42202,42219,42364,42390,42403,42420,42436,42452,42469,42486,42503,42519,42536,42553,42569,42586,42603,42619,42636,42653,42670,42686,42702,42720,42735,42752,42769,42786,42803,42819,42837,42853,42869,42886,42902,42919,42937,42953,42969,42986,43002,43019,43036,43052,43069,43086,43103,43120,43136,43152,43169,43186,43202,43220,43236,43253,43269,43286,43303,43319,43336,43353,43369,43386,43402,43420,43436,43453,43469,43486,43503,43519,43536,43553,43569,43586,43603,43619,43636,43653,43669,43686,43702,43719,43737,43753,43769,43786,43803,43820,43836,43853,43870,43886,43903,43920,43936,43953,43970,43986,44003,44020,44037,44053,44070,44086,44103,44120,44136,44153,44169,44186,44202,44220,44236,44253,44269,44286,44303,44320,44337,44353,44370,44386,44403,44420,44436,44453,44469,44486,44503,44520,44537,44553,44570,44587,44603,44620,44637,44653,44670,44687,44703,44720,44736,44753,44770,44786,44803,44820,44836,44853,44870,44886,44903,44919,44937,44954,44970,44986,45003,45019,45036,45053,45070,45086,45103,45120,45136,45152,45169,45186,45204,45220,45236,45253,45269,45286,45303,45319,45336,45353,45370,45387,45403,45420,45437,45453,45469,45487,45503,45520,45537,45553,45571,45588,45603,45620,45637,45654,45670,45687,45704,45720,45736,45753,45770,45787,45803,45820,45837,45853,45870,45887,45903,45920,45937,45954,45971,45987,46004,46020,46037,46053,46070,46087,46103,46119,46136,46153,46169,46186,46203,46220,46237,46254,46269,46287,46304,46320,46337,46353,46371,46386,46404,46421,46436,46453,46470,46487,46503,46520,46537,46553,46570,46588,46603,46619,46636,46653,46669,46687,46703,46720,46736,46753,46770,46786,46803,46821,46836,46853,46870,46886,46903,46919,46936,46953,46970,46987,47003,47021,47036,47054,47070,47087,47103,47120,47136,47154,47169,47186,47203,47220,47236,47253,47270,47287,47303,47320,47337,47353,47370,47387,47403,47420,47436,47453,47470,47486,47503,47520,47536,47554,47570,47587,47603,47620,47637,47653,47670,47686,47703,47720,47736,47753,47770,47786,47804,47820,47836,47853,47870,47887,47903,47920,47936,47953,47971,47986,48003,48020,48036,48053,48070,48087,48103,48120,48137,48153,48170,48186,48203,48220,48236,48254,48270,48287,48303,48320,48338,48353,48371,48387,48403,48422,48437,48454,48470,48486,48503,48520,48537,48554,48570,48587,48603,48619,48637,48653,48670,48687,48703,48720,48737,48753,48770,48787,48804,48821,48837,48854,48871,48887,48904,48920,48937,48954,48971,48987,49003,49020,49037,49054,49070,49088,49104,49120,49136,49153,49170,49186,49203,49221,49237,49253,49270,49287,49304,49320,49337,49354,49370,49387,49403,49420,49437,49453,49471,49487,49503,49520,49538,49554,49571,49587,49604,49620,49637,49654,49672,49687,49704,49720,49737,49754,49770,49787,49805,49821,49839,49854,49870,49887,49904,49920,49937,49954,49970,49986,50003,50020,50037,50053,50071,50087,50103,50121,50137,50154,50170,50186,50204,50221,50237,50254,50270,50287,50303,50321,50337,50353,50370,50387,50404,50421,50437,50454,50470,50487,50504,50520,50537,50554,50571,50587,50603,50620,50637,50654,50670,50687,50703,50720,50737,50755,50770,50787,50804,50821,50838,50853,50870,50887,50903,50920,50937,50953,50970,50987,51003,51020,51037,51054,51070,51087,51104,51120,51137,51154,51170,51187,51203,51221,51237,51254,51270,51287,51304,51320,51337,51354,51371,51387,51404,51420,51437,51454,51470,51487,51504,51520,51537,51554,51570,51587,51604,51620,51638,51654,51670,51687,51703,51721,51737,51753,51771,51787,51804,51820,51837,51854,51870,51888,51904,51920,51937,51954,51970,51987,52004,52021,52037,52055,52070,52087,52104,52120,52137,52154,52170,52187,52204,52221,52237,52254,52270,52287,52304,52320,52337,52354,52370,52387,52403,52420,52437,52454,52470,52487,52504,52521,52537,52554,52570,52587,52604,52620,52637,52655,52670,52687,52704,52720,52737,52754,52770,52788,52804,52821,52838,52853,52870,52887,52904,52920,52937,52954,52971,52987,53004,53021,53037,53054,53070,53087,53104,53120,53138,53154,53170,53188,53204,53221,53237,53254,53271,53287,53305,53321,53338,53354,53370,53387,53404,53420,53437,53454,53471,53487,53504,53521,53538,53554,53571,53587,53605,53621,53637,53654,53671,53687,53704,53721,53737,53754,53771,53787,53804,53820,53837,53854,53870,53888,53904,53921,53937,53954,53971,53987,54004,54021,54038,54054,54071,54087,54104,54121,54139,54154,54171,54188,54205,54221,54237,54254,54271,54287,54304,54320,54337,54354,54370,54387,54404,54420,54437,54454,54471,54487,54504,54521,54537,54554,54571,54587,54604,54621,54637,54654,54671,54688,54704,54720,54737,54754,54770,54788,54804,54821,54838,54854,54871,54887,54904,54921,54938,54956,54971,54987,55004,55021,55037,55054,55071,55087,55104,55121,55138,55154,55171,55188,55204,55222,55237,55254,55271,55287,55304,55321,55337,55354,55371,55387,55404,55421,55438,55454,55471,55488,55504,55521,55537,55554,55571,55588,55604,55621,55638,55654,55671,55687,55704,55721,55737,55754,55771,55787,55804,55821,55837,55854,55871,55888,55904,55921,55938,55954,55971,55988,56004,56021,56038,56054,56070,56088,56104,56121,56138,56154,56171,56188,56204,56221,56238,56254,56271,56288,56304,56321,56337,56354,56371,56387,56404,56421,56437,56454,56471,56488,56504,56521,56538,56555,56571,56588,56604,56621,56638,56654,56671,56687,56704,56721,56738,56754,56771,56787,56804,56821,56838,56854,56871,56888,56904,56921,56937,56954,56971,56988,57004,57021,57038,57055,57071,57089,57105,57121,57138,57155,57171,57188,57204,57222,57238,57254,57271,57288,57305,57321,57338,57355,57371,57388,57404,57421,57438,57454,57472,57487,57504,57521,57538,57554,57571,57587,57604,57622,57638,57655,57672,57688,57704,57722,57738,57754,57771,57788,57805,57822,57838,57855,57872,57888,57905,57921,57938,57955,57972,57988,58005,58021,58038,58055,58071,58088,58105,58122,58139,58155,58172,58188,58205,58223,58239,58255,58272,58289,58306,58322,58339,58355,58372,58389,58405,58422,58439,58455,58472,58489,58505,58521,58538,58555,58572,58588,58605,58622,58638,58655,58671,58688,58704,58721,58738,58755,58771,58789,58805,58821,58838,58855,58871,58888,58905,58921,58938,58955,58972,58988,59005,59021,59038,59055,59071,59088,59105,59121,59138,59155,59171,59188,59204,59222,59238,59255,59272,59288,59305,59321,59338,59355,59371,59388,59405,59421,59439,59454,59471,59488,59505,59521,59538,59555,59571,59588,59605,59621,59638,59654,59672,59688,59705,59721,59739,59755,59772,59788,59805,59822,59838,59855,59872,59888,59905,59922,59938,59955,59971,59988,60005,60021,60039,60055,60071,60089,60105,60122,60138,60155,60172,60188,60205,60222,60238,60255,60271,60289,60305,60321,60338,60354,60372,60388,60405,60422,60438,60455,60471,60488,60505,60522,60538,60555,60572,60588,60605,60622,60638,60655,60672,60689,60705,60722,60739,60755,60772,60789,60806,60822,60839,60855,60872,60888,60904,60922,60938,60955,60972,60988,61005,61022,61039,61055,61072,61089,61105,61123,61139,61155,61172,61189,61205,61222,61239,61255,61272,61289,61305,61322,61339,61355,61372,61389,61405,61422,61439,61455,61472,61489,61505,61522,61539,61555,61572,61589,61605,61623,61638,61655,61672,61688,61705,61722,61738,61756,61772,61788,61805,61822,61838,61855,61872,61888,61905,61922,61938,61955,61972,61988,62005,62022,62039,62055,62072,62089,62105,62122,62138,62155,62172,62188,62205,62223,62239,62256,62272,62289,62306,62322,62339,62355,62373,62391,62406,62422,62439,62456,62472,62489,62505,62522,62539,62555,62572,62589,62605,62623,62639,62655,62672,62689,62706,62722,62739,62755,62772,62789,62805,62822,62839,62855,62872,62888,62905,62922,62938,62955,62972,62988,63005,63022,63040,63055,63072,63089,63105,63125,63140,63155,63172,63189,63205,63223,63239,63256,63273,63290,63305,63322,63340,63356,63372,63389,63405,63422,63439,63455,63472,63489,63505,63522,63539,63556,63572,63589,63606,63622,63640,63655,63672,63690,63705,63722,63739,63755,63772,63789,63805,63822,63839,63855,63872,63889,63905,63922,63939,63955,63972,63989,64005,64022,64039,64055,64072,64089,64105,64122,64139,64155,64172,64189,64206,64223,64239,64256,64272,64289,64306,64322,64338,64355,64372,64389,64405,64422,64439,64455,64472,64489,64505,64522,64540,64555,64572,64589,64605,64622,64639,64655,64672,64689,64705,64722,64739,64755,64772,64789,64806,64822,64839,64855,64872,64889,64906,64922,64939,64955,64972,64989,65005,65022,65040,65056,65072,65089,65105,65122,65139,65156,65172,65188,65206,65223,65239,65255,65272,65289,65306,65322,65339,65356,65372,65389,65405,65423,65439,65455,65473,65489,65506,65522,65539,65556,65572,65589,65606,65622,65640,65656,65673,65689,65705,65722,65739,65757,65772,65789,65806,65822,65840,65856,65872,65889,65905,65923,65939,65955,65972,65989,66006,66023,66039,66056,66073,66089,66106,66123,66139,66156,66172,66189,66206,66223,66239,66256,66272,66289,66306,66322,66339,66356,66372,66389,66406,66422,66439,66456,66472,66489,66506,66522,66539,66556,66573,66589,66606,66622,66639,66656,66672,66689,66706,66722,66739,66756,66772,66790,66806,66822,66840,66856,66872,66889,66906,66924,66939,66956,66973,66989,67006,67023,67039,67056,67073,67089,67106,67124,67139,67156,67173,67189,67206,67223,67239,67256,67273,67289,67306,67323,67339,67356,67372,67389,67406,67422,67439,67456,67472,67489,67506,67522,67540,67556,67572,67590,67606,67623,67639,67657,67673,67690,67706,67723,67740,67756,67773,67790,67806,67823,67839,67856,67872,67890,67906,67922,67939,67956,67973,67990,68007,68024,68039,68056,68073,68091,68106,68123,68140,68156,68173,68190,68206,68223,68239,68256,68273,68290,68306,68322,68339,68356,68373,68389,68406,68423,68439,68456,68473,68489,68506,68523,68539,68556,68573,68590,68606,68623,68640,68656,68673,68690,68706,68723,68740,68758,68773,68789,68806,68823,68840,68856,68873,68890,68906,68923,68940,68957,68973,68990,69007,69023,69040,69056,69073,69090,69106,69123,69139,69156,69173,69189,69207,69223,69239,69256,69273,69289,69306,69323,69339,69356,69373,69389,69406,69423,69439,69456,69473,69490,69506,69522,69539,69556,69572,69591,69607,69623,69639,69657,69673,69689,69706,69723,69740,69756,69774,69790,69806,69823,69839,69856,69873,69890,69906,69923,69939,69956,69973,69990,70007,70023,70040,70057,70073,70090,70106,70124,70140,70156,70173,70189,70206,70223,70240,70256,70273,70290,70306,70323,70340,70356,70373,70390,70406,70423,70440,70456,70474,70490,70507,70523,70539,70557,70573,70589,70607,70623,70639,70657,70673,70690,70706,70723,70739,70756,70773,70790,70807,70823,70840,70856,70873,70890,70906,70923,70940,70956,70973,70990,71006,71023,71040,71057,71073,71089,71106,71123,71140,71156,71173,71190,71207,71224,71240,71256,71273,71290,71306,71323,71340,71357,71373,71389,71407,71423,71439,71457,71473,71490,71506,71523,71540,71556,71573,71590,71606,71623,71640,71656,71673,71690,71706,71723,71740,71757,71773,71790,71807,71823,71840,71856,71873,71890,71906,71923,71940,71956,71973,71990,72007,72024,72040,72056,72073,72090,72106,72123,72140,72157,72173,72190,72206,72224,72240,72256,72274,72290,72306,72324,72340,72356,72373,72390,72406,72423,72440,72457,72473,72490,72507,72523,72540,72557,72573,72591,72607,72623,72640,72657,72674,72690,72707,72724,72740,72757,72773,72790,72807,72823,72841,72857,72873,72890,72906,72924,72940,72956,72973,72990,73007,73024,73041,73057,73073,73091,73106,73123,73140,73157,73173,73190,73207,73224,73240,73256,73273,73291,73306,73323,73340,73356,73374,73390,73407,73423,73440,73456,73474,73490,73507,73524,73540,73557,73573,73590,73607,73623,73640,73657,73674,73690,73707,73724,73740,73757,73773,73790,73807,73823,73841,73857,73873,73891,73907,73923,73940,73957,73974,73990,74007,74024,74040,74057,74073,74090,74107,74124,74141,74157,74174,74190,74207,74224,74240,74258,74274,74290,74307,74324,74341,74357,74374,74390,74407,74424,74440,74458,74474,74490,74507,74524,74541,74557,74574,74591,74607,74624,74640,74657,74674,74691,74707,74724,74741,74757,74774,74790,74807,74823,74840,74857,74873,74890,74907,74923,74940,74957,74973,74990,75007,75025,75040,75057,75074,75090,75107,75124,75140,75157,75174,75190,75207,75225,75240,75258,75274,75290,75307,75324,75340,75357,75374,75391,75407,75424,75440,75457,75474,75491,75507,75524,75541,75557,75574,75590,75607,75624,75640,75657,75674,75690,75707,75724,75740,75758,75774,75790,75807,75823,75840,75857,75874,75891,75907,75924,75940,75957,75974,75990,76007,76024,76041,76057,76074,76090,76107,76124,76140,76157,76174,76190,76207,76224,76241,76257,76274,76291,76307,76324,76340,76357,76374,76390,76407,76423,76441,76457,76474,76490,76507,76524,76540,76557,76574,76591,76607,76624,76641,76657,76674,76691,76707,76725,76740,76757,76775,76790,76807,76824,76840,76857,76874,76890,76907,76924,76940,76958,76974,76990,77007,77024,77040,77057,77074,77090,77107,77124,77141,77157,77174,77190,77207,77225,77241,77257,77274,77291,77307,77324,77341,77357,77374,77391,77407,77424,77440,77457,77474,77491,77507,77524,77541,77557,77574,77591,77607,77624,77640,77657,77674,77691,77707,77724,77740,77758,77774,77791,77807,77824,77841,77857,77874,77891,77907,77924,77941,77957,77975,77990,78007,78024,78041,78057,78075,78091,78107,78124,78140,78157,78174,78191,78207,78224,78241,78258,78274,78291,78307,78324,78341,78358,78374,78391,78408,78424,78441,78457,78474,78491,78507,78524,78541,78558,78574,78591,78607,78624,78641,78657,78674,78691,78708,78724,78741,78758,78774,78790,78808,78824,78841,78857,78875,78891,78907,78924,78941,78957,78974,78991,79007,79024,79041,79058,79074,79091,79107,79124,79141,79157,79174,79191,79208,79225,79241,79258,79275,79291,79307,79325,79341,79358,79374,79391,79407,79425,79441,79458,79474,79491,79508,79525,79541,79558,79574,79592,79608,79624,79643,79658,79674,79693,79708,79724,79741,79758,79775,79791,79807,79824,79841,79858,79875,79891,79907,79924,79941,79958,79974,79991,80008,80024,80041,80058,80074,80091,80108,80124,80141,80158,80174,80191,80208,80225,80241,80258,80274,80291,80308,80324,80341,80358,80375,80391,80408,80424,80441,80458,80474,80491,80508,80524,80541,80558,80574,80591,80608,80624,80641,80658,80675,80691,80708,80724,80742,80759,80775,80792,80808,80824,80842,80858,80875,80891,80908,80924,80941,80958,80974,80991,81008,81025,81041,81058,81074,81091,81108,81124,81141,81158,81174,81191,81208,81225,81242,81258,81274,81291,81308,81324,81341,81358,81375,81391,81408,81425,81441,81458,81474,81492,81508,81524,81541,81558,81574,81591,81608,81625,81641,81658,81675,81691,81708,81725,81741,81758,81775,81791,81808,81825,81841,81858,81874,81891,81908,81924,81941,81958,81975,81991,82008,82025,82041,82058,82075,82092,82109,82125,82142,82159,82175,82191,82208,82225,82241,82258,82275,82292,82308,82324,82342,82358,82374,82391,82408,82425,82442,82458,82474,82492,82508,82525,82542,82558,82574,82592,82608,82625,82642,82658,82674,82692,82708,82725,82741,82758,82774,82791,82808,82825,82841,82858,82875,82891,82908,82925,82941,82959,82975,82992,83008,83025,83042,83058,83075,83092,83108,83125,83142,83158,83175,83192,83208,83225,83242,83259,83275,83293,83308,83325,83341,83358,83374,83391,83408,83425,83441,83459,83475,83492,83509,83525,83541,83558,83575,83592,83608,83625,83641,83659,83675,83691,83708,83725,83741,83758,83775,83792,83808,83825,83842,83858,83875,83892,83908,83925,83942,83958,83975,83991,84008,84025,84042,84058,84075,84092,84108,84125,84141,84158,84175,84192,84210,84225,84241,84259,84275,84292,84308,84325,84342,84358,84375,84392,84408,84425,84442,84458,84475,84492,84508,84525,84542,84558,84575,84591,84608,84625,84641,84658,84675,84693,84708,84725,84742,84758,84775,84792,84809,84825,84842,84858,84875,84892,84908,84925,84942,84958,84975,84992,85009,85025,85042,85059,85075,85092,85109,85125,85142,85158,85175,85192,85208,85226,85242,85258,85275,85291,85308,85325,85342,85358,85375,85392,85408,85425,85442,85459,85475,85492,85510,85525,85542,85559,85575,85592,85608,85626,85642,85658,85675,85692,85709,85725,85742,85759,85775,85792,85809,85825,85843,85859,85875,85892,85908,85925,85942,85958,85976,85992,86008,86025,86042,86058,86075,86092,86109,86125,86142,86159,86175,86192,86209,86225,86243,86259,86275,86292,86309,86325,86342,86358,86375,86392,86408,86425,86442,86458,86475,86492,86508,86525,86542,86559,86575,86592,86609,86625,86642,86658,86676,86692,86709,86725,86742,86759,86775,86793,86809,86825,86842,86859,86876,86893,86909,86926,86942,86959,86976,86993,87009,87025,87043,87059,87076,87092,87108,87127,87142,87159,87176,87192,87210,87226,87242,87260,87276,87293,87309,87326,87343,87359,87375,87393,87409,87426,87442,87461,87475,87492,87509,87525,87542,87560,87575,87592,87609,87626,87643,87659,87676,87693,87710,87726,87742,87759,87775,87792,87809,87825,87842,87859,87875,87892,87909,87925,87942,87959,87975,87993,88009,88025,88042,88059,88075,88092,88109,88125,88142,88159,88176,88192,88209,88225,88245,88259,88276,88293,88309,88326,88343,88359,88376,88392,88409,88426,88442,88459,88476,88492,88510,88526,88544,88560,88576,88593,88610,88627,88643,88660,88677,88693,88709,88726,88743,88760,88776,88792,88810,88826,88842,88859,88876,88892,88909,88927,88942,88960,88977,88992,89009,89026,89042,89059,89076,89092,89109,89126,89142,89159,89176,89192,89210,89226,89243,89259,89276,89292,89309,89326,89343,89359,89376,89392,89409,89426,89442,89460,89476,89493,89510,89525,89543,89559,89575,89593,89609,89626,89643,89659,89677,89693,89710,89727,89743,89760,89776,89793,89810,89826,89843,89859,89876,89893,89909,89926,89942,89959,89976,89992,90009,90026,90046,90059,90076,90093,90109,90126,90143,90159,90176,90193,90209,90226,90244],"hit":[null],"x":[-1.6054421768707483,-1.6054421768707483,-1.6054421768707483,-1.6054421768707483,-1.6054421768707483,-1.6054421768707483,-1.6054421768707483,-1.6054421768707483,0.006802721088435374,0.061224489795918366,0.11224489795918367,0.282312925170068,0.35374149659863946,0.4489795918367347,0.5816326530612245,0.6224489795918368,0.6224489795918368,0.6632653061224489,0.6632653061224489,0.6632653061224489,0.6632653061224489,0.6632653061224489,0.6632653061224489,0.6632653061224489,0.6632653061224489,0.6632653061224489,0.6632653061224489,0.6632653061224489,0.6632653061224489,0.6632653061224489,0.6632653061224489,0.6632653061224489,0.6632653061224489,0.6632653061224489,0.6632653061224489,0.6632653061224489,0.6632653061224489,0.6632653061224489,0.6632653061224489,0.6632653061224489,0.6632653061224489,0.6632653061224489,0.6632653061224489,0.6632653061224489,0.6632653061224489,0.6632653061224489,0.6632653061224489,0.6632653061224489,0.6632653061224489,0.6632653061224489,0.6632653061224489,0.6632653061224489,0.6632653061224489,0.6632653061224489,0.6632653061224489,0.6632653061224489,0.6632653061224489,0.6632653061224489,0.6632653061224489,0.6632653061224489,0.6632653061224489,0.6632653061224489,0.6632653061224489,0.6632653061224489,0.6632653061224489,0.6632653061224489,0.6632653061224489,0.6632653061224489,0.6632653061224489,0.6632653061224489,0.6632653061224489,0.6632653061224489,0.6632653061224489,0.6632653061224489,0.6632653061224489,0.6632653061224489,0.6632653061224489,0.6632653061224489,0.6632653061224489,0.6632653061224489,0.6632653061224489,0.6632653061224489,0.6632653061224489,0.6632653061224489,0.6632653061224489,0.6632653061224489,0.6632653061224489,0.6632653061224489,0.6632653061224489,0.6632653061224489,0.6632653061224489,0.6632653061224489,0.6632653061224489,0.6632653061224489,0.6632653061224489,0.6632653061224489,0.6632653061224489,0.6632653061224489,0.6632653061224489,0.6632653061224489,0.6632653061224489,0.6632653061224489,0.6632653061224489,0.6632653061224489,0.6632653061224489,0.6632653061224489,0.6632653061224489,0.6632653061224489,0.6632653061224489,0.6632653061224489,0.6632653061224489,0.6632653061224489,0.6632653061224489,0.6632653061224489,0.6632653061224489,0.6632653061224489,0.6632653061224489,0.6632653061224489,0.6632653061224489,0.6632653061224489,0.6632653061224489,0.6632653061224489,0.6632653061224489,0.6632653061224489,0.6632653061224489,0.6632653061224489,0.6632653061224489,0.6632653061224489,0.6632653061224489,0.6632653061224489,0.6632653061224489,0.6632653061224489,0.6632653061224489,0.6632653061224489,0.6632653061224489,0.6632653061224489,0.6632653061224489,0.6632653061224489,0.6632653061224489,0.6632653061224489,0.6632653061224489,0.6632653061224489,0.6632653061224489,0.6632653061224489,0.6632653061224489,0.6632653061224489,0.6632653061224489,0.6632653061224489,0.6632653061224489,0.6632653061224489,0.6632653061224489,0.6632653061224489,0.6632653061224489,0.6632653061224489,0.6632653061224489,0.6632653061224489,0.6632653061224489,0.6632653061224489,0.6632653061224489,0.6632653061224489,0.6632653061224489,0.6632653061224489,0.6632653061224489,0.6632653061224489,0.6632653061224489,0.6632653061224489,0.6632653061224489,0.6632653061224489,0.6632653061224489,0.6632653061224489,0.6632653061224489,0.6632653061224489,0.6632653061224489,0.6632653061224489,0.6632653061224489,0.6632653061224489,0.6632653061224489,0.6632653061224489,0.6632653061224489,0.6632653061224489,0.6632653061224489,0.6632653061224489,0.6632653061224489,0.6632653061224489,0.6632653061224489,0.6632653061224489,0.6632653061224489,0.6632653061224489,0.6632653061224489,0.6632653061224489,0.6632653061224489,0.6632653061224489,0.6632653061224489,0.6632653061224489,0.6632653061224489,0.6632653061224489,0.6632653061224489,0.6632653061224489,0.6632653061224489,0.6632653061224489,0.6632653061224489,0.6632653061224489,0.6632653061224489,0.6632653061224489,0.6632653061224489,0.6632653061224489,0.6632653061224489,0.6632653061224489,0.6632653061224489,0.6632653061224489,0.6632653061224489,0.6632653061224489,0.6632653061224489,0.6632653061224489,0.6632653061224489,0.6632653061224489,0.6632653061224489,0.6632653061224489,0.6632653061224489,0.6632653061224489,0.6632653061224489,0.6632653061224489,0.6632653061224489,0.6632653061224489,0.6632653061224489,0.6632653061224489,0.6632653061224489,0.6632653061224489,0.6632653061224489,0.6632653061224489,0.6632653061224489,0.6632653061224489,0.6632653061224489,0.6632653061224489,0.6632653061224489,0.6632653061224489,0.6632653061224489,0.6632653061224489,0.6632653061224489,0.6632653061224489,0.6632653061224489,0.6632653061224489,0.6632653061224489,0.6632653061224489,0.6632653061224489,0.6632653061224489,0.6632653061224489,0.6632653061224489,0.6632653061224489,0.6632653061224489,0.6632653061224489,0.6632653061224489,0.6632653061224489,0.6632653061224489,0.6632653061224489,0.6632653061224489,0.6632653061224489,0.6632653061224489,0.6632653061224489,0.6632653061224489,0.6632653061224489,0.6632653061224489,0.6632653061224489,0.6632653061224489,0.6632653061224489,0.6632653061224489,0.6632653061224489,0.6632653061224489,0.6632653061224489,0.6632653061224489,0.6632653061224489,0.6632653061224489,0.6632653061224489,0.6632653061224489,0.6632653061224489,0.6632653061224489,0.6632653061224489,0.6632653061224489,0.6632653061224489,0.6632653061224489,0.6632653061224489,0.6632653061224489,0.6632653061224489,0.6632653061224489,0.6632653061224489,0.6632653061224489,0.6632653061224489,0.6632653061224489,0.6632653061224489,0.6632653061224489,0.6632653061224489,0.6632653061224489,0.6632653061224489,0.6632653061224489,0.6632653061224489,0.6632653061224489,0.6632653061224489,0.6632653061224489,0.6632653061224489,0.6632653061224489,0.6632653061224489,0.6632653061224489,0.6632653061224489,0.6632653061224489,0.6632653061224489,0.6632653061224489,0.6632653061224489,0.6632653061224489,0.6632653061224489,0.6632653061224489,0.6632653061224489,0.6632653061224489,0.6632653061224489,0.6632653061224489,0.6632653061224489,0.6632653061224489,0.6632653061224489,0.6632653061224489,0.6632653061224489,0.6632653061224489,0.6632653061224489,0.6632653061224489,0.6632653061224489,0.6632653061224489,0.6632653061224489,0.6632653061224489,0.6632653061224489,0.6632653061224489,0.6632653061224489,0.6632653061224489,0.6632653061224489,0.6632653061224489,0.6632653061224489,0.6632653061224489,0.6632653061224489,0.6632653061224489,0.6632653061224489,0.6632653061224489,0.6632653061224489,0.6632653061224489,0.6632653061224489,0.6632653061224489,0.6632653061224489,0.6632653061224489,0.6632653061224489,0.6632653061224489,0.6632653061224489,0.6632653061224489,0.6632653061224489,0.6632653061224489,0.6632653061224489,0.6632653061224489,0.6632653061224489,0.6632653061224489,0.6632653061224489,0.6632653061224489,0.6632653061224489,0.6632653061224489,0.6632653061224489,0.6632653061224489,0.6632653061224489,0.6632653061224489,0.6632653061224489,0.6632653061224489,0.6632653061224489,0.6632653061224489,0.6632653061224489,0.6632653061224489,0.6632653061224489,0.6632653061224489,0.6632653061224489,0.6632653061224489,0.6632653061224489,0.6632653061224489,0.6632653061224489,0.6632653061224489,0.6632653061224489,0.6632653061224489,0.6632653061224489,0.6632653061224489,0.6632653061224489,0.6632653061224489,0.6632653061224489,0.6632653061224489,0.6632653061224489,0.6632653061224489,0.6632653061224489,0.6632653061224489,0.6632653061224489,0.6632653061224489,0.6632653061224489,0.6632653061224489,0.6632653061224489,0.6632653061224489,0.6632653061224489,0.6632653061224489,0.6632653061224489,0.6632653061224489,0.6632653061224489,0.6632653061224489,0.6632653061224489,0.6632653061224489,0.6632653061224489,0.6632653061224489,0.6632653061224489,0.6632653061224489,0.6632653061224489,0.6632653061224489,0.6530612244897959,0.6428571428571429,0.6224489795918368,0.5782312925170068,0.5680272108843537,0.5544217687074829,0.5476190476190477,0.54421768707483,0.5306122448979592,0.5272108843537415,0.5170068027210885,0.47278911564625853,0.4387755102040816,0.40816326530612246,0.3673469387755102,0.3435374149659864,0.3197278911564626,0.2653061224489796,0.2653061224489796,0.2653061224489796,0.2653061224489796,0.2653061224489796,0.2653061224489796,0.2653061224489796,0.2653061224489796,0.2653061224489796,0.2653061224489796,0.2653061224489796,0.2653061224489796,0.2653061224489796,0.2653061224489796,0.2653061224489796,0.2653061224489796,0.2653061224489796,0.2653061224489796,0.25170068027210885,0.22448979591836735,0.2108843537414966,0.19387755102040816,0.1564625850340136,0.1292517006802721,0.07482993197278912,0.061224489795918366,0.05442176870748299,0.04421768707482993,0.04081632653061224,0.04081632653061224,0.03741496598639456,0.03741496598639456,0.03741496598639456,0.03741496598639456,0.034013605442176874,0.034013605442176874,0.034013605442176874,0.034013605442176874,0.034013605442176874,0.034013605442176874,0.034013605442176874,0.034013605442176874,0.027210884353741496,0.023809523809523808,0.023809523809523808,0.02040816326530612,0.02040816326530612,0.02040816326530612,0.02040816326530612,0.02040816326530612,0.02040816326530612,0.02040816326530612,0.02040816326530612,0.02040816326530612,0.02040816326530612,0.02040816326530612,0.02040816326530612,0.02040816326530612,0.02040816326530612,0.02040816326530612,0.02040816326530612,0.02040816326530612,0.02040816326530612,0.02040816326530612,0.02040816326530612,0.02040816326530612,0.02040816326530612,0.02040816326530612,0.02040816326530612,0.02040816326530612,0.02040816326530612,0.02040816326530612,0.02040816326530612,0.02040816326530612,0.02040816326530612,0.02040816326530612,0.02040816326530612,0.02040816326530612,0.02040816326530612,0.02040816326530612,0.02040816326530612,0.02040816326530612,0.02040816326530612,0.023809523809523808,0.047619047619047616,0.10884353741496598,0.15306122448979592,0.19387755102040816,0.2789115646258503,0.3129251700680272,0.336734693877551,0.36054421768707484,0.36394557823129253,0.3673469387755102,0.3673469387755102,0.3673469387755102,0.3673469387755102,0.3673469387755102,0.3673469387755102,0.3673469387755102,0.3673469387755102,0.3673469387755102,0.3673469387755102,0.3673469387755102,0.3673469387755102,0.3673469387755102,0.3673469387755102,0.3673469387755102,0.3673469387755102,0.3673469387755102,0.3673469387755102,0.3673469387755102,0.3673469387755102,0.3673469387755102,0.3673469387755102,0.3673469387755102,0.3673469387755102,0.3673469387755102,0.3673469387755102,0.3673469387755102,0.3673469387755102,0.3673469387755102,0.3673469387755102,0.3673469387755102,0.3673469387755102,0.3673469387755102,0.3673469387755102,0.3673469387755102,0.3673469387755102,0.3673469387755102,0.3673469387755102,0.3673469387755102,0.3673469387755102,0.3673469387755102,0.3673469387755102,0.3673469387755102,0.3673469387755102,0.3673469387755102,0.3673469387755102,0.3673469387755102,0.3673469387755102,0.3673469387755102,0.3673469387755102,0.3673469387755102,0.3673469387755102,0.3673469387755102,0.3673469387755102,0.3673469387755102,0.3673469387755102,0.3673469387755102,0.3673469387755102,0.3673469387755102,0.3673469387755102,0.3673469387755102,0.3673469387755102,0.3673469387755102,0.3673469387755102,0.3673469387755102,0.3673469387755102,0.3673469387755102,0.3673469387755102,0.3673469387755102,0.3673469387755102,0.3673469387755102,0.3673469387755102,0.3673469387755102,0.3673469387755102,0.3673469387755102,0.3673469387755102,0.3673469387755102,0.3673469387755102,0.3673469387755102,0.3673469387755102,0.3673469387755102,0.3673469387755102,0.3673469387755102,0.3673469387755102,0.3673469387755102,0.3673469387755102,0.3673469387755102,0.3673469387755102,0.3673469387755102,0.3673469387755102,0.3673469387755102,0.3673469387755102,0.3673469387755102,0.3673469387755102,0.3673469387755102,0.3673469387755102,0.3673469387755102,0.3673469387755102,0.3673469387755102,0.3707482993197279,0.3707482993197279,0.3707482993197279,0.3707482993197279,0.37755102040816324,0.37755102040816324,0.37755102040816324,0.391156462585034,0.391156462585034,0.3945578231292517,0.4013605442176871,0.40476190476190477,0.41836734693877553,0.41836734693877553,0.41836734693877553,0.41836734693877553,0.41836734693877553,0.41836734693877553,0.41836734693877553,0.41836734693877553,0.41836734693877553,0.41836734693877553,0.41836734693877553,0.41836734693877553,0.41836734693877553,0.41836734693877553,0.41836734693877553,0.41836734693877553,0.41836734693877553,0.41836734693877553,0.41836734693877553,0.41836734693877553,0.41836734693877553,0.41836734693877553,0.41836734693877553,0.3979591836734694,0.3843537414965986,0.3673469387755102,0.3299319727891156,0.30612244897959184,0.282312925170068,0.2585034013605442,0.2585034013605442,0.2585034013605442,0.2585034013605442,0.2619047619047619,0.2619047619047619,0.2619047619047619,0.2619047619047619,0.2619047619047619,0.2619047619047619,0.2619047619047619,0.2619047619047619,0.2619047619047619,0.2619047619047619,0.2619047619047619,0.2619047619047619,0.2619047619047619,0.2619047619047619,0.2619047619047619,0.2619047619047619,0.2619047619047619,0.2619047619047619,0.2619047619047619,0.2619047619047619,0.2619047619047619,0.2619047619047619,0.2619047619047619,0.2619047619047619,0.2619047619047619,0.2619047619047619,0.2619047619047619,0.2619047619047619,0.2619047619047619,0.2619047619047619,0.2619047619047619,0.2619047619047619,0.2619047619047619,0.2619047619047619,0.2619047619047619,0.2619047619047619,0.2619047619047619,0.2619047619047619,0.2619047619047619,0.2619047619047619,0.2619047619047619,0.2619047619047619,0.2619047619047619,0.2619047619047619,0.2619047619047619,0.2619047619047619,0.2619047619047619,0.2619047619047619,0.2619047619047619,0.2619047619047619,0.2619047619047619,0.2619047619047619,0.2585034013605442,0.2585034013605442,0.2585034013605442,0.2585034013605442,0.2585034013605442,0.2585034013605442,0.2585034013605442,0.2585034013605442,0.2585034013605442,0.2585034013605442,0.2585034013605442,0.2585034013605442,0.2585034013605442,0.2585034013605442,0.2585034013605442,0.2585034013605442,0.2585034013605442,0.2585034013605442,0.2585034013605442,0.2585034013605442,0.2585034013605442,0.2585034013605442,0.2585034013605442,0.2585034013605442,0.2585034013605442,0.2585034013605442,0.2585034013605442,0.2585034013605442,0.2585034013605442,0.2585034013605442,0.2585034013605442,0.2585034013605442,0.2585034013605442,0.2585034013605442,0.2585034013605442,0.2585034013605442,0.2585034013605442,0.2585034013605442,0.2585034013605442,0.2585034013605442,0.2585034013605442,0.2585034013605442,0.2585034013605442,0.2585034013605442,0.2585034013605442,0.2585034013605442,0.2585034013605442,0.2585034013605442,0.2585034013605442,0.2585034013605442,0.2585034013605442,0.2585034013605442,0.2585034013605442,0.2585034013605442,0.2585034013605442,0.2585034013605442,0.2585034013605442,0.2585034013605442,0.2585034013605442,0.2585034013605442,0.2585034013605442,0.2585034013605442,0.2585034013605442,0.2585034013605442,0.2585034013605442,0.2585034013605442,0.2585034013605442,0.2585034013605442,0.2585034013605442,0.2585034013605442,0.2585034013605442,0.2585034013605442,0.2585034013605442,0.2585034013605442,0.2585034013605442,0.2585034013605442,0.2585034013605442,0.2585034013605442,0.2585034013605442,0.2585034013605442,0.2585034013605442,0.2585034013605442,0.2585034013605442,0.2585034013605442,0.2585034013605442,0.2585034013605442,0.2585034013605442,0.2585034013605442,0.2585034013605442,0.2585034013605442,0.2585034013605442,0.2585034013605442,0.2585034013605442,0.2585034013605442,0.2585034013605442,0.2585034013605442,0.2585034013605442,0.2585034013605442,0.2585034013605442,0.2585034013605442,0.2585034013605442,0.2585034013605442,0.2585034013605442,0.2585034013605442,0.2585034013605442,0.2585034013605442,0.2585034013605442,0.2585034013605442,0.2585034013605442,0.2585034013605442,0.2585034013605442,0.2585034013605442,0.2585034013605442,0.2585034013605442,0.2585034013605442,0.2585034013605442,0.2585034013605442,0.2585034013605442,0.2585034013605442,0.2585034013605442,0.2585034013605442,0.2585034013605442,0.2585034013605442,0.2585034013605442,0.2585034013605442,0.2585034013605442,0.2585034013605442,0.2585034013605442,0.2585034013605442,0.2585034013605442,0.2585034013605442,0.2585034013605442,0.2585034013605442,0.2585034013605442,0.2585034013605442,0.2585034013605442,0.2585034013605442,0.2585034013605442,0.2585034013605442,0.2585034013605442,0.2585034013605442,0.2585034013605442,0.2585034013605442,0.2585034013605442,0.2585034013605442,0.2585034013605442,0.2585034013605442,0.2585034013605442,0.2585034013605442,0.2585034013605442,0.2585034013605442,0.2585034013605442,0.2585034013605442,0.2585034013605442,0.2585034013605442,0.2585034013605442,0.2585034013605442,0.2585034013605442,0.2585034013605442,0.2585034013605442,0.2585034013605442,0.2585034013605442,0.2585034013605442,0.2585034013605442,0.2585034013605442,0.2585034013605442,0.2585034013605442,0.2585034013605442,0.2585034013605442,0.2585034013605442,0.2585034013605442,0.2585034013605442,0.2585034013605442,0.2585034013605442,0.2585034013605442,0.2585034013605442,0.2585034013605442,0.2585034013605442,0.2585034013605442,0.2585034013605442,0.2585034013605442,0.2585034013605442,0.2585034013605442,0.2585034013605442,0.2585034013605442,0.2585034013605442,0.2585034013605442,0.2585034013605442,0.2585034013605442,0.2585034013605442,0.2585034013605442,0.2585034013605442,0.2585034013605442,0.2585034013605442,0.2585034013605442,0.2585034013605442,0.2585034013605442,0.2585034013605442,0.2585034013605442,0.2585034013605442,0.2585034013605442,0.2585034013605442,0.2585034013605442,0.2585034013605442,0.2585034013605442,0.2585034013605442,0.2585034013605442,0.2585034013605442,0.2585034013605442,0.2585034013605442,0.2585034013605442,0.2585034013605442,0.2585034013605442,0.2585034013605442,0.2585034013605442,0.2585034013605442,0.2585034013605442,0.2585034013605442,0.2585034013605442,0.2585034013605442,0.2585034013605442,0.2585034013605442,0.2585034013605442,0.2585034013605442,0.2585034013605442,0.2585034013605442,0.2585034013605442,0.2687074829931973,0.3129251700680272,0.3129251700680272,0.3129251700680272,0.3129251700680272,0.3163265306122449,0.3197278911564626,0.3197278911564626,0.3197278911564626,0.3197278911564626,0.3197278911564626,0.3197278911564626,0.3197278911564626,0.3197278911564626,0.3197278911564626,0.3197278911564626,0.3197278911564626,0.3197278911564626,0.3197278911564626,0.3197278911564626,0.3197278911564626,0.3197278911564626,0.3333333333333333,0.3469387755102041,0.3469387755102041,0.36394557823129253,0.3843537414965986,0.4013605442176871,0.42517006802721086,0.43197278911564624,0.4387755102040816,0.4489795918367347,0.4523809523809524,0.4523809523809524,0.4557823129251701,0.4557823129251701,0.4557823129251701,0.45918367346938777,0.45918367346938777,0.45918367346938777,0.45918367346938777,0.45918367346938777,0.45918367346938777,0.45918367346938777,0.45918367346938777,0.45918367346938777,0.45918367346938777,0.45918367346938777,0.45918367346938777,0.45918367346938777,0.45918367346938777,0.45918367346938777,0.45918367346938777,0.45918367346938777,0.45918367346938777,0.45918367346938777,0.45918367346938777,0.45918367346938777,0.45918367346938777,0.45918367346938777,0.45918367346938777,0.45918367346938777,0.45918367346938777,0.45918367346938777,0.45918367346938777,0.45918367346938777,0.45918367346938777,0.45918367346938777,0.45918367346938777,0.45918367346938777,0.45918367346938777,0.45918367346938777,0.45918367346938777,0.45918367346938777,0.45918367346938777,0.45918367346938777,0.45918367346938777,0.45918367346938777,0.45918367346938777,0.45918367346938777,0.45918367346938777,0.45918367346938777,0.45918367346938777,0.45918367346938777,0.45918367346938777,0.45918367346938777,0.45918367346938777,0.45918367346938777,0.45918367346938777,0.45918367346938777,0.45918367346938777,0.45918367346938777,0.45918367346938777,0.45918367346938777,0.45918367346938777,0.45918367346938777,0.45918367346938777,0.45918367346938777,0.45918367346938777,0.45918367346938777,0.45918367346938777,0.45918367346938777,0.45918367346938777,0.45918367346938777,0.45918367346938777,0.45918367346938777,0.45918367346938777,0.45918367346938777,0.45918367346938777,0.45918367346938777,0.45918367346938777,0.45918367346938777,0.46258503401360546,0.46258503401360546,0.46598639455782315,0.46938775510204084,0.47278911564625853,0.47278911564625853,0.4965986394557823,0.5034013605442177,0.5136054421768708,0.5204081632653061,0.5204081632653061,0.5204081632653061,0.5306122448979592,0.5306122448979592,0.5476190476190477,0.564625850340136,0.5714285714285714,0.5782312925170068,0.5884353741496599,0.5884353741496599,0.5884353741496599,0.5884353741496599,0.5986394557823129,0.5986394557823129,0.5986394557823129,0.5986394557823129,0.5986394557823129,0.5986394557823129,0.5986394557823129,0.5986394557823129,0.5986394557823129,0.5986394557823129,0.5918367346938775,0.5782312925170068,0.5782312925170068,0.5578231292517006,0.5578231292517006,0.4387755102040816,0.41836734693877553,0.3979591836734694,0.37755102040816324,0.37755102040816324,0.37755102040816324,0.37755102040816324,0.3469387755102041,0.3469387755102041,0.3435374149659864,0.3435374149659864,0.3435374149659864,0.336734693877551,0.336734693877551,0.336734693877551,0.336734693877551,0.3231292517006803,0.3129251700680272,0.3129251700680272,0.3129251700680272,0.3129251700680272,0.3129251700680272,0.3129251700680272,0.3129251700680272,0.30272108843537415,0.30272108843537415,0.30272108843537415,0.30272108843537415,0.30272108843537415,0.30272108843537415,0.30272108843537415,0.3129251700680272,0.3197278911564626,0.32653061224489793,0.32653061224489793,0.336734693877551,0.3469387755102041,0.3469387755102041,0.3469387755102041,0.35374149659863946,0.35714285714285715,0.35714285714285715,0.35714285714285715,0.35714285714285715,0.35714285714285715,0.35714285714285715,0.35714285714285715,0.35714285714285715,0.35714285714285715,0.35714285714285715,0.35714285714285715,0.35714285714285715,0.35714285714285715,0.35714285714285715,0.35714285714285715,0.35714285714285715,0.35714285714285715,0.35714285714285715,0.35714285714285715,0.35714285714285715,0.35714285714285715,0.35714285714285715,0.35714285714285715,0.35714285714285715,0.36054421768707484,0.36054421768707484,0.36054421768707484,0.36394557823129253,0.36394557823129253,0.3673469387755102,0.3673469387755102,0.3673469387755102,0.3741496598639456,0.3877551020408163,0.3877551020408163,0.3945578231292517,0.3945578231292517,0.3945578231292517,0.3945578231292517,0.3945578231292517,0.3945578231292517,0.3945578231292517,0.3945578231292517,0.3945578231292517,0.3945578231292517,0.3945578231292517,0.3945578231292517,0.3945578231292517,0.3945578231292517,0.3945578231292517,0.3945578231292517,0.3945578231292517,0.3945578231292517,0.3945578231292517,0.3945578231292517,0.3945578231292517,0.3945578231292517,0.3945578231292517,0.3945578231292517,0.3945578231292517,0.3945578231292517,0.3945578231292517,0.3945578231292517,0.3945578231292517,0.3945578231292517,0.3945578231292517,0.3945578231292517,0.5,0.5136054421768708,0.5136054421768708,0.5136054421768708,0.5136054421768708,0.5136054421768708,0.5476190476190477,0.5476190476190477,0.5476190476190477,0.5476190476190477,0.5476190476190477,0.5476190476190477,0.5476190476190477,0.5476190476190477,0.5476190476190477,0.5476190476190477,0.5476190476190477,0.5476190476190477,0.5476190476190477,0.5476190476190477,0.5476190476190477,0.5476190476190477,0.5476190476190477,0.5476190476190477,0.5476190476190477,0.5476190476190477,0.5476190476190477,0.5476190476190477,0.5476190476190477,0.5374149659863946,0.5374149659863946,0.5136054421768708,0.5136054421768708,0.5136054421768708,0.4965986394557823,0.40816326530612246,0.4013605442176871,0.391156462585034,0.3843537414965986,0.37755102040816324,0.37755102040816324,0.37755102040816324,0.37755102040816324,0.37755102040816324,0.37755102040816324,0.37755102040816324,0.37755102040816324,0.37755102040816324,0.37755102040816324,0.37755102040816324,0.37755102040816324,0.37755102040816324,0.37755102040816324,0.37755102040816324,0.37755102040816324,0.37755102040816324,0.37755102040816324,0.37755102040816324,0.37755102040816324,0.37755102040816324,0.37755102040816324,0.37755102040816324,0.3843537414965986,0.3945578231292517,0.4013605442176871,0.40476190476190477,0.41836734693877553,0.4217687074829932,0.42857142857142855,0.4489795918367347,0.4557823129251701,0.46938775510204084,0.4931972789115646,0.5034013605442177,0.5136054421768708,0.5204081632653061,0.5272108843537415,0.5272108843537415,0.5272108843537415,0.5340136054421769,0.5340136054421769,0.5340136054421769,0.5340136054421769,0.5340136054421769,0.5340136054421769,0.5340136054421769,0.5340136054421769,0.5340136054421769,0.5340136054421769,0.5340136054421769,0.5340136054421769,0.5340136054421769,0.5340136054421769,0.5340136054421769,0.5340136054421769,0.5340136054421769,0.5340136054421769,0.5340136054421769,0.5340136054421769,0.5340136054421769,0.5340136054421769,0.5340136054421769,0.5340136054421769,0.5714285714285714,0.5918367346938775,0.6020408163265306,0.6190476190476191,0.6292517006802721,0.6292517006802721,0.6326530612244898,0.6326530612244898,0.6326530612244898,0.6326530612244898,0.6326530612244898,0.6326530612244898,0.6326530612244898,0.5714285714285714,0.5544217687074829,0.5544217687074829,0.5544217687074829,0.5544217687074829,0.5544217687074829,0.5544217687074829,0.5544217687074829,0.5238095238095238,0.5238095238095238,0.5238095238095238,0.5238095238095238,0.5238095238095238,0.5238095238095238,0.5238095238095238,0.5238095238095238,0.5238095238095238,0.5238095238095238,0.5272108843537415,0.5306122448979592,0.5306122448979592,0.5374149659863946,0.54421768707483,0.5476190476190477,0.5544217687074829,0.5544217687074829,0.5544217687074829,0.5544217687074829,0.5544217687074829,0.5544217687074829,0.5544217687074829,0.5544217687074829,0.5544217687074829,0.5544217687074829,0.5544217687074829,0.5544217687074829,0.5544217687074829,0.5544217687074829,0.5544217687074829,0.5544217687074829,0.5544217687074829,0.5544217687074829,0.5544217687074829,0.5544217687074829,0.5544217687074829,0.5544217687074829,0.5544217687074829,0.5544217687074829,0.5544217687074829,0.5544217687074829,0.5544217687074829,0.5544217687074829,0.5544217687074829,0.5544217687074829,0.5544217687074829,0.5544217687074829,0.5544217687074829,0.5544217687074829,0.5544217687074829,0.5544217687074829,0.5544217687074829,0.5544217687074829,0.5544217687074829,0.5544217687074829,0.5544217687074829,0.5544217687074829,0.5544217687074829,0.5544217687074829,0.5544217687074829,0.5544217687074829,0.5544217687074829,0.5544217687074829,0.5544217687074829,0.5544217687074829,0.5544217687074829,0.5544217687074829,0.5544217687074829,0.5544217687074829,0.5544217687074829,0.5544217687074829,0.5544217687074829,0.5544217687074829,0.5544217687074829,0.5544217687074829,0.5544217687074829,0.5544217687074829,0.5544217687074829,0.5544217687074829,0.5544217687074829,0.5544217687074829,0.5544217687074829,0.5544217687074829,0.5544217687074829,0.5544217687074829,0.5544217687074829,0.5544217687074829,0.5544217687074829,0.5544217687074829,0.5544217687074829,0.5544217687074829,0.5544217687074829,0.5544217687074829,0.5544217687074829,0.5544217687074829,0.5544217687074829,0.5544217687074829,0.5544217687074829,0.5544217687074829,0.5544217687074829,0.5544217687074829,0.5544217687074829,0.5544217687074829,0.5544217687074829,0.5544217687074829,0.5544217687074829,0.5544217687074829,0.5544217687074829,0.5544217687074829,0.5544217687074829,0.5544217687074829,0.5544217687074829,0.5544217687074829,0.5544217687074829,0.5544217687074829,0.5544217687074829,0.5544217687074829,0.5544217687074829,0.5544217687074829,0.5544217687074829,0.5544217687074829,0.5544217687074829,0.5544217687074829,0.5544217687074829,0.5544217687074829,0.5544217687074829,0.5544217687074829,0.5544217687074829,0.5544217687074829,0.5544217687074829,0.5544217687074829,0.5544217687074829,0.5544217687074829,0.5544217687074829,0.5544217687074829,0.5544217687074829,0.5544217687074829,0.5544217687074829,0.5544217687074829,0.5544217687074829,0.5544217687074829,0.5544217687074829,0.5544217687074829,0.5544217687074829,0.5544217687074829,0.5544217687074829,0.5544217687074829,0.5544217687074829,0.5544217687074829,0.5544217687074829,0.5544217687074829,0.5544217687074829,0.5544217687074829,0.5544217687074829,0.5544217687074829,0.5544217687074829,0.5544217687074829,0.5544217687074829,0.5544217687074829,0.5544217687074829,0.5544217687074829,0.5544217687074829,0.5544217687074829,0.5544217687074829,0.5544217687074829,0.5544217687074829,0.5544217687074829,0.5544217687074829,0.5544217687074829,0.5544217687074829,0.5544217687074829,0.5544217687074829,0.5544217687074829,0.5544217687074829,0.5544217687074829,0.5544217687074829,0.5544217687074829,0.5544217687074829,0.5544217687074829,0.5544217687074829,0.5544217687074829,0.5544217687074829,0.5544217687074829,0.5544217687074829,0.5544217687074829,0.5544217687074829,0.5544217687074829,0.5544217687074829,0.5544217687074829,0.5544217687074829,0.5544217687074829,0.5544217687074829,0.5544217687074829,0.5544217687074829,0.5544217687074829,0.5544217687074829,0.5544217687074829,0.5544217687074829,0.5544217687074829,0.5544217687074829,0.5544217687074829,0.5544217687074829,0.5544217687074829,0.5544217687074829,0.5544217687074829,0.5544217687074829,0.5544217687074829,0.5544217687074829,0.5544217687074829,0.5544217687074829,0.5544217687074829,0.5544217687074829,0.5544217687074829,0.5544217687074829,0.5544217687074829,0.5544217687074829,0.5544217687074829,0.5544217687074829,0.5544217687074829,0.5544217687074829,0.5544217687074829,0.5544217687074829,0.5544217687074829,0.5544217687074829,0.5544217687074829,0.5544217687074829,0.5544217687074829,0.5544217687074829,0.5544217687074829,0.5544217687074829,0.5544217687074829,0.5544217687074829,0.5544217687074829,0.5544217687074829,0.5544217687074829,0.5544217687074829,0.5544217687074829,0.5544217687074829,0.5544217687074829,0.5544217687074829,0.5544217687074829,0.5544217687074829,0.5544217687074829,0.5544217687074829,0.5544217687074829,0.5544217687074829,0.5544217687074829,0.5544217687074829,0.5544217687074829,0.5544217687074829,0.5544217687074829,0.5544217687074829,0.5544217687074829,0.5544217687074829,0.5544217687074829,0.5544217687074829,0.5544217687074829,0.5544217687074829,0.5544217687074829,0.5544217687074829,0.5544217687074829,0.5544217687074829,0.5544217687074829,0.5544217687074829,0.5544217687074829,0.5544217687074829,0.5544217687074829,0.5544217687074829,0.5544217687074829,0.5544217687074829,0.5544217687074829,0.5544217687074829,0.5544217687074829,0.5544217687074829,0.5544217687074829,0.5544217687074829,0.5544217687074829,0.5544217687074829,0.5544217687074829,0.5544217687074829,0.5544217687074829,0.5544217687074829,0.5544217687074829,0.5544217687074829,0.5544217687074829,0.5544217687074829,0.5544217687074829,0.5544217687074829,0.5544217687074829,0.5544217687074829,0.5544217687074829,0.5544217687074829,0.5544217687074829,0.5544217687074829,0.5544217687074829,0.5544217687074829,0.5204081632653061,0.5204081632653061,0.5204081632653061,0.5204081632653061,0.5204081632653061,0.5204081632653061,0.5204081632653061,0.5204081632653061,0.5204081632653061,0.5204081632653061,0.5204081632653061,0.5204081632653061,0.5204081632653061,0.5204081632653061,0.5204081632653061,0.5204081632653061,0.5204081632653061,0.5204081632653061,0.5204081632653061,0.5204081632653061,0.5204081632653061,0.5204081632653061,0.5204081632653061,0.5204081632653061,0.5204081632653061,0.5204081632653061,0.5204081632653061,0.4387755102040816,0.3877551020408163,0.3877551020408163,0.3877551020408163,0.3877551020408163,0.3877551020408163,0.3877551020408163,0.3877551020408163,0.3877551020408163,0.3877551020408163,0.3877551020408163,0.3877551020408163,0.3877551020408163,0.3877551020408163,0.3877551020408163,0.3877551020408163,0.3877551020408163,0.3877551020408163,0.3877551020408163,0.3877551020408163,0.3877551020408163,0.3877551020408163,0.3877551020408163,0.3877551020408163,0.3877551020408163,0.3877551020408163,0.3877551020408163,0.3877551020408163,0.3877551020408163,0.3877551020408163,0.3877551020408163,0.3877551020408163,0.3877551020408163,0.3877551020408163,0.3877551020408163,0.3877551020408163,0.3877551020408163,0.3877551020408163,0.3877551020408163,0.3877551020408163,0.3877551020408163,0.3877551020408163,0.3877551020408163,0.3877551020408163,0.3877551020408163,0.3877551020408163,0.3877551020408163,0.3877551020408163,0.3877551020408163,0.3877551020408163,0.3877551020408163,0.3877551020408163,0.3877551020408163,0.3877551020408163,0.3877551020408163,0.3877551020408163,0.3877551020408163,0.3877551020408163,0.3877551020408163,0.3877551020408163,0.3877551020408163,0.3877551020408163,0.3877551020408163,0.3877551020408163,0.3877551020408163,0.3877551020408163,0.3877551020408163,0.3877551020408163,0.3877551020408163,0.3877551020408163,0.3877551020408163,0.3877551020408163,0.3877551020408163,0.3877551020408163,0.3877551020408163,0.3877551020408163,0.3877551020408163,0.3877551020408163,0.3877551020408163,0.3877551020408163,0.3877551020408163,0.3877551020408163,0.3877551020408163,0.3877551020408163,0.3877551020408163,0.3877551020408163,0.3877551020408163,0.3877551020408163,0.3877551020408163,0.3877551020408163,0.3877551020408163,0.3877551020408163,0.3877551020408163,0.3877551020408163,0.3877551020408163,0.3877551020408163,0.3877551020408163,0.3877551020408163,0.3877551020408163,0.3877551020408163,0.3877551020408163,0.3877551020408163,0.3877551020408163,0.3877551020408163,0.3877551020408163,0.3877551020408163,0.3877551020408163,0.3877551020408163,0.3877551020408163,0.3877551020408163,0.3877551020408163,0.3877551020408163,0.3877551020408163,0.3877551020408163,0.3877551020408163,0.3877551020408163,0.3877551020408163,0.3877551020408163,0.3877551020408163,0.3877551020408163,0.3877551020408163,0.3877551020408163,0.3877551020408163,0.3877551020408163,0.3877551020408163,0.3877551020408163,0.3877551020408163,0.3877551020408163,0.3877551020408163,0.3877551020408163,0.3877551020408163,0.3877551020408163,0.3877551020408163,0.3877551020408163,0.3877551020408163,0.3877551020408163,0.3877551020408163,0.3877551020408163,0.3877551020408163,0.3877551020408163,0.3877551020408163,0.3877551020408163,0.3877551020408163,0.3877551020408163,0.3877551020408163,0.3877551020408163,0.3877551020408163,0.3877551020408163,0.3877551020408163,0.3877551020408163,0.3877551020408163,0.3877551020408163,0.3877551020408163,0.3877551020408163,0.3877551020408163,0.3877551020408163,0.3877551020408163,0.3877551020408163,0.3877551020408163,0.3877551020408163,0.3877551020408163,0.3877551020408163,0.3877551020408163,0.3877551020408163,0.3877551020408163,0.3877551020408163,0.3877551020408163,0.3877551020408163,0.3877551020408163,0.3877551020408163,0.3877551020408163,0.3877551020408163,0.3877551020408163,0.3877551020408163,0.3877551020408163,0.3877551020408163,0.3877551020408163,0.3877551020408163,0.3877551020408163,0.3877551020408163,0.3877551020408163,0.3877551020408163,0.3877551020408163,0.3877551020408163,0.3877551020408163,0.3877551020408163,0.3877551020408163,0.3877551020408163,0.3877551020408163,0.3877551020408163,0.3877551020408163,0.3877551020408163,0.3877551020408163,0.3877551020408163,0.3877551020408163,0.3877551020408163,0.3877551020408163,0.3877551020408163,0.3877551020408163,0.3877551020408163,0.3877551020408163,0.3877551020408163,0.3877551020408163,0.3877551020408163,0.3877551020408163,0.3877551020408163,0.3877551020408163,0.3877551020408163,0.3877551020408163,0.3877551020408163,0.3877551020408163,0.3877551020408163,0.3877551020408163,0.3877551020408163,0.3877551020408163,0.3877551020408163,0.3877551020408163,0.3877551020408163,0.3877551020408163,0.3877551020408163,0.3877551020408163,0.3877551020408163,0.3877551020408163,0.3877551020408163,0.3877551020408163,0.3877551020408163,0.3877551020408163,0.3877551020408163,0.3877551020408163,0.3877551020408163,0.3877551020408163,0.3877551020408163,0.3877551020408163,0.3877551020408163,0.3877551020408163,0.3877551020408163,0.3877551020408163,0.3979591836734694,0.40816326530612246,0.4523809523809524,0.5170068027210885,0.6802721088435374,0.7448979591836735,0.8197278911564626,0.9387755102040817,0.9727891156462585,1.0034013605442176,1.0578231292517006,1.0782312925170068,1.0918367346938775,1.0952380952380953,1.0952380952380953,1.0952380952380953,1.0952380952380953,1.0952380952380953,1.0952380952380953,1.0952380952380953,1.0952380952380953,1.098639455782313,1.1020408163265305,1.1054421768707483,1.1088435374149659,1.1122448979591837,1.119047619047619,1.1224489795918366,1.1224489795918366,1.1224489795918366,1.1224489795918366,1.1224489795918366,1.1258503401360545,1.1258503401360545,1.1258503401360545,1.1258503401360545,1.1258503401360545,1.1258503401360545,1.1258503401360545,1.1258503401360545,1.129251700680272,1.129251700680272,1.129251700680272,1.129251700680272,1.129251700680272,1.129251700680272,1.129251700680272,1.129251700680272,1.129251700680272,1.129251700680272,1.129251700680272,1.129251700680272,1.129251700680272,1.129251700680272,1.129251700680272,1.129251700680272,1.129251700680272,1.129251700680272,1.129251700680272,1.129251700680272,1.129251700680272,1.129251700680272,1.129251700680272,1.129251700680272,1.129251700680272,1.129251700680272,1.129251700680272,1.129251700680272,1.129251700680272,1.129251700680272,1.129251700680272,1.129251700680272,1.129251700680272,1.129251700680272,1.129251700680272,1.129251700680272,1.129251700680272,1.129251700680272,1.129251700680272,1.129251700680272,1.129251700680272,1.129251700680272,1.129251700680272,1.129251700680272,1.129251700680272,1.129251700680272,1.129251700680272,1.129251700680272,1.129251700680272,1.129251700680272,1.129251700680272,1.129251700680272,1.129251700680272,1.129251700680272,1.129251700680272,1.129251700680272,1.129251700680272,1.129251700680272,1.129251700680272,1.129251700680272,1.129251700680272,1.129251700680272,1.129251700680272,1.129251700680272,1.129251700680272,1.129251700680272,1.129251700680272,1.129251700680272,1.129251700680272,1.129251700680272,1.129251700680272,1.129251700680272,1.129251700680272,1.129251700680272,1.129251700680272,1.129251700680272,1.129251700680272,1.129251700680272,1.129251700680272,1.129251700680272,1.129251700680272,1.129251700680272,1.129251700680272,1.129251700680272,1.129251700680272,1.129251700680272,1.129251700680272,1.129251700680272,1.129251700680272,1.129251700680272,1.129251700680272,1.129251700680272,1.129251700680272,1.129251700680272,1.129251700680272,1.129251700680272,1.129251700680272,1.129251700680272,1.129251700680272,1.129251700680272,1.129251700680272,1.129251700680272,1.129251700680272,1.129251700680272,1.129251700680272,1.129251700680272,1.129251700680272,1.129251700680272,1.129251700680272,1.129251700680272,1.129251700680272,1.129251700680272,1.129251700680272,1.129251700680272,1.129251700680272,1.129251700680272,1.129251700680272,1.129251700680272,1.129251700680272,1.129251700680272,1.129251700680272,1.129251700680272,1.129251700680272,1.129251700680272,1.129251700680272,1.129251700680272,1.129251700680272,1.129251700680272,1.129251700680272,1.129251700680272,1.129251700680272,1.129251700680272,1.129251700680272,1.129251700680272,1.129251700680272,1.129251700680272,1.129251700680272,1.129251700680272,1.129251700680272,1.129251700680272,1.129251700680272,1.129251700680272,1.129251700680272,1.129251700680272,1.129251700680272,1.129251700680272,1.129251700680272,1.129251700680272,1.129251700680272,1.129251700680272,1.129251700680272,1.129251700680272,1.129251700680272,1.129251700680272,1.129251700680272,1.129251700680272,1.129251700680272,1.129251700680272,1.129251700680272,1.129251700680272,1.129251700680272,1.129251700680272,1.129251700680272,1.129251700680272,1.129251700680272,1.129251700680272,1.129251700680272,1.129251700680272,1.129251700680272,1.129251700680272,1.129251700680272,1.129251700680272,1.129251700680272,1.129251700680272,1.129251700680272,1.129251700680272,1.129251700680272,1.129251700680272,1.129251700680272,1.129251700680272,1.129251700680272,1.129251700680272,1.129251700680272,1.129251700680272,1.129251700680272,1.129251700680272,1.129251700680272,1.129251700680272,1.129251700680272,1.129251700680272,1.129251700680272,1.129251700680272,1.129251700680272,1.129251700680272,1.129251700680272,1.129251700680272,1.129251700680272,1.129251700680272,1.129251700680272,1.129251700680272,1.129251700680272,1.129251700680272,1.129251700680272,1.129251700680272,1.129251700680272,1.129251700680272,1.129251700680272,1.129251700680272,1.129251700680272,1.129251700680272,1.129251700680272,1.129251700680272,1.129251700680272,1.129251700680272,1.129251700680272,1.129251700680272,1.129251700680272,1.129251700680272,1.129251700680272,1.129251700680272,1.129251700680272,1.129251700680272,1.129251700680272,1.129251700680272,1.129251700680272,1.129251700680272,1.129251700680272,1.129251700680272,1.129251700680272,1.129251700680272,1.129251700680272,1.129251700680272,1.129251700680272,1.129251700680272,1.129251700680272,1.129251700680272,1.129251700680272,1.129251700680272,1.129251700680272,1.129251700680272,1.129251700680272,1.129251700680272,1.129251700680272,1.129251700680272,1.129251700680272,1.129251700680272,1.129251700680272,1.129251700680272,1.129251700680272,1.129251700680272,1.129251700680272,1.129251700680272,1.129251700680272,1.129251700680272,1.129251700680272,1.129251700680272,1.129251700680272,1.129251700680272,1.129251700680272,1.129251700680272,1.129251700680272,1.129251700680272,1.129251700680272,1.129251700680272,1.129251700680272,1.129251700680272,1.129251700680272,1.129251700680272,1.129251700680272,1.129251700680272,1.129251700680272,1.129251700680272,1.129251700680272,1.129251700680272,1.129251700680272,1.129251700680272,1.129251700680272,1.129251700680272,1.129251700680272,1.129251700680272,1.129251700680272,1.129251700680272,1.129251700680272,1.129251700680272,1.129251700680272,1.129251700680272,1.129251700680272,1.129251700680272,1.129251700680272,1.129251700680272,1.129251700680272,1.129251700680272,1.129251700680272,1.129251700680272,1.129251700680272,1.129251700680272,1.129251700680272,1.129251700680272,1.129251700680272,1.129251700680272,1.129251700680272,1.129251700680272,1.129251700680272,1.129251700680272,1.129251700680272,1.129251700680272,1.129251700680272,1.129251700680272,1.129251700680272,1.129251700680272,1.129251700680272,1.129251700680272,1.129251700680272,1.129251700680272,1.129251700680272,1.129251700680272,1.129251700680272,1.129251700680272,1.129251700680272,1.129251700680272,1.129251700680272,1.129251700680272,1.129251700680272,1.129251700680272,1.129251700680272,1.129251700680272,1.129251700680272,1.129251700680272,1.129251700680272,1.129251700680272,1.129251700680272,1.129251700680272,1.1292