[{"success":true,"trial_type":"fullscreen","trial_index":0,"time_elapsed":3817,"internal_node_id":"0.0-0.0","protocol_sum":"","subject_identifier":503,"subject_sum":[199,93,63,31,91,205,105,20,208,51,28,229,236,23,192,219,143,32,112,162,212,40,95,142,63,241,28,108,161,145,104,255],"subject_pair":251,"STUDY_ID":"66a3ed3c5d10d0e7d8a6b9da","PROLIFIC_PID":"5bac1d9dc1155b0001175e55","SESSION_ID":"66a3f565bacbb4c2013c8b2b","practice_instructions":1,"leaderboard_instructions":0,"bonus":0,"reveal_word":true,"self_rating":"2","confidence":"100"},{"view_history":"[{\"page_index\":0,\"viewing_time\":4928.5}]","rt":4929,"trial_type":"instructions","trial_index":1,"time_elapsed":8747,"internal_node_id":"0.0-1.0","protocol_sum":"","subject_identifier":503,"subject_sum":[199,93,63,31,91,205,105,20,208,51,28,229,236,23,192,219,143,32,112,162,212,40,95,142,63,241,28,108,161,145,104,255],"subject_pair":251,"STUDY_ID":"66a3ed3c5d10d0e7d8a6b9da","PROLIFIC_PID":"5bac1d9dc1155b0001175e55","SESSION_ID":"66a3f565bacbb4c2013c8b2b","practice_instructions":1,"leaderboard_instructions":0,"bonus":0,"reveal_word":true,"self_rating":"2","confidence":"100"},{"view_history":"[{\"page_index\":0,\"viewing_time\":20389.89999999851}]","rt":20390.70000000298,"trial_type":"instructions","trial_index":2,"time_elapsed":29140,"internal_node_id":"0.0-2.0-0.0","protocol_sum":"","subject_identifier":503,"subject_sum":[199,93,63,31,91,205,105,20,208,51,28,229,236,23,192,219,143,32,112,162,212,40,95,142,63,241,28,108,161,145,104,255],"subject_pair":251,"STUDY_ID":"66a3ed3c5d10d0e7d8a6b9da","PROLIFIC_PID":"5bac1d9dc1155b0001175e55","SESSION_ID":"66a3f565bacbb4c2013c8b2b","practice_instructions":1,"leaderboard_instructions":0,"bonus":0,"reveal_word":true,"self_rating":"2","confidence":"100"},{"rt":8308.60000000149,"responses":"{\"Q0\":\"... reveal the word with as <b>few letter guesses</b> as possible\"}","question_order":"[0]","trial_type":"survey-multi-choice","trial_index":3,"time_elapsed":37451,"internal_node_id":"0.0-2.0-1.0","protocol_sum":"","subject_identifier":503,"subject_sum":[199,93,63,31,91,205,105,20,208,51,28,229,236,23,192,219,143,32,112,162,212,40,95,142,63,241,28,108,161,145,104,255],"subject_pair":251,"correct":true,"test_part":"multichoice_nonpretend","STUDY_ID":"66a3ed3c5d10d0e7d8a6b9da","PROLIFIC_PID":"5bac1d9dc1155b0001175e55","SESSION_ID":"66a3f565bacbb4c2013c8b2b","practice_instructions":1,"leaderboard_instructions":0,"bonus":0,"reveal_word":true,"self_rating":"2","confidence":"100"},{"view_history":"[{\"page_index\":0,\"viewing_time\":2013.0999999940395}]","rt":2013.8999999985099,"trial_type":"instructions","trial_index":4,"time_elapsed":39467,"internal_node_id":"0.0-3.0","protocol_sum":"","subject_identifier":503,"subject_sum":[199,93,63,31,91,205,105,20,208,51,28,229,236,23,192,219,143,32,112,162,212,40,95,142,63,241,28,108,161,145,104,255],"subject_pair":251,"STUDY_ID":"66a3ed3c5d10d0e7d8a6b9da","PROLIFIC_PID":"5bac1d9dc1155b0001175e55","SESSION_ID":"66a3f565bacbb4c2013c8b2b","practice_instructions":1,"leaderboard_instructions":0,"bonus":0,"reveal_word":true,"self_rating":"2","confidence":"100"},{"word":"ZEBRA","click_log":{"letter":["","E","A","R","Z","B"],"t":[0,4358.5999999940395,8772.29999999702,18377.29999999702,21393.29999999702,22877.29999999702],"hit":[null,1,1,1,1,1],"asked":["","E","EA","EAR","EARZ","EARZB"],"word_state":["_____","_E___","_E__A","_E_RA","ZE_RA","ZEBRA"]},"hover_log":{"letter":["?","?","?","U","?","?","?","?","?","?","?","?","?","?","?","?","?","?","?","?","?","?","?","?","?","?","?","?","?","V","V","?","?","?","?","?","?","?","?","?","?","?","?","?","E","E","E","?","N","N","?","?","?","?","X","X","X","X","X","X","?","W","W","W","W","W","W","W","W","W","W","W","W","W","W","W","W","W","W","V","V","?","?","?","?","?","?","?","?","?","?","?","?","?","?","?","?","?","?","?","?","?","?","?","?","?","?","?","?","?","?","?","?","?","?","?","?","?","?","?","?","?","?","?","?","?","?","?","?","A","A","A","A","A","A","A","A","A","A","A","A","A","A","A","A","A","A","A","A","A","A","A","A","A","A","A","A","C","D","D","D","D","D","D","D","D","D","D","D","?","E","E","E","E","E","E","E","E","E","E","E","E","E","E","E","E","E","E","E","E","E","E","E","E","E","E","E","E","E","E","E","E","E","E","E","E","E","E","E","E","E","E","E","E","E","E","E","E","E","E","E","E","E","E","E","?","?","M","?","U","?","?","?","?","?","?","?","?","?","?","?","?","?","?","?","?","?","?","?","?","?","?","?","?","?","?","?","?","?","?","?","?","?","?","?","?","?","?","?","?","?","?","?","?","?","?","?","?","?","?","?","?","?","?","?","?","?","?","?","?","?","?","?","?","?","?","?","?","?","?","?","?","?","?","?","?","?","?","?","?","?","?","?","?","?","?","?","?","?","?","?","?","?","?","?","?","?","?","?","?","?","?","?","?","?","?","?","?","?","?","?","?","?","?","?","?","?","?","?","?","?","?","?","?","?","?","?","?","?","?","?","?","?","?","?","?","?","?","?","?","?","?","?","?","?","?","?","?","?","?","?","?","?","?","?","?","K","K","K","?","?","?","?","?","?","?","?","?","?","?","?","?","?","?","A","A","A","A","A","A","A","A","A","A","A","A","A","A","A","A","A","A","A","A","A","A","A","A","A","A","A","A","A","A","A","A","A","A","A","A","A","A","A","A","A","A","?","?","K","?","T","U","?","?","?","?","?","?","?","?","?","?","?","?","?","?","?","?","?","?","?","?","?","?","?","?","?","?","?","?","?","?","V","V","V","V","?","?","?","?","?","W","W","W","W","W","W","W","W","W","W","W","W","W","W","W","W","W","W","W","W","W","W","W","W","W","W","W","W","W","W","W","W","W","W","W","?","?","?","?","?","?","?","?","?","?","?","?","W","W","W","W","W","W","W","W","W","W","W","W","W","W","W","W","W","W","W","W","W","W","W","W","W","W","W","W","W","W","W","W","W","W","W","W","W","W","W","W","W","W","W","W","W","W","W","W","W","W","W","W","W","W","W","W","W","W","W","W","W","W","W","W","W","W","W","W","W","W","W","W","W","W","W","W","W","W","W","W","W","W","W","W","W","W","W","W","W","W","W","W","W","W","W","W","W","W","W","W","W","W","W","W","W","W","W","?","?","?","?","?","?","?","?","?","?","?","?","?","?","?","?","?","?","?","?","?","?","?","?","?","?","?","?","?","?","?","?","?","?","?","?","?","?","?","?","?","?","?","?","?","?","?","?","?","?","?","?","?","?","?","?","?","?","?","?","?","?","?","?","?","?","?","?","?","?","?","?","?","?","?","?","?","?","?","?","?","?","?","?","?","?","?","?","?","?","?","?","?","?","?","?","?","?","?","N","N","N","N","N","N","N","N","?","?","?","?","?","?","?","?","?","?","?","?","?","?","?","?","?","?","?","?","?","?","?","?","?","?","?","?","?","?","G","G","G","G","G","?","?","?","?","P","P","P","P","P","P","P","?","Q","Q","?","R","R","R","R","R","R","R","R","R","R","R","R","R","R","R","R","R","R","R","R","R","R","R","R","R","R","R","R","R","Y","?","?","?","?","X","X","X","X","X","X","X","?","W","W","W","?","?","V","V","V","V","V","V","V","V","V","V","V","V","V","V","V","V","V","V","V","?","?","?","?","?","?","?","?","?","?","T","T","T","T","T","T","T","?","?","?","?","?","?","?","T","T","T","T","T","T","?","U","U","V","?","?","?","?","?","?","Z","Z","Z","Z","Z","Z","Z","Z","Z","Z","Z","Z","Z","Z","Z","Z","Z","Z","Z","Z","Z","Y","?","?","?","?","X","X","X","?","?","?","?","?","?","?","D","D","D","D","D","D","D","D","D","B","B","B","B","B","B","B","B","B","B","B","B","B","B","?","U","?","?","?","?","?","?","?","?","?","?","?","?","?","?","?","?","?","?","?","?","?","?","?","?","?","?","?","?","?","?","?","?","?","?","?","?","?","?","?","?","?","?","?","V","?","?","?","?","?","?","Y","?","?","?","?","?","?","?"],"t":[112,129,144,172,182,215,226,242,259,275,289,306,323,342,358,374,391,406,423,441,467,488,505,522,538,555,572,588,607,624,639,655,672,689,706,724,740,757,773,789,806,823,838,886,900,923,939,956,973,989,1006,1023,1039,1055,1072,1089,1109,1122,1139,1156,1172,1190,1207,1222,1239,1255,1271,1288,1305,1321,1338,1355,1371,1388,1405,1421,1440,1454,1473,1489,1519,1616,1629,1658,1672,1689,1705,1722,1739,1757,1772,1792,1806,1879,1885,1905,1913,2025,2083,2105,2122,2139,2157,2173,2190,2207,2223,2239,2256,2272,2289,2305,2323,2340,2356,2373,2390,2405,2423,2440,2457,2472,2505,2524,2546,2572,2590,2607,2622,2658,2672,2688,2706,2723,2739,2756,2774,2790,2806,2824,2841,2873,2890,2907,2923,2939,2972,2989,3006,3022,3039,3056,3072,3089,3106,3123,3139,3224,3248,3273,3300,3311,3338,3355,3372,3388,3406,3423,3439,3455,3472,3489,3505,3523,3546,3556,3579,3592,3609,3625,3642,3660,3677,3704,3721,3738,3754,3771,3788,3804,3821,3837,3854,3871,3887,3904,3921,3937,3954,3972,3988,4004,4023,4039,4055,4072,4089,4105,4122,4138,4154,4172,4198,4236,4256,4276,4304,4322,4338,4356,4373,4389,4405,4424,4440,4456,4473,4490,4506,4523,4541,4556,4573,4590,4633,4656,4679,4706,4722,4739,4755,4771,4789,4805,4822,4839,4856,4872,4888,4905,4921,4938,4954,4971,4988,5004,5021,5038,5054,5071,5088,5104,5121,5138,5154,5171,5188,5204,5221,5238,5285,5313,5360,5373,5472,5488,5504,5521,5539,5554,5571,5588,5604,5621,5638,5654,5671,5688,5713,5739,5755,5846,5910,5937,5954,5971,5988,6004,6021,6038,6054,6071,6088,6104,6122,6138,6154,6171,6202,6226,6252,6281,6340,6361,6451,6514,6538,6558,6571,6588,6604,6621,6638,6654,6671,6703,6722,6738,6755,6771,6790,6806,6822,6838,6870,6888,6904,6921,6938,6955,6971,6988,7004,7021,7038,7055,7072,7089,7106,7122,7139,7172,7192,7208,7222,7239,7272,7289,7306,7323,7340,7355,7373,7390,7406,7423,7457,7474,7491,7508,7524,7558,7575,7591,7608,7625,7641,7657,7674,7691,7708,7725,7741,7758,7775,7791,7808,7825,7842,7857,7874,7891,7952,7973,7990,8005,8022,8039,8055,8071,8088,8105,8122,8139,8155,8172,8189,8205,8222,8239,8255,8272,8288,8305,8321,8338,8354,8371,8388,8404,8421,8438,8454,8471,8487,8504,8521,8537,8554,8571,8587,8604,8621,8638,8656,8673,8690,8704,8723,8740,8756,8776,8790,8806,8824,8840,8856,8874,8889,8907,8924,8940,8958,8975,8990,9008,9022,9038,9055,9073,9088,9105,9123,9139,9158,9172,9190,9207,9224,9304,9313,9414,9435,9454,9471,9488,9504,9521,9538,9556,9572,9589,9606,9623,9639,9656,9672,9688,9705,9722,9739,9756,9772,9789,9805,9822,9839,9856,9873,9890,9909,9931,9980,9989,10005,10021,10041,10062,10090,10105,10122,10138,10155,10172,10188,10204,10221,10238,10254,10271,10288,10304,10321,10338,10355,10372,10388,10405,10421,10438,10454,10471,10515,10530,10558,10577,10673,10689,10724,10738,10757,10772,10788,10805,10823,10839,10854,10873,10888,10946,10986,11060,11180,11204,11222,11239,11256,11273,11290,11306,11323,11340,11355,11371,11388,11404,11421,11438,11468,11494,11541,11641,11649,11671,11688,11704,11723,11740,11755,11773,11788,11806,11821,11838,11855,11872,11890,11907,11932,11951,11986,11998,12031,12137,12154,12171,12187,12204,12221,12237,12254,12271,12288,12304,12321,12338,12354,12371,12387,12404,12426,12489,12506,12545,12636,12654,12671,12687,12704,12721,12738,12754,12771,12787,12804,12821,12838,12856,12871,12914,13172,13197,13227,13239,13256,13278,13304,13321,13338,13354,13371,13412,13425,13489,13558,13622,13637,13656,13672,13688,13706,13722,13738,13757,13773,13790,13806,13823,13838,13854,13932,13940,13958,14065,14093,14120,14140,14156,14174,14189,14212,14239,14255,14271,14288,14304,14321,14337,14354,14442,14457,14598,14621,14637,14654,14671,14687,14704,14721,14737,14754,14771,14787,14804,14827,14862,14892,14953,14971,15071,15087,15104,15121,15137,15154,15171,15189,15206,15225,15239,15304,15370,15424,15437,15456,15513,15565,15597,15611,15630,15655,15673,15690,15705,15724,15741,15757,15774,15788,15805,15822,15839,15906,15941,15972,16015,16089,16107,16121,16137,16154,16171,16187,16206,16225,16241,16256,16274,16290,16307,16326,16341,16359,16373,16390,16420,16438,16525,16611,16672,16690,16705,16722,16738,16757,16773,16789,16806,16821,16837,16854,16871,16889,16917,16928,16940,17005,17031,17063,17155,17175,17193,17209,17223,17240,17255,17272,17356,17478,17608,17623,17686,17704,17720,17737,17755,17772,17794,17808,17823,17841,17857,17874,17890,17907,17924,17939,17957,17998,18021,18057,18112,18214,18237,18254,18270,18295,18306,18321,18338,18356,18372,18390,18406,18424,18441,18458,18569,18609,18625,18704,18726,18742,18759,18775,18790,18806,18822,18841,18857,18872,18892,18908,18922,18939,18956,18974,18990,19008,19026,19059,19075,19090,19136,19159,19206,19275,19293,19305,19323,19339,19356,19438,19464,19487,19509,19656,19663,19808,19823,19841,19857,19871,19890,19905,19925,19940,19956,19974,19988,20005,20021,20041,20056,20073,20089,20124,20142,20197,20224,20275,20288,20373,20388,20404,20422,20439,20457,20473,20490,20505,20524,20641,20672,20687,20765,20777,20789,20907,20923,20938,20954,20970,20987,21004,21024,21039,21056,21073,21090,21118,21125,21139,21187,21196,21316,21404,21414,21430,21459,21472,21490,21507,21521,21610,21623,21641,21657,21949,22012,22040,22055,22071,22088,22104,22124,22149,22163,22182,22215,22304,22311,22383,22404,22420,22437,22457,22471,22490,22509,22523,22580,22604,22620,22639,22703,22872,22889,22903,22916,22930,22959,22973,22991,23007,23023,23041,23055,23076,23088,23107,23377,23389,23406,23421,23437,23454,23472,23489,23504,23523,23538,23588,23604,23621,23657,23675,23693,23747,23813,23881,23904,23923,23938,23956,23972,23988,24004,24023,24037,24054,24223,24416,24431,24444,24460,24489,24505,24524,24596,24607,24658,24707,24765,24790,24874,24894],"hit":[null],"x":[0.05782312925170068,0.12585034013605442,0.1598639455782313,0.282312925170068,0.3707482993197279,0.4523809523809524,0.4523809523809524,0.4523809523809524,0.4523809523809524,0.4523809523809524,0.4523809523809524,0.4523809523809524,0.445578231292517,0.4421768707482993,0.4421768707482993,0.4421768707482993,0.4421768707482993,0.4421768707482993,0.4421768707482993,0.4421768707482993,0.4421768707482993,0.4421768707482993,0.4421768707482993,0.4421768707482993,0.4421768707482993,0.4421768707482993,0.4421768707482993,0.4421768707482993,0.4387755102040816,0.445578231292517,0.46258503401360546,0.48639455782312924,0.5,0.5136054421768708,0.5136054421768708,0.5136054421768708,0.5136054421768708,0.5136054421768708,0.5136054421768708,0.5136054421768708,0.5136054421768708,0.5136054421768708,0.5136054421768708,0.5136054421768708,0.5782312925170068,0.5782312925170068,0.5782312925170068,0.5782312925170068,0.5850340136054422,0.6054421768707483,0.6258503401360545,0.6462585034013606,0.6632653061224489,0.6666666666666666,0.6700680272108843,0.6700680272108843,0.6700680272108843,0.6700680272108843,0.6666666666666666,0.6598639455782312,0.6462585034013606,0.6258503401360545,0.608843537414966,0.5986394557823129,0.5986394557823129,0.5986394557823129,0.5986394557823129,0.5986394557823129,0.5986394557823129,0.5986394557823129,0.5986394557823129,0.5986394557823129,0.5986394557823129,0.5986394557823129,0.5986394557823129,0.5986394557823129,0.5986394557823129,0.5986394557823129,0.5544217687074829,0.48639455782312924,0.3707482993197279,-0.12244897959183673,-0.2687074829931973,-0.42517006802721086,-0.46938775510204084,-0.4897959183673469,-0.5136054421768708,-0.5272108843537415,-0.5374149659863946,-0.5408163265306123,-0.54421768707483,-0.5510204081632653,-0.5578231292517006,-0.5578231292517006,-0.5578231292517006,-0.5578231292517006,-0.5578231292517006,-0.5476190476190477,-0.5034013605442177,-0.4897959183673469,-0.47619047619047616,-0.46598639455782315,-0.4489795918367347,-0.4421768707482993,-0.4217687074829932,-0.3877551020408163,-0.3673469387755102,-0.32653061224489793,-0.2925170068027211,-0.25170068027210885,-0.2108843537414966,-0.14625850340136054,-0.07142857142857142,-0.07142857142857142,-0.07142857142857142,-0.07142857142857142,-0.07142857142857142,-0.07142857142857142,-0.07142857142857142,-0.07142857142857142,-0.07142857142857142,-0.07142857142857142,-0.07142857142857142,-0.07142857142857142,-0.07142857142857142,0.0782312925170068,0.0782312925170068,0.07482993197278912,0.061224489795918366,0.04081632653061224,0.03741496598639456,0.03741496598639456,0.034013605442176874,0.030612244897959183,0.027210884353741496,0.023809523809523808,0.02040816326530612,0.02040816326530612,0.02040816326530612,0.017006802721088437,0.017006802721088437,0.01020408163265306,0.01020408163265306,0.01020408163265306,0.01020408163265306,0.01020408163265306,0.01020408163265306,0.01020408163265306,0.01020408163265306,0.01020408163265306,0.01020408163265306,0.01020408163265306,0.01020408163265306,0.01020408163265306,0.01020408163265306,0.01020408163265306,0.01020408163265306,0.25510204081632654,0.3877551020408163,0.42517006802721086,0.43537414965986393,0.43537414965986393,0.4387755102040816,0.4387755102040816,0.445578231292517,0.4489795918367347,0.4557823129251701,0.47278911564625853,0.47959183673469385,0.5034013605442177,0.5170068027210885,0.5306122448979592,0.5408163265306123,0.54421768707483,0.5510204081632653,0.564625850340136,0.5748299319727891,0.5816326530612245,0.5850340136054422,0.5884353741496599,0.5952380952380952,0.5986394557823129,0.5986394557823129,0.5986394557823129,0.5986394557823129,0.5986394557823129,0.5986394557823129,0.5986394557823129,0.5986394557823129,0.5986394557823129,0.5986394557823129,0.5986394557823129,0.5986394557823129,0.5986394557823129,0.5986394557823129,0.5986394557823129,0.5986394557823129,0.5986394557823129,0.5986394557823129,0.5952380952380952,0.5952380952380952,0.5952380952380952,0.5918367346938775,0.5782312925170068,0.5680272108843537,0.5680272108843537,0.5680272108843537,0.5680272108843537,0.5680272108843537,0.5680272108843537,0.5680272108843537,0.5680272108843537,0.5680272108843537,0.5680272108843537,0.5680272108843537,0.5612244897959183,0.5612244897959183,0.5612244897959183,0.5612244897959183,0.5612244897959183,0.5612244897959183,0.5612244897959183,0.5612244897959183,0.5578231292517006,0.54421768707483,0.5068027210884354,0.47959183673469385,0.445578231292517,0.38095238095238093,0.29591836734693877,0.23809523809523808,0.20068027210884354,0.16666666666666666,0.15306122448979592,0.11564625850340136,0.08503401360544217,0.07482993197278912,0.07482993197278912,0.07482993197278912,0.07482993197278912,0.07482993197278912,0.07482993197278912,0.07482993197278912,0.07482993197278912,0.07142857142857142,0.07142857142857142,0.07142857142857142,0.07142857142857142,0.07142857142857142,0.07142857142857142,0.07142857142857142,0.07142857142857142,0.07142857142857142,0.07142857142857142,0.07142857142857142,0.07142857142857142,0.07142857142857142,0.07142857142857142,0.07142857142857142,0.07142857142857142,0.07142857142857142,0.07142857142857142,0.07142857142857142,0.07142857142857142,0.07142857142857142,0.07142857142857142,0.07142857142857142,0.07142857142857142,0.07142857142857142,0.07142857142857142,0.07142857142857142,0.07142857142857142,0.07142857142857142,0.07142857142857142,0.07142857142857142,0.07142857142857142,0.07142857142857142,0.07142857142857142,0.07142857142857142,0.07142857142857142,0.07142857142857142,0.07142857142857142,0.07142857142857142,0.07142857142857142,0.07142857142857142,0.07142857142857142,0.07142857142857142,0.07142857142857142,0.07142857142857142,0.07142857142857142,0.07142857142857142,0.07142857142857142,0.07142857142857142,0.07142857142857142,0.07142857142857142,0.07142857142857142,0.07142857142857142,0.07142857142857142,0.07142857142857142,0.07142857142857142,0.07142857142857142,0.07142857142857142,0.07142857142857142,0.07142857142857142,0.07142857142857142,0.07142857142857142,0.07142857142857142,0.07142857142857142,0.07142857142857142,0.07142857142857142,0.07142857142857142,0.07142857142857142,0.07142857142857142,0.07142857142857142,0.07142857142857142,0.07142857142857142,0.07142857142857142,0.07142857142857142,0.07142857142857142,0.07142857142857142,0.07142857142857142,0.07142857142857142,0.07142857142857142,0.07142857142857142,0.07142857142857142,0.07142857142857142,0.07142857142857142,0.07142857142857142,0.07142857142857142,0.07142857142857142,0.07142857142857142,0.07142857142857142,0.07142857142857142,0.07142857142857142,0.07142857142857142,0.07142857142857142,0.07142857142857142,0.07142857142857142,0.07142857142857142,0.07142857142857142,0.07142857142857142,0.07142857142857142,0.07142857142857142,0.07142857142857142,0.07142857142857142,0.07142857142857142,0.07142857142857142,0.07142857142857142,0.07142857142857142,0.07142857142857142,0.07142857142857142,0.07142857142857142,0.07142857142857142,0.07142857142857142,0.07142857142857142,0.07142857142857142,0.07142857142857142,0.07142857142857142,0.07142857142857142,0.07142857142857142,0.07142857142857142,0.07142857142857142,0.07142857142857142,0.07142857142857142,0.07142857142857142,0.07142857142857142,0.07142857142857142,0.07142857142857142,0.07482993197278912,0.07482993197278912,0.0782312925170068,0.0782312925170068,0.0782312925170068,0.0782312925170068,0.0782312925170068,0.0782312925170068,0.0782312925170068,0.0782312925170068,0.08503401360544217,0.08503401360544217,0.08843537414965986,0.08843537414965986,0.08843537414965986,0.08843537414965986,0.08843537414965986,0.08843537414965986,0.08843537414965986,0.08843537414965986,0.08843537414965986,0.08843537414965986,0.08843537414965986,0.08843537414965986,0.08503401360544217,0.08163265306122448,0.0782312925170068,0.07482993197278912,0.07482993197278912,0.07142857142857142,0.06462585034013606,0.06462585034013606,0.05782312925170068,0.05442176870748299,0.047619047619047616,0.04421768707482993,0.03741496598639456,0.034013605442176874,0.030612244897959183,0.027210884353741496,0.023809523809523808,0.023809523809523808,0.02040816326530612,0.017006802721088437,0.013605442176870748,0.013605442176870748,0.013605442176870748,0.013605442176870748,0.013605442176870748,0.013605442176870748,0.013605442176870748,0.013605442176870748,0.013605442176870748,0.013605442176870748,0.013605442176870748,0.013605442176870748,0.013605442176870748,0.013605442176870748,0.013605442176870748,0.013605442176870748,0.013605442176870748,0.013605442176870748,0.013605442176870748,0.013605442176870748,0.013605442176870748,0.013605442176870748,0.013605442176870748,0.013605442176870748,0.013605442176870748,0.013605442176870748,0.013605442176870748,0.013605442176870748,0.013605442176870748,0.013605442176870748,0.013605442176870748,0.013605442176870748,0.013605442176870748,0.013605442176870748,0.023809523809523808,0.05102040816326531,0.09183673469387756,0.1292517006802721,0.17006802721088435,0.22789115646258504,0.32653061224489793,0.3707482993197279,0.38095238095238093,0.391156462585034,0.391156462585034,0.391156462585034,0.391156462585034,0.391156462585034,0.391156462585034,0.391156462585034,0.391156462585034,0.391156462585034,0.391156462585034,0.391156462585034,0.391156462585034,0.391156462585034,0.391156462585034,0.391156462585034,0.391156462585034,0.391156462585034,0.391156462585034,0.391156462585034,0.391156462585034,0.391156462585034,0.391156462585034,0.391156462585034,0.391156462585034,0.391156462585034,0.391156462585034,0.4013605442176871,0.41836734693877553,0.42857142857142855,0.4489795918367347,0.46598639455782315,0.4897959183673469,0.4965986394557823,0.5102040816326531,0.5204081632653061,0.5340136054421769,0.54421768707483,0.5544217687074829,0.5544217687074829,0.5544217687074829,0.5544217687074829,0.5544217687074829,0.5544217687074829,0.5544217687074829,0.5544217687074829,0.5544217687074829,0.5544217687074829,0.5544217687074829,0.5544217687074829,0.5544217687074829,0.5544217687074829,0.5544217687074829,0.5544217687074829,0.5544217687074829,0.5544217687074829,0.5544217687074829,0.5544217687074829,0.5544217687074829,0.5544217687074829,0.5544217687074829,0.5544217687074829,0.5544217687074829,0.5544217687074829,0.5544217687074829,0.5544217687074829,0.5544217687074829,0.5544217687074829,0.5544217687074829,0.5544217687074829,0.5578231292517006,0.5578231292517006,0.5612244897959183,0.5612244897959183,0.5612244897959183,0.5612244897959183,0.5612244897959183,0.5612244897959183,0.5612244897959183,0.5612244897959183,0.5612244897959183,0.5612244897959183,0.5612244897959183,0.5612244897959183,0.5578231292517006,0.5578231292517006,0.5544217687074829,0.5544217687074829,0.5544217687074829,0.5544217687074829,0.5544217687074829,0.5544217687074829,0.5544217687074829,0.5544217687074829,0.5544217687074829,0.5510204081632653,0.5510204081632653,0.5510204081632653,0.5476190476190477,0.5476190476190477,0.5476190476190477,0.5476190476190477,0.5476190476190477,0.5476190476190477,0.5476190476190477,0.5476190476190477,0.5476190476190477,0.5476190476190477,0.5476190476190477,0.5476190476190477,0.5476190476190477,0.5476190476190477,0.5476190476190477,0.5476190476190477,0.5476190476190477,0.5476190476190477,0.5476190476190477,0.5476190476190477,0.5476190476190477,0.5476190476190477,0.5476190476190477,0.5476190476190477,0.5476190476190477,0.5476190476190477,0.5476190476190477,0.5476190476190477,0.5476190476190477,0.5476190476190477,0.5476190476190477,0.5476190476190477,0.5476190476190477,0.5476190476190477,0.5476190476190477,0.5476190476190477,0.5476190476190477,0.5476190476190477,0.5476190476190477,0.5476190476190477,0.5476190476190477,0.5476190476190477,0.5476190476190477,0.5476190476190477,0.5476190476190477,0.5476190476190477,0.5476190476190477,0.5476190476190477,0.5476190476190477,0.5476190476190477,0.5476190476190477,0.5476190476190477,0.5476190476190477,0.5476190476190477,0.5476190476190477,0.5476190476190477,0.5476190476190477,0.5476190476190477,0.5476190476190477,0.5476190476190477,0.5476190476190477,0.5476190476190477,0.5476190476190477,0.5476190476190477,0.5476190476190477,0.5476190476190477,0.5476190476190477,0.5476190476190477,0.5476190476190477,0.5476190476190477,0.5476190476190477,0.5476190476190477,0.5476190476190477,0.5476190476190477,0.5476190476190477,0.5476190476190477,0.5476190476190477,0.5476190476190477,0.5476190476190477,0.5476190476190477,0.5476190476190477,0.5476190476190477,0.5476190476190477,0.5476190476190477,0.5476190476190477,0.5476190476190477,0.5476190476190477,0.5476190476190477,0.5476190476190477,0.5476190476190477,0.5476190476190477,0.5476190476190477,0.5476190476190477,0.5884353741496599,0.5884353741496599,0.5884353741496599,0.5884353741496599,0.5884353741496599,0.5884353741496599,0.5884353741496599,0.5884353741496599,0.5884353741496599,0.5918367346938775,0.5918367346938775,0.5918367346938775,0.5918367346938775,0.5918367346938775,0.5918367346938775,0.5918367346938775,0.5918367346938775,0.5918367346938775,0.5918367346938775,0.5918367346938775,0.6292517006802721,0.6428571428571429,0.6598639455782312,0.673469387755102,0.6836734693877551,0.6904761904761905,0.7006802721088435,0.7040816326530612,0.7040816326530612,0.7040816326530612,0.7040816326530612,0.7040816326530612,0.7040816326530612,0.7040816326530612,0.7040816326530612,0.7040816326530612,0.7074829931972789,0.7074829931972789,0.7074829931972789,0.7074829931972789,0.7074829931972789,0.7074829931972789,0.7074829931972789,0.7074829931972789,0.7074829931972789,0.7074829931972789,0.7074829931972789,0.7074829931972789,0.7074829931972789,0.7074829931972789,0.7074829931972789,0.7074829931972789,0.7074829931972789,0.7074829931972789,0.7074829931972789,0.7074829931972789,0.7074829931972789,0.7074829931972789,0.7074829931972789,0.7074829931972789,0.7074829931972789,0.7074829931972789,0.7074829931972789,0.7074829931972789,0.7074829931972789,0.7074829931972789,0.7074829931972789,0.7074829931972789,0.7074829931972789,0.7074829931972789,0.7074829931972789,0.7074829931972789,0.7074829931972789,0.6530612244897959,0.6530612244897959,0.6530612244897959,0.6462585034013606,0.6428571428571429,0.6258503401360545,0.6054421768707483,0.5918367346938775,0.5680272108843537,0.5578231292517006,0.5578231292517006,0.5578231292517006,0.5578231292517006,0.5578231292517006,0.5544217687074829,0.5544217687074829,0.5544217687074829,0.5544217687074829,0.5510204081632653,0.5510204081632653,0.5510204081632653,0.5510204081632653,0.5510204081632653,0.5510204081632653,0.5510204081632653,0.5510204081632653,0.5510204081632653,0.5510204081632653,0.5510204081632653,0.5510204081632653,0.5476190476190477,0.5408163265306123,0.5374149659863946,0.5238095238095238,0.5102040816326531,0.5034013605442177,0.5,0.5,0.5,0.5,0.5,0.3843537414965986,0.3843537414965986,0.3843537414965986,0.38095238095238093,0.38095238095238093,0.37755102040816324,0.37755102040816324,0.37755102040816324,0.37755102040816324,0.37755102040816324,0.37755102040816324,0.37755102040816324,0.37755102040816324,0.37755102040816324,0.37755102040816324,0.37755102040816324,0.37755102040816324,0.37755102040816324,0.37755102040816324,0.37755102040816324,0.37755102040816324,0.7653061224489796,0.8095238095238095,0.8333333333333334,0.8435374149659864,0.8503401360544217,0.8537414965986394,0.8639455782312925,0.8877551020408163,0.8945578231292517,0.8945578231292517,0.8945578231292517,0.8673469387755102,0.8673469387755102,0.8673469387755102,0.8673469387755102,0.8707482993197279,0.8809523809523809,0.9047619047619048,0.9217687074829932,0.9795918367346939,1.0170068027210883,1.0578231292517006,1.0918367346938775,1.1156462585034013,1.129251700680272,1.1360544217687074,1.1394557823129252,1.1462585034013606,1.1462585034013606,1.1462585034013606,1.1462585034013606,1.1462585034013606,1.1462585034013606,1.1462585034013606,1.1462585034013606,1.1462585034013606,1.1462585034013606,1.1462585034013606,1.1462585034013606,1.1462585034013606,1.1462585034013606,1.1462585034013606,1.1462585034013606,1.1462585034013606,1.1428571428571428,1.1394557823129252,1.1394557823129252,1.1394557823129252,1.1394557823129252,1.1394557823129252,1.1394557823129252,0.8129251700680272,0.7993197278911565,0.7891156462585034,0.782312925170068,0.7755102040816326,0.7619047619047619,0.7482993197278912,0.7278911564625851,0.7244897959183674,0.7108843537414966,0.7040816326530612,0.6768707482993197,0.6530612244897959,0.6156462585034014,0.5816326530612245,0.5238095238095238,0.5034013605442177,0.4931972789115646,0.48299319727891155,0.48299319727891155,0.48299319727891155,0.48299319727891155,0.48299319727891155,0.48299319727891155,0.48299319727891155,0.48299319727891155,0.4387755102040816,0.4387755102040816,0.4387755102040816,0.4387755102040816,0.4387755102040816,0.4387755102040816,0.4387755102040816,0.4387755102040816,0.4387755102040816,0.4387755102040816,0.4387755102040816,0.35034013605442177,0.3231292517006803,0.2857142857142857,0.2619047619047619,0.23469387755102042,0.22108843537414966,0.20748299319727892,0.19727891156462585,0.1836734693877551,0.16666666666666666,0.1564625850340136,0.1564625850340136,0.1564625850340136,0.1564625850340136,0.1564625850340136,0.1598639455782313,0.18027210884353742,0.20408163265306123,0.21428571428571427,0.21428571428571427,0.21428571428571427,0.21428571428571427,0.21428571428571427,0.21428571428571427,0.17687074829931973,0.17687074829931973,0.17687074829931973,0.17687074829931973,0.17687074829931973,0.19387755102040816,0.22448979591836735,0.2755102040816326,0.3333333333333333,0.41156462585034015,0.782312925170068,0.782312925170068,0.782312925170068,0.782312925170068,0.782312925170068,0.782312925170068,0.9727891156462585,0.9761904761904762,0.9761904761904762,0.9761904761904762,0.9761904761904762,0.9761904761904762,0.9761904761904762,0.9761904761904762,0.9965986394557823,0.9965986394557823,1.0068027210884354,1.0068027210884354,1.0068027210884354,1.0068027210884354,1.0068027210884354,1.0068027210884354,1.0068027210884354,1.0068027210884354,0.9829931972789115,0.9727891156462585,0.9455782312925171,0.8537414965986394,0.8095238095238095,0.7721088435374149,0.7517006802721088,0.7517006802721088,0.7346938775510204,0.7210884353741497,0.7006802721088435,0.6836734693877551,0.7653061224489796,0.6632653061224489,0.5374149659863946,0.5068027210884354,0.48639455782312924,0.46598639455782315,0.4523809523809524,0.43537414965986393,0.4217687074829932,0.4217687074829932,0.4217687074829932,0.4217687074829932,0.4217687074829932,0.4217687074829932,0.4217687074829932,0.16326530612244897,0.16326530612244897,0.16326530612244897,0.16326530612244897,0.16326530612244897,0.1598639455782313,0.1598639455782313,0.15306122448979592,0.15306122448979592,0.15306122448979592,0.15306122448979592,0.15306122448979592,0.15306122448979592,0.15306122448979592,0.22448979591836735,0.2653061224489796,0.3163265306122449,0.3741496598639456,0.5170068027210885,0.6122448979591837,0.7312925170068028,0.7721088435374149,0.8095238095238095,0.8231292517006803,0.8333333333333334,0.8333333333333334,0.8333333333333334,0.8333333333333334,0.7517006802721088,0.7517006802721088,0.7517006802721088,0.7517006802721088,0.7517006802721088,0.7517006802721088,0.7517006802721088,0.7517006802721088,0.7517006802721088,0.7517006802721088,0.7517006802721088,0.7517006802721088,0.7517006802721088,0.7517006802721088,0.7517006802721088,0.7517006802721088,0.7517006802721088,0.7517006802721088,0.7517006802721088,0.5238095238095238,0.5170068027210885,0.5136054421768708,0.5136054421768708,0.5136054421768708,0.5136054421768708,0.5136054421768708,0.5136054421768708,0.5136054421768708,0.5136054421768708,0.5136054421768708,0.4965986394557823,0.47959183673469385,0.5034013605442177,0.5068027210884354,0.5238095238095238,0.5408163265306123,0.5544217687074829,0.5680272108843537,0.8503401360544217,0.9115646258503401,0.9115646258503401,0.9115646258503401,0.9115646258503401,0.9115646258503401,1.054421768707483,1.0408163265306123],"y":[0.319047619047619,0.6619047619047619,0.7380952380952381,0.9476190476190476,1.1,1.2333333333333334,1.2333333333333334,1.2333333333333334,1.2333333333333334,1.2333333333333334,1.2333333333333334,1.2333333333333334,1.2333333333333334,1.2333333333333334,1.223809523809524,1.223809523809524,1.223809523809524,1.223809523809524,1.223809523809524,1.223809523809524,1.223809523809524,1.223809523809524,1.223809523809524,1.223809523809524,1.223809523809524,1.223809523809524,1.223809523809524,1.223809523809524,1.1952380952380952,1.1285714285714286,0.9476190476190476,0.7285714285714285,0.5095238095238095,0.2904761904761905,0.2904761904761905,0.2904761904761905,0.2904761904761905,0.2904761904761905,0.2904761904761905,0.2904761904761905,0.2904761904761905,0.2904761904761905,0.2904761904761905,0.2904761904761905,-0.15714285714285714,-0.03333333333333333,0.07142857142857142,0.21428571428571427,0.3761904761904762,0.48095238095238096,0.6238095238095238,0.7095238095238096,0.8333333333333334,0.9,0.9380952380952381,0.9666666666666667,0.9761904761904762,0.9857142857142858,0.9952380952380953,1.0142857142857142,1.0142857142857142,1.0142857142857142,1.0142857142857142,1.0142857142857142,1.0142857142857142,1.0142857142857142,1.0142857142857142,1.0142857142857142,1.0142857142857142,1.0142857142857142,1.0142857142857142,1.0142857142857142,1.0142857142857142,1.0142857142857142,1.0142857142857142,1.0142857142857142,1.0142857142857142,1.0142857142857142,1.0142857142857142,1.0142857142857142,1.0142857142857142,0.9761904761904762,0.919047619047619,0.8523809523809524,0.8142857142857143,0.7857142857142857,0.7476190476190476,0.7285714285714285,0.7285714285714285,0.7285714285714285,0.7285714285714285,0.7285714285714285,0.7285714285714285,0.7285714285714285,0.7285714285714285,0.7285714285714285,0.7285714285714285,0.6904761904761905,0.6523809523809524,0.6428571428571429,0.6333333333333333,0.6142857142857143,0.5857142857142857,0.5761904761904761,0.5571428571428572,0.5380952380952381,0.5285714285714286,0.49047619047619045,0.4714285714285714,0.46190476190476193,0.4523809523809524,0.40476190476190477,0.38571428571428573,0.38571428571428573,0.38571428571428573,0.38571428571428573,0.38571428571428573,0.38571428571428573,0.38571428571428573,0.38571428571428573,0.38571428571428573,0.38571428571428573,0.38571428571428573,0.38571428571428573,0.38571428571428573,0.12857142857142856,0.11904761904761904,0.1,0.09047619047619047,0.07142857142857142,0.06190476190476191,0.06190476190476191,0.06190476190476191,0.05238095238095238,0.04285714285714286,0.03333333333333333,0.03333333333333333,0.023809523809523808,0.023809523809523808,0.023809523809523808,0.014285714285714285,0.014285714285714285,0.004761904761904762,0.004761904761904762,0.004761904761904762,0.004761904761904762,0.004761904761904762,0.004761904761904762,0.004761904761904762,0.004761904761904762,0.004761904761904762,0.004761904761904762,0.004761904761904762,0.004761904761904762,0.004761904761904762,0.004761904761904762,0.004761904761904762,0.004761904761904762,0.004761904761904762,0.004761904761904762,0.004761904761904762,0.004761904761904762,0.004761904761904762,0.004761904761904762,0.014285714285714285,0.014285714285714285,0.023809523809523808,0.023809523809523808,0.023809523809523808,0.023809523809523808,0.023809523809523808,0.023809523809523808,0.023809523809523808,0.023809523809523808,0.023809523809523808,0.023809523809523808,0.023809523809523808,0.023809523809523808,0.023809523809523808,0.023809523809523808,0.023809523809523808,0.023809523809523808,0.023809523809523808,0.023809523809523808,0.023809523809523808,0.023809523809523808,0.023809523809523808,0.023809523809523808,0.023809523809523808,0.023809523809523808,0.023809523809523808,0.023809523809523808,0.023809523809523808,0.023809523809523808,0.023809523809523808,0.023809523809523808,0.023809523809523808,0.023809523809523808,0.023809523809523808,0.023809523809523808,0.023809523809523808,0.023809523809523808,0.023809523809523808,0.023809523809523808,0.023809523809523808,0.023809523809523808,0.023809523809523808,0.023809523809523808,0.023809523809523808,0.023809523809523808,0.023809523809523808,0.023809523809523808,0.023809523809523808,0.023809523809523808,0.023809523809523808,0.023809523809523808,0.023809523809523808,0.023809523809523808,0.023809523809523808,0.023809523809523808,0.023809523809523808,0.023809523809523808,0.023809523809523808,0.04285714285714286,0.07142857142857142,0.22380952380952382,0.32857142857142857,0.5095238095238095,0.8142857142857143,1.1095238095238096,1.3285714285714285,1.4904761904761905,1.6047619047619048,1.6714285714285715,1.6904761904761905,1.6333333333333333,1.6142857142857143,1.6047619047619048,1.6047619047619048,1.6047619047619048,1.6047619047619048,1.6047619047619048,1.6047619047619048,1.6047619047619048,1.5952380952380953,1.5952380952380953,1.5952380952380953,1.5952380952380953,1.5952380952380953,1.5952380952380953,1.5952380952380953,1.5952380952380953,1.5952380952380953,1.5952380952380953,1.5952380952380953,1.5952380952380953,1.5952380952380953,1.5952380952380953,1.5952380952380953,1.5952380952380953,1.5952380952380953,1.5952380952380953,1.5952380952380953,1.5952380952380953,1.5952380952380953,1.5952380952380953,1.5952380952380953,1.5952380952380953,1.5952380952380953,1.5952380952380953,1.5952380952380953,1.5952380952380953,1.5952380952380953,1.5952380952380953,1.5952380952380953,1.5952380952380953,1.5952380952380953,1.5952380952380953,1.5952380952380953,1.5952380952380953,1.5952380952380953,1.5952380952380953,1.5952380952380953,1.5952380952380953,1.5952380952380953,1.5952380952380953,1.5952380952380953,1.5952380952380953,1.5952380952380953,1.5952380952380953,1.5952380952380953,1.5952380952380953,1.5952380952380953,1.5952380952380953,1.5952380952380953,1.5952380952380953,1.5952380952380953,1.5952380952380953,1.5952380952380953,1.5952380952380953,1.5952380952380953,1.5952380952380953,1.5952380952380953,1.5952380952380953,1.5952380952380953,1.5952380952380953,1.5952380952380953,1.5952380952380953,1.5952380952380953,1.5952380952380953,1.5952380952380953,1.5952380952380953,1.5952380952380953,1.5952380952380953,1.4523809523809523,1.4523809523809523,1.4523809523809523,1.4523809523809523,1.4523809523809523,1.4523809523809523,1.4523809523809523,1.4523809523809523,1.4523809523809523,1.4523809523809523,1.4523809523809523,1.4523809523809523,1.4523809523809523,1.4523809523809523,1.4523809523809523,1.4523809523809523,1.4523809523809523,1.4523809523809523,1.4523809523809523,1.4523809523809523,1.4523809523809523,1.4523809523809523,1.4523809523809523,1.4523809523809523,1.4523809523809523,1.4523809523809523,1.4523809523809523,1.4523809523809523,1.4523809523809523,1.4523809523809523,1.4523809523809523,1.4523809523809523,1.4523809523809523,1.4523809523809523,1.4523809523809523,1.4523809523809523,1.4523809523809523,1.4523809523809523,1.4523809523809523,1.4523809523809523,1.4523809523809523,1.4523809523809523,1.4523809523809523,1.4523809523809523,1.4523809523809523,1.4523809523809523,1.4523809523809523,1.4523809523809523,1.4523809523809523,1.4523809523809523,1.4523809523809523,1.4523809523809523,1.4238095238095239,1.4047619047619047,1.3857142857142857,1.3666666666666667,1.338095238095238,1.2523809523809524,1.1761904761904762,1.1,1.0333333333333334,0.9571428571428572,0.919047619047619,0.8809523809523809,0.8428571428571429,0.8142857142857143,0.7857142857142857,0.7571428571428571,0.719047619047619,0.680952380952381,0.6238095238095238,0.5857142857142857,0.5476190476190477,0.5095238095238095,0.44285714285714284,0.3952380952380952,0.3476190476190476,0.30952380952380953,0.23333333333333334,0.21428571428571427,0.20476190476190476,0.1761904761904762,0.1761904761904762,0.16666666666666666,0.15714285714285714,0.15714285714285714,0.1380952380952381,0.1380952380952381,0.12857142857142856,0.11904761904761904,0.10952380952380952,0.1,0.08095238095238096,0.06190476190476191,0.05238095238095238,0.04285714285714286,0.03333333333333333,0.014285714285714285,0.014285714285714285,0.004761904761904762,0.004761904761904762,0.004761904761904762,0.004761904761904762,0.004761904761904762,0.004761904761904762,0.004761904761904762,0.004761904761904762,0.004761904761904762,0.004761904761904762,0.004761904761904762,0.004761904761904762,0.004761904761904762,0.004761904761904762,0.004761904761904762,0.004761904761904762,0.004761904761904762,0.004761904761904762,0.004761904761904762,0.004761904761904762,0.004761904761904762,0.004761904761904762,0.004761904761904762,0.004761904761904762,0.004761904761904762,0.004761904761904762,0.004761904761904762,0.004761904761904762,0.004761904761904762,0.004761904761904762,0.004761904761904762,0.03333333333333333,0.08095238095238096,0.19523809523809524,0.3476190476190476,0.5380952380952381,0.7095238095238096,0.8904761904761904,1.0238095238095237,1.1857142857142857,1.2428571428571429,1.2523809523809524,1.2619047619047619,1.2619047619047619,1.2619047619047619,1.2619047619047619,1.2619047619047619,1.2619047619047619,1.2619047619047619,1.2619047619047619,1.2619047619047619,1.2619047619047619,1.2619047619047619,1.2619047619047619,1.2619047619047619,1.2619047619047619,1.2619047619047619,1.2619047619047619,1.2619047619047619,1.2619047619047619,1.2619047619047619,1.2619047619047619,1.2619047619047619,1.2619047619047619,1.2619047619047619,1.2619047619047619,1.2523809523809524,1.223809523809524,1.1761904761904762,1.119047619047619,1.061904761904762,1.0047619047619047,0.9571428571428572,0.919047619047619,0.9,0.8809523809523809,0.8714285714285714,0.861904761904762,0.861904761904762,0.861904761904762,0.861904761904762,0.861904761904762,0.861904761904762,0.861904761904762,0.861904761904762,0.861904761904762,0.861904761904762,0.861904761904762,0.861904761904762,0.861904761904762,0.861904761904762,0.861904761904762,0.861904761904762,0.861904761904762,0.861904761904762,0.861904761904762,0.861904761904762,0.861904761904762,0.861904761904762,0.861904761904762,0.861904761904762,0.861904761904762,0.861904761904762,0.861904761904762,0.861904761904762,0.861904761904762,0.861904761904762,0.861904761904762,0.861904761904762,0.861904761904762,0.861904761904762,0.8428571428571429,0.8428571428571429,0.8333333333333334,0.8333333333333334,0.8333333333333334,0.8333333333333334,0.8333333333333334,0.8333333333333334,0.8333333333333334,0.8333333333333334,0.8333333333333334,0.8333333333333334,0.8333333333333334,0.8333333333333334,0.8428571428571429,0.8428571428571429,0.8428571428571429,0.8428571428571429,0.8428571428571429,0.8428571428571429,0.8428571428571429,0.8428571428571429,0.8428571428571429,0.8428571428571429,0.8428571428571429,0.8523809523809524,0.8523809523809524,0.8523809523809524,0.8523809523809524,0.8523809523809524,0.8523809523809524,0.8523809523809524,0.8523809523809524,0.8523809523809524,0.8523809523809524,0.8523809523809524,0.8523809523809524,0.8523809523809524,0.8523809523809524,0.8523809523809524,0.8523809523809524,0.8523809523809524,0.8523809523809524,0.8523809523809524,0.8523809523809524,0.8523809523809524,0.8523809523809524,0.8523809523809524,0.8523809523809524,0.8523809523809524,0.8523809523809524,0.8523809523809524,0.8523809523809524,0.8523809523809524,0.8523809523809524,0.8523809523809524,0.8523809523809524,0.8523809523809524,0.8523809523809524,0.8523809523809524,0.8523809523809524,0.8523809523809524,0.8523809523809524,0.8523809523809524,0.8523809523809524,0.8523809523809524,0.8523809523809524,0.8523809523809524,0.8523809523809524,0.8523809523809524,0.8523809523809524,0.8523809523809524,0.8523809523809524,0.8523809523809524,0.8523809523809524,0.8523809523809524,0.8523809523809524,0.8523809523809524,0.8523809523809524,0.8523809523809524,0.8523809523809524,0.8523809523809524,0.8523809523809524,0.8523809523809524,0.8523809523809524,0.8523809523809524,0.8523809523809524,0.8523809523809524,0.8523809523809524,0.8523809523809524,0.8523809523809524,0.8523809523809524,0.8523809523809524,0.8523809523809524,0.8523809523809524,0.8523809523809524,0.8523809523809524,0.8523809523809524,0.8523809523809524,0.8523809523809524,0.8523809523809524,0.8523809523809524,0.8523809523809524,0.8523809523809524,0.8523809523809524,0.8523809523809524,0.8523809523809524,0.8523809523809524,0.8523809523809524,0.8523809523809524,0.8523809523809524,0.8523809523809524,0.8523809523809524,0.8523809523809524,0.8523809523809524,0.8523809523809524,0.8523809523809524,0.8523809523809524,0.8523809523809524,0.8523809523809524,0.8523809523809524,0.8142857142857143,0.8142857142857143,0.8142857142857143,0.8142857142857143,0.8142857142857143,0.8142857142857143,0.8142857142857143,0.8142857142857143,0.8142857142857143,0.8142857142857143,0.8142857142857143,0.8142857142857143,0.8142857142857143,0.8142857142857143,0.8142857142857143,0.8142857142857143,0.8142857142857143,0.8142857142857143,0.8142857142857143,0.8142857142857143,0.8047619047619048,0.7952380952380952,0.7952380952380952,0.7761904761904762,0.7761904761904762,0.7761904761904762,0.7761904761904762,0.7761904761904762,0.7761904761904762,0.7761904761904762,0.7761904761904762,0.7761904761904762,0.7761904761904762,0.7761904761904762,0.7761904761904762,0.7761904761904762,0.7761904761904762,0.7761904761904762,0.7761904761904762,0.7761904761904762,0.7761904761904762,0.7761904761904762,0.7761904761904762,0.7761904761904762,0.7761904761904762,0.7761904761904762,0.7761904761904762,0.7761904761904762,0.7761904761904762,0.7761904761904762,0.7761904761904762,0.7761904761904762,0.7761904761904762,0.7761904761904762,0.7761904761904762,0.7761904761904762,0.7761904761904762,0.7761904761904762,0.7761904761904762,0.7761904761904762,0.7761904761904762,0.7761904761904762,0.7761904761904762,0.7761904761904762,0.7761904761904762,0.7761904761904762,0.7761904761904762,0.7761904761904762,0.7761904761904762,0.7761904761904762,0.7761904761904762,0.7761904761904762,0.7761904761904762,0.8142857142857143,0.8142857142857143,0.8142857142857143,0.8142857142857143,0.8142857142857143,0.7952380952380952,0.7761904761904762,0.7571428571428571,0.7285714285714285,0.7095238095238096,0.7095238095238096,0.7095238095238096,0.7095238095238096,0.7095238095238096,0.7095238095238096,0.7095238095238096,0.7095238095238096,0.7095238095238096,0.680952380952381,0.680952380952381,0.680952380952381,0.680952380952381,0.680952380952381,0.680952380952381,0.680952380952381,0.6714285714285714,0.6333333333333333,0.6238095238095238,0.6047619047619047,0.5761904761904761,0.5571428571428572,0.5190476190476191,0.48095238095238096,0.43333333333333335,0.3761904761904762,0.3761904761904762,0.36666666666666664,0.3476190476190476,0.3476190476190476,0.3476190476190476,0.3476190476190476,0.22380952380952382,0.22380952380952382,0.22380952380952382,0.21428571428571427,0.21428571428571427,0.21428571428571427,0.21428571428571427,0.21428571428571427,0.21428571428571427,0.21428571428571427,0.21428571428571427,0.21428571428571427,0.21428571428571427,0.21428571428571427,0.21428571428571427,0.21428571428571427,0.21428571428571427,0.21428571428571427,0.21428571428571427,0.21428571428571427,0.21428571428571427,0.11904761904761904,0.11904761904761904,0.11904761904761904,0.11904761904761904,0.11904761904761904,0.11904761904761904,0.12857142857142856,0.20476190476190476,0.35714285714285715,0.35714285714285715,0.35714285714285715,0.5952380952380952,0.5952380952380952,0.5952380952380952,0.5952380952380952,0.5952380952380952,0.5952380952380952,0.5952380952380952,0.5952380952380952,0.5857142857142857,0.5857142857142857,0.5857142857142857,0.5857142857142857,0.5857142857142857,0.5857142857142857,0.5857142857142857,0.5857142857142857,0.5857142857142857,0.5857142857142857,0.5857142857142857,0.5857142857142857,0.5857142857142857,0.5095238095238095,0.5095238095238095,0.5095238095238095,0.5095238095238095,0.5095238095238095,0.5095238095238095,0.5095238095238095,0.5095238095238095,0.5095238095238095,0.5095238095238095,0.5095238095238095,0.5095238095238095,0.5,0.5,0.5,0.5,0.5,0.5,0.5,1.0714285714285714,1.0714285714285714,1.0809523809523809,1.0809523809523809,1.0809523809523809,1.0809523809523809,1.0809523809523809,1.0809523809523809,1.0809523809523809,1.0714285714285714,1.061904761904762,1.042857142857143,1.0333333333333334,1.0238095238095237,1.0047619047619047,0.9857142857142858,0.9571428571428572,0.9571428571428572,0.9380952380952381,0.9380952380952381,0.9380952380952381,0.9380952380952381,0.9380952380952381,0.9380952380952381,0.9380952380952381,0.9380952380952381,0.9380952380952381,0.9380952380952381,0.9380952380952381,0.9380952380952381,0.9380952380952381,0.9380952380952381,0.9380952380952381,0.9380952380952381,0.9380952380952381,0.9380952380952381,0.9380952380952381,0.8523809523809524,0.8523809523809524,0.8333333333333334,0.8142857142857143,0.8142857142857143,0.8142857142857143,0.8142857142857143,0.8142857142857143,0.8142857142857143,0.8333333333333334,0.8428571428571429,0.8428571428571429,0.8428571428571429,0.8428571428571429,0.8523809523809524,0.8714285714285714,0.8714285714285714,0.8809523809523809,0.8809523809523809,0.8809523809523809,0.8809523809523809,0.8809523809523809,0.8809523809523809,0.8809523809523809,1.0047619047619047,1.0047619047619047,1.0047619047619047,1.0047619047619047,1.0047619047619047,1.0142857142857142,1.0142857142857142,1.0142857142857142,1.0142857142857142,1.0142857142857142,1.2047619047619047,1.2047619047619047,1.2047619047619047,1.2047619047619047,1.2047619047619047,1.2047619047619047,1.061904761904762,1.0523809523809524,1.0523809523809524,1.0523809523809524,1.0523809523809524,1.0523809523809524,1.0523809523809524,1.0523809523809524,1.0523809523809524,1.0523809523809524,1.042857142857143,1.042857142857143,1.042857142857143,1.042857142857143,1.042857142857143,1.042857142857143,1.042857142857143,1.042857142857143,1.0047619047619047,1.0047619047619047,1.042857142857143,1.138095238095238,1.1761904761904762,1.2047619047619047,1.2047619047619047,1.2047619047619047,1.0142857142857142,0.9571428571428572,0.8904761904761904,0.8333333333333334,0.36666666666666664,0.36666666666666664,0.23333333333333334,0.18571428571428572,0.16666666666666666,0.14761904761904762,0.1380952380952381,0.1380952380952381,0.11904761904761904,0.11904761904761904,0.11904761904761904,0.11904761904761904,0.11904761904761904,0.11904761904761904,0.11904761904761904,0.004761904761904762,0.004761904761904762,0.004761904761904762,-0.004761904761904762,-0.004761904761904762,-0.014285714285714285,-0.023809523809523808,-0.03333333333333333,-0.04285714285714286,-0.04285714285714286,-0.04285714285714286,-0.04285714285714286,-0.04285714285714286,-0.04285714285714286,0.8904761904761904,1.0809523809523809,1.2428571428571429,1.3476190476190477,1.4714285714285715,1.5,1.5,1.4904761904761905,1.4428571428571428,1.4142857142857144,1.3857142857142857,1.3571428571428572,1.338095238095238,1.319047619047619,1.4428571428571428,1.4428571428571428,1.4428571428571428,1.4428571428571428,1.4428571428571428,1.4428571428571428,1.4428571428571428,1.4428571428571428,1.4428571428571428,1.4428571428571428,1.4428571428571428,1.4428571428571428,1.4428571428571428,1.4428571428571428,1.4428571428571428,1.4428571428571428,1.4428571428571428,1.4428571428571428,1.4428571428571428,1.6142857142857143,1.5857142857142856,1.5761904761904761,1.5761904761904761,1.5761904761904761,1.5761904761904761,1.5761904761904761,1.5761904761904761,1.5761904761904761,1.5761904761904761,1.5761904761904761,1.5380952380952382,0.9476190476190476,0.8809523809523809,0.8714285714285714,0.8428571428571429,0.8333333333333334,0.8142857142857143,0.8142857142857143,1.0904761904761904,1.1761904761904762,1.1761904761904762,1.1761904761904762,1.1761904761904762,1.1761904761904762,1.3571428571428572,1.3666666666666667]},"final_keyboard_state":["E","A","R","Z","B"],"num_clicks":5,"points":15,"cheat":false,"trial_type":"Hangman","trial_index":5,"time_elapsed":64367,"internal_node_id":"0.0-4.0","protocol_sum":"","subject_identifier":503,"subject_sum":[199,93,63,31,91,205,105,20,208,51,28,229,236,23,192,219,143,32,112,162,212,40,95,142,63,241,28,108,161,145,104,255],"subject_pair":251,"STUDY_ID":"66a3ed3c5d10d0e7d8a6b9da","PROLIFIC_PID":"5bac1d9dc1155b0001175e55","SESSION_ID":"66a3f565bacbb4c2013c8b2b","practice_instructions":1,"leaderboard_instructions":0,"bonus":0,"reveal_word":true,"self_rating":"2","confidence":"100"},{"view_history":"[{\"page_index\":0,\"viewing_time\":3367.9000000059605},{\"page_index\":1,\"viewing_time\":14191.09999999404}]","rt":17560.20000000298,"trial_type":"instructions","trial_index":6,"time_elapsed":81931,"internal_node_id":"0.0-5.0","protocol_sum":"","subject_identifier":503,"subject_sum":[199,93,63,31,91,205,105,20,208,51,28,229,236,23,192,219,143,32,112,162,212,40,95,142,63,241,28,108,161,145,104,255],"subject_pair":251,"STUDY_ID":"66a3ed3c5d10d0e7d8a6b9da","PROLIFIC_PID":"5bac1d9dc1155b0001175e55","SESSION_ID":"66a3f565bacbb4c2013c8b2b","practice_instructions":1,"leaderboard_instructions":0,"bonus":0,"reveal_word":true,"self_rating":"2","confidence":"100"},{"rt":14205.20000000298,"responses":"{\"Q0\":\"...from <b>a previous session</b> that is part of the upcoming tournament.\"}","question_order":"[0]","trial_type":"survey-multi-choice","trial_index":7,"time_elapsed":96140,"internal_node_id":"0.0-6.0","protocol_sum":"","subject_identifier":503,"subject_sum":[199,93,63,31,91,205,105,20,208,51,28,229,236,23,192,219,143,32,112,162,212,40,95,142,63,241,28,108,161,145,104,255],"subject_pair":251,"correct":false,"test_part":"multichoice_leaderboard","STUDY_ID":"66a3ed3c5d10d0e7d8a6b9da","PROLIFIC_PID":"5bac1d9dc1155b0001175e55","SESSION_ID":"66a3f565bacbb4c2013c8b2b","practice_instructions":1,"leaderboard_instructions":0,"bonus":0,"reveal_word":true,"self_rating":"2","confidence":"100"},{"view_history":"[{\"page_index\":0,\"viewing_time\":1796.8000000044703}]","rt":1797.2000000029802,"trial_type":"instructions","trial_index":8,"time_elapsed":97938,"internal_node_id":"0.0-7.0-0.0","protocol_sum":"","subject_identifier":503,"subject_sum":[199,93,63,31,91,205,105,20,208,51,28,229,236,23,192,219,143,32,112,162,212,40,95,142,63,241,28,108,161,145,104,255],"subject_pair":251,"STUDY_ID":"66a3ed3c5d10d0e7d8a6b9da","PROLIFIC_PID":"5bac1d9dc1155b0001175e55","SESSION_ID":"66a3f565bacbb4c2013c8b2b","practice_instructions":1,"leaderboard_instructions":0,"bonus":0,"reveal_word":true,"self_rating":"2","confidence":"100"},{"rt":5508.39999999851,"responses":"{\"Q0\":\"...from <b>a previous session</b> that is not part of the upcoming tournament.\"}","question_order":"[0]","trial_type":"survey-multi-choice","trial_index":9,"time_elapsed":103450,"internal_node_id":"0.0-7.0-1.0","protocol_sum":"","subject_identifier":503,"subject_sum":[199,93,63,31,91,205,105,20,208,51,28,229,236,23,192,219,143,32,112,162,212,40,95,142,63,241,28,108,161,145,104,255],"subject_pair":251,"correct":true,"test_part":"multichoice_leaderboard","STUDY_ID":"66a3ed3c5d10d0e7d8a6b9da","PROLIFIC_PID":"5bac1d9dc1155b0001175e55","SESSION_ID":"66a3f565bacbb4c2013c8b2b","practice_instructions":1,"leaderboard_instructions":0,"bonus":0,"reveal_word":true,"self_rating":"2","confidence":"100"},{"view_history":"[{\"page_index\":0,\"viewing_time\":17941}]","rt":17941.39999999851,"trial_type":"instructions","trial_index":10,"time_elapsed":121394,"internal_node_id":"0.0-8.0","protocol_sum":"","subject_identifier":503,"subject_sum":[199,93,63,31,91,205,105,20,208,51,28,229,236,23,192,219,143,32,112,162,212,40,95,142,63,241,28,108,161,145,104,255],"subject_pair":251,"STUDY_ID":"66a3ed3c5d10d0e7d8a6b9da","PROLIFIC_PID":"5bac1d9dc1155b0001175e55","SESSION_ID":"66a3f565bacbb4c2013c8b2b","practice_instructions":1,"leaderboard_instructions":0,"bonus":0,"reveal_word":true,"self_rating":"2","confidence":"100"},{"rt":12154.30000000447,"responses":"{\"Q0\":\"...players' leaderboard position (in terms of <b>points</b>) in an <b>upcoming tournament.</b>\"}","question_order":"[0]","trial_type":"survey-multi-choice","trial_index":11,"time_elapsed":133551,"internal_node_id":"0.0-9.0","protocol_sum":"","subject_identifier":503,"subject_sum":[199,93,63,31,91,205,105,20,208,51,28,229,236,23,192,219,143,32,112,162,212,40,95,142,63,241,28,108,161,145,104,255],"subject_pair":251,"correct":true,"test_part":"multichoice_tournament","STUDY_ID":"66a3ed3c5d10d0e7d8a6b9da","PROLIFIC_PID":"5bac1d9dc1155b0001175e55","SESSION_ID":"66a3f565bacbb4c2013c8b2b","practice_instructions":1,"leaderboard_instructions":0,"bonus":0,"reveal_word":true,"self_rating":"2","confidence":"100"},{"view_history":"[{\"page_index\":0,\"viewing_time\":16042.89999999851}]","rt":16043.10000000149,"trial_type":"instructions","trial_index":12,"time_elapsed":149597,"internal_node_id":"0.0-11.0","protocol_sum":"","subject_identifier":503,"subject_sum":[199,93,63,31,91,205,105,20,208,51,28,229,236,23,192,219,143,32,112,162,212,40,95,142,63,241,28,108,161,145,104,255],"subject_pair":251,"STUDY_ID":"66a3ed3c5d10d0e7d8a6b9da","PROLIFIC_PID":"5bac1d9dc1155b0001175e55","SESSION_ID":"66a3f565bacbb4c2013c8b2b","practice_instructions":1,"leaderboard_instructions":0,"bonus":0,"reveal_word":true,"self_rating":"2","confidence":"100"},{"view_history":"[{\"page_index\":0,\"viewing_time\":26370.90000000596}]","rt":26371.30000000447,"trial_type":"instructions","trial_index":13,"time_elapsed":175971,"internal_node_id":"0.0-12.0-0.0","protocol_sum":"","subject_identifier":503,"subject_sum":[199,93,63,31,91,205,105,20,208,51,28,229,236,23,192,219,143,32,112,162,212,40,95,142,63,241,28,108,161,145,104,255],"subject_pair":251,"STUDY_ID":"66a3ed3c5d10d0e7d8a6b9da","PROLIFIC_PID":"5bac1d9dc1155b0001175e55","SESSION_ID":"66a3f565bacbb4c2013c8b2b","practice_instructions":1,"leaderboard_instructions":0,"bonus":0,"reveal_word":true,"self_rating":"2","confidence":"100"},{"rt":9712.79999999702,"response":"THIRTY FOUR","responses":["THIRTY FOUR"],"trial_type":"type-this","trial_index":14,"time_elapsed":186201,"internal_node_id":"0.0-12.0-1.0","protocol_sum":"","subject_identifier":503,"subject_sum":[199,93,63,31,91,205,105,20,208,51,28,229,236,23,192,219,143,32,112,162,212,40,95,142,63,241,28,108,161,145,104,255],"subject_pair":251,"STUDY_ID":"66a3ed3c5d10d0e7d8a6b9da","PROLIFIC_PID":"5bac1d9dc1155b0001175e55","SESSION_ID":"66a3f565bacbb4c2013c8b2b","practice_instructions":1,"leaderboard_instructions":0,"bonus":0,"reveal_word":true,"self_rating":"2","confidence":"100"},{"word":"THIRTY FOUR","click_log":{"letter":["","E","I","H","T","Y","R","F","O","U"],"t":[0,5335.89999999851,16711.89999999851,20827.70000000298,24334.39999999851,26452.10000000149,28625.80000000447,31157.89999999851,32691.5,34674.10000000149],"hit":[null,0,1,1,2,1,2,1,1,1],"asked":["","E","EI","EIH","EIHT","EIHTY","EIHTYR","EIHTYRF","EIHTYRFO","EIHTYRFOU"],"word_state":["______ ____","______ ____","__I___ ____","_HI___ ____","THI_T_ ____","THI_TY ____","THIRTY ___R","THIRTY F__R","THIRTY FO_R","THIRTY FOUR"]},"hover_log":{"letter":["?","?","?","?","?","?","?","?","?","?","?","?","?","?","?","?","?","?","?","?","?","?","?","?","?","?","?","?","?","?","?","?","?","?","?","?","?","?","?","?","?","?","?","?","?","?","?","?","?","?","?","?","?","?","?","?","?","?","?","?","?","?","?","?","?","?","?","?","?","?","?","?","?","?","?","?","?","Z","?","?","?","?","?","?","?","?","?","?","?","?","?","?","?","?","?","?","?","?","?","?","?","?","?","Z","?","?","?","?","?","?","?","?","?","?","?","?","?","?","?","?","?","?","?","?","?","?","?","?","?","Z","?","?","?","?","?","?","?","?","?","?","?","?","?","?","?","?","?","?","?","?","?","?","?","?","?","Z","?","?","?","?","?","?","?","?","?","?","?","?","?","?","?","?","?","?","?","?","?","?","?","?","?","Z","?","?","?","?","?","?","?","?","?","?","?","?","?","?","?","?","?","?","?","?","?","?","?","?","?","Z","?","?","?","?","?","?","?","?","?","?","?","?","?","?","?","?","?","?","?","?","?","?","?","?","?","Z","?","?","?","?","?","?","?","?","?","?","?","?","?","?","?","?","?","?","?","?","?","?","?","?","?","Z","?","?","?","?","?","?","?","?","?","?","?","?","?","?","?","?","?","?","?","?","?","?","?","?","?","Z","?","?","?","?","?","?","?","?","?","?","?","?","?","?","?","?","?","?","?","?","?","?","?","?","?","Z","?","?","?","?","?","?","?","?","?","?","?","?","?","?","?","?","?","?","?","?","?","?","?","?","?","Z","?","?","?","?","?","?","?","?","?","?","?","?","?","?","?","?","?","?","?","?","?","?","?","?","?","Z","?","?","?","?","?","?","?","?","?","?","?","?","?","?","?","?","?","?","?","?","?","?","?","?","?","Z","?","?","?","?","?","?","?","?","?","?","?","?","?","?","?","?","?","?","?","?","?","?","?","?","?","Z","?","?","?","?","?","?","?","?","?","?","?","?","?","?","?","?","?","?","?","?","?","?","?","?","?","Z","?","?","?","?","?","?","?","?","?","?","?","?","?","?","?","?","?","?","?","?","?","?","?","?","?","Z","?","?","?","?","?","?","?","?","?","?","?","?","?","?","?","?","?","?","?","?","?","?","?","?","?","Z","?","?","?","?","?","?","?","?","?","?","?","?","?","?","?","?","?","?","?","?","?","?","?","?","?","Z","?","?","?","?","?","?","?","?","?","?","?","?","?","?","?","?","?","?","?","?","?","?","?","?","?","Z","?","?","?","?","?","?","?","?","?","?","?","?","?","?","?","?","?","?","?","?","?","?","?","?","?","Z","?","?","?","?","?","?","?","?","?","?","?","?","?","?","?","?","?","?","?","?","?","?","?","?","?","Z","?","?","?","?","?","?","?","?","?","?","?","?","?","?","?","?","?","?","?","?","?","?","?","?","?","Z","?","?","?","?","?","?","?","?","?","?","?","?","?","?","?","?","?","?","?","?","?","?","?","?","?","Z","?","?","?","?","?","?","?","?","?","?","?","?","?","?","?","?","?","?","?","?","?","?","?","?","?","Z","?","?","?","?","?","?","?","?","?","?","?","?","?","?","?","?","?","?","?","?","?","?","?","?","?","?","?","?","?","?","?","?","?","?","?","?","?","?","?","?","?","?","Q","?","?","?","?","?","?","?","?","?","?","?","?","?","?","?","G","?","?","?","?","?","?","?","?","?","?","?","?","?","?","?","?","?","?","?","?","?","?","?","?","?","?","?","?","?","?","?","?","?","?","?","?","?","?","?","?","?","?","?","?","?","?","?","?","?","?","?","?","?","?","?","?","?","?","?","?","?","?","?","?","?","?","?","?","?","?","?","?","?","?","?","?","?","?","?","?","?","?","?","?","?","?","?","?","?","?","?","?","?","?","?","?","?","?","?","?","?","?","?","?","?","?","?","?","?","?","?","?","?","?","?","?","?","?","?","?","?","?","?","?","?","?","?","?","?","?","?","?","?","?","?","?","?","?","?","?","?","?","?","?","?","?","?","?","?","?","?","?","?","?","?","?","?","?","?","?","?","?","?","?","?","?","?","?","?","?","?","?","?","?","?","?","?","?","?","?","?","?","?","?","?","?","?","?","?","?","?","?","?","?","?","?","?","?","?","?","?","?","?","?","?","?","?","?","?","?","?","?","?","?","?","?","?","?","?","?","?","?","?","?","?","?","?","?","?","?","?","?","?","?","?","?","?","?","?","?","?","?","?","?","?","?","?","?","?","?","?","?","?","?","?","?","?","?","?","?","?","?","?","?","?","?","?","?","?","?","?","?","?","?","?","?","?","?","?","?","?","?","?","?","?","?","?","?","?","?","?","?","?","?","?","?","?","?","?","?","?","?","?","?","?","?","?","?","?","?","?","?","?","?","?","?","?","?","?","?","?","?","?","?","?","?","?","?","?","?","?","?","?","?","?","?","?","?","?","?","?","?","?","?","?","?","?","?","?","?","?","?","?","?","?","?","?","?","?","?","?","?","?","?","?","?","?","?","?","?","?","?","?","?","?","?","?","?","?","?","?","?","?","?","?","?","?","?","?","?","?","?","?","?","?","?","?","?","?","?","?","?","?","?","?","?","?","?","?","?","?","?","?","?","?","?","?","?","?","?","?","?","?","?","?","?","?","?","?","?","?","?","?","?","?","?","?","?","?","?","?","?","?","?","?","?","?","?","?","?","?","?","?","?","?","?","?","?","?","?","?","?","?","?","?","?","?","?","?","?","?","?","?","?","?","?","?","?","?","?","?","?","?","?","?","?","?","?","?","?","?","?","?","?","?","?","?","?","?","?","?","?","?","?","?","?","?","?","?","?","?","?","?","?","?","?","?","?","?","?","?","?","?","?","?","?","?","?","?","?","?","?","?","?","?","?","?","?","?","?","?","?","?","?","?","?","?","?","?","?","?","?","?","?","?","?","?","?","?","?","?","?","?","?","?","?","?","?","?","?","?","?","?","?","?","?","?","?","?","?","?","?","?","?","?","?","?","?","?","?","?","?","?","?","D","?","?","?","?","?","?","?","?","?","?","?","?","?","?","?","?","?","?","?","?","?","?","?","?","?","?","?","?","?","?","?","?","?","?","?","?","?","?","?","?","?","?","?","?","?","?","?","?","?","?","?","?","?","?","?","?","?","?","?","?","?","?","?","?","?","?","?","?","?","?","?","?","?","?","?","?","?","?","?","?","?","?","?","?","?","?","?","N","?","?","?","?","?","?","?","?","?","?","?","?","?","?","?","?","?","?","?","?","?","?","?","?","?","N","?","?","?","?","?","?","?","?","?","?","?","?","?","?","?","?","?","?","?","?","?","?","?","?","?","?","?","?","?","?","?","?","?","?","?","?","?","?","?","?","?","?","?","?","?","?","?","?","?","?","?","?","?","?","?","?","?","?","?","?","?","?","?","?","?","?","?","?","?","?","?","?","?","?","?","?","?","?","?","?","?","?","?","?","?","?","W","?","?","?","?","?","?","?","?","?","?","?","?","?","?","?","?","?","?","?","?","?","?","?","?","?","W","?","?","?","?","?","?","?","?","?","?","?","?","?","?","?","?","?","?","?","?","?","?","?","?","?","W","?","?","?","?","?","?","?","?","?","?","?","?","?","?","?","?","?","?","?","?","?","?","?","?","?","?","?","?","?","?","?","?","?","?","?","?","?","?","?","?","?","?","?","?","?","?","?","?","?","?","?","?","?","?","?","?","?","?","?","?","?","?","?","?","?","?","?","?","?","?","?","?","?","?","?","?","?","?","?","?","?","?","?","?","?","?","?","?","?","?","?","?","?","?","?","?","?","?","?","?","?","?","?","?","?","?","?","?","?","?","?","?","?","?","?","?","?","?","?","?","?","?","?","?","?","?","?","?","?","?","?","?","?","?","?","?","?","?","?","?","?","?","?","?","?","?","?","?","?","?","?","?","?","?","?","?","?","?","?","?","?","?","?","?","?","?","?","?","?","?","?","?","?","?","?","?","?","?","?","?","?","?","?","?","?","?","?","?","?","?","?","?","?","?","?","?","?","?","?","?","?","?","?","?","?","?","?","?","?","?","?","?","?","?","?","?","?","?","?","?","?","?","?","?","?","?","?","?","?","?","?","?","?","?","?","?","?","?","?","?","?","?","?","?","?","?","?","?","?","?","?","?","?","?","?","?","?","?","?","?","?","?","?","?","?","?","?","?","?","?","?","?","?","?","?","?","?","?","?","?","?","?","?","?","?","?","?","?","?","?","?","?","?","?","?","?","?","?","?","?","?","?","?","?","?","?","?","?","?","?","?","?","?","?","?","?","?","?","?","?","?","?","?","?","?","?","?","?","?","?","?","?","?","?","?","?","?","?","?","?","?","?","?","?","?","?","?","?","?","?","?","?","?","?","?","?","?","?","?","?","?","?","?","?","?","?","?","?","?","?","?","?","?","?","?","?","?","?","?","?","?","?","?","?","?","?","?","?","?","?","?","?","?","?","?","?","?","?","?","?","?","?","?","?","?","?","?","?","?","?","?","?","?","?","?","?","?","?","?","?","?","?","?","?","?","?","?","?","?","?","?","?","?","?","?","?","?","?","?","?","?","?","?","?","?","?","?","?","?","?","?","?","?","?","?","?","?","?","?","?","?","?","?","?","?","?","?","?","?","?","?","?","?","?","?","?","?","?","?","?","?","?","?","?","?","?","?","?","?","?","?","?","?","?","?","?","?","?","?","?","?","?","?","?","?","?","?","?","?","?","?","?","?","?","?","?","?","?","?","?","?","?","?","?","?","?","?","?","?","?","?","?","?","?","?","?","?","?","?","?","?","?","?","?","?","?","?","?","?","?","?","?","?","?","?","?","?","?","?","?","?","?","?","?","?","?","?","?","?","?","?","?","?","?","?","?","?","?","?","?","?","?","?","?","?","?","?","?","?","?","?","?","?","?","?","?","?","?","?","?","?","?","?","?","?","?","?","?","?","?","?","?","?","?","?","?","?","?","?","?","?","?","?","?","?","?","?","?","?","?","?","?","?","?","?","?","?","?","?","?","?","?","?","?","?","?","?","?","?","?","?","?","?","?","?","?","?","?","?","?","?","?","?","?","?","?","?","?","?","?","?","?","?","?","?","?","?","?","?","?","?","?","?","?","?","?","?","?","?","?","?","?","?","?","?","?","?","?","?","?","?","?","?","?","?","?","?","?","?","?","?","?","?","?","?","?","?","?","?","?","?","?","?","?","?","?","?","?","?","?","?","?","?","?","?","?","?","?","?","?","?","?","?","?","?","?","?","?","?","?","?","?","?","?","?","?","?","?","?","?","?","?","?","?","?","?","?","?","?","?","?","?","?","?","?","?","?","?","?","?","?","?","?","?","?","?","?","?","?","?","?","?","?","?","?","?","?","?","?","?","?","?","?","?","?","?","?","?","?","?","?","?","?","?","?","?","?","?","?","?","?","?","?","?","?","?","?","?","?","?","?","?","?","?","?","?","?","?","?","?","?","?","?","?","?","?","?","?","?","?","?","?","?","?","?","?","?","?","?","?","?","?","?","?","?","?","?","?","?","?","?","?","?","?","?","?","?","?","?","?","?","?","?","?","?","?","?","?","?","?","?","?","?","?","?","?","?","?","?","?","?","?","?","?","?","?","?","?","?","?","?","?","?","?","?","?","?","?","?","?","?","?","?","?","?","?","?","?","?","?","?","?","?","?","?","?","?","?","?","?","?","?","?","?","?","?","?","?","?","?","?","?","?","?","?","?","?","?","?","?","?","?","?","?","?","?","?","?","?","?","?","?","?","?","?","?","?","?","?","?","?","?","?","?","?","?","?","?","?","?","?","?","?","?","?","?","?","?","?","?","?","?","?","?","?","?","?","?","?","?","?","?","?","?","?","?","?","?","?","?","?","?","?","?","?","?","?","?","?","?","?","?","?","?","?","?","?","?","?","?","?","?","?","?","?","?","?","?","?","?","?","?","?","?","?","?","?","?","?","?","?","?","?","?","?","?","?","?","?","?","?","?","?","?","?","?","?","?","?","?","?","?","?","?","?","?","?","?","?","?","?","?","?","?","?","?","?","?","?","?","?","?","?","?","?","?","?","?","?","?","?","?","?","?","?","?","?","?","?","?","?","?","?","?","?","?","?","?","?","?","?","?","?","?","?","?","?","?","?","?","?","?","?","?","?","?","?","?","?","?","?","?","?","?","?","?","?","?","?","?","?","?","?","?","?","?","?","?","?","?","?","?","?","?","?","?","?","?","?","?","?","?","?","?","?","?","?","?","?","?","?","?","?","?","?","?","?","?","?","?","?","?","?","?","?","?","?","?","?","?","?","?","?","?","?","?","?","?","?","?","?","?","?","?","?","?","?","?","?","?","?","?","?","?","?","?","?","?","?","?","?","?","?","?","?","?","?","?","?","?","?","?","?","?","?","?","?","?","?","?","?","?","?","?","?","?","?","?","?","?","?","?","?","?","?","?","?","?","?","?","?","?","?","?","?","?","?","?","?","?","?","?","?","?","?","?","?","?","?","?","?","?","?","?","?","?","?","?","?","?","?","?","?","?","?","?","?","?","?","?","?","?","?","?","?","?","?","?","?","?","?","?","?","?","?","?","?","?","?","?","?","?","?","?","?","?","?","?","?","?","?","?","?","?","?","?","?","?","?","?","?","?","?","?","?","?","?","?","?","?","?","?","?","?","?","?","?","?","?","?","?","?","?","?","?","?","?","?","?","?","?","?","?","?","?","?","?","?","?","?","?","?","?","?","?","?","?","?","?","?","?","?","?","?","?","?","?","?","?","?","?","?","?","?","?","?","?","?","?","?","?","?","?","?","?","?","?","?","?","?","?","?","?","?","?","?","?","?","?","?","?","?","?","?","?","?","?","?","?","?","?","?","?","?","?","?","?","?","?","?","?","?","?","?","?","?","?","?","?","?","?","?","?","?","?","?","?","?","?","?","?","?","?","?","?","?","?","?","?","?","?","?","?","?","?","?","?","?","?","?","?","?","?","?","?","?","?","?","?","?","?","?","?","?","?","?","?","?","?","?","?","?","?","?","?","?","?","?","?","?","?","?","?","?","?","?","?","?","?","?","?","?","?","?","?","?","?","?","?","?","?","?","?","?","?","?","?","?","?","?","?","?","?","?","?","?","?","?","?","?","?","?","?","?","?","?","?","?","?","?","?","?","?","?","?","?","?","?","?","?","?","?","?","?","?","?","?","?","?","?","?","?","?","?","?","?","?","?","?","?","?","?","?","?","?","?","?","?","?","?","?","?","?","?","?","?","?","?","?","?","?","?","?","?","?","?","?","?","?","?","?","?","?","?","?","?","?","?","?","?","?","?","?","?","?","?","?","?","?","?","?","?","?","?","?","?","?","?","?","?","?","?","?","?","?","?","?","?","?","?","?","?","?","?","?","?","?","?","?","?","?","?","?","?","?","?","?","?","?","?","?","?","?","?","?","?","?","?","?","?","?","?","?","?","?","?","?","?","?","?","?","?","?","?","?","?","?","?","?","?","?","?","?","?","?","?","?","?","?","?","?","?","?","?","?","?","?","?","?","?","?","?","?","?","?","?","?","?","?","?","?","?","?","?","?","?","?","?","?","?","?","?","?","?","?","?","?","?","?","?","?","?","?","?","?","?","?","?","?","?","?","?","?","?","?","?","?","?","?","?","?","?","?","?","?","?","?","?","?","?","?","?","?","?","?","?","?","?","?","?","?","?","?","?","?","?","?","?","?","?","?","?","?","?","?","?","?","?","?","?","?","?","?","?","?","?","?","?","?","?","?","?","?","?","?","?","?","?","?","?","?","?","?","?","?","?","?","?","?","?","?","?","?","?","?","?","?","?","?","?","?","?","?","?","?","?","?","?","?","?","?","?","?","?","?","?","?","?","?","?","?","?","?","?","?","?","?","?","?","?","?","?","?","?","?","?","?","?","?","?","?","?","?","?","?","?","?","?","?","?","?","?","?","?","?","?","?","?","?","?","?","?","?","?","?","?","?","?","?","?","?","?","?","?","?","?","?","?","?","?","?","?","?","?","?","?","?","?","?","?","?","?","?","?","?","?","?","?","?","?","?","?","?","?","?","?","?","?","?","?","?","?","?","?","?","?","?","?","?","?","?","?","?","?","?","?","?","?","?","?","?","?","?","?","?","?","?","?","?","?","?","?","?","?","?","?","?","?","?","?","?","?","?","?","?","?","?","?","?","?","?","?","?","?","?","?","?","?","?","?","?","?","?","?","?","?","?","?","?","?","?","?","?","?","?","?","?","?","?","?","?","?","?","?","?","?","?","?","?","?","?","?","?","?","?","?","?","?","?","?","?","?","?","?","?","?","?","?","?","?","?","?","?","?","?","?","?","?","?","?","?","?","?","?","?","?","?","?","?","?","?","?","?","?","?","?","?","?","?","?","?","?","?","?","?","?","?","?","?","?","?","?","?","?","?","?","?","?","?","?","?","?","?","?","?","?","?","?","?","?","?","?","?","?","?","?","?","?","?","?","?","?","?","?","?","?","?","?","?","?","?","?","?","?","?","?","?","?","?","?","?","?","?","?","?","?","?","?","?","?","?","?","?","?","?","?","?","?","?","?","?","?","?","?","?","?","?","?","?","?","?","?","?","?","?","?","?","?","?","?","?","?","?","?","?","?","?","?","?","?","?","?","?","?","?","?","?","?","?","?","?","?","?","?","?","?","?","?","?","?","?","?","?","?","?","?","?","?","?","?","?","?","?","?","?","?","?","?","?","?","?","?","?","?","?","?","?","?","?","?","?","?","?","?","?","?","?","?","?","?","?","?","?","?","?","?","?","?","?","?","?","?","?","?","?","?","?","?","?","?","?","?","?","?","?","?","?","?","?","?","?","?","?","?","?","?","?","?","?","?","?","?","?","?","?","?","?","?","?","?","?","?","?","?","?","?","?","?","?","?","?","?","?","?","?","?","?","?","?","?","?","?","?","?","?","?","?","?","?","?","?","?","?","?","?","?","?","?","?","?","?","?","?","?","?","?","?","?","?","?","?","?","?","?","?","?","?","?","?","?","?","?","?","?","?","?","?","?","?","?","?","?","?","?","?","?","?","?","?","?","?","?","?","?","?","?","?","?","?","?","?","?","?","?","?","?","?","?","?","?","?","?","?","?","?","?","?","?","?","?","?","?","?","?","?","?","?","?","?","?","?","?","?","?","?","?","?","?","?","?","?","?","?","?","?","?","?","?","?","?","?","?","?","?","?","?","?","?","?","?","?","?","?","?","?","?","?","?","?","?","?","?","?","?","?","?","?","?","?","?","?","?","?","?","?","?","?","?","?","?","?","?","?","?","?","?","?","?","?","?","?","?","?","?","?","?","?","?","?","?","?","?","?","?","?","?","?","?","?","?","?","?","?","?","?","?","?","?","?","?","?","?","?","?","?","?","?","?","?","?","?","?","?","?","?","?","?","?","?","?","?","?","?","?","?","?","?","?","?","?","?","?","?","?","?","?","?","?","?","?","?","?","?","?","?","?","?","?","?","?","?","?","?","?","?","?","?","?","?","?","?","?","?","?","?","?","?","?","?","?","?","?","?","?","?","?","?","?","?","?","?","?","?","?","?","?","?","?","?","?","?","?","?","?","?","?","?","?","?","?","?","?","?","?","?","?","?","?","?","?","?","?","?","?","?","?","?","?","?","?","?","?","?","?","?","?","?","?","?","?","?","?","?","?","?","?","?","?","?","?","?","?","?","?","?","?","?","?","?","?","?","?","?","?","?","?","?","?","?","?","?","?","?","?","?","?","?","?","?","?","?","?","?","?","?","?","?","?","?","?","?","?","?","?","?","?","?","?","?","?","?","?","?","?","?","?","?","?","?","?","?","?","?","?","?","?","?","?","?","?","?","?","?","?","?","?","?","?","?","?","?","?","?","?","?","?","?","?","?","?","?","?","?","?","?","?","?","?","?","?","?","?","?","?","?","?","?","?","?","?","?","?","?","?","?","?","?","?","?","?","?","?","?","?","?","?","?","?","?","?","?","?","?","?","?","?","?","?","?","?","?","?","?","?","?","?","?","?","?","?","?","?","?","?","?","?","?","?","?","?","?","?","?","?","?","?","?","?","?","?","?","?","?","?","?","?","?","?","?","?","?","?","?","?","?","?","?","?","?","?","?","?","?","?","?","?","?","?","?","?","?","?","?","?","?","?","?","?","?","?","?","?","?","?","?","?","?","?","?","?","?","?","?","?","?","?","?","?","?","?","?","?","?","?","?","?","?","?","?","?","?","?","?","?","?","?","?","?","?","?","?","?","?","?","?","?","?","?","?","?","?","?","?","?","?","?","?","?","?","?","?","?","?","?","?","?","?","?","?","?","?","?","?","?","?","?","?","?","?","?","?","?","?","?","?","?","?","?","?","?","?","?","?","?","?","?","?","?","?","?","?","?","?","?","?","?","?","?","?","?","?","?","?","?","?","?","?","?","?","?","?","?","?","?","?","?","?","?","?","?","?","?","?","?","?","?","?","?","?","?","?","?","?","?","?","?","?","?","?","?","?","?","?","?","?","?","?","?","?","?","?","?","?","?","?","?","?","?","?","?","?","?","?","?","?","?","?","?","?","?","?","?","?","?","?","?","?","?","?","?","?","?","?","?","?","?","?","?","?","?","?","?","?","?","?","?","?","?","?","?","?","?","?","?","?","?","?","?","?","?","?","?","?","?","?","?","?","?","?","?","?","?","?","?","?","?","?","?","?","?","?","?","?","?","?","?","?","?","?","?","?","?","?","?","?","?","?","?","?","?","?","?","?","?","?","?","?","?","?","?","?","?","?","?","?","?","?","?","?","?","?","?","?","?","?","?","?","?","?","?","?","?","?","?","?","?","?","?","?","?","?","?","?","?","?","?","?","?","?","?","?","?","?","?","?","?","?","?","?","?","?","?","?","?","?","?","?","?","?","?","?","?","?","?","?","?","?","?","?","?","?","?","?","?","?","?","?","?","?","?","?","?","?","?","?","?","?","?","?","?","?","?","?","?","?","?","?","?","?","?","?","?","?","?","?","?","?","?","?","?","?","?","?","?","?","?","?","?","?","?","?","?","?","?","?","?","?","?","?","?","?","?","?","?","?","?","?","?","?","?","?","?","?","?","?","?","?","?","?","?","?","?","?","?","?","?","?","?","?","?","?","?","?","?","?","?","?","?","?","?","?","?","?","?","?","?","?","?","?","?","?","?","?","?","?","?","?","?","?","?","?","?","?","?","?","?","?","?","?","?","?","?","?","?","?","?","?","?","?","?","?","?","?","?","?","?","?","?","?","?","?","?","?","?","?","?","?","?","?","?","?","?","?","?","?","?","?","?","?","?","?","?","?","?","?","?","?","?","?","?","?","?","?","?","?","?","?","?","?","?","?","?","?","?","?","?","?","?","?","?","?","?","?","?","?","?","?","?","?","?","?","?","?","?","?","?","?","?","?","?","?","?","?","?","?","?","?","?","?","?","?","?","?","?","?","?","?","?","?","?","?","?","?","?","?","?","?","?","?","?","?","?","?","?","?","?","?","?","?","?","?","?","?","?","?","?","?","?","?","?","?","?","?","?","?","?","?","?","?","?","?","?","?","?","?","?","?","?","?","?","?","?","?","?","?","?","?","?","?","?","?","?","?","?","?","?","?","?","?","?","?","?","?","?","?","?","?","?","?","?","?","?","?","?","?","?","?","?","?","?","?","?","?","?","?","?","?","?","?","?","?","?","?","?","?","?","?","?","?","?","?","?","?","?","?","?","?","?","?","?","?","?","?","?","?","?","?","?","?","?","?","?","?","?","?","?","?","?","?","?","?","?","?","?","?","?","?","?","?","?","?","?","?","?","?","?","?","?","?","?","?","?","?","?","?","?","?","?","?","?","?","?","?","?","?","?","?","?","?","?","?","?","?","?","?","?","?","?","?","?","?","?","?","?","?","?","?","?","?","?","?","?","?","?","?","?","?","?","?","?","?","?","?","?","?","?","?","?","?","?","?","?","?","?","?","?","?","?","?","?","?","?","?","?","?","?","?","?","?","?","?","?","?","?","?","?","?","?","?","?","?","?","?","?","?","?","?","?","?","?","?","?","?","?","?","?","?","?","?","?","?","?","?","?","?","?","?","?","?","?","?","?","?","?","?","?","?","?","?","?","?","?","?","?","?","?","?","?","?","?","?","?","?","?","?","?","?","?","?","?","?","?","?","?","?","?","?","?","?","?","?","?","?","?","?","?","?","?","?","?","?","?","?","?","?","?","?","?","?","?","?","?","?","?","?","?","?","?","?","?","?","?","?","?","?","?","?","?","?","?","?","?","?","?","?","?","?","?","?","?","?","?","?","?","?","?","?","?","?","?","?","?","?","?","?","?","?","?","?","?","?","?","?","?","?","?","?","?","?","?","?","?","?","?","?","?","?","?","?","?","?","?","?","?","?","?","?","?","?","?","?","?","?","?","?","?","?","?","?","?","?","?","?","?","?","?","?","?","?","?","?","?","?","?","?","?","?","?","?","?","?","?","?","?","?","?","?","?","?","?","?","?","?","?","?","?","?","?","?","?","?","?","?","?","?","?","?","?","?","?","?","?","?","?","?","?","?","?","?","?","?","?","?","?","?","?","?","?","?","?","?","?","?","?","?","?","?","?","?","?","?","?","?","?","?","?","?","?","?","?","?","?","?","?","?","?","?","?","?","?","?","?","?","?","?","?","?","?","?","?","?","?","?","?","?","?","?","?","?","?","?","?","?","?","?","?","?","?","?","?","?","?","?","?","?","?","?","?","?","?","?","?","?","?","?","?","?","?","?","?","?","?","?","?","?","?","?","?","?","?","?","?","?","?","?","?","?","?","?","?","?","?","?","?","?","?","?","?","?","?","?","?","?","?","?","?","?","?","?","?","?","?","?","?","?","?","?","?","?","?","?","?","?","?","?","?","?","?","?","?","?","?","?","?","?","?","?","?","?","?","?","?","?","?","?","?","?","?","?","?","?","?","?","?","?","?","?","?","?","?","?","?","?","?","?","?","?","?","?","?","?","?","?","?","?","?","?","?","?","?","?","?","?","?","?","?","?","?","?","?","?","?","?","?","?","?","?","?","?","?","?","?","?","?","?","?","?","?","?","?","?","?","?","?","?","?","?","?","?","?","?","?","?","?","?","?","?","?","?","?","?","?","?","?","?","?","?","?","?","?","?","?","?","?","?","?","?","?","?","?","?","?","?","?","?","?","?","?","?","?","?","?","?","?","?","?","?","?","?","?","?","?","?","?","?","?","?","?","?","?","?","?","?","?","?","?","?","?","?","?","?","?","?","?","?","?","?","?","?","?","?","?","?","?","?","?","?","?","?","?","?","?","?","?","?","?","?","?","?","?","?","?","?","?","?","?","?","?","?","?","?","?","?","?","?","?","?","?","?","?","?","?","?","?","?","?","?","?","?","?","?","?","?","?","?","?","?","?","?","?","?","?","?","?","?","?","?","?","?","?","?","?","?","?","?","?","?","?","?","?","?","?","?","?","?","?","?","?","?","?","?","?","?","?","?","?","?","?","?","?","?","?","?","?","?","?","?","?","?","?","?","?","?","?","?","?","?","?","?","?","?","?","?","?","?","?","?","?","?","?","?","?","?","?","?","?","?","?","?","?","?","?","?","?","?","?","?","?","?","?","?","?","?","?","?","?","?","?","?","?","?","?","?","?","?","?","?","?","?","?","?","?","?","?","?","?","?","?","?","?","?","?","?","?","?","?","?","?","?","?","?","?","?","?","?","?","?","?","?","?","?","?","?","?","?","?","?","?","?","?","?","?","?","?","?","?","?","?","?","?","?","?","?","?","?","?","?","?","?","?","?","?","?","?","?","?","?","?","?","?","?","?","?","?","?","?","?","?","?","?","?","?","?","?","?","?","?","?","?","?","?","?","?","?","?","?","?","?","?","?","?","?","?","?","?","?","?","?","?","?","?","?","?","?","?","?","?","?","?","?","?","?","?","?","?","?","?","?","?","?","?","?","?","?","?","?","?","?","?","?","?","?","?","?","?","?","?","?","?","?","?","?","?","?","?","?","?","?","?","?","?","?","?","?","?","?","?","?","?","?","?","?","?","?","?","?","?","?","?","?","?","?","?","?","?","?","?","?","?","?","?","?","?","?","?","?","?","?","?","?","?","?","?","?","?","?","?","?","?","?","?","?","?","?","?","?","?","?","?","?","?","?","?","?","?","?","?","?","?","?","?","?","?","?","?","?","?","?","?","?","?","?","?","?","?","?","?","?","?","?","?","?","?","?","?","?","?","?","?","?","?","?","?","?","?","?","?","?","?","?","?","?","?","?","?","?","?","?","?","?","?","?","?","?","?","?","?","?","?","?","?","?","?","?","?","?","?","?","?","?","?","?","?","?","?","?","?","?","?","?","?","?","?","?","?","?","?","?","?","?","?","?","?","?","?","?","?","?","?","?","?","?","?","?","?","?","?","?","?","?","?","?","?","?","?","?","?","?","?","?","?","?","?","?","?","?","?","?","?","?","?","?","?","?","?","?","?","?","?","?","?","?","?","?","?","?","?","?","?","?","?","?","?","?","?","?","?","?","?","?","?","?","?","?","?","?","?","?","?","?","?","?","?","?","?","?","?","?","?","?","?","?","?","?","?","?","?","?","?","?","?","?","?","?","?","?","?","?","?","?","?","?","?","?","?","?","?","?","?","?","?","?","?","?","?","?","?","?","?","?","?","?","?","?","?","?","?","?","?","?","?","?","?","?","?","?","?","?","?","?","?","?","?","?","?","?","?","?","?","?","?","?","?","?","?","?","?","?","?","?","?","?","?","?","?","?","?","?","?","?","?","?","?","?","?","?","?","?","?","?","?","?","?","?","?","?","?","?","?","?","?","?","?","?","?","?","?","?","?","?","?","?","?","?","?","?","?","?","?","?","?","?","?","?","?","?","?","?","?","?","?","?","?","?","?","?","?","?","?","?","?","?","?","?","?","?","?","?","?","?","?","?","?","?","?","?","?","?","?","?","?","?","?","?","?","?","?","?","?","?","?","?","?","?","?","?","?","?","?","?","?","?","?","?","?","?","?","?","?","?","?","?","?","?","?","?","?","?","?","?","?","?","?","?","?","?","?","?","?","?","?","?","?","?","?","?","?","?","?","?","?","?","?","?","?","?","?","?","?","?","?","?","?","?","?","?","?","?","?","?","?","?","?","?","?","?","?","?","?","?","?","?","?","?","?","?","?","?","?","?","?","?","?","?","?","?","?","?","?","?","?","?","?","?","?","?","?","?","?","?","?","?","?","?","?","?","?","?","?","?","?","?","?","?","?","?","?","?","?","?","?","?","?","?","?","?","?","?","?","?","?","?","?","?","?","?","?","?","?","?","?","?","?","?","?","?","?","?","?","?","?","?","?","?","?","?","?","?","?","?","?","?","?","?","?","?","?","?","?","?","?","?","?","?","?","?","?","?","?","?","?","?","?","?","?","?","?","?","?","?","?","?","?","?","?","?","?","?","?","?","?","?","?","?","?","?","?","?","?","?","?","?","?","?","?","?","?","?","?","?","?","?","?","?","?","?","?","?","?","?","?","?","?","?","?","?","?","?","?","?","?","?","?","?","?","?","?","?","?","?","?","?","?","?","?","?","?","?","?","?","?","?","?","?","?","?","?","?","?","?","?","?","?","?","?","?","?","?","?","?","?","?","?","?","?","?","?","?","?","?","?","?","?","?","?","?","?","?","?","?","?","?","?","?","?","?","?","?","?","?","?","?","?","?","?","?","?","?","?","?","?","?","?","?","?","?","?","?","?","?","?","?","?","?","?","?","?","?","?","?","?","?","?","?","?","?","?","?","?","?","?","?","?","?","?","?","?","?","?","?","?","?","?","?","?","?","?","?","?","?","?","?","?","?","?","?","?","?","?","?","?","?","?","?","?","?","?","?","?","?","?","?","?","?","?","?","?","?","?","?","?","?","?","?","?","?","?","?","?","?","?","?","?","?","?","?","?","?","?","?","?","?","?","?","?","?","?","?","?","?","?","?","?","?","?","?","?","?","?","?","?","?","?","?","?","?","?","?","?","?","?","?","?","?","?","?","?","?","?","?","?","?","?","?","?","?","?","?","?","?","?","?","?","?","?","?","?","?","?","?","?","?","?","?","?","?","?","?","?","?","?","?","?","?","?","?","?","?","?","?","?","?","?","?","?","?","?","?","?","?","?","?","?","?","?","?","?","?","?","?","?","?","?","?","?","?","?","?","?","?","?","?","?","?","?","?","?","?","?","?","?","?","?","?","?","?","?","?","?","?","?","?","?","?","?","?","?","?","?","?","?","?","?","?","?","?","?","?","?","?","?","?","?","?","?","?","?","?","?","?","?","?","?","?","?","?","?","?","?","?","?","?","?","?","?","?","?","?","?","?","?","?","?","?","?","?","?","?","?","?","?","?","?","?","?","?","?","?","?","?","?","?","?","?","?","?","?","?","?","?","?","?","?","?","?","?","?","?","?","?","?","?","?","?","?","?","?","?","?","?","?","?","?","?","?","?","?","?","?","?","?","?","?","?","?","?","?","?","?","?","?","?","?","?","?","?","?","?","?","?","?","?","?","?","?","?","?","?","?","?","?","?","?","?","?","?","?","?","?","?","?","?","?","?","?","?","?","?","?","?","?","?","?","?","?","?","?","?","?","?","?","?","?","?","?","?","?","?","?","?","?","?","?","?","?","?","?","?","?","?","?","?","?","?","?","?","?","?","?","?","?","?","?","?","?","?","?","?","?","?","?","?","?","?","?","?","?","?","?","?","?","?","?","?","?","?","?","?","?","?","?","?","?","?","?","?","?","?","?","?","?","?","?","?","?","?","?","?","?","?","?","?","?","?","?","?","?","?","?","?","?","?","?","?","?","?","?","?","?","?","?","?","?","?","?","?","?","?","?","?","?","?","?","?","?","?","?","?","?","?","?","?","?","?","?","?","?","?","?","?","?","?","?","?","?","?","?","?","?","?","?","?","?","?","?","?","?","?","?","?","?","?","?","?","?","?","?","?","?","?","?","?","?","?","?","?","?","?","?","?","?","?","?","?","?","?","?","?","?","?","?","?","?","?","?","?","?","?","?","?","?","?","?","?","?","?","?","?","?","?","?","?","?","?","?","?","?","?","?","?","?","?","?","?","?","?","?","?","?","?","?","?","?","?","?","?","?","?","?","?","?","?","?","?","?","?","?","?","?","?","?","?","?","?","?","?","?","?","?","?","?","?","?","?","?","?","?","?","?","?","?","?","?","?","?","?","?","?","?","?","?","?","?","?","?","?","?","?","?","?","?","?","?","?","?","?","?","?","?","?","?","?","?","?","?","?","?","?","?","?","?","?","?","?","?","?","?","?","?","?","?","?","?","?","?","?","?","?","?","?","?","?","?","?","?","?","?","?","?","?","?","?","?","?","?","?","?","?","?","?","?","?","?","?","?","?","?","?","?","?","?","?","?","?","?","?","?","?","?","?","?","?","?","?","?","?","?","?","?","?","?","?","?","?","?","?","?","?","?","?","?","?","?","?","?","?","?","?","?","?","?","?","?","?","?","?","?","?","?","?","?","?","?","?","?","?","?","?","?","?","?","?","?","?","?","?","?","?","?","?","?","?","?","?","?","?","?","?","?","?","?","?","?","?","?","?","?","?","?","?","?","?","?","?","?","?","?","?","?","?","?","?","?","?","?","?","?","?","?","?","?","?","?","?","?","?","?","?","?","?","?","?","?","?","?","?","?","?","?","?","?","?","?","?","?","?","?","?","?","?","?","?","?","?","?","?","?","?","?","?","?","?","?","?","?","?","?","?","?","?","?","?","?","?","?","?","?","?","?","?","?","?","?","?","?","?","?","?","?","?","?","?","?","?","?","?","?","?","?","?","?","?","?","?","?","?","?","?","?","?","?","?","?","?","?","?","?","?","?","?","?","?","?","?","?","?","?","?","?","?","?","?","?","?","?","?","?","?","?","?","?","?","?","?","?","?","?","?","?","?","?","?","?","?","?","?","?","?","?","?","?","?","?","?","?","?","?","?","?","?","?","?","?","?","?","?","?","?","?","?","?","?","?","?","?","?","?","?","?","?","?","?","?","?","?","?","?","?","?","?","?","?","?","?","?","?","?","?","?","?","?","?","?","?","?","?","?","?","?","?","?","?","?","?","?","?","?","?","?","?","?","?","?","?","?","?","?","?","?","?","?","?","?","?","?","?","?","?","?","?","?","?","?","?","?","?","?","?","?","?","?","?","?","?","?","?","?","?","?","?","?","?","?","?","?","?","?","?","?","?","?","?","?","?","?","?","?","?","?","?","?","?","?","?","?","?","?","?","?","?","?","?","?","?","?","?","?","?","?","?","?","?","?","?","?","?","?","?","?","?","?","?","?","?","?","?","?","?","?","?","?","?","?","?","?","?","?","?","?","?","?","?","?","?","?","?","?","?","?","?","?","?","?","?","?","?","?","?","?","?","?","?","?","?","?","?","?","?","?","?","?","?","?","?","?","?","?","?","?","?","?","?","?","?","?","?","?","?","?","?","?","?","?","?","?","?","?","?","?","?","?","?","?","?","?","?","?","?","?","?","?","?","?","?","?","?","?","?","?","?","?","?","?","?","?","?","?","?","?","?","?","?","?","?","?","?","?","?","?","?","?","?","?","?","?","?","?","?","?","?","?","?","?","?","?","?","?","?","?","?","?","?","?","?","?","?","?","?","?","?","?","?","?","?","?","?","?","?","?","?","?","?","?","?","?","?","?","?","?","?","?","?","?","?","?","?","?","?","?","?","?","?","?","?","?","?","?","?","?","?","?","?","?","?","?","?","?","?","?","?","?","?","?","?","?","?","?","?","?","?","?","?","?","?","?","?","?","?","?","?","?","?","?","?","?","?","?","?","?","?","?","?","?","?","?","?","?","?","?","?","?","?","?","?","?","?","?","?","?","?","?","?","?","?","?","?","?","?","?","?","?","?","?","?","?","?","?","?","?","?","?","?","?","?","?","?","?","?","?","?","?","?","?","?","?","?","?","?","?","?","?","?","?","?","?","?","?","?","?","?","?","?","?","?","?","?","?","?","?","?","?","?","?","?","?","?","?","?","?","?","?","?","?","?","?","?","?","?","?","?","?","?","?","?","?","?","?","?","?","?","?","?","?","?","?","?","?","?","?","?","?","?","?","?","?","?","?","?","?","?","?","?","?","?","?","?","?","?","?","?","?","?","?","?","?","?","?","?","?","?","?","?","?","?","?","?","?","?","?","?","?","?","?","?","?","?","?","?","?","?","?","?","?","?","?","?","?","?","?","?","?","?","?","?","?","?","?","?","?","?","?","?","?","?","?","?","?","?","?","?","?","?","?","?","?","?","?","?","?","?","?","?","?","?","?","?","?","?","?","?","?","?","?","?","?","?","?","?","?","?","?","?","?","?","?","?","?","?","?","?","?","?","?","?","?","?","?","?","?","?","?","?","?","?","?","?","?","?","?","?","?","?","?","?","?","?","?","?","?","?","?","?","?","?","?","?","?","?","?","?","?","?","?","?","?","?","?","?","?","?","?","?","?","?","?","?","?","?","?","?","?","?","?","?","?","?","?","?","?","?","?","?","?","?","?","?","?","?","?","?","?","?","?","?","?","?","?","?","?","?","?","?","?","?","?","?","?","?","?","?","?","?","?","?","?","?","?","?","?","?","?","?","?","?","?","?","?","?","?","?","?","?","?","?","?","?","?","?","?","?","?","?","?","?","?","?","?","?","?","?","?","?","?","?","?","?","?","?","?","?","?","?","?","?","?","?","?","?","?","?","?","?","?","?","?","?","?","?","?","?","?","?","?","?","?","?","?","?","?","?","?","?","?","?","?","?","?","?","?","?","?","?","?","?","?","?","?","?","?","?","?","?","?","?","?","?","?","?","?","?","?","?","?","?","?","?","?","?","?","?","?","?","?","?","?","?","?","?","?","?","?","?","?","?","?","?","?","?","?","?","?","?","?","?","?","?","?","?","?","?","?","?","?","?","?","?","?","?","?","?","?","?","?","?","?","?","?","?","?","?","?","?","?","?","?","?","?","?","?","?","?","?","?","?","?","?","?","?","?","?","?","?","?","?","?","?","?","?","?","?","?","?","?","?","?","?","?","?","?","?","?","?","?","?","?","?","?","?","?","?","?","?","?","?","?","?","?","?","?","?","?","?","?","?","?","?","?","?","?","?","?","?","?","?","?","?","?","?","?","?","?","?","?","?","?","?","?","?","?","?","?","?","?","?","?","?","?","?","?","?","?","?","?","?","?","?","?","?","?","?","?","?","?","?","?","?","?","?","?","?","?","?","?","?","?","?","?","?","?","?","?","?","?","?","?","?","?","?","?","?","?","?","?","?","?","?","?","?","?","?","?","?","?","?","?","?","?","?","?","?","?","?","?","?","?","?","?","?","?","?","?","?","?","?","?","?","?","?","?","?","?","?","?","?","?","?","?","?","?","?","?","?","?","?","?","?","?","?","?","?","?","?","?","?","?","?","?","?","?","?","?","?","?","?","?","?","?","?","?","?","?","?","?","?","?","?","?","?","?","?","?","?","?","?","?","?","?","?","?","?","?","?","?","?","?","?","?","?","?","?","?","?","?","?","?","?","?","?","?","?","?","?","?","?","?","?","?","?","?","?","?","?","?","?","?","?","?","?","?","?","?","?","?","?","?","?","?","?","?","?","?","?","?","?","?","?","?","?","?","?","?","?","?","?","?","?","?","?","?","?","?","?","?","?","?","?","?","?","?","?","?","?","?","?","?","?","?","?","?","?","?","?","?","?","?","?","?","?","?","?","?","?","?","?","?","?","?","?","?","?","?","?","?","?","?","?","?","?","?","?","?","?","?","?","?","?","?","?","?","?","?","?","?","?","?","?","?","?","?","?","?","?","?","?","?","?","?","?","?","?","?","?","?","?","?","?","?","?","?","?","?","?","?","?","?","?","?","?","?","?","?","?","?","?","?","?","?","?","?","?","?","?","?","?","?","?","?","?","?","?","?","?","?","?","?","?","?","?","?","?","?","?","?","?","?","?","?","?","?","?","?","?","?","?","?","?","?","?","?","?","?","?","?","?","?","?","?","?","?","?","?","?","?","?","?","?","?","?","?","?","?","?","?","?","?","?","?","?","?","?","?","?","?","?","?","?","?","?","?","?","?","?","?","?","?","?","?","?","?","?","?","?","?","?","?","?","?","?","?","?","?","?","?","?","?","?","?","?","?","?","?","?","?","?","?","?","?","?","?","?","?","?","?","?","?","?","?","?","?","?","?","?","?","?","?","?","?","?","?","?","?","?","?","?","?","?","?","?","?","?","?","?","?","?","?","?","?","?","?","?","?","?","?","?","?","?","?","?","?","?","?","?","?","?","?","?","?","?","?","?","?","?","?","?","?","?","?","?","?","?","?","?","?","?","?","?","?","?","?","?","?","?","?","?","?","?","?","?","?","?","?","?","?","?","?","?","?","?","?","?","?","?","?","?","?","?","?","?","?","?","?","?","?","?","?","?","?","?","?","?","?","?","?","?","?","?","?","?","?","?","?","?","?","?","?","?","?","?","?","?","?","?","?","?","?","?","?","?","?","?","?","?","?","?","?","?","?","?","?","?","?","?","?","?","?","?","?","?","?","?","?","?","?","?","?","?","?","?","?","?","?","?","?","?","?","?","?","?","?","?","?","?","?","?","?","?","?","?","?","?","?","?","?","?","?","?","?","?","?","?","?","?","?","?","?","?","?","?","?","?","?","?","?","?","?","?","?","?","?","?","?","?","?","?","?","?","?","?","?","?","?","?","?","?","?","?","?","?","?","?","?","?","?","?","?","?","?","?","?","?","?","?","?","?","?","?","?","?","?","?","?","?","?","?","?","?","?","?","?","?","?","?","?","?","?","?","?","?","?","?","?","?","?","?","?","?","?","?","?","?","?","?","?","?","?","?","?","?","?","?","?","?","?","?","?","?","?","?","?","?","?","?","?","?","?","?","?","?","?","?","?","?","?","?","?","?","?","?","?","?","?","?","?","?","?","?","?","?","?","?","?","?","?","?","?","?","?","?","?","?","?","?","?","?","?","?","?","?","?","?","?","?","?","?","?","?","?","?","?","?","?","?","?","?","?","?","?","?","?","?","?","?","?","?","?","?","?","?","?","?","?","?","?","?","?","?","?","?","?","?","?","?","?","?","?","?","?","?","?","?","?","?","?","?","?","?","?","?","?","?","?","?","?","?","?","?","?","?","?","?","?","?","?","?","?","?","?","?","?","?","?","?","?","?","?","?","?","?","?","?","?","?","?","?","?","?","?","?","?","?","?","?","?","?","?","?","?","?","?","?","?","?","?","?","?","?","?","?","?","?","?","?","?","?","?","?","?","?","?","?","?","?","?","?","?","?","?","?","?","?","?","?","?","?","?","?","?","?","?","?","?","?","?","?","?","?","?","?","?","?","?","?","?","?","?","?","?","?","?","?","?","?","?","?","?","?","?","?","?","?","?","?","?","?","?","?","?","?","?","?","?","?","?","?","?","?","?","?","?","?","?","?","?","?","?","?","?","?","?","?","?","?","?","?","?","?","?","?","?","?","?","?","?","?","?","?","?","?","?","?","?","?","?","?","?","?","?","?","?","?","?","?","?","?","?","?","?","?","?","?","?",