"success","trial_type","trial_index","time_elapsed","internal_node_id","protocol_sum","subject_identifier","subject_sum","subject_pair","STUDY_ID","PROLIFIC_PID","SESSION_ID","practice_instructions","leaderboard_instructions","bonus","reveal_word","self_rating","confidence","view_history","rt","responses","question_order","correct","test_part","word","final_keyboard_state","num_clicks","points","cheat","position_RT","position","player","i_game","true_position","distance","last_word","response","stimulus","confidence_slider_self_response"
"true","fullscreen",0,2564,"0.0-0.0",NA,502,"199,93,63,31,91,205,105,20,208,51,28,229,236,23,192,219,143,32,112,162,212,40,95,142,63,241,28,108,161,145,104,255",251,"66a3ed3c5d10d0e7d8a6b9da","61004e962509f21ce295df3d","66a3f2f88500773057c304f5",1,1,0,"false",3,79,"",NA,"","","","","","",NA,NA,"",NA,NA,NA,NA,NA,NA,"",NA,"",NA
"","instructions",1,7447,"0.0-1.0",NA,502,"199,93,63,31,91,205,105,20,208,51,28,229,236,23,192,219,143,32,112,162,212,40,95,142,63,241,28,108,161,145,104,255",251,"66a3ed3c5d10d0e7d8a6b9da","61004e962509f21ce295df3d","66a3f2f88500773057c304f5",1,1,0,"false",3,79,"[{""page_index"":0,""viewing_time"":4882.599999904633}]",4882.69999980927,"","","","","","",NA,NA,"",NA,NA,NA,NA,NA,NA,"",NA,"",NA
"","instructions",2,38079,"0.0-2.0-0.0",NA,502,"199,93,63,31,91,205,105,20,208,51,28,229,236,23,192,219,143,32,112,162,212,40,95,142,63,241,28,108,161,145,104,255",251,"66a3ed3c5d10d0e7d8a6b9da","61004e962509f21ce295df3d","66a3f2f88500773057c304f5",1,1,0,"false",3,79,"[{""page_index"":0,""viewing_time"":30630.900000095367}]",30631.2000000477,"","","","","","",NA,NA,"",NA,NA,NA,NA,NA,NA,"",NA,"",NA
"","survey-multi-choice",3,43937,"0.0-2.0-1.0",NA,502,"199,93,63,31,91,205,105,20,208,51,28,229,236,23,192,219,143,32,112,162,212,40,95,142,63,241,28,108,161,145,104,255",251,"66a3ed3c5d10d0e7d8a6b9da","61004e962509f21ce295df3d","66a3f2f88500773057c304f5",1,1,0,"false",3,79,"",5857.20000004768,"{""Q0"":""... reveal the word with as <b>few letter guesses</b> as possible""}","[0]","true","multichoice_nonpretend","","",NA,NA,"",NA,NA,NA,NA,NA,NA,"",NA,"",NA
"","instructions",4,44795,"0.0-3.0",NA,502,"199,93,63,31,91,205,105,20,208,51,28,229,236,23,192,219,143,32,112,162,212,40,95,142,63,241,28,108,161,145,104,255",251,"66a3ed3c5d10d0e7d8a6b9da","61004e962509f21ce295df3d","66a3f2f88500773057c304f5",1,1,0,"false",3,79,"[{""page_index"":0,""viewing_time"":857.0999999046326}]",857.299999952316,"","","","","","",NA,NA,"",NA,NA,NA,NA,NA,NA,"",NA,"",NA
"","Hangman",5,139105,"0.0-4.0",NA,502,"199,93,63,31,91,205,105,20,208,51,28,229,236,23,192,219,143,32,112,162,212,40,95,142,63,241,28,108,161,145,104,255",251,"66a3ed3c5d10d0e7d8a6b9da","61004e962509f21ce295df3d","66a3f2f88500773057c304f5",1,1,0,"false",3,79,"",NA,"","","","","ZEBRA","E,S,N,R,A,Z,B",7,13,"false",NA,NA,NA,NA,NA,NA,"",NA,"",NA
"","instructions",6,159810,"0.0-5.0",NA,502,"199,93,63,31,91,205,105,20,208,51,28,229,236,23,192,219,143,32,112,162,212,40,95,142,63,241,28,108,161,145,104,255",251,"66a3ed3c5d10d0e7d8a6b9da","61004e962509f21ce295df3d","66a3f2f88500773057c304f5",1,1,0,"false",3,79,"[{""page_index"":0,""viewing_time"":4292},{""page_index"":1,""viewing_time"":16411.299999952316}]",20703.7000000477,"","","","","","",NA,NA,"",NA,NA,NA,NA,NA,NA,"",NA,"",NA
"","survey-multi-choice",7,165572,"0.0-6.0",NA,502,"199,93,63,31,91,205,105,20,208,51,28,229,236,23,192,219,143,32,112,162,212,40,95,142,63,241,28,108,161,145,104,255",251,"66a3ed3c5d10d0e7d8a6b9da","61004e962509f21ce295df3d","66a3f2f88500773057c304f5",1,1,0,"false",3,79,"",5760.70000004768,"{""Q0"":""""}","[0]","false","multichoice_leaderboard","","",NA,NA,"",NA,NA,NA,NA,NA,NA,"",NA,"",NA
"","instructions",8,167766,"0.0-7.0-0.0",NA,502,"199,93,63,31,91,205,105,20,208,51,28,229,236,23,192,219,143,32,112,162,212,40,95,142,63,241,28,108,161,145,104,255",251,"66a3ed3c5d10d0e7d8a6b9da","61004e962509f21ce295df3d","66a3f2f88500773057c304f5",1,1,0,"false",3,79,"[{""page_index"":0,""viewing_time"":2193.5}]",2193.69999980927,"","","","","","",NA,NA,"",NA,NA,NA,NA,NA,NA,"",NA,"",NA
"","survey-multi-choice",9,177728,"0.0-7.0-1.0",NA,502,"199,93,63,31,91,205,105,20,208,51,28,229,236,23,192,219,143,32,112,162,212,40,95,142,63,241,28,108,161,145,104,255",251,"66a3ed3c5d10d0e7d8a6b9da","61004e962509f21ce295df3d","66a3f2f88500773057c304f5",1,1,0,"false",3,79,"",9961.59999990463,"{""Q0"":""...from <b>a previous session</b> that is not part of the upcoming tournament.""}","[0]","true","multichoice_leaderboard","","",NA,NA,"",NA,NA,NA,NA,NA,NA,"",NA,"",NA
"","instructions",10,181715,"0.0-8.0",NA,502,"199,93,63,31,91,205,105,20,208,51,28,229,236,23,192,219,143,32,112,162,212,40,95,142,63,241,28,108,161,145,104,255",251,"66a3ed3c5d10d0e7d8a6b9da","61004e962509f21ce295df3d","66a3f2f88500773057c304f5",1,1,0,"false",3,79,"[{""page_index"":0,""viewing_time"":3985.7999999523163}]",3985.89999985695,"","","","","","",NA,NA,"",NA,NA,NA,NA,NA,NA,"",NA,"",NA
"","survey-multi-choice",11,194374,"0.0-9.0",NA,502,"199,93,63,31,91,205,105,20,208,51,28,229,236,23,192,219,143,32,112,162,212,40,95,142,63,241,28,108,161,145,104,255",251,"66a3ed3c5d10d0e7d8a6b9da","61004e962509f21ce295df3d","66a3f2f88500773057c304f5",1,1,0,"false",3,79,"",12658.7999999523,"{""Q0"":""...how well players did (in terms of <b>points</b>) in <b>previous games.</b>""}","[0]","false","multichoice_tournament","","",NA,NA,"",NA,NA,NA,NA,NA,NA,"",NA,"",NA
"","instructions",12,199978,"0.0-10.0-0.0",NA,502,"199,93,63,31,91,205,105,20,208,51,28,229,236,23,192,219,143,32,112,162,212,40,95,142,63,241,28,108,161,145,104,255",251,"66a3ed3c5d10d0e7d8a6b9da","61004e962509f21ce295df3d","66a3f2f88500773057c304f5",1,1,0,"false",3,79,"[{""page_index"":0,""viewing_time"":5603.400000095367}]",5603.70000004768,"","","","","","",NA,NA,"",NA,NA,NA,NA,NA,NA,"",NA,"",NA
"","survey-multi-choice",13,207190,"0.0-10.0-1.0",NA,502,"199,93,63,31,91,205,105,20,208,51,28,229,236,23,192,219,143,32,112,162,212,40,95,142,63,241,28,108,161,145,104,255",251,"66a3ed3c5d10d0e7d8a6b9da","61004e962509f21ce295df3d","66a3f2f88500773057c304f5",1,1,0,"false",3,79,"",7211.20000004768,"{""Q0"":""...players' leaderboard position (in terms of <b>points</b>) in an <b>upcoming tournament.</b>""}","[0]","true","multichoice_tournament","","",NA,NA,"",NA,NA,NA,NA,NA,NA,"",NA,"",NA
"","instructions",14,218501,"0.0-11.0",NA,502,"199,93,63,31,91,205,105,20,208,51,28,229,236,23,192,219,143,32,112,162,212,40,95,142,63,241,28,108,161,145,104,255",251,"66a3ed3c5d10d0e7d8a6b9da","61004e962509f21ce295df3d","66a3f2f88500773057c304f5",1,1,0,"false",3,79,"[{""page_index"":0,""viewing_time"":11310.5}]",11310.7000000477,"","","","","","",NA,NA,"",NA,NA,NA,NA,NA,NA,"",NA,"",NA
"","instructions",15,227792,"0.0-12.0-0.0",NA,502,"199,93,63,31,91,205,105,20,208,51,28,229,236,23,192,219,143,32,112,162,212,40,95,142,63,241,28,108,161,145,104,255",251,"66a3ed3c5d10d0e7d8a6b9da","61004e962509f21ce295df3d","66a3f2f88500773057c304f5",1,1,0,"false",3,79,"[{""page_index"":0,""viewing_time"":9290.100000143051}]",9290.20000004768,"","","","","","",NA,NA,"",NA,NA,NA,NA,NA,NA,"",NA,"",NA
"","Hangman_replay",16,264473,"0.0-12.0-1.0",NA,502,"199,93,63,31,91,205,105,20,208,51,28,229,236,23,192,219,143,32,112,162,212,40,95,142,63,241,28,108,161,145,104,255",251,"66a3ed3c5d10d0e7d8a6b9da","61004e962509f21ce295df3d","66a3f2f88500773057c304f5",1,1,0,"false",3,79,"",NA,"","","","","THIRTY FOUR","E,I,H,T,Y,R,F,O,U",9,14,"false",NA,NA,NA,NA,NA,NA,"",NA,"",NA
"","instructions",17,273196,"0.0-12.0-2.0",NA,502,"199,93,63,31,91,205,105,20,208,51,28,229,236,23,192,219,143,32,112,162,212,40,95,142,63,241,28,108,161,145,104,255",251,"66a3ed3c5d10d0e7d8a6b9da","61004e962509f21ce295df3d","66a3f2f88500773057c304f5",1,1,0,"false",3,79,"[{""page_index"":0,""viewing_time"":8720.700000047684}]",8721.09999990463,"","","","","","",NA,NA,"",NA,NA,NA,NA,NA,NA,"",NA,"",NA
"","Guess_leaderboard",18,280069,"0.0-12.0-3.0",NA,502,"199,93,63,31,91,205,105,20,208,51,28,229,236,23,192,219,143,32,112,162,212,40,95,142,63,241,28,108,161,145,104,255",251,"66a3ed3c5d10d0e7d8a6b9da","61004e962509f21ce295df3d","66a3f2f88500773057c304f5",1,1,0,"false",3,79,"",NA,"","","","","THIRTY FOUR","",NA,NA,"",6103.09999990463,41,70,0,37,4,"",NA,"",NA
"","instructions",19,283352,"0.0-12.0-0.1",NA,502,"199,93,63,31,91,205,105,20,208,51,28,229,236,23,192,219,143,32,112,162,212,40,95,142,63,241,28,108,161,145,104,255",251,"66a3ed3c5d10d0e7d8a6b9da","61004e962509f21ce295df3d","66a3f2f88500773057c304f5",1,1,0,"false",3,79,"[{""page_index"":0,""viewing_time"":3282.300000190735}]",3282.5,"","","","","","",NA,NA,"",NA,NA,NA,NA,NA,NA,"",NA,"",NA
"","Hangman_replay",20,318687,"0.0-12.0-1.1",NA,502,"199,93,63,31,91,205,105,20,208,51,28,229,236,23,192,219,143,32,112,162,212,40,95,142,63,241,28,108,161,145,104,255",251,"66a3ed3c5d10d0e7d8a6b9da","61004e962509f21ce295df3d","66a3f2f88500773057c304f5",1,1,0,"false",3,79,"",NA,"","","","","THUMB","E,A,I,O,U,C,B,T,H,M",10,10,"false",NA,NA,NA,NA,NA,NA,"",NA,"",NA
"","instructions",21,319646,"0.0-12.0-2.1",NA,502,"199,93,63,31,91,205,105,20,208,51,28,229,236,23,192,219,143,32,112,162,212,40,95,142,63,241,28,108,161,145,104,255",251,"66a3ed3c5d10d0e7d8a6b9da","61004e962509f21ce295df3d","66a3f2f88500773057c304f5",1,1,0,"false",3,79,"[{""page_index"":0,""viewing_time"":958.2999999523163}]",958.5,"","","","","","",NA,NA,"",NA,NA,NA,NA,NA,NA,"",NA,"",NA
"","Guess_leaderboard",22,322334,"0.0-12.0-3.1",NA,502,"199,93,63,31,91,205,105,20,208,51,28,229,236,23,192,219,143,32,112,162,212,40,95,142,63,241,28,108,161,145,104,255",251,"66a3ed3c5d10d0e7d8a6b9da","61004e962509f21ce295df3d","66a3f2f88500773057c304f5",1,1,0,"false",3,79,"",NA,"","","","","THUMB","",NA,NA,"",1923.29999995232,77,95,1,67,10,"",NA,"",NA
"","instructions",23,328762,"0.0-12.0-0.2",NA,502,"199,93,63,31,91,205,105,20,208,51,28,229,236,23,192,219,143,32,112,162,212,40,95,142,63,241,28,108,161,145,104,255",251,"66a3ed3c5d10d0e7d8a6b9da","61004e962509f21ce295df3d","66a3f2f88500773057c304f5",1,1,0,"false",3,79,"[{""page_index"":0,""viewing_time"":6426.899999856949}]",6427,"","","","","","",NA,NA,"",NA,NA,NA,NA,NA,NA,"",NA,"",NA
"","Hangman_replay",24,383718,"0.0-12.0-1.2",NA,502,"199,93,63,31,91,205,105,20,208,51,28,229,236,23,192,219,143,32,112,162,212,40,95,142,63,241,28,108,161,145,104,255",251,"66a3ed3c5d10d0e7d8a6b9da","61004e962509f21ce295df3d","66a3f2f88500773057c304f5",1,1,0,"false",3,79,"",NA,"","","","","HAWAII","K,A,H,W,I",5,14,"false",NA,NA,NA,NA,NA,NA,"",NA,"",NA
"","instructions",25,384738,"0.0-12.0-2.2",NA,502,"199,93,63,31,91,205,105,20,208,51,28,229,236,23,192,219,143,32,112,162,212,40,95,142,63,241,28,108,161,145,104,255",251,"66a3ed3c5d10d0e7d8a6b9da","61004e962509f21ce295df3d","66a3f2f88500773057c304f5",1,1,0,"false",3,79,"[{""page_index"":0,""viewing_time"":1019.5}]",1019.59999990463,"","","","","","",NA,NA,"",NA,NA,NA,NA,NA,NA,"",NA,"",NA
"","Guess_leaderboard",26,387248,"0.0-12.0-3.2",NA,502,"199,93,63,31,91,205,105,20,208,51,28,229,236,23,192,219,143,32,112,162,212,40,95,142,63,241,28,108,161,145,104,255",251,"66a3ed3c5d10d0e7d8a6b9da","61004e962509f21ce295df3d","66a3f2f88500773057c304f5",1,1,0,"false",3,79,"",NA,"","","","","HAWAII","",NA,NA,"",1757.90000009537,52,27,2,56,4,"",NA,"",NA
"","instructions",27,388122,"0.0-12.0-0.3",NA,502,"199,93,63,31,91,205,105,20,208,51,28,229,236,23,192,219,143,32,112,162,212,40,95,142,63,241,28,108,161,145,104,255",251,"66a3ed3c5d10d0e7d8a6b9da","61004e962509f21ce295df3d","66a3f2f88500773057c304f5",1,1,0,"false",3,79,"[{""page_index"":0,""viewing_time"":873.2999999523163}]",873.399999856949,"","","","","","",NA,NA,"",NA,NA,NA,NA,NA,NA,"",NA,"",NA
"","Hangman_replay",28,413233,"0.0-12.0-1.3",NA,502,"199,93,63,31,91,205,105,20,208,51,28,229,236,23,192,219,143,32,112,162,212,40,95,142,63,241,28,108,161,145,104,255",251,"66a3ed3c5d10d0e7d8a6b9da","61004e962509f21ce295df3d","66a3f2f88500773057c304f5",1,1,0,"false",3,79,"",NA,"","","","","USAIN BOLT","E,A,O,U,M,S,I,N,B,L,T",11,13,"false",NA,NA,NA,NA,NA,NA,"",NA,"",NA
"","instructions",29,414249,"0.0-12.0-2.3",NA,502,"199,93,63,31,91,205,105,20,208,51,28,229,236,23,192,219,143,32,112,162,212,40,95,142,63,241,28,108,161,145,104,255",251,"66a3ed3c5d10d0e7d8a6b9da","61004e962509f21ce295df3d","66a3f2f88500773057c304f5",1,1,0,"false",3,79,"[{""page_index"":0,""viewing_time"":1015.4000000953674}]",1015.5,"","","","","","",NA,NA,"",NA,NA,NA,NA,NA,NA,"",NA,"",NA
"","Guess_leaderboard",30,416948,"0.0-12.0-3.3",NA,502,"199,93,63,31,91,205,105,20,208,51,28,229,236,23,192,219,143,32,112,162,212,40,95,142,63,241,28,108,161,145,104,255",251,"66a3ed3c5d10d0e7d8a6b9da","61004e962509f21ce295df3d","66a3f2f88500773057c304f5",1,1,0,"false",3,79,"",NA,"","","","","USAIN BOLT","",NA,NA,"",1941.09999990463,40,12,3,71,31,"",NA,"",NA
"","instructions",31,418841,"0.0-12.0-0.4",NA,502,"199,93,63,31,91,205,105,20,208,51,28,229,236,23,192,219,143,32,112,162,212,40,95,142,63,241,28,108,161,145,104,255",251,"66a3ed3c5d10d0e7d8a6b9da","61004e962509f21ce295df3d","66a3f2f88500773057c304f5",1,1,0,"false",3,79,"[{""page_index"":0,""viewing_time"":1892.2999999523163}]",1892.39999985695,"","","","","","",NA,NA,"",NA,NA,NA,NA,NA,NA,"",NA,"",NA
"","Hangman_replay",32,461665,"0.0-12.0-1.4",NA,502,"199,93,63,31,91,205,105,20,208,51,28,229,236,23,192,219,143,32,112,162,212,40,95,142,63,241,28,108,161,145,104,255",251,"66a3ed3c5d10d0e7d8a6b9da","61004e962509f21ce295df3d","66a3f2f88500773057c304f5",1,1,0,"false",3,79,"",NA,"","","","","NECTARINE","A,I,D,T,S,N,M,L,K,J,O,P,Q,R,U,E,C",17,5,"false",NA,NA,NA,NA,NA,NA,"",NA,"",NA
"","instructions",33,463246,"0.0-12.0-2.4",NA,502,"199,93,63,31,91,205,105,20,208,51,28,229,236,23,192,219,143,32,112,162,212,40,95,142,63,241,28,108,161,145,104,255",251,"66a3ed3c5d10d0e7d8a6b9da","61004e962509f21ce295df3d","66a3f2f88500773057c304f5",1,1,0,"false",3,79,"[{""page_index"":0,""viewing_time"":1580.5999999046326}]",1580.79999995232,"","","","","","",NA,NA,"",NA,NA,NA,NA,NA,NA,"",NA,"",NA
"","Guess_leaderboard",34,466213,"0.0-12.0-3.4",NA,502,"199,93,63,31,91,205,105,20,208,51,28,229,236,23,192,219,143,32,112,162,212,40,95,142,63,241,28,108,161,145,104,255",251,"66a3ed3c5d10d0e7d8a6b9da","61004e962509f21ce295df3d","66a3f2f88500773057c304f5",1,1,0,"false",3,79,"",NA,"","","","","NECTARINE","",NA,NA,"",2213.70000004768,91,49,4,46,45,"",NA,"",NA
"","survey-text",35,483751,"0.0-13.0",NA,502,"199,93,63,31,91,205,105,20,208,51,28,229,236,23,192,219,143,32,112,162,212,40,95,142,63,241,28,108,161,145,104,255",251,"66a3ed3c5d10d0e7d8a6b9da","61004e962509f21ce295df3d","66a3f2f88500773057c304f5",1,1,0,"false",3,79,"",17533.8000001907,"{""Q0"":""nectarine""}","","","","","",NA,NA,"",NA,NA,NA,NA,NA,NA,"nectarine",NA,"",NA
"","survey-multi-choice",36,491327,"0.0-14.0",NA,502,"199,93,63,31,91,205,105,20,208,51,28,229,236,23,192,219,143,32,112,162,212,40,95,142,63,241,28,108,161,145,104,255",251,"66a3ed3c5d10d0e7d8a6b9da","61004e962509f21ce295df3d","66a3f2f88500773057c304f5",1,1,0,"false",3,79,"",7575.39999985695,"{""Q0"":""3. I would be <b>third</b> out of the six of us.""}","[0]","","self-rating","","",NA,NA,"",NA,3,NA,NA,NA,NA,"",NA,"",NA
"","html-slider-response",37,494363,"0.0-15.0",NA,502,"199,93,63,31,91,205,105,20,208,51,28,229,236,23,192,219,143,32,112,162,212,40,95,142,63,241,28,108,161,145,104,255",251,"66a3ed3c5d10d0e7d8a6b9da","61004e962509f21ce295df3d","66a3f2f88500773057c304f5",1,1,0,"false",3,79,"",3035,"","","","","","",NA,NA,"",NA,NA,NA,NA,NA,NA,"",79,"<p>Overall, how confident were you in your answer to this last question?</p>",79
"","survey-text",38,562814,"0.0-16.0",NA,502,"199,93,63,31,91,205,105,20,208,51,28,229,236,23,192,219,143,32,112,162,212,40,95,142,63,241,28,108,161,145,104,255",251,"66a3ed3c5d10d0e7d8a6b9da","61004e962509f21ce295df3d","66a3f2f88500773057c304f5",1,1,0,"false",3,79,"",68449.5999999046,"{""Q0"":""Maybe to see how people behave when they are unable to figure out words. Such as just giving up and pressing random letters until they find something or actually trying to calculate the best way to approach it.""}","","","","","",NA,NA,"",NA,NA,NA,NA,NA,NA,"",NA,"",NA
"","survey-text",39,567704,"0.0-17.0",NA,502,"199,93,63,31,91,205,105,20,208,51,28,229,236,23,192,219,143,32,112,162,212,40,95,142,63,241,28,108,161,145,104,255",251,"66a3ed3c5d10d0e7d8a6b9da","61004e962509f21ce295df3d","66a3f2f88500773057c304f5",1,1,0,"false",3,79,"",4888.69999980927,"{""Q0"":""n/a""}","","","","","",NA,NA,"",NA,NA,NA,NA,NA,NA,"",NA,"",NA
"","instructions",40,573236,"0.0-18.0",NA,502,"199,93,63,31,91,205,105,20,208,51,28,229,236,23,192,219,143,32,112,162,212,40,95,142,63,241,28,108,161,145,104,255",251,"66a3ed3c5d10d0e7d8a6b9da","61004e962509f21ce295df3d","66a3f2f88500773057c304f5",1,1,0,"false",3,79,"[{""page_index"":0,""viewing_time"":5531.799999952316}]",5532,"","","","","","",NA,NA,"",NA,NA,NA,NA,NA,NA,"",NA,"",NA
