"success","trial_type","trial_index","time_elapsed","internal_node_id","protocol_sum","subject_identifier","subject_sum","subject_pair","STUDY_ID","PROLIFIC_PID","SESSION_ID","practice_instructions","leaderboard_instructions","bonus","reveal_word","self_rating","confidence","view_history","rt","responses","question_order","correct","test_part","word","final_keyboard_state","num_clicks","points","cheat","response","position_RT","position","player","i_game","true_position","distance","last_word","stimulus","confidence_slider_self_response"
"true","fullscreen",0,4162,"0.0-0.0",NA,535,"138,204,35,152,123,137,96,216,60,68,84,31,159,14,180,100,84,206,160,128,234,148,217,22,245,111,204,240,51,219,134,111",267,"66a3ed3c5d10d0e7d8a6b9da","66800683809f48e85f663f86","66a47a652b50826ad8209618",1,2,0,"true",3,75,"",NA,"","","","","","",NA,NA,"","",NA,NA,NA,NA,NA,NA,"","",NA
"","instructions",1,16535,"0.0-1.0",NA,535,"138,204,35,152,123,137,96,216,60,68,84,31,159,14,180,100,84,206,160,128,234,148,217,22,245,111,204,240,51,219,134,111",267,"66a3ed3c5d10d0e7d8a6b9da","66800683809f48e85f663f86","66a47a652b50826ad8209618",1,2,0,"true",3,75,"[{""page_index"":0,""viewing_time"":12372.10000000894}]",12372.200000003,"","","","","","",NA,NA,"","",NA,NA,NA,NA,NA,NA,"","",NA
"","instructions",2,18919,"0.0-2.0-0.0",NA,535,"138,204,35,152,123,137,96,216,60,68,84,31,159,14,180,100,84,206,160,128,234,148,217,22,245,111,204,240,51,219,134,111",267,"66a3ed3c5d10d0e7d8a6b9da","66800683809f48e85f663f86","66a47a652b50826ad8209618",1,2,0,"true",3,75,"[{""page_index"":0,""viewing_time"":2383.3999999910593}]",2383.5,"","","","","","",NA,NA,"","",NA,NA,NA,NA,NA,NA,"","",NA
"","survey-multi-choice",3,23264,"0.0-2.0-1.0",NA,535,"138,204,35,152,123,137,96,216,60,68,84,31,159,14,180,100,84,206,160,128,234,148,217,22,245,111,204,240,51,219,134,111",267,"66a3ed3c5d10d0e7d8a6b9da","66800683809f48e85f663f86","66a47a652b50826ad8209618",1,2,0,"true",3,75,"",4344.30000001192,"{""Q0"":""... reveal the word with as <b>few letter guesses</b> as possible""}","[0]","true","multichoice_nonpretend","","",NA,NA,"","",NA,NA,NA,NA,NA,NA,"","",NA
"","instructions",4,24375,"0.0-3.0",NA,535,"138,204,35,152,123,137,96,216,60,68,84,31,159,14,180,100,84,206,160,128,234,148,217,22,245,111,204,240,51,219,134,111",267,"66a3ed3c5d10d0e7d8a6b9da","66800683809f48e85f663f86","66a47a652b50826ad8209618",1,2,0,"true",3,75,"[{""page_index"":0,""viewing_time"":1110.2000000029802}]",1110.20000000298,"","","","","","",NA,NA,"","",NA,NA,NA,NA,NA,NA,"","",NA
"","Hangman",5,130811,"0.0-4.0",NA,535,"138,204,35,152,123,137,96,216,60,68,84,31,159,14,180,100,84,206,160,128,234,148,217,22,245,111,204,240,51,219,134,111",267,"66a3ed3c5d10d0e7d8a6b9da","66800683809f48e85f663f86","66a47a652b50826ad8209618",1,2,0,"true",3,75,"",NA,"","","","","ZEBRA","E,A,H,L,U,T,C,F,R,N,I,S,Y,V,O,P,B,Z",18,2,"false","",NA,NA,NA,NA,NA,NA,"","",NA
"","instructions",6,159486,"0.0-5.0",NA,535,"138,204,35,152,123,137,96,216,60,68,84,31,159,14,180,100,84,206,160,128,234,148,217,22,245,111,204,240,51,219,134,111",267,"66a3ed3c5d10d0e7d8a6b9da","66800683809f48e85f663f86","66a47a652b50826ad8209618",1,2,0,"true",3,75,"[{""page_index"":0,""viewing_time"":1682.7999999970198},{""page_index"":1,""viewing_time"":26991.90000000596}]",28675.200000003,"","","","","","",NA,NA,"","",NA,NA,NA,NA,NA,NA,"","",NA
"","survey-multi-choice",7,167870,"0.0-6.0",NA,535,"138,204,35,152,123,137,96,216,60,68,84,31,159,14,180,100,84,206,160,128,234,148,217,22,245,111,204,240,51,219,134,111",267,"66a3ed3c5d10d0e7d8a6b9da","66800683809f48e85f663f86","66a47a652b50826ad8209618",1,2,0,"true",3,75,"",8383.10000000894,"{""Q0"":""...from <b>a previous session</b> that is not part of the upcoming tournament.""}","[0]","true","multichoice_leaderboard","","",NA,NA,"","",NA,NA,NA,NA,NA,NA,"","",NA
"","instructions",8,195863,"0.0-8.0",NA,535,"138,204,35,152,123,137,96,216,60,68,84,31,159,14,180,100,84,206,160,128,234,148,217,22,245,111,204,240,51,219,134,111",267,"66a3ed3c5d10d0e7d8a6b9da","66800683809f48e85f663f86","66a47a652b50826ad8209618",1,2,0,"true",3,75,"[{""page_index"":0,""viewing_time"":27991.60000000894}]",27991.799999997,"","","","","","",NA,NA,"","",NA,NA,NA,NA,NA,NA,"","",NA
"","survey-multi-choice",9,204086,"0.0-9.0",NA,535,"138,204,35,152,123,137,96,216,60,68,84,31,159,14,180,100,84,206,160,128,234,148,217,22,245,111,204,240,51,219,134,111",267,"66a3ed3c5d10d0e7d8a6b9da","66800683809f48e85f663f86","66a47a652b50826ad8209618",1,2,0,"true",3,75,"",8223.10000000894,"{""Q0"":""...how well players did (in terms of <b>points</b>) in <b>previous games.</b>""}","[0]","false","multichoice_tournament","","",NA,NA,"","",NA,NA,NA,NA,NA,NA,"","",NA
"","instructions",10,206574,"0.0-10.0-0.0",NA,535,"138,204,35,152,123,137,96,216,60,68,84,31,159,14,180,100,84,206,160,128,234,148,217,22,245,111,204,240,51,219,134,111",267,"66a3ed3c5d10d0e7d8a6b9da","66800683809f48e85f663f86","66a47a652b50826ad8209618",1,2,0,"true",3,75,"[{""page_index"":0,""viewing_time"":2486.7999999970198}]",2487,"","","","","","",NA,NA,"","",NA,NA,NA,NA,NA,NA,"","",NA
"","survey-multi-choice",11,220406,"0.0-10.0-1.0",NA,535,"138,204,35,152,123,137,96,216,60,68,84,31,159,14,180,100,84,206,160,128,234,148,217,22,245,111,204,240,51,219,134,111",267,"66a3ed3c5d10d0e7d8a6b9da","66800683809f48e85f663f86","66a47a652b50826ad8209618",1,2,0,"true",3,75,"",13831.799999997,"{""Q0"":""...players' leaderboard position (in terms of <b>speed</b>) in an <b>upcoming tournament.</b>""}","[0]","false","multichoice_tournament","","",NA,NA,"","",NA,NA,NA,NA,NA,NA,"","",NA
"","instructions",12,222782,"0.0-10.1-0.1",NA,535,"138,204,35,152,123,137,96,216,60,68,84,31,159,14,180,100,84,206,160,128,234,148,217,22,245,111,204,240,51,219,134,111",267,"66a3ed3c5d10d0e7d8a6b9da","66800683809f48e85f663f86","66a47a652b50826ad8209618",1,2,0,"true",3,75,"[{""page_index"":0,""viewing_time"":2375.2000000029802}]",2375.40000000596,"","","","","","",NA,NA,"","",NA,NA,NA,NA,NA,NA,"","",NA
"","survey-multi-choice",13,225079,"0.0-10.1-1.1",NA,535,"138,204,35,152,123,137,96,216,60,68,84,31,159,14,180,100,84,206,160,128,234,148,217,22,245,111,204,240,51,219,134,111",267,"66a3ed3c5d10d0e7d8a6b9da","66800683809f48e85f663f86","66a47a652b50826ad8209618",1,2,0,"true",3,75,"",2295.59999999404,"{""Q0"":""...players' leaderboard position (in terms of <b>points</b>) in an <b>upcoming tournament.</b>""}","[0]","true","multichoice_tournament","","",NA,NA,"","",NA,NA,NA,NA,NA,NA,"","",NA
"","instructions",14,238726,"0.0-11.0",NA,535,"138,204,35,152,123,137,96,216,60,68,84,31,159,14,180,100,84,206,160,128,234,148,217,22,245,111,204,240,51,219,134,111",267,"66a3ed3c5d10d0e7d8a6b9da","66800683809f48e85f663f86","66a47a652b50826ad8209618",1,2,0,"true",3,75,"[{""page_index"":0,""viewing_time"":13646.89999999106}]",13647.099999994,"","","","","","",NA,NA,"","",NA,NA,NA,NA,NA,NA,"","",NA
"","instructions",15,407839,"0.0-12.0-0.0",NA,535,"138,204,35,152,123,137,96,216,60,68,84,31,159,14,180,100,84,206,160,128,234,148,217,22,245,111,204,240,51,219,134,111",267,"66a3ed3c5d10d0e7d8a6b9da","66800683809f48e85f663f86","66a47a652b50826ad8209618",1,2,0,"true",3,75,"[{""page_index"":0,""viewing_time"":169111.39999999106}]",169111.599999994,"","","","","","",NA,NA,"","",NA,NA,NA,NA,NA,NA,"","",NA
"","type-this",16,423387,"0.0-12.0-1.0",NA,535,"138,204,35,152,123,137,96,216,60,68,84,31,159,14,180,100,84,206,160,128,234,148,217,22,245,111,204,240,51,219,134,111",267,"66a3ed3c5d10d0e7d8a6b9da","66800683809f48e85f663f86","66a47a652b50826ad8209618",1,2,0,"true",3,75,"",15045.599999994,"KENTUCKY","","","","","",NA,NA,"","KENTUCKY",NA,NA,NA,NA,NA,NA,"","",NA
"","Hangman_replay",17,459513,"0.0-12.0-2.0",NA,535,"138,204,35,152,123,137,96,216,60,68,84,31,159,14,180,100,84,206,160,128,234,148,217,22,245,111,204,240,51,219,134,111",267,"66a3ed3c5d10d0e7d8a6b9da","66800683809f48e85f663f86","66a47a652b50826ad8209618",1,2,0,"true",3,75,"",NA,"","","","","KENTUCKY","A,E,R,N,K,T,U,C,Y",9,13,"false","",NA,NA,NA,NA,NA,NA,"","",NA
"","instructions",18,465223,"0.0-12.0-3.0",NA,535,"138,204,35,152,123,137,96,216,60,68,84,31,159,14,180,100,84,206,160,128,234,148,217,22,245,111,204,240,51,219,134,111",267,"66a3ed3c5d10d0e7d8a6b9da","66800683809f48e85f663f86","66a47a652b50826ad8209618",1,2,0,"true",3,75,"[{""page_index"":0,""viewing_time"":5709}]",5709.20000000298,"","","","","","",NA,NA,"","",NA,NA,NA,NA,NA,NA,"","",NA
"","Guess_leaderboard",19,478640,"0.0-12.0-4.0",NA,535,"138,204,35,152,123,137,96,216,60,68,84,31,159,14,180,100,84,206,160,128,234,148,217,22,245,111,204,240,51,219,134,111",267,"66a3ed3c5d10d0e7d8a6b9da","66800683809f48e85f663f86","66a47a652b50826ad8209618",1,2,0,"true",3,75,"",NA,"","","","","KENTUCKY","",NA,NA,"","",12661.299999997,20,13,0,6,14,"","",NA
"","instructions",20,483663,"0.0-12.0-0.1",NA,535,"138,204,35,152,123,137,96,216,60,68,84,31,159,14,180,100,84,206,160,128,234,148,217,22,245,111,204,240,51,219,134,111",267,"66a3ed3c5d10d0e7d8a6b9da","66800683809f48e85f663f86","66a47a652b50826ad8209618",1,2,0,"true",3,75,"[{""page_index"":0,""viewing_time"":5021.5}]",5021.70000000298,"","","","","","",NA,NA,"","",NA,NA,NA,NA,NA,NA,"","",NA
"","type-this",21,493996,"0.0-12.0-1.1",NA,535,"138,204,35,152,123,137,96,216,60,68,84,31,159,14,180,100,84,206,160,128,234,148,217,22,245,111,204,240,51,219,134,111",267,"66a3ed3c5d10d0e7d8a6b9da","66800683809f48e85f663f86","66a47a652b50826ad8209618",1,2,0,"true",3,75,"",9831.10000000894,"USAIN BOLT","","","","","",NA,NA,"","USAIN BOLT",NA,NA,NA,NA,NA,NA,"","",NA
"","Hangman_replay",22,518503,"0.0-12.0-2.1",NA,535,"138,204,35,152,123,137,96,216,60,68,84,31,159,14,180,100,84,206,160,128,234,148,217,22,245,111,204,240,51,219,134,111",267,"66a3ed3c5d10d0e7d8a6b9da","66800683809f48e85f663f86","66a47a652b50826ad8209618",1,2,0,"true",3,75,"",NA,"","","","","USAIN BOLT","A,E,I,O,U,L,M,N,S,B,T",11,13,"false","",NA,NA,NA,NA,NA,NA,"","",NA
"","instructions",23,540526,"0.0-12.0-3.1",NA,535,"138,204,35,152,123,137,96,216,60,68,84,31,159,14,180,100,84,206,160,128,234,148,217,22,245,111,204,240,51,219,134,111",267,"66a3ed3c5d10d0e7d8a6b9da","66800683809f48e85f663f86","66a47a652b50826ad8209618",1,2,0,"true",3,75,"[{""page_index"":0,""viewing_time"":22023.09999999404}]",22023.299999997,"","","","","","",NA,NA,"","",NA,NA,NA,NA,NA,NA,"","",NA
"","Guess_leaderboard",24,544852,"0.0-12.0-4.1",NA,535,"138,204,35,152,123,137,96,216,60,68,84,31,159,14,180,100,84,206,160,128,234,148,217,22,245,111,204,240,51,219,134,111",267,"66a3ed3c5d10d0e7d8a6b9da","66800683809f48e85f663f86","66a47a652b50826ad8209618",1,2,0,"true",3,75,"",NA,"","","","","USAIN BOLT","",NA,NA,"","",3565,54,49,1,65,11,"","",NA
"","instructions",25,556086,"0.0-12.0-0.2",NA,535,"138,204,35,152,123,137,96,216,60,68,84,31,159,14,180,100,84,206,160,128,234,148,217,22,245,111,204,240,51,219,134,111",267,"66a3ed3c5d10d0e7d8a6b9da","66800683809f48e85f663f86","66a47a652b50826ad8209618",1,2,0,"true",3,75,"[{""page_index"":0,""viewing_time"":11233.70000000298}]",11233.900000006,"","","","","","",NA,NA,"","",NA,NA,NA,NA,NA,NA,"","",NA
"","type-this",26,562603,"0.0-12.0-1.2",NA,535,"138,204,35,152,123,137,96,216,60,68,84,31,159,14,180,100,84,206,160,128,234,148,217,22,245,111,204,240,51,219,134,111",267,"66a3ed3c5d10d0e7d8a6b9da","66800683809f48e85f663f86","66a47a652b50826ad8209618",1,2,0,"true",3,75,"",6015.39999999106,"FIG","","","","","",NA,NA,"","FIG",NA,NA,NA,NA,NA,NA,"","",NA
"","Hangman_replay",27,591762,"0.0-12.0-2.2",NA,535,"138,204,35,152,123,137,96,216,60,68,84,31,159,14,180,100,84,206,160,128,234,148,217,22,245,111,204,240,51,219,134,111",267,"66a3ed3c5d10d0e7d8a6b9da","66800683809f48e85f663f86","66a47a652b50826ad8209618",1,2,0,"true",3,75,"",NA,"","","","","FIG","F,I,G",3,15,"false","",NA,NA,NA,NA,NA,NA,"","",NA
"","instructions",28,594086,"0.0-12.0-3.2",NA,535,"138,204,35,152,123,137,96,216,60,68,84,31,159,14,180,100,84,206,160,128,234,148,217,22,245,111,204,240,51,219,134,111",267,"66a3ed3c5d10d0e7d8a6b9da","66800683809f48e85f663f86","66a47a652b50826ad8209618",1,2,0,"true",3,75,"[{""page_index"":0,""viewing_time"":2323.8999999910593}]",2324,"","","","","","",NA,NA,"","",NA,NA,NA,NA,NA,NA,"","",NA
"","Guess_leaderboard",29,597234,"0.0-12.0-4.2",NA,535,"138,204,35,152,123,137,96,216,60,68,84,31,159,14,180,100,84,206,160,128,234,148,217,22,245,111,204,240,51,219,134,111",267,"66a3ed3c5d10d0e7d8a6b9da","66800683809f48e85f663f86","66a47a652b50826ad8209618",1,2,0,"true",3,75,"",NA,"","","","","FIG","",NA,NA,"","",2391,18,30,2,77,59,"","",NA
"","instructions",30,601006,"0.0-12.0-0.3",NA,535,"138,204,35,152,123,137,96,216,60,68,84,31,159,14,180,100,84,206,160,128,234,148,217,22,245,111,204,240,51,219,134,111",267,"66a3ed3c5d10d0e7d8a6b9da","66800683809f48e85f663f86","66a47a652b50826ad8209618",1,2,0,"true",3,75,"[{""page_index"":0,""viewing_time"":3771.5}]",3771.60000000894,"","","","","","",NA,NA,"","",NA,NA,NA,NA,NA,NA,"","",NA
"","type-this",31,608532,"0.0-12.0-1.3",NA,535,"138,204,35,152,123,137,96,216,60,68,84,31,159,14,180,100,84,206,160,128,234,148,217,22,245,111,204,240,51,219,134,111",267,"66a3ed3c5d10d0e7d8a6b9da","66800683809f48e85f663f86","66a47a652b50826ad8209618",1,2,0,"true",3,75,"",7023.40000000596,"THIRTY FOUR","","","","","",NA,NA,"","THIRTY FOUR",NA,NA,NA,NA,NA,NA,"","",NA
"","Hangman_replay",32,646564,"0.0-12.0-2.3",NA,535,"138,204,35,152,123,137,96,216,60,68,84,31,159,14,180,100,84,206,160,128,234,148,217,22,245,111,204,240,51,219,134,111",267,"66a3ed3c5d10d0e7d8a6b9da","66800683809f48e85f663f86","66a47a652b50826ad8209618",1,2,0,"true",3,75,"",NA,"","","","","THIRTY FOUR","Y,T,W,H,I,R,F,O,U",9,14,"false","",NA,NA,NA,NA,NA,NA,"","",NA
"","instructions",33,648367,"0.0-12.0-3.3",NA,535,"138,204,35,152,123,137,96,216,60,68,84,31,159,14,180,100,84,206,160,128,234,148,217,22,245,111,204,240,51,219,134,111",267,"66a3ed3c5d10d0e7d8a6b9da","66800683809f48e85f663f86","66a47a652b50826ad8209618",1,2,0,"true",3,75,"[{""page_index"":0,""viewing_time"":1803.0999999940395}]",1803.29999999702,"","","","","","",NA,NA,"","",NA,NA,NA,NA,NA,NA,"","",NA
"","Guess_leaderboard",34,650884,"0.0-12.0-4.3",NA,535,"138,204,35,152,123,137,96,216,60,68,84,31,159,14,180,100,84,206,160,128,234,148,217,22,245,111,204,240,51,219,134,111",267,"66a3ed3c5d10d0e7d8a6b9da","66800683809f48e85f663f86","66a47a652b50826ad8209618",1,2,0,"true",3,75,"",NA,"","","","","THIRTY FOUR","",NA,NA,"","",1757.90000000596,15,89,3,67,52,"","",NA
"","instructions",35,666319,"0.0-12.0-0.4",NA,535,"138,204,35,152,123,137,96,216,60,68,84,31,159,14,180,100,84,206,160,128,234,148,217,22,245,111,204,240,51,219,134,111",267,"66a3ed3c5d10d0e7d8a6b9da","66800683809f48e85f663f86","66a47a652b50826ad8209618",1,2,0,"true",3,75,"[{""page_index"":0,""viewing_time"":15433.60000000894}]",15433.799999997,"","","","","","",NA,NA,"","",NA,NA,NA,NA,NA,NA,"","",NA
"","type-this",36,762740,"0.0-12.0-1.4",NA,535,"138,204,35,152,123,137,96,216,60,68,84,31,159,14,180,100,84,206,160,128,234,148,217,22,245,111,204,240,51,219,134,111",267,"66a3ed3c5d10d0e7d8a6b9da","66800683809f48e85f663f86","66a47a652b50826ad8209618",1,2,0,"true",3,75,"",95919.400000006,"THUMB","","","","","",NA,NA,"","THUMB",NA,NA,NA,NA,NA,NA,"","",NA
"","Hangman_replay",37,828163,"0.0-12.0-2.4",NA,535,"138,204,35,152,123,137,96,216,60,68,84,31,159,14,180,100,84,206,160,128,234,148,217,22,245,111,204,240,51,219,134,111",267,"66a3ed3c5d10d0e7d8a6b9da","66800683809f48e85f663f86","66a47a652b50826ad8209618",1,2,0,"true",3,75,"",NA,"","","","","THUMB","S,H,C,T,I,R,O,A,E,U,M,B",12,8,"false","",NA,NA,NA,NA,NA,NA,"","",NA
"","instructions",38,829894,"0.0-12.0-3.4",NA,535,"138,204,35,152,123,137,96,216,60,68,84,31,159,14,180,100,84,206,160,128,234,148,217,22,245,111,204,240,51,219,134,111",267,"66a3ed3c5d10d0e7d8a6b9da","66800683809f48e85f663f86","66a47a652b50826ad8209618",1,2,0,"true",3,75,"[{""page_index"":0,""viewing_time"":1731}]",1731.19999998808,"","","","","","",NA,NA,"","",NA,NA,NA,NA,NA,NA,"","",NA
"","Guess_leaderboard",39,832568,"0.0-12.0-4.4",NA,535,"138,204,35,152,123,137,96,216,60,68,84,31,159,14,180,100,84,206,160,128,234,148,217,22,245,111,204,240,51,219,134,111",267,"66a3ed3c5d10d0e7d8a6b9da","66800683809f48e85f663f86","66a47a652b50826ad8209618",1,2,0,"true",3,75,"",NA,"","","","","THUMB","",NA,NA,"","",1911,80,81,4,67,13,"","",NA
"","survey-text",40,847695,"0.0-13.0",NA,535,"138,204,35,152,123,137,96,216,60,68,84,31,159,14,180,100,84,206,160,128,234,148,217,22,245,111,204,240,51,219,134,111",267,"66a3ed3c5d10d0e7d8a6b9da","66800683809f48e85f663f86","66a47a652b50826ad8209618",1,2,0,"true",3,75,"",15125.6000000089,"{""Q0"":""THUMB""}","","","","","",NA,NA,"","",NA,NA,NA,NA,NA,NA,"thumb","",NA
"","survey-multi-choice",41,858887,"0.0-14.0",NA,535,"138,204,35,152,123,137,96,216,60,68,84,31,159,14,180,100,84,206,160,128,234,148,217,22,245,111,204,240,51,219,134,111",267,"66a3ed3c5d10d0e7d8a6b9da","66800683809f48e85f663f86","66a47a652b50826ad8209618",1,2,0,"true",3,75,"",11191.099999994,"{""Q0"":""3. I would be <b>third</b> out of the six of us.""}","[0]","","self-rating","","",NA,NA,"","",NA,3,NA,NA,NA,NA,"","",NA
"","html-slider-response",42,862334,"0.0-15.0",NA,535,"138,204,35,152,123,137,96,216,60,68,84,31,159,14,180,100,84,206,160,128,234,148,217,22,245,111,204,240,51,219,134,111",267,"66a3ed3c5d10d0e7d8a6b9da","66800683809f48e85f663f86","66a47a652b50826ad8209618",1,2,0,"true",3,75,"",3446.09999999404,"","","","","","",NA,NA,"","75",NA,NA,NA,NA,NA,NA,"","<p>Overall, how confident were you in your answer to this last question?</p>",75
"","survey-text",43,915327,"0.0-16.0",NA,535,"138,204,35,152,123,137,96,216,60,68,84,31,159,14,180,100,84,206,160,128,234,148,217,22,245,111,204,240,51,219,134,111",267,"66a3ed3c5d10d0e7d8a6b9da","66800683809f48e85f663f86","66a47a652b50826ad8209618",1,2,0,"true",3,75,"",52990.6000000089,"{""Q0"":""Either the test taker's attention span or everyone's problem solving skills.""}","","","","","",NA,NA,"","",NA,NA,NA,NA,NA,NA,"","",NA
"","survey-text",44,940543,"0.0-17.0",NA,535,"138,204,35,152,123,137,96,216,60,68,84,31,159,14,180,100,84,206,160,128,234,148,217,22,245,111,204,240,51,219,134,111",267,"66a3ed3c5d10d0e7d8a6b9da","66800683809f48e85f663f86","66a47a652b50826ad8209618",1,2,0,"true",3,75,"",25214.900000006,"{""Q0"":""I was a little distracting with something happening around me.""}","","","","","",NA,NA,"","",NA,NA,NA,NA,NA,NA,"","",NA
"","instructions",45,953759,"0.0-18.0",NA,535,"138,204,35,152,123,137,96,216,60,68,84,31,159,14,180,100,84,206,160,128,234,148,217,22,245,111,204,240,51,219,134,111",267,"66a3ed3c5d10d0e7d8a6b9da","66800683809f48e85f663f86","66a47a652b50826ad8209618",1,2,0,"true",3,75,"[{""page_index"":0,""viewing_time"":13215.29999999702}]",13215.5,"","","","","","",NA,NA,"","",NA,NA,NA,NA,NA,NA,"","",NA
