[{"success":true,"trial_type":"fullscreen","trial_index":0,"time_elapsed":4241,"internal_node_id":"0.0-0.0","protocol_sum":"","subject_identifier":126,"subject_sum":[218,78,162,165,80,111,38,147,234,225,144,217,54,10,31,49,121,60,152,161,173,173,229,29,147,83,58,111,82,10,206,28],"subject_pair":63,"STUDY_ID":"669a702db1122fc5150a13ce","PROLIFIC_PID":"662b24af863fd5cc1437384c","SESSION_ID":"669b1c5abee50f1a83b7f04a","practice_instructions":1,"leaderboard_instructions":0,"bonus":0,"reveal_word":false,"self_rating":"2","confidence":"82"},{"view_history":"[{\"page_index\":0,\"viewing_time\":10512.899999976158}]","rt":10513.100000023842,"trial_type":"instructions","trial_index":1,"time_elapsed":14755,"internal_node_id":"0.0-1.0","protocol_sum":"","subject_identifier":126,"subject_sum":[218,78,162,165,80,111,38,147,234,225,144,217,54,10,31,49,121,60,152,161,173,173,229,29,147,83,58,111,82,10,206,28],"subject_pair":63,"STUDY_ID":"669a702db1122fc5150a13ce","PROLIFIC_PID":"662b24af863fd5cc1437384c","SESSION_ID":"669b1c5abee50f1a83b7f04a","practice_instructions":1,"leaderboard_instructions":0,"bonus":0,"reveal_word":false,"self_rating":"2","confidence":"82"},{"view_history":"[{\"page_index\":0,\"viewing_time\":21196.600000023842}]","rt":21196.80000001192,"trial_type":"instructions","trial_index":2,"time_elapsed":35952,"internal_node_id":"0.0-2.0-0.0","protocol_sum":"","subject_identifier":126,"subject_sum":[218,78,162,165,80,111,38,147,234,225,144,217,54,10,31,49,121,60,152,161,173,173,229,29,147,83,58,111,82,10,206,28],"subject_pair":63,"STUDY_ID":"669a702db1122fc5150a13ce","PROLIFIC_PID":"662b24af863fd5cc1437384c","SESSION_ID":"669b1c5abee50f1a83b7f04a","practice_instructions":1,"leaderboard_instructions":0,"bonus":0,"reveal_word":false,"self_rating":"2","confidence":"82"},{"rt":11920.699999988079,"responses":"{\"Q0\":\"... reveal the word with as <b>few letter guesses</b> as possible\"}","question_order":"[0]","trial_type":"survey-multi-choice","trial_index":3,"time_elapsed":47874,"internal_node_id":"0.0-2.0-1.0","protocol_sum":"","subject_identifier":126,"subject_sum":[218,78,162,165,80,111,38,147,234,225,144,217,54,10,31,49,121,60,152,161,173,173,229,29,147,83,58,111,82,10,206,28],"subject_pair":63,"correct":true,"test_part":"multichoice_nonpretend","STUDY_ID":"669a702db1122fc5150a13ce","PROLIFIC_PID":"662b24af863fd5cc1437384c","SESSION_ID":"669b1c5abee50f1a83b7f04a","practice_instructions":1,"leaderboard_instructions":0,"bonus":0,"reveal_word":false,"self_rating":"2","confidence":"82"},{"view_history":"[{\"page_index\":0,\"viewing_time\":5430.399999976158}]","rt":5430.599999964237,"trial_type":"instructions","trial_index":4,"time_elapsed":53306,"internal_node_id":"0.0-3.0","protocol_sum":"","subject_identifier":126,"subject_sum":[218,78,162,165,80,111,38,147,234,225,144,217,54,10,31,49,121,60,152,161,173,173,229,29,147,83,58,111,82,10,206,28],"subject_pair":63,"STUDY_ID":"669a702db1122fc5150a13ce","PROLIFIC_PID":"662b24af863fd5cc1437384c","SESSION_ID":"669b1c5abee50f1a83b7f04a","practice_instructions":1,"leaderboard_instructions":0,"bonus":0,"reveal_word":false,"self_rating":"2","confidence":"82"},{"word":"ZEBRA","click_log":{"letter":["","E","B","R","Z","A"],"t":[0,11042.100000023842,13402,17907.400000035763,19308.600000023842,20513.600000023842],"hit":[null,1,1,1,1,1],"asked":["","E","EB","EBR","EBRZ","EBRZA"],"word_state":["_____","_E___","_EB__","_EBR_","ZEBR_","ZEBRA"]},"hover_log":{"letter":["?","?","?","?","?","?","?","?","?","?","?","?","?","?","?","?","?","?","?","?","?","?","?","?","?","?","?","?","?","?","J","?","B","?","?","?","?","?","?","?","?","?","?","?","?","?","?","?","?","?","?","?","?","?","?","?","?","?","?","?","?","?","?","?","?","?","?","?","?","?","?","?","?","?","?","?","?","?","?","?","?","?","?","?","?","?","?","?","?","?","?","?","?","?","?","?","?","?","?","?","?","?","?","?","?","?","?","?","?","?","?","?","?","?","D","D","D","D","D","D","D","D","D","D","D","D","D","D","D","D","D","D","D","D","D","D","D","D","D","D","D","D","D","D","D","D","D","D","D","D","D","D","D","D","D","D","D","D","D","D","D","D","D","D","D","?","E","E","E","?","?","?","?","?","?","?","F","F","F","F","F","F","F","F","F","F","F","F","F","F","F","F","F","F","F","F","F","F","F","F","F","F","F","F","F","F","?","?","?","?","?","?","?","?","?","?","?","?","?","?","?","?","?","?","?","?","?","?","?","?","?","?","?","?","?","?","?","?","?","?","?","?","?","?","?","?","?","?","?","?","?","?","?","?","?","?","?","?","?","?","?","?","?","?","G","G","G","G","G","G","G","G","G","G","G","G","G","G","?","?","?","?","?","?","?","?","?","?","?","H","H","H","H","H","H","H","H","H","H","H","H","H","H","H","H","H","H","H","H","H","H","H","H","H","H","H","H","H","?","?","?","?","?","?","?","?","?","?","?","?","?","?","?","?","?","?","?","?","?","?","?","?","?","?","?","?","?","?","?","?","?","?","?","?","?","?","?","?","?","?","?","?","?","?","?","?","?","?","?","?","?","?","?","?","?","?","?","?","?","?","?","?","?","?","?","?","?","?","?","?","?","?","?","?","?","?","?","?","?","?","?","?","?","?","?","?","?","?","?","?","?","?","?","?","?","?","?","?","?","?","?","?","?","?","?","?","?","?","?","?","?","?","?","?","?","?","?","?","?","?","?","?","?","?","?","?","?","?","?","?","?","?","N","N","?","?","?","?","?","?","?","?","?","?","?","?","?","?","?","?","?","?","?","?","?","?","?","?","?","?","?","?","?","?","?","?","?","?","?","?","?","?","?","?","?","?","?","?","?","?","?","?","?","?","?","?","?","?","?","?","?","?","?","?","?","?","?","?","?","?","?","?","?","?","?","?","?","?","?","?","?","?","?","?","D","D","D","D","D","D","D","D","D","D","D","D","D","D","D","D","D","D","D","D","D","?","?","?","C","C","C","C","C","C","C","C","C","C","C","C","C","C","C","C","C","C","C","C","C","C","C","C","C","C","C","C","C","C","C","C","C","C","C","C","C","C","C","?","D","?","?","?","?","?","?","?","?","?","?","?","?","?","?","?","?","?","?","?","?","?","?","?","?","?","?","?","?","?","?","?","?","?","?","E","E","E","E","E","E","E","E","E","E","E","E","E","E","E","E","E","E","E","E","E","E","E","E","E","E","E","E","E","E","E","E","E","E","E","E","E","E","E","E","E","E","E","E","E","E","E","E","E","E","E","E","E","E","E","E","E","E","E","E","E","E","E","E","E","E","E","E","E","E","E","E","E","E","E","E","E","E","E","E","E","E","E","E","E","E","E","E","E","E","E","E","?","F","F","F","F","F","F","F","F","F","F","F","F","F","F","F","F","F","F","F","F","F","F","F","F","F","F","?","E","E","E","?","D","D","D","D","?","?","?","?","?","?","?","?","?","C","C","C","C","C","C","B","B","B","B","B","B","B","B","B","B","B","B","B","B","B","B","B","B","B","B","B","B","B","B","B","B","B","B","B","B","B","B","B","B","B","B","B","B","B","B","B","B","B","B","B","B","B","B","B","B","B","B","B","B","B","B","B","B","B","B","B","B","B","B","B","B","B","B","B","B","B","B","B","B","B","B","B","B","B","B","B","B","B","B","B","B","B","B","B","B","B","B","B","B","B","B","B","?","A","A","A","A","A","A","A","A","A","A","A","A","A","A","A","A","A","A","A","A","A","A","A","A","A","A","A","A","A","A","A","A","A","A","A","A","A","A","A","A","A","A","A","A","?","B","C","C","?","?","D","D","D","D","?","E","E","E","?","F","F","F","F","F","F","F","F","F","F","F","F","F","F","F","F","F","F","F","F","F","F","F","F","F","F","F","F","F","F","F","F","F","F","F","F","F","F","F","F","F","F","F","F","F","F","F","F","F","F","F","F","F","F","F","F","F","F","F","F","?","G","G","G","G","?","?","?","?","?","?","?","?","?","?","?","?","?","?","?","?","?","?","?","?","?","R","R","R","R","R","R","R","R","R","R","R","R","R","R","R","R","R","R","R","R","R","R","R","R","R","R","R","R","R","R","R","R","R","R","R","R","R","R","R","R","R","R","R","R","R","R","R","R","R","R","R","R","R","R","R","R","R","R","R","R","R","R","R","R","R","R","R","R","R","R","R","R","R","R","R","R","R","R","R","?","?","?","?","?","?","?","?","Z","Z","Z","Z","Z","Z","Z","Z","Z","Z","Z","Z","Z","Z","Z","Z","?","?","?","?","?","?","?","?","?","?","?","?","?","?","?","Z","Z","Z","Z","Z","Z","Z","Z","Z","Z","Z","Z","Z","Z","Z","Z","Z","Z","Z","Z","Z","Z","Z","Z","Z","Z","Z","Z","Z","Z","Z","Z","Z","Z","Z","Z","Z","Z","Z","Z","Z","Y","?","N","?","?","?","?","C","?","B","B","B","B","B","?","?","A","A","A","A","A","A","A","A","A","A","A","A","A","A","A","A","A","A","A","A","A","A","A","A","A","A","A","A","A","A","A","A","A","A","A","A","A","A","A","A","A","A","A","A","A","A","A","A","A","A","A","A","A","A","A","A","A","A","A","A","A","A","A","A","A","A","A","A","A","A","A","A","A","A","A","A","A","A","A","A","A","A","A","A","A","A","A","A","A","A","A","A","A","A","A","A","A","A","A","A","A","A","A","A","A","A","A","A","A","A","A","A","A","A","A","A","A","A","A","A","A","?","?","?","?","?","?","?","?","?","?","?","?","?","?","?","?","?","?","?","?","?","?","?","?","?","?","?","?","?","?","?","?","?","?","?"],"t":[34,55,72,88,105,122,150,156,172,189,205,222,238,255,272,288,305,322,339,355,371,388,405,422,438,455,471,488,505,522,540,555,572,589,605,622,638,656,672,689,706,722,739,756,772,789,806,822,839,856,872,889,905,922,938,955,971,988,1005,1023,1038,1055,1072,1089,1105,1122,1139,1155,1171,1188,1205,1222,1238,1255,1272,1288,1305,1322,1338,1355,1372,1388,1405,1422,1439,1455,1472,1488,1505,1522,1539,1555,1572,1589,1605,1622,1639,1655,1671,1688,1705,1721,1738,1755,1772,1789,1805,1822,1839,1855,1871,1888,1905,1922,1939,1955,1972,1988,2005,2022,2038,2055,2071,2088,2105,2121,2138,2155,2171,2188,2205,2221,2238,2255,2271,2288,2305,2321,2338,2355,2371,2388,2405,2421,2438,2455,2472,2488,2505,2521,2538,2555,2571,2588,2605,2621,2638,2655,2671,2688,2705,2721,2738,2755,2772,2788,2805,2821,2838,2855,2871,2888,2905,2922,2938,2955,2971,2988,3005,3021,3038,3055,3072,3088,3105,3122,3139,3155,3172,3189,3205,3222,3238,3255,3272,3288,3305,3321,3338,3355,3372,3388,3405,3422,3438,3455,3472,3488,3505,3522,3538,3555,3571,3588,3604,3621,3638,3654,3672,3688,3705,3722,3738,3755,3772,3788,3805,3821,3838,3854,3871,3888,3904,3921,3938,3955,3971,3988,4005,4021,4038,4054,4071,4088,4105,4121,4138,4155,4172,4188,4205,4221,4238,4255,4271,4288,4305,4321,4338,4355,4371,4388,4404,4421,4438,4454,4472,4488,4505,4522,4538,4555,4571,4588,4605,4622,4638,4655,4671,4688,4705,4721,4738,4755,4771,4788,4805,4821,4838,4855,4872,4888,4905,4922,4938,4955,4971,4988,5005,5022,5038,5055,5071,5088,5105,5121,5138,5155,5172,5188,5205,5222,5238,5255,5271,5288,5304,5322,5338,5355,5372,5388,5405,5422,5438,5455,5472,5488,5505,5521,5538,5554,5571,5588,5604,5621,5638,5655,5671,5688,5705,5721,5738,5756,5771,5788,5805,5822,5838,5854,5874,5888,5904,5921,5938,5955,5971,5988,6004,6021,6038,6055,6071,6088,6105,6121,6138,6155,6171,6188,6205,6221,6238,6255,6271,6288,6305,6321,6338,6354,6371,6388,6404,6421,6438,6455,6471,6488,6505,6521,6538,6554,6571,6588,6604,6621,6638,6654,6671,6688,6704,6721,6738,6755,6771,6788,6805,6822,6838,6854,6871,6888,6904,6922,6938,6954,6971,6988,7005,7021,7038,7055,7071,7088,7105,7121,7138,7155,7172,7188,7205,7221,7238,7255,7271,7288,7305,7321,7338,7355,7371,7388,7405,7421,7438,7455,7471,7488,7505,7521,7538,7555,7572,7588,7604,7621,7638,7655,7671,7688,7704,7721,7738,7754,7771,7788,7804,7821,7838,7854,7871,7888,7905,7921,7938,7954,7971,7988,8005,8021,8038,8054,8071,8088,8105,8121,8138,8154,8171,8188,8205,8221,8238,8255,8271,8288,8304,8321,8338,8354,8371,8388,8404,8421,8438,8455,8471,8488,8505,8521,8538,8555,8571,8588,8605,8621,8638,8654,8671,8688,8704,8721,8738,8755,8771,8788,8804,8821,8838,8854,8871,8888,8905,8921,8938,8954,8972,8988,9005,9021,9038,9055,9071,9088,9104,9121,9138,9155,9171,9188,9204,9221,9238,9255,9271,9288,9305,9322,9338,9355,9371,9388,9405,9421,9438,9454,9471,9488,9505,9521,9538,9554,9572,9588,9605,9621,9638,9655,9671,9688,9705,9721,9738,9754,9771,9788,9805,9821,9838,9855,9871,9888,9905,9921,9938,9955,9971,9988,10005,10021,10038,10054,10071,10088,10104,10122,10138,10155,10171,10188,10204,10221,10239,10255,10271,10288,10304,10321,10338,10354,10371,10388,10404,10421,10438,10455,10471,10488,10504,10521,10538,10554,10571,10588,10604,10621,10638,10655,10671,10688,10705,10721,10738,10755,10771,10788,10805,10822,10838,10855,10871,10888,10905,10923,10938,10955,10971,10988,11005,11022,11038,11055,11071,11089,11105,11122,11138,11155,11171,11188,11205,11221,11238,11255,11272,11288,11305,11321,11338,11355,11371,11388,11405,11422,11438,11455,11471,11488,11505,11521,11538,11554,11571,11588,11604,11621,11638,11654,11671,11688,11704,11721,11738,11755,11771,11788,11804,11821,11838,11855,11871,11888,11904,11921,11938,11954,11971,11988,12005,12021,12038,12054,12071,12088,12105,12122,12138,12155,12172,12188,12205,12222,12238,12255,12272,12288,12305,12321,12338,12355,12371,12388,12404,12421,12438,12454,12472,12488,12505,12521,12538,12554,12572,12588,12605,12621,12638,12654,12672,12688,12704,12721,12738,12755,12771,12788,12804,12822,12838,12855,12872,12888,12905,12921,12938,12955,12971,12988,13004,13021,13038,13054,13071,13088,13105,13121,13138,13155,13172,13188,13205,13221,13238,13254,13271,13288,13304,13321,13338,13354,13371,13388,13404,13421,13438,13455,13471,13488,13504,13521,13538,13555,13571,13588,13604,13621,13638,13654,13671,13688,13705,13722,13738,13754,13771,13788,13804,13821,13838,13854,13871,13888,13904,13921,13938,13954,13971,13988,14004,14021,14038,14055,14071,14088,14105,14122,14138,14155,14172,14188,14204,14221,14238,14255,14271,14288,14304,14321,14338,14355,14372,14388,14404,14421,14438,14455,14472,14488,14504,14521,14538,14554,14571,14588,14604,14621,14638,14655,14672,14688,14704,14722,14738,14755,14771,14788,14805,14821,14838,14854,14871,14888,14904,14921,14938,14954,14971,14988,15004,15021,15038,15054,15072,15088,15105,15121,15138,15154,15171,15188,15205,15221,15238,15254,15272,15288,15305,15321,15338,15355,15371,15388,15404,15421,15438,15455,15471,15488,15504,15521,15538,15555,15571,15588,15605,15621,15638,15655,15673,15688,15704,15721,15738,15754,15772,15788,15804,15821,15838,15854,15871,15888,15905,15921,15938,15954,15971,15988,16004,16021,16038,16055,16071,16088,16105,16121,16138,16154,16171,16188,16205,16221,16238,16255,16271,16288,16304,16321,16338,16355,16371,16388,16404,16421,16438,16455,16472,16488,16505,16522,16538,16555,16571,16588,16605,16622,16638,16654,16671,16688,16705,16721,16738,16755,16771,16789,16804,16821,16838,16854,16871,16888,16905,16921,16938,16954,16971,16988,17005,17021,17038,17055,17071,17088,17105,17121,17138,17155,17171,17188,17205,17221,17238,17258,17271,17288,17305,17321,17338,17354,17371,17388,17405,17421,17438,17454,17471,17488,17504,17521,17538,17555,17571,17588,17604,17621,17638,17655,17671,17688,17705,17721,17738,17754,17771,17788,17804,17821,17838,17854,17871,17887,17905,17921,17938,17955,17972,17988,18005,18021,18038,18054,18071,18088,18105,18121,18137,18154,18171,18188,18204,18221,18238,18255,18271,18288,18304,18321,18338,18354,18371,18388,18404,18421,18438,18455,18471,18488,18504,18521,18538,18554,18571,18588,18605,18621,18638,18655,18671,18688,18705,18721,18738,18755,18771,18788,18805,18821,18838,18855,18871,18888,18905,18921,18938,18954,18971,18988,19005,19021,19038,19055,19071,19088,19104,19121,19138,19155,19171,19188,19204,19221,19237,19254,19271,19288,19304,19321,19338,19355,19371,19388,19405,19421,19438,19454,19471,19488,19504,19521,19538,19555,19571,19588,19605,19621,19638,19654,19671,19688,19704,19721,19738,19755,19771,19788,19805,19821,19838,19855,19871,19888,19904,19922,19938,19955,19971,19988,20004,20021,20038,20054,20072,20088,20105,20121,20138,20155,20171,20188,20204,20221,20238,20255,20271,20288,20305,20321,20337,20355,20371,20388,20405,20421,20437,20454,20471,20487,20505,20524,20539,20555,20572,20588,20604,20622,20638,20655,20672,20688,20705,20721,20738,20755,20772,20788,20805,20822,20838,20855,20871,20888,20904,20921,20938,20954,20971,20988,21004,21021,21038,21054,21071,21088,21105,21121,21138,21155,21171,21188,21205,21221,21238,21254,21271,21289,21305,21321,21338,21355,21371,21388,21405,21421,21438,21455,21471,21488,21505,21521,21537,21555,21571,21588,21605,21621,21638,21654,21671,21688,21705,21721,21738,21754,21771,21788,21805,21821,21838,21854,21871,21888,21905,21921,21938,21955,21971,21988,22005,22021,22038,22055,22071,22088,22104,22121,22138,22154,22171,22188,22204,22221,22238,22254,22271,22288,22305,22321,22338,22354,22371,22388,22405,22421,22438,22455,22471,22488,22505,22522],"hit":[null],"x":[-2.0408163265306123,-2.0408163265306123,-2.0408163265306123,-2.0408163265306123,-2.0408163265306123,-2.0408163265306123,-2.0408163265306123,-2.0408163265306123,-2.0408163265306123,-2.0408163265306123,-2.0408163265306123,-2.0408163265306123,-2.0408163265306123,-2.0408163265306123,-2.0408163265306123,-2.0408163265306123,-2.0408163265306123,-2.0408163265306123,-2.0408163265306123,-2.0408163265306123,-2.0408163265306123,-2.0408163265306123,-2.0408163265306123,-2.0408163265306123,-2.0408163265306123,-2.0408163265306123,-2.0408163265306123,-2.0408163265306123,-2.0408163265306123,-2.0408163265306123,0.027210884353741496,0.08843537414965986,0.14285714285714285,0.2585034013605442,0.3231292517006803,0.35374149659863946,0.3877551020408163,0.3979591836734694,0.4013605442176871,0.40476190476190477,0.40476190476190477,0.40476190476190477,0.40476190476190477,0.40476190476190477,0.40476190476190477,0.40476190476190477,0.40816326530612246,0.41156462585034015,0.41496598639455784,0.42517006802721086,0.4387755102040816,0.4421768707482993,0.4421768707482993,0.4421768707482993,0.4421768707482993,0.4421768707482993,0.4421768707482993,0.4421768707482993,0.4421768707482993,0.4421768707482993,0.4421768707482993,0.4421768707482993,0.4421768707482993,0.4421768707482993,0.4421768707482993,0.4421768707482993,0.4421768707482993,0.4421768707482993,0.4421768707482993,0.4421768707482993,0.4421768707482993,0.4421768707482993,0.4421768707482993,0.4421768707482993,0.4421768707482993,0.4421768707482993,0.4421768707482993,0.4421768707482993,0.4421768707482993,0.4421768707482993,0.4387755102040816,0.43537414965986393,0.42857142857142855,0.4217687074829932,0.40476190476190477,0.3843537414965986,0.37755102040816324,0.3741496598639456,0.3707482993197279,0.3673469387755102,0.36394557823129253,0.36054421768707484,0.35714285714285715,0.35374149659863946,0.35034013605442177,0.3469387755102041,0.3435374149659864,0.3401360544217687,0.336734693877551,0.3333333333333333,0.3333333333333333,0.3299319727891156,0.3299319727891156,0.3299319727891156,0.3299319727891156,0.3299319727891156,0.3299319727891156,0.3299319727891156,0.3299319727891156,0.3333333333333333,0.336734693877551,0.35034013605442177,0.36054421768707484,0.3843537414965986,0.4217687074829932,0.43197278911564624,0.4421768707482993,0.4387755102040816,0.4387755102040816,0.4387755102040816,0.4387755102040816,0.4387755102040816,0.4387755102040816,0.4387755102040816,0.4387755102040816,0.4387755102040816,0.4387755102040816,0.4387755102040816,0.4387755102040816,0.4387755102040816,0.4387755102040816,0.4387755102040816,0.4387755102040816,0.4387755102040816,0.4387755102040816,0.4387755102040816,0.4387755102040816,0.4387755102040816,0.4387755102040816,0.4387755102040816,0.4387755102040816,0.4387755102040816,0.4387755102040816,0.4387755102040816,0.4387755102040816,0.4387755102040816,0.4387755102040816,0.4387755102040816,0.4387755102040816,0.4387755102040816,0.4387755102040816,0.4387755102040816,0.4387755102040816,0.4387755102040816,0.4387755102040816,0.4387755102040816,0.4387755102040816,0.4387755102040816,0.4387755102040816,0.4387755102040816,0.4387755102040816,0.4387755102040816,0.4387755102040816,0.4387755102040816,0.46258503401360546,0.4931972789115646,0.5510204081632653,0.5748299319727891,0.608843537414966,0.6326530612244898,0.6428571428571429,0.6496598639455783,0.6564625850340136,0.6598639455782312,0.6666666666666666,0.673469387755102,0.6768707482993197,0.6836734693877551,0.6870748299319728,0.6904761904761905,0.6904761904761905,0.6938775510204082,0.6938775510204082,0.6938775510204082,0.6938775510204082,0.6938775510204082,0.6938775510204082,0.6938775510204082,0.6938775510204082,0.6938775510204082,0.6938775510204082,0.6938775510204082,0.6938775510204082,0.6938775510204082,0.6938775510204082,0.6938775510204082,0.6938775510204082,0.6938775510204082,0.6904761904761905,0.6904761904761905,0.6904761904761905,0.6904761904761905,0.6870748299319728,0.6768707482993197,0.6632653061224489,0.6598639455782312,0.6530612244897959,0.6394557823129252,0.6360544217687075,0.6326530612244898,0.6292517006802721,0.6292517006802721,0.6258503401360545,0.6190476190476191,0.6190476190476191,0.6156462585034014,0.6156462585034014,0.6156462585034014,0.6156462585034014,0.6122448979591837,0.6122448979591837,0.6122448979591837,0.6122448979591837,0.6122448979591837,0.6122448979591837,0.6122448979591837,0.6122448979591837,0.6122448979591837,0.6122448979591837,0.6122448979591837,0.6122448979591837,0.6122448979591837,0.6122448979591837,0.6122448979591837,0.6122448979591837,0.6122448979591837,0.6122448979591837,0.6122448979591837,0.6122448979591837,0.6122448979591837,0.6122448979591837,0.6122448979591837,0.6122448979591837,0.6122448979591837,0.6122448979591837,0.6122448979591837,0.6122448979591837,0.6122448979591837,0.6122448979591837,0.6122448979591837,0.6122448979591837,0.6122448979591837,0.6122448979591837,0.6122448979591837,0.6122448979591837,0.6122448979591837,0.6122448979591837,0.6122448979591837,0.6462585034013606,0.6462585034013606,0.6904761904761905,0.7414965986394558,0.782312925170068,0.7993197278911565,0.8231292517006803,0.8367346938775511,0.8435374149659864,0.8503401360544217,0.8605442176870748,0.8639455782312925,0.8741496598639455,0.8843537414965986,0.8877551020408163,0.8979591836734694,0.9013605442176871,0.9047619047619048,0.9081632653061225,0.9149659863945578,0.9183673469387755,0.9217687074829932,0.9251700680272109,0.9285714285714286,0.9285714285714286,0.9319727891156463,0.9319727891156463,0.9319727891156463,0.9319727891156463,0.9387755102040817,0.9421768707482994,0.9489795918367347,0.95578231292517,0.9591836734693877,0.9625850340136054,0.9659863945578231,0.9693877551020408,0.9693877551020408,0.9761904761904762,0.9795918367346939,0.9829931972789115,0.9897959183673469,0.9965986394557823,1,1.010204081632653,1.0136054421768708,1.0170068027210883,1.0204081632653061,1.0238095238095237,1.0238095238095237,1.0238095238095237,1.0272108843537415,1.0272108843537415,1.0272108843537415,1.0272108843537415,1.0272108843537415,1.0238095238095237,1.0136054421768708,0.9931972789115646,0.9761904761904762,0.9421768707482994,0.9047619047619048,0.8877551020408163,0.8537414965986394,0.826530612244898,0.8129251700680272,0.7959183673469388,0.7755102040816326,0.7414965986394558,0.7414965986394558,0.7414965986394558,0.7414965986394558,0.7414965986394558,0.7414965986394558,0.7414965986394558,0.7414965986394558,0.7414965986394558,0.7414965986394558,0.7414965986394558,0.7414965986394558,0.7414965986394558,0.7414965986394558,0.7414965986394558,0.7414965986394558,0.7414965986394558,0.7414965986394558,0.7414965986394558,0.7414965986394558,0.7414965986394558,0.7414965986394558,0.7414965986394558,0.7414965986394558,0.7414965986394558,0.7414965986394558,0.7414965986394558,0.7414965986394558,0.7414965986394558,0.7414965986394558,0.7414965986394558,0.7414965986394558,0.7414965986394558,0.7414965986394558,0.7414965986394558,0.7414965986394558,0.7414965986394558,0.7414965986394558,0.7414965986394558,0.7414965986394558,0.7414965986394558,0.7414965986394558,0.7414965986394558,0.7414965986394558,0.7414965986394558,0.7414965986394558,0.7414965986394558,0.7414965986394558,0.7414965986394558,0.7414965986394558,0.7414965986394558,0.7414965986394558,0.7414965986394558,0.7414965986394558,0.7414965986394558,0.7414965986394558,0.7414965986394558,0.7414965986394558,0.7414965986394558,0.7414965986394558,0.7414965986394558,0.7414965986394558,0.7414965986394558,0.7414965986394558,0.7414965986394558,0.7414965986394558,0.7414965986394558,0.7414965986394558,0.7414965986394558,0.7414965986394558,0.7414965986394558,0.7414965986394558,0.7414965986394558,0.7414965986394558,0.7414965986394558,0.7414965986394558,0.7414965986394558,0.7414965986394558,0.7414965986394558,0.7414965986394558,0.7414965986394558,0.7414965986394558,0.7414965986394558,0.7414965986394558,0.7414965986394558,0.7414965986394558,0.7414965986394558,0.7414965986394558,0.7414965986394558,0.7414965986394558,0.7414965986394558,0.7414965986394558,0.7414965986394558,0.7414965986394558,0.7414965986394558,0.7551020408163265,0.7653061224489796,0.7721088435374149,0.7789115646258503,0.7857142857142857,0.7891156462585034,0.7925170068027211,0.7959183673469388,0.7959183673469388,0.7959183673469388,0.7993197278911565,0.7993197278911565,0.7993197278911565,0.7993197278911565,0.7993197278911565,0.7993197278911565,0.7993197278911565,0.7959183673469388,0.7959183673469388,0.7891156462585034,0.782312925170068,0.7789115646258503,0.7687074829931972,0.7619047619047619,0.7585034013605442,0.7482993197278912,0.7380952380952381,0.7278911564625851,0.7108843537414966,0.6870748299319728,0.6632653061224489,0.6054421768707483,0.5510204081632653,0.4965986394557823,0.47278911564625853,0.445578231292517,0.3945578231292517,0.3945578231292517,0.3945578231292517,0.3945578231292517,0.3945578231292517,0.3945578231292517,0.3945578231292517,0.3945578231292517,0.3945578231292517,0.3945578231292517,0.3945578231292517,0.3945578231292517,0.3945578231292517,0.3945578231292517,0.3945578231292517,0.3945578231292517,0.3945578231292517,0.3945578231292517,0.3945578231292517,0.3945578231292517,0.3945578231292517,0.3945578231292517,0.3945578231292517,0.3945578231292517,0.3945578231292517,0.3945578231292517,0.3945578231292517,0.3945578231292517,0.3945578231292517,0.3945578231292517,0.3945578231292517,0.3945578231292517,0.3945578231292517,0.3945578231292517,0.3945578231292517,0.3945578231292517,0.3945578231292517,0.3945578231292517,0.3945578231292517,0.3945578231292517,0.3945578231292517,0.3945578231292517,0.3945578231292517,0.3945578231292517,0.3945578231292517,0.3945578231292517,0.3945578231292517,0.3945578231292517,0.3945578231292517,0.3945578231292517,0.3945578231292517,0.3945578231292517,0.3945578231292517,0.3945578231292517,0.3945578231292517,0.3945578231292517,0.3945578231292517,0.3945578231292517,0.3945578231292517,0.3945578231292517,0.3945578231292517,0.3945578231292517,0.3945578231292517,0.3945578231292517,0.3945578231292517,0.3945578231292517,0.3945578231292517,0.3945578231292517,0.3945578231292517,0.3945578231292517,0.3945578231292517,0.3945578231292517,0.3945578231292517,0.3979591836734694,0.4013605442176871,0.40476190476190477,0.41496598639455784,0.42517006802721086,0.42857142857142855,0.43537414965986393,0.4387755102040816,0.4387755102040816,0.4421768707482993,0.4421768707482993,0.4421768707482993,0.4421768707482993,0.4421768707482993,0.4421768707482993,0.4421768707482993,0.4421768707482993,0.4387755102040816,0.43537414965986393,0.42857142857142855,0.42517006802721086,0.41496598639455784,0.40816326530612246,0.3979591836734694,0.3877551020408163,0.3707482993197279,0.35374149659863946,0.3469387755102041,0.3333333333333333,0.32653061224489793,0.3231292517006803,0.3197278911564626,0.3163265306122449,0.3163265306122449,0.3163265306122449,0.3129251700680272,0.3129251700680272,0.3129251700680272,0.3129251700680272,0.30952380952380953,0.30952380952380953,0.30952380952380953,0.30952380952380953,0.30952380952380953,0.30612244897959184,0.30612244897959184,0.30612244897959184,0.30272108843537415,0.29931972789115646,0.29931972789115646,0.29931972789115646,0.29931972789115646,0.29591836734693877,0.29591836734693877,0.29591836734693877,0.2925170068027211,0.2925170068027211,0.2925170068027211,0.2891156462585034,0.2891156462585034,0.2891156462585034,0.2891156462585034,0.2891156462585034,0.29931972789115646,0.30272108843537415,0.30612244897959184,0.3197278911564626,0.35714285714285715,0.42857142857142855,0.46598639455782315,0.5068027210884354,0.5340136054421769,0.5476190476190477,0.5680272108843537,0.5782312925170068,0.5816326530612245,0.5850340136054422,0.5850340136054422,0.5850340136054422,0.5850340136054422,0.5850340136054422,0.5850340136054422,0.5850340136054422,0.5850340136054422,0.5850340136054422,0.5850340136054422,0.5850340136054422,0.5850340136054422,0.5850340136054422,0.5850340136054422,0.5850340136054422,0.5850340136054422,0.5850340136054422,0.5850340136054422,0.5850340136054422,0.5850340136054422,0.5850340136054422,0.5850340136054422,0.5850340136054422,0.5850340136054422,0.5850340136054422,0.5850340136054422,0.5850340136054422,0.5850340136054422,0.5850340136054422,0.5850340136054422,0.5850340136054422,0.5850340136054422,0.5850340136054422,0.5850340136054422,0.5850340136054422,0.5850340136054422,0.5850340136054422,0.5850340136054422,0.5816326530612245,0.5816326530612245,0.5816326530612245,0.5816326530612245,0.5782312925170068,0.5782312925170068,0.5782312925170068,0.5782312925170068,0.5782312925170068,0.5748299319727891,0.5748299319727891,0.5748299319727891,0.5748299319727891,0.5748299319727891,0.5748299319727891,0.5748299319727891,0.5748299319727891,0.5748299319727891,0.5748299319727891,0.5748299319727891,0.5748299319727891,0.5748299319727891,0.5748299319727891,0.5748299319727891,0.5748299319727891,0.5748299319727891,0.5748299319727891,0.5748299319727891,0.5748299319727891,0.5748299319727891,0.5748299319727891,0.5748299319727891,0.5748299319727891,0.5748299319727891,0.5748299319727891,0.5748299319727891,0.5748299319727891,0.5748299319727891,0.5748299319727891,0.5748299319727891,0.5748299319727891,0.5748299319727891,0.5748299319727891,0.5748299319727891,0.5748299319727891,0.5748299319727891,0.5748299319727891,0.5748299319727891,0.5748299319727891,0.5748299319727891,0.5748299319727891,0.5748299319727891,0.5748299319727891,0.5748299319727891,0.5748299319727891,0.5748299319727891,0.5748299319727891,0.5748299319727891,0.5748299319727891,0.5748299319727891,0.5748299319727891,0.5748299319727891,0.5748299319727891,0.5748299319727891,0.5748299319727891,0.5748299319727891,0.5748299319727891,0.5748299319727891,0.5748299319727891,0.5748299319727891,0.5748299319727891,0.5748299319727891,0.5748299319727891,0.5748299319727891,0.5748299319727891,0.5748299319727891,0.5748299319727891,0.5748299319727891,0.5918367346938775,0.5986394557823129,0.6258503401360545,0.6530612244897959,0.6598639455782312,0.6700680272108843,0.6802721088435374,0.6870748299319728,0.6904761904761905,0.6938775510204082,0.6972789115646258,0.7006802721088435,0.7006802721088435,0.7006802721088435,0.7006802721088435,0.7040816326530612,0.7108843537414966,0.7142857142857143,0.7244897959183674,0.7312925170068028,0.7346938775510204,0.7380952380952381,0.7414965986394558,0.7414965986394558,0.7414965986394558,0.7448979591836735,0.7448979591836735,0.7414965986394558,0.7278911564625851,0.6938775510204082,0.6598639455782312,0.5918367346938775,0.5510204081632653,0.5340136054421769,0.5034013605442177,0.46258503401360546,0.4421768707482993,0.41496598639455784,0.3979591836734694,0.3877551020408163,0.3843537414965986,0.3741496598639456,0.36054421768707484,0.35714285714285715,0.35034013605442177,0.3401360544217687,0.336734693877551,0.3299319727891156,0.3231292517006803,0.3163265306122449,0.30272108843537415,0.2857142857142857,0.272108843537415,0.22789115646258504,0.1870748299319728,0.17687074829931973,0.16666666666666666,0.16326530612244897,0.1598639455782313,0.1598639455782313,0.1564625850340136,0.1564625850340136,0.1564625850340136,0.1564625850340136,0.15306122448979592,0.15306122448979592,0.15306122448979592,0.15306122448979592,0.15306122448979592,0.14965986394557823,0.14965986394557823,0.14965986394557823,0.14965986394557823,0.14625850340136054,0.14625850340136054,0.14625850340136054,0.14625850340136054,0.14625850340136054,0.14625850340136054,0.14625850340136054,0.14625850340136054,0.14625850340136054,0.14625850340136054,0.14625850340136054,0.14625850340136054,0.14625850340136054,0.14625850340136054,0.14625850340136054,0.14625850340136054,0.14625850340136054,0.14625850340136054,0.14625850340136054,0.14625850340136054,0.14625850340136054,0.14625850340136054,0.14625850340136054,0.14625850340136054,0.14625850340136054,0.14625850340136054,0.14625850340136054,0.14625850340136054,0.14625850340136054,0.14625850340136054,0.14625850340136054,0.14625850340136054,0.14625850340136054,0.14625850340136054,0.14625850340136054,0.14625850340136054,0.14625850340136054,0.14625850340136054,0.14625850340136054,0.14625850340136054,0.14625850340136054,0.14625850340136054,0.14625850340136054,0.14625850340136054,0.14625850340136054,0.14625850340136054,0.14625850340136054,0.14625850340136054,0.14625850340136054,0.14625850340136054,0.14625850340136054,0.14625850340136054,0.14625850340136054,0.14625850340136054,0.14625850340136054,0.14625850340136054,0.14625850340136054,0.15306122448979592,0.1598639455782313,0.16326530612244897,0.17006802721088435,0.17346938775510204,0.17346938775510204,0.17346938775510204,0.17346938775510204,0.17687074829931973,0.17687074829931973,0.18027210884353742,0.18027210884353742,0.18027210884353742,0.1836734693877551,0.1836734693877551,0.1836734693877551,0.1836734693877551,0.1836734693877551,0.18027210884353742,0.1564625850340136,0.10204081632653061,0.0782312925170068,0.034013605442176874,0.006802721088435374,-0.01020408163265306,-0.01020408163265306,-0.013605442176870748,-0.017006802721088437,-0.017006802721088437,-0.017006802721088437,-0.02040816326530612,-0.02040816326530612,-0.02040816326530612,-0.02040816326530612,-0.02040816326530612,-0.02040816326530612,-0.02040816326530612,-0.02040816326530612,-0.02040816326530612,-0.02040816326530612,-0.02040816326530612,-0.02040816326530612,-0.02040816326530612,-0.02040816326530612,-0.02040816326530612,-0.02040816326530612,-0.02040816326530612,-0.02040816326530612,-0.02040816326530612,-0.02040816326530612,-0.02040816326530612,-0.02040816326530612,-0.02040816326530612,-0.02040816326530612,-0.02040816326530612,-0.02040816326530612,-0.02040816326530612,-0.02040816326530612,-0.02040816326530612,-0.02040816326530612,-0.02040816326530612,-0.017006802721088437,-0.006802721088435374,0.003401360544217687,0.02040816326530612,0.04421768707482993,0.06462585034013606,0.13945578231292516,0.2619047619047619,0.3231292517006803,0.3401360544217687,0.37755102040816324,0.4013605442176871,0.41156462585034015,0.43537414965986393,0.46258503401360546,0.48299319727891155,0.5340136054421769,0.5884353741496599,0.608843537414966,0.6360544217687075,0.6564625850340136,0.6632653061224489,0.673469387755102,0.6768707482993197,0.6768707482993197,0.6768707482993197,0.6768707482993197,0.6768707482993197,0.6768707482993197,0.6768707482993197,0.6768707482993197,0.6768707482993197,0.6768707482993197,0.6768707482993197,0.6768707482993197,0.6768707482993197,0.6768707482993197,0.6768707482993197,0.6768707482993197,0.6768707482993197,0.6768707482993197,0.6768707482993197,0.6768707482993197,0.6768707482993197,0.6768707482993197,0.6768707482993197,0.6768707482993197,0.6768707482993197,0.6768707482993197,0.6768707482993197,0.6768707482993197,0.6768707482993197,0.6768707482993197,0.6768707482993197,0.6768707482993197,0.6768707482993197,0.6768707482993197,0.6768707482993197,0.6768707482993197,0.6768707482993197,0.6768707482993197,0.6768707482993197,0.6768707482993197,0.6768707482993197,0.6768707482993197,0.6768707482993197,0.6768707482993197,0.6768707482993197,0.6768707482993197,0.6768707482993197,0.6768707482993197,0.6768707482993197,0.6768707482993197,0.6768707482993197,0.6768707482993197,0.6768707482993197,0.6870748299319728,0.7074829931972789,0.7278911564625851,0.7414965986394558,0.7789115646258503,0.8095238095238095,0.8231292517006803,0.8673469387755102,0.9081632653061225,0.9251700680272109,0.9489795918367347,0.9693877551020408,0.9795918367346939,0.9931972789115646,1,1.0068027210884354,1.010204081632653,1.0136054421768708,1.0136054421768708,1.0136054421768708,1.0170068027210883,1.0238095238095237,1.0272108843537415,1.034013605442177,1.0408163265306123,1.0442176870748299,1.0476190476190477,1.0578231292517006,1.0680272108843538,1.0816326530612246,1.0952380952380953,1.1020408163265305,1.1054421768707483,1.1088435374149659,1.1122448979591837,1.1122448979591837,1.1122448979591837,1.1122448979591837,1.1122448979591837,1.1122448979591837,1.1122448979591837,1.1156462585034013,1.1156462585034013,1.1156462585034013,1.1156462585034013,1.1156462585034013,1.1156462585034013,1.1156462585034013,1.1156462585034013,1.1156462585034013,1.1156462585034013,1.1156462585034013,1.1156462585034013,1.1156462585034013,1.1156462585034013,1.1156462585034013,1.1156462585034013,1.1156462585034013,1.1156462585034013,1.1156462585034013,1.1156462585034013,1.1156462585034013,1.1156462585034013,1.1156462585034013,1.1156462585034013,1.1156462585034013,1.1156462585034013,1.1156462585034013,1.1156462585034013,1.1156462585034013,1.1156462585034013,1.1156462585034013,1.1156462585034013,1.1156462585034013,1.1156462585034013,1.1156462585034013,1.1156462585034013,1.1156462585034013,1.1156462585034013,1.1156462585034013,1.1156462585034013,1.1156462585034013,1.1156462585034013,1.1156462585034013,1.1156462585034013,1.1156462585034013,1.1156462585034013,1.1156462585034013,1.1156462585034013,1.1156462585034013,1.1156462585034013,1.1156462585034013,1.1156462585034013,1.1156462585034013,1.1156462585034013,1.1156462585034013,1.1156462585034013,1.1156462585034013,1.1156462585034013,1.1156462585034013,1.1156462585034013,1.1156462585034013,1.1156462585034013,1.1156462585034013,1.1156462585034013,1.1156462585034013,1.1122448979591837,1.1054421768707483,1.1020408163265305,1.0918367346938775,1.0782312925170068,1.0680272108843538,1.064625850340136,1.0578231292517006,1.0510204081632653,1.0510204081632653,1.0442176870748299,1.0408163265306123,1.0374149659863945,1.030612244897959,1.0238095238095237,1.0170068027210883,1.0136054421768708,1.0068027210884354,1.0068027210884354,1.0034013605442176,0.9965986394557823,0.9931972789115646,0.9897959183673469,0.9863945578231292,0.9863945578231292,0.9863945578231292,0.9863945578231292,0.9829931972789115,0.9829931972789115,0.9829931972789115,0.9829931972789115,0.9795918367346939,0.9795918367346939,0.9795918367346939,0.9795918367346939,0.9795918367346939,0.9795918367346939,0.9795918367346939,0.9795918367346939,0.9795918367346939,0.9795918367346939,0.9829931972789115,0.9863945578231292,0.9897959183673469,0.9931972789115646,0.9931972789115646,0.9965986394557823,0.9965986394557823,0.9965986394557823,0.9965986394557823,0.9965986394557823,0.9965986394557823,0.9965986394557823,0.9965986394557823,0.9965986394557823,0.9965986394557823,0.9965986394557823,0.9965986394557823,0.9965986394557823,0.9965986394557823,0.9965986394557823,0.9965986394557823,0.9965986394557823,0.9965986394557823,0.9965986394557823,0.9965986394557823,0.9965986394557823,0.9965986394557823,0.9965986394557823,0.9965986394557823,0.9965986394557823,0.9965986394557823,0.9965986394557823,0.9965986394557823,0.9965986394557823,0.9965986394557823,0.9965986394557823,0.9965986394557823,0.9965986394557823,0.9965986394557823,0.9965986394557823,0.9965986394557823,0.9965986394557823,0.9013605442176871,0.6666666666666666,0.5476190476190477,0.5102040816326531,0.43197278911564624,0.391156462585034,0.35374149659863946,0.272108843537415,0.21768707482993196,0.19387755102040816,0.15306122448979592,0.11904761904761904,0.10884353741496598,0.08503401360544217,0.06802721088435375,0.061224489795918366,0.047619047619047616,0.034013605442176874,0.027210884353741496,0.02040816326530612,0.013605442176870748,0.006802721088435374,0.006802721088435374,0.003401360544217687,0.003401360544217687,0,-0.003401360544217687,-0.006802721088435374,-0.006802721088435374,-0.01020408163265306,-0.01020408163265306,-0.01020408163265306,-0.01020408163265306,-0.013605442176870748,-0.013605442176870748,-0.013605442176870748,-0.013605442176870748,-0.017006802721088437,-0.017006802721088437,-0.017006802721088437,-0.017006802721088437,-0.017006802721088437,-0.017006802721088437,-0.017006802721088437,-0.017006802721088437,-0.017006802721088437,-0.017006802721088437,-0.017006802721088437,-0.017006802721088437,-0.017006802721088437,-0.017006802721088437,-0.017006802721088437,-0.017006802721088437,-0.017006802721088437,-0.017006802721088437,-0.017006802721088437,-0.017006802721088437,-0.017006802721088437,-0.017006802721088437,-0.017006802721088437,-0.017006802721088437,-0.017006802721088437,-0.017006802721088437,-0.017006802721088437,-0.017006802721088437,-0.017006802721088437,-0.017006802721088437,-0.017006802721088437,-0.017006802721088437,-0.017006802721088437,-0.017006802721088437,-0.017006802721088437,-0.017006802721088437,-0.017006802721088437,-0.017006802721088437,-0.017006802721088437,-0.017006802721088437,-0.017006802721088437,-0.017006802721088437,-0.017006802721088437,-0.017006802721088437,-0.017006802721088437,-0.017006802721088437,-0.017006802721088437,-0.017006802721088437,-0.017006802721088437,-0.017006802721088437,-0.017006802721088437,-0.017006802721088437,-0.017006802721088437,-0.017006802721088437,-0.017006802721088437,-0.017006802721088437,-0.017006802721088437,-0.017006802721088437,-0.017006802721088437,-0.017006802721088437,-0.017006802721088437,-0.017006802721088437,-0.017006802721088437,-0.017006802721088437,-0.017006802721088437,-0.017006802721088437,-0.017006802721088437,-0.017006802721088437,-0.017006802721088437,-0.017006802721088437,-0.017006802721088437,-0.017006802721088437,-0.017006802721088437,-0.017006802721088437,-0.017006802721088437,-0.017006802721088437,-0.017006802721088437,-0.017006802721088437,-0.017006802721088437,-0.017006802721088437,-0.017006802721088437,-0.017006802721088437,-0.017006802721088437,-0.017006802721088437,-0.017006802721088437,-0.017006802721088437,-0.017006802721088437,-0.017006802721088437,-0.017006802721088437,-0.017006802721088437,-0.017006802721088437,-0.017006802721088437,-0.017006802721088437,-0.017006802721088437,-0.017006802721088437,-0.017006802721088437,-0.017006802721088437,-0.017006802721088437,-0.017006802721088437,0.013605442176870748,0.04081632653061224,0.09183673469387756,0.12244897959183673,0.12244897959183673,0.24149659863945577,0.2857142857142857,0.3163265306122449,0.3945578231292517,0.46258503401360546,0.5,0.5850340136054422,0.6462585034013606,0.6870748299319728,0.6972789115646258,0.7040816326530612,0.7074829931972789,0.7074829931972789,0.7074829931972789,0.7074829931972789,0.7074829931972789,0.7074829931972789,0.7074829931972789,0.7074829931972789,0.7074829931972789,0.7074829931972789,0.7074829931972789,0.7074829931972789,0.7074829931972789,0.7074829931972789,0.7074829931972789,0.7074829931972789,0.7074829931972789,0.7074829931972789,0.7074829931972789,0.7074829931972789],"y":[-3.4285714285714284,-3.4285714285714284,-3.4285714285714284,-3.4285714285714284,-3.4285714285714284,-3.4285714285714284,-3.4285714285714284,-3.4285714285714284,-3.4285714285714284,-3.4285714285714284,-3.4285714285714284,-3.4285714285714284,-3.4285714285714284,-3.4285714285714284,-3.4285714285714284,-3.4285714285714284,-3.4285714285714284,-3.4285714285714284,-3.4285714285714284,-3.4285714285714284,-3.4285714285714284,-3.4285714285714284,-3.4285714285714284,-3.4285714285714284,-3.4285714285714284,-3.4285714285714284,-3.4285714285714284,-3.4285714285714284,-3.4285714285714284,-3.4285714285714284,0.5047619047619047,0.19047619047619047,-0.09523809523809523,-0.7428571428571429,-1.0571428571428572,-1.1714285714285715,-1.2857142857142858,-1.3142857142857143,-1.3142857142857143,-1.3238095238095238,-1.3238095238095238,-1.3238095238095238,-1.3142857142857143,-1.3142857142857143,-1.3142857142857143,-1.3047619047619048,-1.3047619047619048,-1.2857142857142858,-1.276190476190476,-1.2571428571428571,-1.2285714285714286,-1.2190476190476192,-1.2095238095238094,-1.2095238095238094,-1.2095238095238094,-1.2095238095238094,-1.2095238095238094,-1.2095238095238094,-1.2095238095238094,-1.2095238095238094,-1.2095238095238094,-1.2095238095238094,-1.2095238095238094,-1.2095238095238094,-1.2095238095238094,-1.2095238095238094,-1.2095238095238094,-1.2095238095238094,-1.2095238095238094,-1.2095238095238094,-1.2095238095238094,-1.2095238095238094,-1.2095238095238094,-1.2095238095238094,-1.2095238095238094,-1.2095238095238094,-1.2095238095238094,-1.2095238095238094,-1.2095238095238094,-1.2095238095238094,-1.2,-1.161904761904762,-1.1142857142857143,-1.0761904761904761,-0.9619047619047619,-0.8380952380952381,-0.7904761904761904,-0.7714285714285715,-0.7333333333333333,-0.6952380952380952,-0.6666666666666666,-0.6285714285714286,-0.6,-0.5904761904761905,-0.5619047619047619,-0.5333333333333333,-0.5142857142857142,-0.47619047619047616,-0.42857142857142855,-0.4095238095238095,-0.38095238095238093,-0.3523809523809524,-0.34285714285714286,-0.3333333333333333,-0.3238095238095238,-0.3238095238095238,-0.3238095238095238,-0.3238095238095238,-0.2857142857142857,-0.26666666666666666,-0.22857142857142856,-0.19047619047619047,-0.1619047619047619,-0.11428571428571428,-0.0761904761904762,-0.06666666666666667,-0.05714285714285714,-0.06666666666666667,-0.06666666666666667,-0.06666666666666667,-0.06666666666666667,-0.06666666666666667,-0.06666666666666667,-0.06666666666666667,-0.06666666666666667,-0.06666666666666667,-0.06666666666666667,-0.06666666666666667,-0.06666666666666667,-0.06666666666666667,-0.06666666666666667,-0.06666666666666667,-0.06666666666666667,-0.06666666666666667,-0.06666666666666667,-0.06666666666666667,-0.06666666666666667,-0.06666666666666667,-0.06666666666666667,-0.06666666666666667,-0.06666666666666667,-0.06666666666666667,-0.06666666666666667,-0.06666666666666667,-0.06666666666666667,-0.06666666666666667,-0.06666666666666667,-0.06666666666666667,-0.06666666666666667,-0.06666666666666667,-0.06666666666666667,-0.06666666666666667,-0.06666666666666667,-0.06666666666666667,-0.06666666666666667,-0.06666666666666667,-0.06666666666666667,-0.06666666666666667,-0.06666666666666667,-0.06666666666666667,-0.06666666666666667,-0.06666666666666667,-0.06666666666666667,-0.06666666666666667,-0.0761904761904762,-0.10476190476190476,-0.11428571428571428,-0.12380952380952381,-0.12380952380952381,-0.12380952380952381,-0.12380952380952381,-0.12380952380952381,-0.12380952380952381,-0.12380952380952381,-0.12380952380952381,-0.12380952380952381,-0.12380952380952381,-0.11428571428571428,-0.11428571428571428,-0.11428571428571428,-0.11428571428571428,-0.10476190476190476,-0.10476190476190476,-0.10476190476190476,-0.10476190476190476,-0.09523809523809523,-0.09523809523809523,-0.09523809523809523,-0.09523809523809523,-0.08571428571428572,-0.08571428571428572,-0.08571428571428572,-0.08571428571428572,-0.08571428571428572,-0.08571428571428572,-0.08571428571428572,-0.0761904761904762,-0.0761904761904762,-0.0761904761904762,-0.0761904761904762,-0.06666666666666667,-0.06666666666666667,-0.06666666666666667,-0.02857142857142857,0,0.009523809523809525,0.0380952380952381,0.08571428571428572,0.09523809523809523,0.11428571428571428,0.12380952380952381,0.13333333333333333,0.17142857142857143,0.21904761904761905,0.24761904761904763,0.2571428571428571,0.26666666666666666,0.26666666666666666,0.26666666666666666,0.2761904761904762,0.2761904761904762,0.2761904761904762,0.2761904761904762,0.2857142857142857,0.2857142857142857,0.2857142857142857,0.2857142857142857,0.2857142857142857,0.2857142857142857,0.2857142857142857,0.2857142857142857,0.2857142857142857,0.2857142857142857,0.2857142857142857,0.2857142857142857,0.2857142857142857,0.2857142857142857,0.2857142857142857,0.2857142857142857,0.2857142857142857,0.2857142857142857,0.2857142857142857,0.2857142857142857,0.2857142857142857,0.2857142857142857,0.2857142857142857,0.2857142857142857,0.2857142857142857,0.2857142857142857,0.2857142857142857,0.2857142857142857,0.2857142857142857,0.2857142857142857,0.2857142857142857,0.2857142857142857,0.2857142857142857,0.2857142857142857,0.2857142857142857,0.23809523809523808,0.23809523809523808,0.2,0.1523809523809524,0.11428571428571428,0.09523809523809523,0.0761904761904762,0.06666666666666667,0.05714285714285714,0.05714285714285714,0.047619047619047616,0.047619047619047616,0.047619047619047616,0.0380952380952381,0.0380952380952381,0.0380952380952381,0.0380952380952381,0.0380952380952381,0.0380952380952381,0.0380952380952381,0.0380952380952381,0.0380952380952381,0.0380952380952381,0.0380952380952381,0.0380952380952381,0.0380952380952381,0.0380952380952381,0.0380952380952381,0.0380952380952381,0.047619047619047616,0.047619047619047616,0.047619047619047616,0.05714285714285714,0.05714285714285714,0.05714285714285714,0.05714285714285714,0.06666666666666667,0.06666666666666667,0.06666666666666667,0.06666666666666667,0.06666666666666667,0.06666666666666667,0.06666666666666667,0.06666666666666667,0.06666666666666667,0.06666666666666667,0.05714285714285714,0.05714285714285714,0.05714285714285714,0.05714285714285714,0.05714285714285714,0.05714285714285714,0.05714285714285714,0.05714285714285714,0.05714285714285714,0.06666666666666667,0.06666666666666667,0.08571428571428572,0.10476190476190476,0.11428571428571428,0.14285714285714285,0.18095238095238095,0.19047619047619047,0.20952380952380953,0.22857142857142856,0.23809523809523808,0.2571428571428571,0.2761904761904762,0.3047619047619048,0.3047619047619048,0.3047619047619048,0.3047619047619048,0.3047619047619048,0.3047619047619048,0.3047619047619048,0.3047619047619048,0.3047619047619048,0.3047619047619048,0.3047619047619048,0.3047619047619048,0.3047619047619048,0.3047619047619048,0.3047619047619048,0.3047619047619048,0.3047619047619048,0.3047619047619048,0.3047619047619048,0.3047619047619048,0.3047619047619048,0.3047619047619048,0.3047619047619048,0.3047619047619048,0.3047619047619048,0.3047619047619048,0.3047619047619048,0.3047619047619048,0.3047619047619048,0.3047619047619048,0.3047619047619048,0.3047619047619048,0.3047619047619048,0.3047619047619048,0.3047619047619048,0.3047619047619048,0.3047619047619048,0.3047619047619048,0.3047619047619048,0.3047619047619048,0.3047619047619048,0.3047619047619048,0.3047619047619048,0.3047619047619048,0.3047619047619048,0.3047619047619048,0.3047619047619048,0.3047619047619048,0.3047619047619048,0.3047619047619048,0.3047619047619048,0.3047619047619048,0.3047619047619048,0.3047619047619048,0.3047619047619048,0.3047619047619048,0.3047619047619048,0.3047619047619048,0.3047619047619048,0.3047619047619048,0.3047619047619048,0.3047619047619048,0.3047619047619048,0.3047619047619048,0.3047619047619048,0.3047619047619048,0.3047619047619048,0.3047619047619048,0.3047619047619048,0.3047619047619048,0.3047619047619048,0.3047619047619048,0.3047619047619048,0.3047619047619048,0.3047619047619048,0.3047619047619048,0.3047619047619048,0.3047619047619048,0.3047619047619048,0.3047619047619048,0.3047619047619048,0.3047619047619048,0.3047619047619048,0.3047619047619048,0.3047619047619048,0.3047619047619048,0.3047619047619048,0.3047619047619048,0.3047619047619048,0.3047619047619048,0.3047619047619048,0.3047619047619048,0.3047619047619048,0.3047619047619048,0.3047619047619048,0.2761904761904762,0.24761904761904763,0.23809523809523808,0.22857142857142856,0.20952380952380953,0.20952380952380953,0.2,0.19047619047619047,0.19047619047619047,0.19047619047619047,0.19047619047619047,0.19047619047619047,0.19047619047619047,0.19047619047619047,0.19047619047619047,0.19047619047619047,0.19047619047619047,0.19047619047619047,0.19047619047619047,0.2,0.20952380952380953,0.21904761904761905,0.22857142857142856,0.24761904761904763,0.24761904761904763,0.26666666666666666,0.2761904761904762,0.29523809523809524,0.3142857142857143,0.34285714285714286,0.3619047619047619,0.37142857142857144,0.3619047619047619,0.3333333333333333,0.3142857142857143,0.29523809523809524,0.24761904761904763,0.24761904761904763,0.24761904761904763,0.24761904761904763,0.24761904761904763,0.24761904761904763,0.24761904761904763,0.24761904761904763,0.24761904761904763,0.24761904761904763,0.24761904761904763,0.24761904761904763,0.24761904761904763,0.24761904761904763,0.24761904761904763,0.24761904761904763,0.24761904761904763,0.24761904761904763,0.24761904761904763,0.24761904761904763,0.24761904761904763,0.24761904761904763,0.24761904761904763,0.24761904761904763,0.24761904761904763,0.24761904761904763,0.24761904761904763,0.24761904761904763,0.24761904761904763,0.24761904761904763,0.24761904761904763,0.24761904761904763,0.24761904761904763,0.24761904761904763,0.24761904761904763,0.24761904761904763,0.24761904761904763,0.24761904761904763,0.24761904761904763,0.24761904761904763,0.24761904761904763,0.24761904761904763,0.24761904761904763,0.24761904761904763,0.24761904761904763,0.24761904761904763,0.24761904761904763,0.24761904761904763,0.24761904761904763,0.24761904761904763,0.24761904761904763,0.24761904761904763,0.24761904761904763,0.24761904761904763,0.24761904761904763,0.24761904761904763,0.24761904761904763,0.24761904761904763,0.24761904761904763,0.24761904761904763,0.24761904761904763,0.24761904761904763,0.24761904761904763,0.24761904761904763,0.24761904761904763,0.24761904761904763,0.24761904761904763,0.24761904761904763,0.24761904761904763,0.24761904761904763,0.24761904761904763,0.24761904761904763,0.24761904761904763,0.22857142857142856,0.22857142857142856,0.20952380952380953,0.17142857142857143,0.12380952380952381,0.10476190476190476,0.08571428571428572,0.06666666666666667,0.05714285714285714,0.047619047619047616,0.047619047619047616,0.047619047619047616,0.047619047619047616,0.047619047619047616,0.047619047619047616,0.047619047619047616,0.047619047619047616,0.047619047619047616,0.0380952380952381,0.0380952380952381,0.0380952380952381,0.0380952380952381,0.0380952380952381,0.0380952380952381,0.047619047619047616,0.05714285714285714,0.06666666666666667,0.06666666666666667,0.0761904761904762,0.08571428571428572,0.08571428571428572,0.09523809523809523,0.09523809523809523,0.09523809523809523,0.10476190476190476,0.10476190476190476,0.10476190476190476,0.10476190476190476,0.10476190476190476,0.10476190476190476,0.10476190476190476,0.10476190476190476,0.10476190476190476,0.10476190476190476,0.10476190476190476,0.10476190476190476,0.10476190476190476,0.10476190476190476,0.10476190476190476,0.10476190476190476,0.10476190476190476,0.10476190476190476,0.10476190476190476,0.10476190476190476,0.10476190476190476,0.10476190476190476,0.09523809523809523,0.09523809523809523,0.09523809523809523,0.09523809523809523,0.08571428571428572,0.08571428571428572,0.08571428571428572,0.06666666666666667,0.05714285714285714,0.05714285714285714,0.05714285714285714,0.06666666666666667,0.11428571428571428,0.14285714285714285,0.18095238095238095,0.2,0.20952380952380953,0.20952380952380953,0.20952380952380953,0.20952380952380953,0.20952380952380953,0.20952380952380953,0.20952380952380953,0.20952380952380953,0.20952380952380953,0.20952380952380953,0.20952380952380953,0.20952380952380953,0.20952380952380953,0.20952380952380953,0.20952380952380953,0.20952380952380953,0.20952380952380953,0.20952380952380953,0.20952380952380953,0.20952380952380953,0.20952380952380953,0.20952380952380953,0.20952380952380953,0.20952380952380953,0.20952380952380953,0.20952380952380953,0.20952380952380953,0.20952380952380953,0.20952380952380953,0.20952380952380953,0.19047619047619047,0.1619047619047619,0.1523809523809524,0.14285714285714285,0.14285714285714285,0.14285714285714285,0.13333333333333333,0.13333333333333333,0.13333333333333333,0.13333333333333333,0.13333333333333333,0.12380952380952381,0.10476190476190476,0.08571428571428572,0.0761904761904762,0.0761904761904762,0.06666666666666667,0.06666666666666667,0.06666666666666667,0.05714285714285714,0.05714285714285714,0.05714285714285714,0.05714285714285714,0.05714285714285714,0.05714285714285714,0.05714285714285714,0.05714285714285714,0.05714285714285714,0.05714285714285714,0.05714285714285714,0.05714285714285714,0.05714285714285714,0.05714285714285714,0.05714285714285714,0.05714285714285714,0.05714285714285714,0.05714285714285714,0.05714285714285714,0.05714285714285714,0.05714285714285714,0.05714285714285714,0.05714285714285714,0.05714285714285714,0.05714285714285714,0.05714285714285714,0.05714285714285714,0.05714285714285714,0.05714285714285714,0.05714285714285714,0.05714285714285714,0.05714285714285714,0.05714285714285714,0.05714285714285714,0.05714285714285714,0.05714285714285714,0.05714285714285714,0.05714285714285714,0.05714285714285714,0.05714285714285714,0.05714285714285714,0.05714285714285714,0.05714285714285714,0.05714285714285714,0.05714285714285714,0.05714285714285714,0.05714285714285714,0.05714285714285714,0.05714285714285714,0.05714285714285714,0.05714285714285714,0.05714285714285714,0.05714285714285714,0.05714285714285714,0.05714285714285714,0.05714285714285714,0.05714285714285714,0.05714285714285714,0.05714285714285714,0.05714285714285714,0.05714285714285714,0.05714285714285714,0.05714285714285714,0.05714285714285714,0.05714285714285714,0.05714285714285714,0.05714285714285714,0.05714285714285714,0.05714285714285714,0.05714285714285714,0.05714285714285714,0.047619047619047616,0.0380952380952381,0.02857142857142857,0.01904761904761905,0.009523809523809525,0.009523809523809525,0.009523809523809525,0.009523809523809525,0.009523809523809525,0.01904761904761905,0.01904761904761905,0.01904761904761905,0.01904761904761905,0.02857142857142857,0.02857142857142857,0.02857142857142857,0.02857142857142857,0.02857142857142857,0.0380952380952381,0.047619047619047616,0.047619047619047616,0.047619047619047616,0.047619047619047616,0.05714285714285714,0.05714285714285714,0.05714285714285714,0.05714285714285714,0.05714285714285714,0.06666666666666667,0.08571428571428572,0.10476190476190476,0.11428571428571428,0.12380952380952381,0.12380952380952381,0.12380952380952381,0.11428571428571428,0.11428571428571428,0.12380952380952381,0.12380952380952381,0.12380952380952381,0.12380952380952381,0.13333333333333333,0.13333333333333333,0.13333333333333333,0.13333333333333333,0.13333333333333333,0.13333333333333333,0.12380952380952381,0.11428571428571428,0.10476190476190476,0.08571428571428572,0.06666666666666667,0.05714285714285714,0.01904761904761905,-0.009523809523809525,-0.009523809523809525,-0.009523809523809525,-0.009523809523809525,-0.009523809523809525,-0.009523809523809525,-0.009523809523809525,-0.009523809523809525,-0.009523809523809525,-0.009523809523809525,-0.009523809523809525,-0.009523809523809525,-0.009523809523809525,-0.009523809523809525,-0.009523809523809525,-0.009523809523809525,-0.009523809523809525,-0.009523809523809525,-0.009523809523809525,-0.009523809523809525,-0.009523809523809525,-0.009523809523809525,-0.009523809523809525,-0.009523809523809525,-0.009523809523809525,-0.009523809523809525,-0.009523809523809525,-0.009523809523809525,-0.009523809523809525,-0.009523809523809525,-0.009523809523809525,-0.009523809523809525,-0.009523809523809525,-0.009523809523809525,-0.009523809523809525,-0.009523809523809525,-0.009523809523809525,-0.009523809523809525,-0.009523809523809525,-0.009523809523809525,-0.009523809523809525,-0.009523809523809525,-0.009523809523809525,-0.009523809523809525,-0.009523809523809525,-0.009523809523809525,-0.009523809523809525,-0.009523809523809525,-0.009523809523809525,-0.009523809523809525,-0.009523809523809525,-0.009523809523809525,-0.009523809523809525,-0.009523809523809525,-0.009523809523809525,-0.009523809523809525,-0.009523809523809525,-0.009523809523809525,-0.009523809523809525,-0.009523809523809525,-0.009523809523809525,-0.009523809523809525,-0.009523809523809525,-0.009523809523809525,-0.009523809523809525,-0.009523809523809525,-0.009523809523809525,-0.009523809523809525,-0.009523809523809525,-0.009523809523809525,-0.009523809523809525,-0.009523809523809525,-0.009523809523809525,-0.009523809523809525,-0.009523809523809525,-0.009523809523809525,-0.01904761904761905,-0.01904761904761905,-0.01904761904761905,-0.01904761904761905,-0.01904761904761905,-0.01904761904761905,-0.01904761904761905,-0.01904761904761905,-0.01904761904761905,-0.01904761904761905,-0.01904761904761905,-0.01904761904761905,-0.01904761904761905,-0.01904761904761905,-0.01904761904761905,-0.01904761904761905,-0.01904761904761905,-0.01904761904761905,-0.02857142857142857,-0.0380952380952381,-0.05714285714285714,-0.06666666666666667,-0.0761904761904762,-0.08571428571428572,-0.08571428571428572,-0.08571428571428572,-0.08571428571428572,-0.08571428571428572,-0.08571428571428572,-0.08571428571428572,-0.08571428571428572,-0.08571428571428572,-0.08571428571428572,-0.08571428571428572,-0.08571428571428572,-0.08571428571428572,-0.08571428571428572,-0.08571428571428572,-0.08571428571428572,-0.08571428571428572,-0.08571428571428572,-0.08571428571428572,-0.08571428571428572,-0.08571428571428572,-0.08571428571428572,-0.08571428571428572,-0.08571428571428572,-0.08571428571428572,-0.08571428571428572,-0.08571428571428572,-0.08571428571428572,-0.08571428571428572,-0.08571428571428572,-0.08571428571428572,-0.08571428571428572,-0.08571428571428572,-0.0761904761904762,-0.0761904761904762,-0.0761904761904762,-0.0761904761904762,-0.0761904761904762,-0.0761904761904762,-0.0761904761904762,-0.0761904761904762,-0.06666666666666667,-0.06666666666666667,-0.0761904761904762,-0.08571428571428572,-0.12380952380952381,-0.12380952380952381,-0.13333333333333333,-0.12380952380952381,-0.11428571428571428,-0.11428571428571428,-0.10476190476190476,-0.09523809523809523,-0.08571428571428572,-0.06666666666666667,-0.0380952380952381,-0.02857142857142857,-0.009523809523809525,-0.009523809523809525,0,0,0,0,0,0,0,0,0,0,0,0,0,0,0,0,0,0,0,0,0,0,0,0,0,0,0,0,0,0,0,0,0,0,0,0,0,0,0,0,0,0,0,0,0,0,0,0,0,0,0,0,0,0,0,-0.009523809523809525,-0.01904761904761905,-0.02857142857142857,-0.02857142857142857,-0.02857142857142857,-0.009523809523809525,0,0.047619047619047616,0.08571428571428572,0.10476190476190476,0.14285714285714285,0.18095238095238095,0.19047619047619047,0.20952380952380953,0.22857142857142856,0.23809523809523808,0.23809523809523808,0.24761904761904763,0.24761904761904763,0.2571428571428571,0.2571428571428571,0.2761904761904762,0.29523809523809524,0.3238095238095238,0.34285714285714286,0.3523809523809524,0.37142857142857144,0.4,0.4095238095238095,0.42857142857142855,0.4380952380952381,0.44761904761904764,0.44761904761904764,0.44761904761904764,0.45714285714285713,0.45714285714285713,0.45714285714285713,0.45714285714285713,0.45714285714285713,0.45714285714285713,0.45714285714285713,0.4666666666666667,0.4666666666666667,0.4666666666666667,0.4666666666666667,0.4666666666666667,0.4666666666666667,0.4666666666666667,0.4666666666666667,0.4666666666666667,0.4666666666666667,0.4666666666666667,0.4666666666666667,0.4666666666666667,0.4666666666666667,0.4666666666666667,0.4666666666666667,0.4666666666666667,0.4666666666666667,0.4666666666666667,0.4666666666666667,0.4666666666666667,0.4666666666666667,0.4666666666666667,0.4666666666666667,0.4666666666666667,0.4666666666666667,0.4666666666666667,0.4666666666666667,0.4666666666666667,0.4666666666666667,0.4666666666666667,0.4666666666666667,0.4666666666666667,0.4666666666666667,0.4666666666666667,0.4666666666666667,0.4666666666666667,0.4666666666666667,0.4666666666666667,0.4666666666666667,0.4666666666666667,0.4666666666666667,0.4666666666666667,0.4666666666666667,0.4666666666666667,0.4666666666666667,0.4666666666666667,0.4666666666666667,0.4666666666666667,0.4666666666666667,0.4666666666666667,0.4666666666666667,0.4666666666666667,0.4666666666666667,0.4666666666666667,0.4666666666666667,0.4666666666666667,0.4666666666666667,0.4666666666666667,0.4666666666666667,0.4666666666666667,0.4666666666666667,0.4666666666666667,0.4666666666666667,0.4666666666666667,0.47619047619047616,0.5047619047619047,0.5238095238095238,0.5904761904761905,0.6476190476190476,0.7047619047619048,0.7333333333333333,0.780952380952381,0.819047619047619,0.8380952380952381,0.8571428571428571,0.8952380952380953,0.9142857142857143,0.9619047619047619,1.0095238095238095,1.0285714285714285,1.0571428571428572,1.0761904761904761,1.0857142857142856,1.1047619047619048,1.1238095238095238,1.1428571428571428,1.1428571428571428,1.1523809523809523,1.161904761904762,1.161904761904762,1.161904761904762,1.1714285714285715,1.1714285714285715,1.1714285714285715,1.1714285714285715,1.1714285714285715,1.1714285714285715,1.1714285714285715,1.1714285714285715,1.1714285714285715,1.1714285714285715,1.1714285714285715,1.1714285714285715,1.1714285714285715,1.1714285714285715,1.161904761904762,1.1428571428571428,1.1238095238095238,1.1142857142857143,1.1047619047619048,1.0952380952380953,1.0952380952380953,1.0952380952380953,1.0952380952380953,1.0952380952380953,1.0857142857142856,1.0857142857142856,1.0857142857142856,1.0857142857142856,1.0857142857142856,1.0857142857142856,1.0857142857142856,1.0857142857142856,1.0857142857142856,1.0857142857142856,1.0857142857142856,1.0857142857142856,1.0857142857142856,1.0857142857142856,1.0857142857142856,1.0857142857142856,1.0857142857142856,1.0857142857142856,1.0857142857142856,1.0857142857142856,1.0857142857142856,1.0857142857142856,1.0857142857142856,1.0857142857142856,1.0857142857142856,1.0857142857142856,1.0857142857142856,1.0857142857142856,1.0857142857142856,1.0857142857142856,1.0857142857142856,1.0857142857142856,0.9809523809523809,0.6666666666666666,0.45714285714285713,0.38095238095238093,0.2571428571428571,0.19047619047619047,0.14285714285714285,0.05714285714285714,0.01904761904761905,0.009523809523809525,-0.009523809523809525,-0.009523809523809525,-0.009523809523809525,-0.009523809523809525,-0.009523809523809525,-0.009523809523809525,-0.009523809523809525,-0.009523809523809525,0,0,0,0,0,0,0,0,0,0,0,0,0,0,0,0,0,0,0,0,0,0,0,0,0,0,0,0,0,0,0,0,0,0,0,0,0,0,0,0,0,0,0,0,0,0,0,0,0,0,0,0,0,0,0,0,0,0,0,0,0,0,0,0,0,0,0,0,0,0,0,0,0,0,0,0,0,0,0,0,0,0,0,0,0,0,0,0,0,0,0,0,0,0,0,0,0,0,0,0,0,0,0,0,0,0,0,0,0,0,0,0,0,0,0,0,0,0,-0.13333333333333333,-0.21904761904761905,-0.3333333333333333,-0.38095238095238093,-0.38095238095238093,-0.49523809523809526,-0.5142857142857142,-0.5142857142857142,-0.5142857142857142,-0.5047619047619047,-0.4857142857142857,-0.4857142857142857,-0.5142857142857142,-0.5238095238095238,-0.5333333333333333,-0.5333333333333333,-0.5333333333333333,-0.5333333333333333,-0.5333333333333333,-0.5333333333333333,-0.5333333333333333,-0.5333333333333333,-0.5333333333333333,-0.5333333333333333,-0.5333333333333333,-0.5333333333333333,-0.5333333333333333,-0.5333333333333333,-0.5333333333333333,-0.5333333333333333,-0.5333333333333333,-0.5333333333333333,-0.5333333333333333,-0.5333333333333333,-0.5333333333333333,-0.5333333333333333]},"final_keyboard_state":["E","B","R","Z","A"],"num_clicks":5,"points":15,"cheat":false,"trial_type":"Hangman","trial_index":5,"time_elapsed":75838,"internal_node_id":"0.0-4.0","protocol_sum":"","subject_identifier":126,"subject_sum":[218,78,162,165,80,111,38,147,234,225,144,217,54,10,31,49,121,60,152,161,173,173,229,29,147,83,58,111,82,10,206,28],"subject_pair":63,"STUDY_ID":"669a702db1122fc5150a13ce","PROLIFIC_PID":"662b24af863fd5cc1437384c","SESSION_ID":"669b1c5abee50f1a83b7f04a","practice_instructions":1,"leaderboard_instructions":0,"bonus":0,"reveal_word":false,"self_rating":"2","confidence":"82"},{"view_history":"[{\"page_index\":0,\"viewing_time\":4668.899999976158},{\"page_index\":1,\"viewing_time\":19700.399999976158}]","rt":24369.899999976158,"trial_type":"instructions","trial_index":6,"time_elapsed":100209,"internal_node_id":"0.0-5.0","protocol_sum":"","subject_identifier":126,"subject_sum":[218,78,162,165,80,111,38,147,234,225,144,217,54,10,31,49,121,60,152,161,173,173,229,29,147,83,58,111,82,10,206,28],"subject_pair":63,"STUDY_ID":"669a702db1122fc5150a13ce","PROLIFIC_PID":"662b24af863fd5cc1437384c","SESSION_ID":"669b1c5abee50f1a83b7f04a","practice_instructions":1,"leaderboard_instructions":0,"bonus":0,"reveal_word":false,"self_rating":"2","confidence":"82"},{"rt":12697.699999988079,"responses":"{\"Q0\":\"...from <b>a previous session</b> that is not part of the upcoming tournament.\"}","question_order":"[0]","trial_type":"survey-multi-choice","trial_index":7,"time_elapsed":112908,"internal_node_id":"0.0-6.0","protocol_sum":"","subject_identifier":126,"subject_sum":[218,78,162,165,80,111,38,147,234,225,144,217,54,10,31,49,121,60,152,161,173,173,229,29,147,83,58,111,82,10,206,28],"subject_pair":63,"correct":true,"test_part":"multichoice_leaderboard","STUDY_ID":"669a702db1122fc5150a13ce","PROLIFIC_PID":"662b24af863fd5cc1437384c","SESSION_ID":"669b1c5abee50f1a83b7f04a","practice_instructions":1,"leaderboard_instructions":0,"bonus":0,"reveal_word":false,"self_rating":"2","confidence":"82"},{"view_history":"[{\"page_index\":0,\"viewing_time\":21199.5}]","rt":21199.799999952316,"trial_type":"instructions","trial_index":8,"time_elapsed":134108,"internal_node_id":"0.0-8.0","protocol_sum":"","subject_identifier":126,"subject_sum":[218,78,162,165,80,111,38,147,234,225,144,217,54,10,31,49,121,60,152,161,173,173,229,29,147,83,58,111,82,10,206,28],"subject_pair":63,"STUDY_ID":"669a702db1122fc5150a13ce","PROLIFIC_PID":"662b24af863fd5cc1437384c","SESSION_ID":"669b1c5abee50f1a83b7f04a","practice_instructions":1,"leaderboard_instructions":0,"bonus":0,"reveal_word":false,"self_rating":"2","confidence":"82"},{"rt":8035,"responses":"{\"Q0\":\"...players' leaderboard position (in terms of <b>points</b>) in an <b>upcoming tournament.</b>\"}","question_order":"[0]","trial_type":"survey-multi-choice","trial_index":9,"time_elapsed":142144,"internal_node_id":"0.0-9.0","protocol_sum":"","subject_identifier":126,"subject_sum":[218,78,162,165,80,111,38,147,234,225,144,217,54,10,31,49,121,60,152,161,173,173,229,29,147,83,58,111,82,10,206,28],"subject_pair":63,"correct":true,"test_part":"multichoice_tournament","STUDY_ID":"669a702db1122fc5150a13ce","PROLIFIC_PID":"662b24af863fd5cc1437384c","SESSION_ID":"669b1c5abee50f1a83b7f04a","practice_instructions":1,"leaderboard_instructions":0,"bonus":0,"reveal_word":false,"self_rating":"2","confidence":"82"},{"view_history":"[{\"page_index\":0,\"viewing_time\":10473.900000035763}]","rt":10474.199999988079,"trial_type":"instructions","trial_index":10,"time_elapsed":152619,"internal_node_id":"0.0-11.0","protocol_sum":"","subject_identifier":126,"subject_sum":[218,78,162,165,80,111,38,147,234,225,144,217,54,10,31,49,121,60,152,161,173,173,229,29,147,83,58,111,82,10,206,28],"subject_pair":63,"STUDY_ID":"669a702db1122fc5150a13ce","PROLIFIC_PID":"662b24af863fd5cc1437384c","SESSION_ID":"669b1c5abee50f1a83b7f04a","practice_instructions":1,"leaderboard_instructions":0,"bonus":0,"reveal_word":false,"self_rating":"2","confidence":"82"},{"view_history":"[{\"page_index\":0,\"viewing_time\":11142.300000011921}]","rt":11142.5,"trial_type":"instructions","trial_index":11,"time_elapsed":163762,"internal_node_id":"0.0-12.0-0.0","protocol_sum":"","subject_identifier":126,"subject_sum":[218,78,162,165,80,111,38,147,234,225,144,217,54,10,31,49,121,60,152,161,173,173,229,29,147,83,58,111,82,10,206,28],"subject_pair":63,"STUDY_ID":"669a702db1122fc5150a13ce","PROLIFIC_PID":"662b24af863fd5cc1437384c","SESSION_ID":"669b1c5abee50f1a83b7f04a","practice_instructions":1,"leaderboard_instructions":0,"bonus":0,"reveal_word":false,"self_rating":"2","confidence":"82"},{"word":"HAWAII","click_log":{"letter":["","A","K","N","S","C","T","R","M","L","F","D","G","H","W","I"],"t":[0,2604.300000011921,11604.399999976158,13870.5,15487.100000023842,17603.69999998808,29920.5,31270.30000001192,32620.19999998808,34503.30000001192,36453.30000001192,37786.69999998808,38803.39999997616,40070,42253.19999998808,43803.39999997616],"hit":[null,2,0,0,0,0,0,0,0,0,0,0,0,1,1,2],"asked":["","A","AK","AKN","AKNS","AKNSC","AKNSCT","AKNSCTR","AKNSCTRM","AKNSCTRML","AKNSCTRMLF","AKNSCTRMLFD","AKNSCTRMLFDG","AKNSCTRMLFDGH","AKNSCTRMLFDGHW","AKNSCTRMLFDGHWI"],"word_state":["______","_A_A__","_A_A__","_A_A__","_A_A__","_A_A__","_A_A__","_A_A__","_A_A__","_A_A__","_A_A__","_A_A__","_A_A__","HA_A__","HAWA__","HAWAII"]},"hover_log":{"letter":["?","?","?","?","?","?","?","?","?","?","?","?","?","?","?","?","?","?","?","?","?","?","?","?","?","?","?","?","?","?","?","?","?","?","?","?","?","?","?","?","?","?","?","?","?","?","?","?","?","?","?","?","?","?","?","?","?","?","?","?","?","?","?","?","?","?","?","?","?","?","?","?","?","?","?","?","?","?","?","?","?","?","?","?","?","?","?","?","?","?","?","?","?","?","?","?","?","?","?","?","?","?","?","?","?","?","?","?","?","?","?","?","?","?","?","?","?","?","?","?","?","?","?","?","?","?","?","?","?","?","?","?","?","?","?","?","?","?","?","?","?","?","?","?","?","?","?","?","?","?","?","?","?","?","?","?","?","?","?","?","?","?","?","?","?","?","?","?","?","?","?","?","?","?","?","?","?","?","?","?","?","?","?","?","?","?","?","?","?","?","?","?","?","?","?","?","?","?","?","?","?","?","?","?","?","?","?","?","?","?","?","?","?","?","?","?","?","?","?","?","?","?","?","?","?","?","?","?","?","?","?","?","?","?","?","?","?","?","?","?","?","?","?","?","?","?","?","?","?","?","?","?","?","?","?","?","?","?","?","?","?","?","?","?","?","?","?","?","?","?","?","?","?","?","?","?","?","?","?","?","?","?","?","?","?","?","?","?","?","?","?","?","?","?","?","?","?","?","?","?","?","?","?","?","?","?","?","?","?","?","?","?","?","?","?","?","?","?","?","?","?","?","?","?","?","?","?","?","?","?","?","?","?","?","?","?","?","?","?","?","?","?","?","?","?","?","?","?","?","?","?","?","?","?","?","?","?","?","?","?","?","?","?","?","?","?","?","?","?","?","?","?","?","?","?","?","?","?","?","?","?","?","?","?","?","?","?","?","?","?","?","?","?","?","?","?","?","?","?","?","?","?","?","?","?","?","?","?","?","?","?","?","?","?","?","?","?","?","?","?","?","?","?","?","?","?","?","?","?","?","?","?","?","?","?","?","?","?","?","?","?","?","?","?","?","?","?","?","?","?","?","?","?","?","?","?","?","?","?","?","?","?","?","?","?","?","?","?","?","?","?","?","?","?","?","?","?","?","?","?","?","?","?","?","?","?","?","?","?","?","?","?","?","?","?","?","?","?","?","?","?","?","?","?","?","?","?","?","?","?","?","?","?","?","?","?","?","?","?","?","?","?","?","?","?","?","?","?","?","?","?","?","?","?","?","?","?","?","?","?","?","?","?","?","?","?","?","?","?","?","?","?","?","?","?","?","?","?","?","?","?","?","?","?","?","?","?","?","?","?","?","?","?","?","?","?","?","?","?","?","?","?","?","?","?","?","?","?","?","?","?","?","?","?","?","?","?","?","?","?","?","?","?","?","?","?","?","?","?","?","?","?","?","?","?","?","?","?","?","?","?","?","?","?","?","?","?","?","?","?","?","?","?","?","?","?","?","?","?","?","?","?","?","?","?","?","?","?","?","?","?","?","?","?","?","?","?","?","?","?","?","?","?","?","?","?","?","?","?","?","?","?","?","?","?","?","?","?","?","?","?","?","?","?","?","?","?","?","?","?","?","?","?","?","?","?","?","?","?","?","?","?","?","?","?","?","?","?","?","?","?","?","?","?","?","?","?","?","?","?","?","?","?","?","?","?","?","?","?","?","?","?","?","?","?","?","?","?","?","?","?","?","?","?","?","?","?","?","?","?","?","?","?","?","?","?","?","?","?","?","?","?","?","?","?","?","?","?","?","?","?","?","?","?","?","?","?","?","?","?","?","?","?","?","?","?","?","?","?","?","?","?","?","?","?","?","?","?","?","?","?","?","?","?","?","?","?","?","?","?","?","?","?","?","?","?","?","?","?","?","?","?","?","?","?","?","?","?","?","?","?","?","?","?","?","?","?","?","?","?","?","?","?","?","?","?","?","?","?","?","?","?","?","?","?","?","?","?","?","?","?","?","?","?","?","?","?","?","?","?","?","?","?","?","?","?","?","?","?","?","?","?","?","?","?","?","?","?","?","?","?","?","?","?","?","?","?","?","?","?","?","?","?","?","?","?","?","?","?","?","?","?","?","?","?","?","?","?","?","?","?","?","?","?","?","?","?","?","?","?","?","?","?","?","?","?","?","?","?","?","?","?","?","?","?","?","?","?","?","?","?","?","?","?","?","?","?","?","?","?","?","?","?","?","?","?","?","?","?","?","?","?","?","?","?","?","?","?","?","?","?","?","?","?","?","?","?","?","?","?","?","?","?","?","?","?","?","?","?","?","?","?","?","?","?","?","?","?","?","?","?","?","?","?","?","?","?","?","?","?","?","?","?","?","?","?","?","?","?","?","?","?","?","?","?","?","?","?","?","?","?","?","?","?","?","?","?","?","?","?","?","?","?","?","?","?","?","?","?","?","?","?","?","?","?","?","?","?","?","?","?","?","?","?","?","?","?","?","?","?","?","?","?","?","?","?","?","?","?","?","?","?","?","?","?","?","?","?","?","?","?","?","?","?","?","?","?","?","?","?","?","?","?","?","?","?","?","?","?","?","?","?","?","?","?","?","?","?","?","?","?","?","?","?","?","?","?","?","?","?","?","?","?","?","?","?","?","?","?","?","?","?","?","?","?","?","?","?","?","?","?","?","?","?","?","?","?","?","?","?","?","?","?","?","?","?","?","?","?","?","?","?","?","?","?","?","?","?","?","?","?","?","?","?","?","?","?","?","?","?","?","?","?","?","?","?","?","?","?","?","?","?","?","?","?","?","?","?","?","?","?","?","?","?","?","?","?","?","?","?","?","?","?","?","?","?","?","?","?","?","?","?","?","?","?","?","?","?","?","?","?","?","?","?","?","?","?","?","?","?","?","?","?","?","?","?","?","?","?","?","?","?","?","?","?","?","?","?","?","?","?","?","?","?","?","?","?","?","?","?","?","?","?","?","?","?","?","?","?","?","?","?","?","?","?","?","?","?","?","?","?","?","?","?","?","?","?","?","?","?","?","?","?","?","?","?","?","?","?","?","?","?","?","?","?","?","?","?","?","?","?","?","?","?","?","?","?","?","?","?","?","?","?","?","?","?","?","?","?","?","?","?","?","?","?","?","?","?","?","?","?","?","?","?","?","?","?","?","?","?","?","?","?","?","?","?","?","?","?","?","?","?","?","?","?","?","?","?","?","?","?","?","?","?","?","?","?","?","?","?","?","?","?","?","?","?","?","?","?","?","?","?","?","?","?","?","?","?","?","?","?","?","?","?","?","?","?","?","?","?","?","?","?","?","?","?","?","?","?","?","?","?","?","?","?","?","?","?","?","?","?","?","?","?","?","?","?","?","?","?","?","?","?","?","?","?","?","?","?","?","?","?","?","?","?","?","?","?","?","?","?","?","?","?","?","?","?","?","?","?","?","?","?","?","?","?","?","?","?","?","?","?","?","?","?","?","?","?","?","?","?","?","?","?","?","?","?","?","?","?","?","?","?","?","?","?","?","?","?","?","?","?","?","?","?","?","?","?","?","?","?","?","?","?","?","?","?","?","?","?","?","?","?","?","?","?","?","?","?","?","?","?","?","?","?","?","?","?","?","?","?","?","?","?","?","?","?","?","?","?","?","?","?","?","?","?","?","?","?","?","?","?","?","?","?","?","?","?","?","?","?","?","?","?","?","?","?","?","?","?","?","?","?","?","?","?","?","?","?","?","?","?","?","?","?","?","?","?","?","?","?","?","?","?","?","?","?","?","?","?","?","?","?","?","?","?","?","?","?","?","?","?","?","?","?","?","?","?","?","?","?","?","?","?","?","?","?","?","?","?","?","?","?","?","?","?","?","?","?","?","?","?","?","?","?","?","?","?","?","?","?","?","?","?","?","?","?","?","?","?","?","?","?","?","?","?","?","?","?","?","?","?","?","?","?","?","?","?","?","?","?","?","?","?","?","?","?","?","?","?","?","?","?","?","?","?","?","?","?","?","?","?","?","?","?","?","?","?","?","?","?","?","?","?","?","?","?","?","?","?","?","?","?","?","?","?","?","?","?","?","?","?","?","?","?","?","?","?","?","?","?","?","?","?","?","?","?","?","?","?","?","?","?","?","?","?","?","?","?","?","?","?","?","?","?","?","?","?","?","?","?","?","?","?","?","?","?","?","?","?","?","?","?","?","?","?","?","?","?","?","?","?","?","?","?","?","?","?","?","?","?","?","?","?","?","?","?","?","?","?","?","?","?","?","?","?","?","?","?","?","?","?","?","?","?","?","?","?","?","?","?","?","?","?","?","?","?","?","?","?","?","?","?","?","?","?","?","?","?","?","?","?","?","?","?","?","?","?","?","?","?","?","?","?","?","?","?","?","?","?","?","?","?","?","?","?","?","?","?","?","?","?","?","?","?","?","?","?","?","?","?","?","?","?","?","?","?","?","?","?","?","?","?","?","?","?","?","?","?","?","?","?","?","?","?","?","?","?","?","?","?","?","?","?","?","?","?","?","?","?","?","?","?","?","?","?","?","?","?","?","?","?","?","?","?","?","?","?","?","?","?","?","?","?","?","?","?","?","?","?","?","?","?","?","?","?","?","?","?","?","?","?","?","?","?","?","?","?","?","?","?","?","?","?","?","?","?","?","?","?","?","?","?","?","?","?","?","?","?","?","?","?","?","?","?","?","?","?","?","?","?","?","?","?","?","?","?","?","?","?","?","?","?","?","?","?","?","?","?","?","?","?","?","?","?","?","?","?","?","?","?","?","?","?","?","?","?","?","?","?","?","?","?","?","?","?","?","?","?","?","?","?","?","?","?","?","?","?","?","?","?","?","?","?","?","?","?","?","?","?","?","?","?","?","?","?","?","?","?","?","?","?","?","?","?","?","?","?","?","?","?","?","?","?","?","?","?","?","?","?","?","?","?","?","?","?","?","?","?","?","?","?","?","?","?","?","?","?","?","?","?","?","?","?","?","?","?","?","?","?","?","?","?","?","?","?","?","?","?","?","?","?","?","?","?","?","?","?","?","?","?","?","?","?","?","?","?","?","?","?","?","?","?","?","?","?","?","?","?","?","?","?","?","?","?","?","?","?","?","?","?","?","?","?","?","?","?","?","?","?","?","?","?","?","?","?","?","?","?","?","?","?","?","?","?","?","?","?","?","?","?","?","?","?","?","?","?","?","?","?","?","?","?","?","?","?","?","?","?","?","?","?","?","?","?","?","?","?","?","?","?","?","?","?","?","?","?","?","?","?","?","?","?","?","?","?","?","?","?","?","?","?","?","?","?","?","?","?","?","?","?","?","?","?","?","?","?","?","?","?","?","?","?","?","?","?","?","?","?","?","?","?","?","?","?","?","?","?","?","?","?","?","?","?","?","?","?","?","?","?","?","?","?","?","?","?","?","?","?","?","?","?","?","?","?","?","?","?","?","?","?","?","?","?","?","?","?","?","?","?","?","?","?","?","?","?","?","?","?","?","?","?","?","?","?","?","?","?","?","?","?","?","?","?","?","?","?","?","?","?","?","?","?","?","?","?","?","?","?","?","?","?","?","?","?","?","?","?","?","?","?","?","?","?","?","?","?","?","?","?","?","?","?","?","?","?","?","?","?","?","?","?","?","?","?","?","?","?","?","?","?","?","?","?","?","?","?","?","?","?","?","?","?","?","?","?","?","?","?","?","?","?","?","?","?","?","?","?","?","?","?","?","?","?","?","?","?","?","?","?","?","?","?","?","?","?","?","?","?","?","?","?","?","?","?","?","?","?","?","?","?","?","?","?","?","?","?","?","?","?","?","?","?","?","?","?","?","?","?","?","?","?","?","?","?","?","?","?","?","?","?","?","?","?","?","?","?","?","?","?","?","?","?","?","?","?","?","?","?","?","?","?","?","?","?","?","?","?","?","?","?","?","?","?","?","?","?","?","?","?","?","?","?","?","?","?","?","?","?","?","?","?","?","?","?","?","?","?","?","?","?","?","?","?","?","?","?","?","?","?","?","?","?","?","?","?","?","?","?","?","?","?","?","?","?","?","?","?","?","?","?","?","?","?","?","?","?","?","?","?","?","?","?","?","?","?","?","?","?","?","?","?","?","?","?","?","?","?","?","?","?","?","?","?","?","?","?","?","?","?","?","?","?","?","?","?","?","?","?","?","?","?","?","?","?","?","?","?","?","?","?","?","?","?","?","?","?","?","?","?","?","?","?","?","?","?","?","?","?","?","?","?","?","?","?","?","?","?","?","?","?","?","?","?","?","?","?","?","?","?","?","?","?","?","?","?","?","?","?","?","?","?","?","?","?","?","?","?","?","?","?","?","?","?","?","?","?","?","?","?","?","?","?","?","?","?","?","?","?","?","?","?","?","?","?","?","?","?","?","?","?","?","?","?","?","?","?","?","?","?","?","?","?","?","?","?","?","?","?","?","?","?","?","?","?","?","?","?","?","?","?","?","?","?","?","?","?","?","?","?","?","?","?","?","?","?","?","?","?","?","?","?","?","?","?","?","?","?","?","?","?","?","?","?","?","?","?","?","?","?","?","?","?","?","?","?","?","?","?","?","?","?","?","?","?","?","?","?","?","?","?","?","?","?","?","?","?","?","?","?","?","?","?","?","?","?","?","?","?","?","?","?","?","?","?","?","?","?","?","?","?","?","?","?","?","?","?","?","?","?","?","?","?","?","?","?","?","?","?","?","?","?","?","?","?","?","?","?","?","?","?","?","?","?","?","?","?","?","?","?","?","?","?","?","?","?","?","?","?","?","?","?","?","?","?","?","?","?","?","?","?","?","?","?","?","?","?","?","?","?","?","?","?","?","?","?","?","?","?","?","?","?","?","?","?","?","?","?","?","?","?","?","?","?","?","?","?","?","?","?","?","?","?","?","?","?","?","?","?","?","?","?","?","?","?","?","?","?","?","?","?","?","?","?","?","?","?","?","?","?","?","?","?","?","?","?","?","?","?","?","?","?","?","?","?","?","?","?","?","?","?","?","?","?","?","?","?","?","?","?","?","?","?","?","?","?","?","?","?","?","?","?","?","?","?","?","?","?","?","?","?","?","?","?","?","?","?","?","?","?","?","?","?","?","?","?","?","?","?","?","?","?","?","?","?","?","?","?","?","?","?","?","?","?","?","?","?","?","?","?","?","?","?","?","?","?","?","?","?","?","?","?","?","?","?","?","?","?","?","?","?","?","?","?","?","?","?","?","?","?","?","?","?","?","?","?","?","?","?","?","?","?","?","?","?","?","?","?","?","?","?","?","?","?","?","?","?","?","?","?","?","?","?","?","?","?","?","?","?","?","?","?","?","?","?","?","?","?","?","?","?","?","?","?","?","?","?","?","?","?","?","?","?","?","?","?","?","?","?","?","?","?","?","?","?","?","?","?","?","?","?","?","?","?","?","?","?","?","?","?","?","?","?","?","?","?","?","?","?","?","?","?","?","?","?","?","?","?","?","?","?","?","?","?","?","?","?","?","?","?","?","?","?","?","?","?","?","?","?","?","?","?","?","?","?","?","?","?","?","?","?","?","?","?","?","?","?","?","?","?","?","?","?","?","?","?","?","?","?","?","?","?","?","?","?","?","?","?","?","?","?","?","?","?","?","?","?","?","?","?","?","?","?","?","?","?","?","?","?","?","?","?","?","?","?","?","?","?","?","?","?","?","?","?","?","?","?","?","?","?","?","?","?","?","?","?","?","?","?","?","?","?","?","?","?","?","?","?","?","?","?","?","?","?","?","?","?","?","?","?","?","?","?","?","?","?","?","?","?","?","?","?","?","?","?","?","?","?","?","?","?","?","?","?","?","?","?","?","?","?","?","?","?","?","?","?","?","?","?","?","?","?","?","?","?","?","?","?","?","?","?","?","?","?","?","?","?","?","?","?","?","?","?","?","?","?","?","?","?","?","?","?","?","?","?","?","?","?","?","?","?","?","?","?","?","?","?","?","?","?","?","?","?","?","?","?","?","?","?","?","?","?","?","?","?","?","?","?","?","?","?","?","?","?","?","?","?","?","?","?","?","?","?","?","?","?","?","?","?","?","?","?","?","?","?","?","?","?","?","?","?","?","?","?","?","?","?","?","?","?","?","?","?","?","?","?","?","?","?","?","?","?","?","?","?","?","?","?","?","?","?","?","?","?","?","?","?","?","?","?","?","?","?","?","?","?","?","?","?","?","?","?","?","?","?","?","?","?","?","?","?","?","?","?","?","?","?","?","?","?","?","?","?","?","?","?","?","?","?","?","?","?","?","?","?","?","?","?","?","?","?","?","?","?","?","?","?","?","?","?","?","?","?","?","?","?","?","?","?","?","?","?","?","?","?","?","?","?","?","?","?","?","?","?","?","?","?","?","?","?","?","?","?","?","?","?","?","?","?","?","?","?","?","?","?","?","?","?","?","?","?","?","?","?","?","?","?","?","?","?","?","?","?","?","?","?","?","?","?","?","?","?","?","?","?","?","?","?","?","?","?","?","?","?","?","?","?","?","?","?","?","?","?","?","?","?","?","?","?","?","?","?","?","?","?","?","?","?","?","?","?","?","?","?","?","?","?","?","?","?","?","?","?","?","?","?","?","?","?","?","?","?","?","?","?","?","?","?","?","?","?","?","?","?","?","?","?","?","?","?","?","?","?","?","?","?","?","?","?","?","?","?","?","?","?","?","?","?","?","?","?","?","?","?","?","?","?","?","?","?","?","?","?","?","?","?","?","?","?","?","?","?","?","?","?","?","?","?","?","?","?","?","?","?","?","?","?","?","?","?","?","?","?","?","?","?","?","?","?","?","?","?","?","?","?","?","?","?","?","?","?","?","?","?","?","?","?","?","?","?","?","?","?","?","?","?","?","?","?","?","?","?","?","?","?","?","?","?","?","?","?","?","?","?","?","?","?","?","?","?","?","?","?","?","?","?","?","?","?","?","?","?","?","?","?","?","?","?","?","?","?","?","?","?","?","?","?","?","?","?","?","?","?","?","?","?","?","?","?","?","?","?","?","?","?","?","?","?","?","?","?","?","?","?","?","?","?","?","?","?","?","?","?","?","?","?","?","?","?","?","?","?","?","?","?","?","?","?","?","?","?","?","?","?","?","?","?","?","?","?","?","?","?","?","?","?","?","?","?","?","?","?","?","?","?","?","?","?","?","?","?","?","?","?","?","?","?","?","?","?","?","?","?","?","?","?","?","?","?","?","?","?","?","?","?","?","?","?","?","?","?","?","?","?","?","?","?","?","?","?","?","?","?","?","?","?","?","?","?","?","?","?","?","?","?","?","?","?","?","?","?","?","?","?","?","?","?","?","?","?","?","?","?","?","?","?","?","?","?","?","?","?","?","?","?","?","?","?","?","?","?","?","?","?","?","?","?","?","?","?","?","?","?","?","?","?","?","?","?","?","?","?","?","?","?","?","?","?","?","?","?","?","?","?","?","?","?","?","?","?","?","?","?","?","?","?","?","?","?","?","?","?","?","?","?","?","?","?","?","?","?","?","?","?","?","?","?","?","?","?","?","?","?","?","?","?","?","?","?","?","?","?","?","?","?","?","?","?","?","?","?","?","?","?","?","?","?","?","?","?","?","?","?","?","?","?","?","?","?","?","?","?","?","?","?","?","?","?","?","?","?","?","?","?","?","?","?","?","?","?","?","?","?","?","?","?","?","?","?","?","?","?","?","?","?","?","?","?","?","?","?","?","?","?","?","?","?","?","?","?","?","?","?","?","?","?","?","?","?","?","?","?","?","?","?","?","?","?","?","?","?","?","?","?","?","?","?","?","?","?","?","?","?","?","?","?","?","?","?","?","?","?","?","?","?","?","?","?","?","?","?","?","?","?","?","?","?","?","?","?","?","?","?","?","?","?","?","?","?","?","?","?","?","?","?","?","?","?","?","?","?","?","?","?","?","?","?","?","?","?","?","?","?","?","?","?","?","?","?","?","?","?","?","?","?","?","?","?","?","?","?","?","?","?","?","?","?","?","?","?","?","?","?","?","?","?","?","?","?","?","?","?","?","?","?","?","?","?","?","?","?","?","?","?","?","?","?","?","?","?","?","?","?","?","?","?","?","?","?","?","?","?","?","?","?","?","?","?","?","?","?","?","?","?","?","?","?","?","?","?","?","?","?","?","?","?","?","?","?","?","?","?","?","?","?","?","?","?","?","?","?","?","?","?","?","?","?","?","?","?","?","?","?","?","?","?","?","?","?","?","?","?","?","?","?","?","?","?","?","?","?","?","?","?","?","?","?","?","?","?","?","?","?","?","?","?","?","?","?","?","?","?","?","?","?","?","?","?","?","?","?","?","?","?","?","?","?","?","?","?","?","?","?","?","?","?","?","?","?","?","?","?","?","?","?","?","?","?","?","?","?","?","?","?","?","?","?","?","?","?","?","?","?","?","?","?","?","?","?","?","?","?","?","?","?","?","?","?","?","?","?","?","?","?","?","?","?","?","?","?","?","?","?","?","?","?","?","?","?","?","?","?","?","?","?","?","?","?","?","?","?","?","?","?","?","?","?","?","?","?","?","?","?","?","?","?","?","?","?","?","?","?","?","?","?","?","?","?","?","?","?","?","?","?","?","?","?","?","?","?","?","?","?","?","?","?","?","?","?","?","?","?","?","?","?","?","?","?","?","?","?","?","?","?","?","?","?","?","?","?","?","?","?","?","?","?","?","?","?","?","?","?","?","?","?","?","?","?","?","?","?","?","?","?","?","?","?","?","?","?","?","?","?","?","?","?","?","?","?","?","?","?","?","?","?","?","?","?","?","?","?","?","?","?","?","?","?","?","?","?","?","?","?","?","?","?","?","?","?","?","?","?","?","?","?","?","?","?","?","?","?","?","?","?","?","?","?","?","?","?","?","?","?","?","?","?","?","?","?","?","?","?","?","?","?","?","?","?","?","?","?","?","?","?","?","?","?","?","?","?","?","?","?","?","?","?","?","?","?","?","?","?","?","?","?","?","?","?","?","?","?","?","?","?","?","?","?","?","?","?","?","?","?","?","?","?","?","?","?","?","?","?","?","?","?","?","?","?","?","?","?","?","?","?","?","?","?","?","?","?","?","?","?","?","?","?","?","?","?","?","?","?","?","?","?","?","?","?","?","?","?","?","?","?","?","?","?","?","?","?","?","?","?","?","?","?","?","?","?","?","?","?","?","?","?","?","?","?","?","?","?","?","?","?","?","?","?","?","?","?","?","?","?","?","?","?","?","?","?","?","?","?","?","?","?","?","?","?","?","?","?","?","?","?","?","?","?","?","?","?","?","?","?","?","?","?","?","?","?","?","?","?","?","?","?","?","?","?","?","?","?","?","?","?","?","?","?","?","?","?","?","?","?","?","?","?","?","?","?","?","?","?","?","?","?","?","?","?","?","?","?","?","?","?","?","?","?","?","?","?","?","?","?","?","?","?","?","?","?","?","?","?","?","?","?","?","?","?","?","?","?","?","?","?","?","?","?","?","?","?","?","?","?","?","?","?","?","?","?","?","?","?","?","?","?","?","?","?","?","?","?","?","?","?","?","?","?","?","?","?","?","?","?","?","?","?","?","?","?","?","?","?","?","?","?","?","?","?","?","?","?","?","?","?","?","?","?","?","?","?","?","?","?","?","?","?","?","?","?","?","?","?","?","?","?","?","?","?","?","?","?","?","?","?","?","?","?","?","?","?","?","?","?","?","?","?","?","?","?","?","?","?","?","?","?","?","?","?","?","?","?","?","?","?","?","?","?","?","?","?","?","?","?","?","?","?","?","?","?","?","?","?","?","?","?","?","?","?","?","?","?","?","?","?","?","?","?","?","?","?","?","?","?","?","?","?","?","?","?","?","?","?","?","?","?","?","?","?","?","?","?","?","?","?","?","?","?","?","?","?","?","?","?","?","?","?","?","?","?","?","?","?","?","?","?","?","?","?","?","?","?","?","?","?","?","?","?","?","?","?","?","?","?","?","?","?","?","?","?","?","?","?","?","?","?","?","?","?","?","?","?","?","?","?","?","?","?","?","?","?","?","?","?","?","?","?","?","?","?","?","?","?","?","?","?","?","?","?","?","?","?","?","?","?","?","?","?","?","?","?","?","?","?","?","?","?","?","?","?","?","?","?","?","?","?","?","?","?","?","?","?","?","?","?","?","?","?","?","?","?","?","?","?","?","?","?","?","?","?","?","?","?","?","?","?","?","?","?","?","?","?","?","?","?","?","?","?","?","?","?","?","?","?","?","?","?","?","?","?","?","?","?","?","?","?","?","?","?","?","?","?","?","?","?","?","?","?","?","?","?","?","?","?","?","?","?","?","?","?","?","?","?","?","?","?","?","?","?","?","?","?","?","?","?","?","?","?","?","?","?","?","?","?","?","?","?","?","?","?","?","?","?","?","?","?","?","?","?","?","?","?","?","?","?","?","?","?","?","?","?","?","?","?","?","?","?","?","?","?","?","?","?","?","?","?","?","?","?","?","?","?","?","?","?","?","?","?","?","?","?","?","?","?","?","?","?","?","?","?","?","?","?","?","?","?","?","?","?","?","?","?","?","?","?","?","?","?","?","?","?","?","?","?","?","?","?","?","?","?","?","?","?","?","?","?","?","?","?","?","?","?","?","?","?","?","?","?","?","?","?","?","?","?","?","?","?","?","?","?","?","?","?","?","?","?","?","?","?","?","?","?","?","?","?","?","?","?","?","?","?","?","?","?","?","?","?","?","?","?","?","?","?","?","?","?","?","?","?","?","?","?","?","?","?","?","?","?","?","?","?","?","?","?","?","?","?","?","?","?","?","?","?","?","?","?","?","?","?","?","?","?","?","?","?","?","?","?","?","?","?","?","?","?","?","?","?","?","?","?","?","?","?","?","?","?","?","?","?","?","?","?","?","?","?","?","?","?","?","?","?","?","?","?","?","?","?","?","?","?","?","?","?","?","?","?","?","?","?","?","?","?","?","?","?","?","?","?","?","?","?","?","?","?","?","?","?","?","?","?","?","?","?","?","?","?","?","?","?","?","?","?","?","?","?","?","?","?","?","?","?","?","?","?","?","?","?","?","?","?","?","?","?","?","?","?","?","?","?","?","?","?","?","?","?","?","?","?","?","?","?","?","?","?","?","?","?","?","?","?","?","?","?","?","?","?","?","?","?","?","?","?","?","?","?","?","?","?","?","?","?","?","?","?","?","?","?","?","?","?","?","?","?","?","?","?","?","?","?","?","?","?","?","?","?","?","?","?","?","?","?","?","?","?","?","?","?","?","?","?","?","?","?","?","?","?","?","?","?","?","?","?","?","?","?","?","?","?","?","?","?","?","?","?","?","?","?","?","?","?","?","?","?","?","?","?","?","?","?","?","?","?","?","?","?","?","?","?","?","?","?","?","?","?","?","?","?","?","?","?","?","?","?","?","?","?","?","?","?","?","?","?","?","?","?","?","?","?","?","?","?","?","?","?","?","?","?","?","?","?","?","?","?","?","?","?","?","?","?","?","?","?","?","?","?","?","?","?","?","?","?","?","?","?","?","?","?","?","?","?","?","?","?","?","?","?","?","?","?","?","?","?","?","?","?","?","?","?","?","?","?","?","?","?","?","?","?","?","?","?","?","?","?","?","?","?","?","?","?","?","?","?","?","?","?","?","?","?","?","?","?","?","?","?","?","?","?","?","?","?","?","?","?","?","?","?","?","?","?","?","?","?","?","?","?","?","?","?","?","?","?","?","?","?","?","?","?","?","?","?","?","?","?","?","?","?","?","?","?","?","?","?","?","?","?","?","?","?","?","?","?","?","?","?","?","?","?","?","?","?","?","?","?","?","?","?","?","?","?","?","?","?","?","?","?","?","?","?","?","?","?","?","?","?","?","?","?","?","?","?","?","?","?","?","?","?","?","?","?","?","?","?","?","?","?","?","?","?","?","?","?","?","?","?","?","?","?","?","?","?","?","?","?","?","?","?","?","?","?","?","?","?","?","?","?","?","?","?","?","?","?","?","?","?","?","?","?","?","?","?","?","?","?","?","?","?","?","?","?","?","?","?","?","?","?","?","?","?","?","?","?","?","?","?","?","?","?","?","?","?","?","?","?","?","?","?","?","?","?","?","?","?","?","?","?","?","?","?","?","?","?","?","?","?","?","?","?","?","?","?","?","?","?","?","?","?","?","?","?","?","?","?","?","?","?","?","?","?","?","?","?","?","?","?","?","?","?","?","?","?","?","?","?","?","?","?","?","?","?","?","?","?","?","?","?","?","?","?","?","?","?","?","?","?","?","?","?","?","?","?","?","?","?","?","?","?","?","?","?","?","?","?","?","?","?","?","?","?","?","?","?","?","?","?","?","?","?","?","?","?","?","?","?","?","?","?","?","?","?","?","?","?","?","?","?","?","?","?","?","?","?","?","?","?","?","?","?","?","?","?","?","?","?","?","?","?","?","?","?","?","?","?","?","?","?","?","?","?","?","?","?","?","?","?","?","?","?","?","?","?","?","?","?","?","?","?","?","?","?","?","?","?","?","?","?","?","?","?","?","?","?","?","?","?","?","?","?","?","?","?","?","?","?","?","?","?","?","?","?","?","?","?","?","?","?","?","?","?","?","?","?","?","?","?","?","?","?","?","?","?","?","?","?","?","?","?","?","?","?","?","?","?","?","?","?","?","?","?","?","?","?","?","?","?","?","?","?","?","?","?","?","?","?","?","?","?","?","?","?","?","?","?","?","?","?","?","?","?","?","?","?","?","?","?","?","?","?","?","?","?","?","?","?","?","?","?","?","?","?","?","?","?","?","?","?","?","?","?","?","?","?","?","?","?","?","?","?","?","?","?","?","?","?","?","?","?","?","?","?","?","?","?","?","?","?","?","?","?","?","?","?","?","?","?","?","?","?","?","?","?","?","?","?","?","?","?","?","?","?","?","?","?","?","?","?","?","?","?","?","?","?","?","?","?","?","?","?","?","?","?","?","?","?","?","?","?","?","?","?","?","?","?","?","?","?","?","?","?","?","?","?","?","?","?","?","?","?","?","?","?","?","?","?","?","?","?","?","?","?","?","?","?","?","?","?","?","?","?","?","?","?","?","?","?","?","?","?","?","?","?","?","?","?","?","?","?","?","?","?","?","?","?","?","?","?","?","?","?","?","?","?","?","?","?","?","?","?","?","?","?","?","?","?","?","?","?","?","?","?","?","?","?","?","?","?","?","?","?","?","?","?","?","?","?","?","?","?","?","?","?","?","?","?","?","?","?","?","?","?","?","?","?","?","?","?","?","?","?","?","?","?","?","?","?","?","?","?","?","?","?","?","?","?","?","?","?","?","?","?","?","?","?","?","?","?","?","?","?","?","?","?","?","?","?","?","?","?","?","?","?","?","?","?","?","?","?","?","?","?","?","?","?","?","?","?","?","?","?","?","?","?","?","?","?","?","?","?","?","?","?","?","?","?","?","?","?","?","?","?","?","?","?","?","?","?","?","?","?","?","?","?","?","?","?","?","?","?","?","?","?","?","?","?","?","?","?","?","?","?","?","?","?","?","?","?","?","?","?","?","?","?","?","?","?","?","?","?","?","?","?","?","?","?","?","?","?","?","?","?","?","?","?","?","?","?","?","?","?","?","?","?","?","?","?","?","?","?","?","?","?","?","?","?","?","?","?","?","?","?","?","?","?","?","?","?","?","?","?","?","?","?","?","?","?","?","?","?","?","?","?","?","?","?","?","?","?","?","?","?","?","?","?","?","?","?","?","?","?","?","?","?","?","?","?","?","?","?","?","?","?","?","?","?","?","?","?","?","?","?","?","?","?","?","?","?","?","?","?","?","?","?","?","?","?","?","?","?","?","?","?","?","?","?","?","?","?","?","?","?","?","?","?","?","?","?","?","?","?","?","?","?","?","?","?","?","?","?","?","?","?","?","?","?","?","?","?","?","?","?","?","?","?","?","?","?","?","?","?","?","?","?","?","?","?","?","?","?","?","?","?","?","?","?","?","?","?","?","?","?","?","?","?","?","?",