[{"success":true,"trial_type":"fullscreen","trial_index":0,"time_elapsed":4425,"internal_node_id":"0.0-0.0","protocol_sum":"","subject_identifier":429,"subject_sum":[128,43,144,106,24,89,30,173,138,109,216,9,178,98,172,228,198,92,22,232,151,100,196,10,227,38,207,207,248,17,225,12],"subject_pair":214,"STUDY_ID":"66a22c0758a3d5c9d26873c6","PROLIFIC_PID":"668ccc0547aefd19511d7780","SESSION_ID":"66a2cc6bc633037f5273c075","practice_instructions":1,"leaderboard_instructions":1,"bonus":0,"reveal_word":true,"self_rating":"3","confidence":"67"},{"view_history":"[{\"page_index\":0,\"viewing_time\":15507.700000017881}]","rt":15508.90000000596,"trial_type":"instructions","trial_index":1,"time_elapsed":19936,"internal_node_id":"0.0-1.0","protocol_sum":"","subject_identifier":429,"subject_sum":[128,43,144,106,24,89,30,173,138,109,216,9,178,98,172,228,198,92,22,232,151,100,196,10,227,38,207,207,248,17,225,12],"subject_pair":214,"STUDY_ID":"66a22c0758a3d5c9d26873c6","PROLIFIC_PID":"668ccc0547aefd19511d7780","SESSION_ID":"66a2cc6bc633037f5273c075","practice_instructions":1,"leaderboard_instructions":1,"bonus":0,"reveal_word":true,"self_rating":"3","confidence":"67"},{"view_history":"[{\"page_index\":0,\"viewing_time\":21052.80000001192}]","rt":21053.20000001788,"trial_type":"instructions","trial_index":2,"time_elapsed":40991,"internal_node_id":"0.0-2.0-0.0","protocol_sum":"","subject_identifier":429,"subject_sum":[128,43,144,106,24,89,30,173,138,109,216,9,178,98,172,228,198,92,22,232,151,100,196,10,227,38,207,207,248,17,225,12],"subject_pair":214,"STUDY_ID":"66a22c0758a3d5c9d26873c6","PROLIFIC_PID":"668ccc0547aefd19511d7780","SESSION_ID":"66a2cc6bc633037f5273c075","practice_instructions":1,"leaderboard_instructions":1,"bonus":0,"reveal_word":true,"self_rating":"3","confidence":"67"},{"rt":11300.300000011921,"responses":"{\"Q0\":\"... reveal the word with as <b>few letter guesses</b> as possible\"}","question_order":"[0]","trial_type":"survey-multi-choice","trial_index":3,"time_elapsed":52294,"internal_node_id":"0.0-2.0-1.0","protocol_sum":"","subject_identifier":429,"subject_sum":[128,43,144,106,24,89,30,173,138,109,216,9,178,98,172,228,198,92,22,232,151,100,196,10,227,38,207,207,248,17,225,12],"subject_pair":214,"correct":true,"test_part":"multichoice_nonpretend","STUDY_ID":"66a22c0758a3d5c9d26873c6","PROLIFIC_PID":"668ccc0547aefd19511d7780","SESSION_ID":"66a2cc6bc633037f5273c075","practice_instructions":1,"leaderboard_instructions":1,"bonus":0,"reveal_word":true,"self_rating":"3","confidence":"67"},{"view_history":"[{\"page_index\":0,\"viewing_time\":2032.199999988079}]","rt":2032.5999999940395,"trial_type":"instructions","trial_index":4,"time_elapsed":54330,"internal_node_id":"0.0-3.0","protocol_sum":"","subject_identifier":429,"subject_sum":[128,43,144,106,24,89,30,173,138,109,216,9,178,98,172,228,198,92,22,232,151,100,196,10,227,38,207,207,248,17,225,12],"subject_pair":214,"STUDY_ID":"66a22c0758a3d5c9d26873c6","PROLIFIC_PID":"668ccc0547aefd19511d7780","SESSION_ID":"66a2cc6bc633037f5273c075","practice_instructions":1,"leaderboard_instructions":1,"bonus":0,"reveal_word":true,"self_rating":"3","confidence":"67"},{"word":"ZEBRA","click_log":{"letter":["","T","I","G","E","Z","B","R","A"],"t":[0,9628,15826.90000000596,16932.69999998808,18206.59999999404,23746.40000000596,25486.19999998808,27862,29106.40000000596],"hit":[null,0,0,0,1,1,1,1,1],"asked":["","T","TI","TIG","TIGE","TIGEZ","TIGEZB","TIGEZBR","TIGEZBRA"],"word_state":["_____","_____","_____","_____","_E___","ZE___","ZEB__","ZEBR_","ZEBRA"]},"hover_log":{"letter":["?","?","?","?","?","?","?","?","?","?","?","?","?","?","?","?","?","?","?","?","?","?","?","?","?","?","?","?","?","?","?","?","?","?","?","?","?","?","?","?","?","?","?","?","?","?","?","?","?","?","?","?","?","?","?","?","?","?","?","?","?","?","?","?","?","?","?","?","?","?","?","?","?","?","?","?","?","?","?","?","?","?","?","?","?","?","?","?","?","?","?","?","?","?","?","?","?","?","?","?","?","?","?","?","?","?","?","?","?","?","?","?","?","?","?","?","?","?","?","?","?","?","?","?","?","?","?","?","?","?","?","?","?","?","?","?","?","?","?","?","?","?","?","?","?","?","?","?","?","?","?","?","?","?","?","?","?","?","?","?","?","?","?","?","?","?","?","?","?","?","?","?","?","?","?","?","?","?","?","?","?","?","?","?","?","?","?","?","?","?","?","?","?","?","?","?","?","?","?","?","?","?","?","?","?","?","?","?","?","?","?","?","?","?","?","?","?","?","?","?","?","?","?","?","?","?","?","?","?","?","?","?","?","?","?","?","?","?","?","?","?","?","?","?","?","?","?","?","?","?","?","?","?","?","?","?","?","?","?","?","?","?","?","?","?","?","?","?","?","?","?","?","?","?","?","?","?","?","?","?","?","?","?","?","?","?","?","?","?","?","?","?","?","?","?","?","?","?","?","?","?","?","?","?","?","?","?","?","?","?","?","?","?","?","?","?","?","?","?","?","?","?","?","?","?","?","?","?","?","?","?","?","?","?","?","?","?","?","?","?","?","?","?","?","?","?","?","?","?","?","?","?","?","?","?","?","?","?","?","?","?","?","?","?","?","?","?","?","?","?","?","?","?","?","?","?","J","J","?","K","K","?","L","L","L","L","L","L","L","L","L","L","L","L","L","L","L","L","L","L","L","L","L","L","L","L","L","L","L","L","L","L","?","K","K","K","K","K","K","K","K","K","K","?","?","?","U","U","U","U","U","U","U","U","U","U","U","U","U","U","U","U","?","?","?","?","?","T","?","T","T","T","T","T","T","T","T","T","T","T","T","T","T","T","T","T","T","T","T","T","T","T","T","T","T","T","T","T","T","T","T","T","T","T","T","T","T","T","T","T","T","T","T","T","T","T","T","T","T","T","T","T","T","T","T","T","T","T","?","?","?","?","?","?","?","?","?","?","?","?","?","?","?","?","?","?","?","?","?","?","?","?","?","?","?","?","?","?","?","?","?","T","T","T","T","T","T","T","T","T","T","T","T","T","T","T","T","T","T","T","T","T","T","T","T","T","T","T","T","T","T","T","T","T","T","T","T","T","T","T","T","T","T","T","T","T","T","T","T","T","T","T","T","T","T","T","T","T","T","T","T","T","T","T","T","T","T","T","T","T","T","T","T","T","T","T","T","T","T","T","T","T","T","T","T","T","T","T","T","T","T","T","T","T","T","T","T","T","T","T","T","T","T","T","T","T","T","T","T","T","T","T","T","T","T","T","T","T","T","T","T","T","T","T","T","T","T","T","T","T","T","T","T","T","T","T","T","T","T","T","T","T","T","T","T","T","T","T","T","T","T","T","T","T","T","T","T","T","T","T","T","T","T","T","T","T","T","T","T","T","T","T","T","T","T","T","T","T","T","T","T","T","T","T","T","T","K","?","?","?","?","?","?","?","?","?","?","?","?","?","?","?","?","?","?","?","?","?","?","?","?","?","?","?","?","?","?","?","?","?","?","?","?","?","?","?","?","?","?","?","?","?","?","?","?","?","?","?","?","?","?","?","?","?","?","?","?","?","?","?","?","?","?","?","?","?","?","?","?","?","?","?","?","?","?","?","?","?","?","?","?","?","?","?","?","?","?","?","?","?","?","?","?","?","?","?","?","?","?","?","?","?","?","L","U","?","?","?","?","?","?","?","?","?","?","?","?","?","?","?","?","?","?","?","?","?","?","?","?","?","?","?","?","?","?","?","?","?","?","?","?","?","?","T","?","?","?","U","?","M","N","?","?","?","?","I","?","?","?","?","?","?","?","?","?","?","?","?","?","?","?","?","?","?","?","I","I","I","I","I","I","I","I","I","I","I","I","I","I","I","I","I","I","I","I","I","I","I","I","I","I","I","I","I","I","I","I","I","I","I","I","I","I","I","I","I","I","I","I","I","I","I","I","I","I","I","I","I","I","I","I","I","I","I","I","I","I","H","H","?","G","G","G","G","G","G","G","G","G","G","G","G","G","G","G","G","G","G","G","G","G","G","G","G","G","G","G","G","G","G","G","G","G","G","G","G","G","G","G","G","G","G","G","G","G","G","G","G","G","G","G","G","G","G","G","G","G","G","G","G","?","F","?","E","E","E","E","E","E","E","E","E","?","?","?","?","?","?","?","?","?","?","?","?","?","E","E","E","E","E","E","E","E","E","E","E","E","E","E","E","E","E","E","E","E","E","E","E","E","E","E","E","E","E","E","E","E","E","E","E","E","E","E","E","E","E","E","E","E","E","E","E","E","E","E","E","E","E","E","E","E","E","E","?","?","?","?","?","P","P","P","P","P","P","P","?","?","?","?","?","?","?","?","?","?","?","?","?","?","?","?","?","?","?","?","?","?","?","?","?","?","?","?","?","?","?","?","?","?","?","?","?","?","?","?","?","?","?","?","?","?","?","?","?","?","?","?","?","?","?","?","?","?","?","Y","Y","Y","?","?","?","?","?","?","?","?","?","?","?","?","?","?","?","?","?","?","?","?","?","?","?","?","?","?","?","?","?","?","?","?","?","?","?","?","?","?","?","?","?","?","?","?","?","?","?","?","?","?","?","?","?","?","?","?","?","?","?","?","?","?","?","?","?","?","?","?","?","?","?","?","?","?","?","?","?","?","?","?","?","?","?","?","?","?","?","?","?","?","?","?","?","?","?","?","?","?","?","?","X","X","X","X","?","W","W","W","?","V","V","V","V","?","?","?","?","?","?","?","?","K","K","K","K","K","K","K","K","K","K","K","K","?","?","?","?","?","?","?","?","?","?","?","?","?","?","S","S","S","S","S","S","S","S","S","S","S","S","S","S","S","S","S","S","S","S","S","S","S","S","S","?","T","T","U","U","U","?","V","W","?","?","?","?","?","?","?","?","?","?","?","?","?","?","?","?","?","?","?","Z","Z","Z","Z","Z","Z","Z","Z","Z","Z","Z","Z","Z","Z","Z","Z","Z","Z","Z","Z","Z","Z","Z","Z","Z","Z","Z","Z","Z","Z","Z","Z","Z","Z","Z","Z","Z","Z","Z","Z","Z","Z","Z","Z","Z","Z","Z","Z","Z","Z","Z","Z","Z","Z","Z","Z","Z","Z","Z","Z","Z","Z","?","Y","Y","?","?","?","?","?","O","O","O","O","?","N","N","N","N","N","N","?","?","?","?","?","D","D","D","D","D","?","?","?","?","?","C","C","C","C","C","C","C","?","B","B","B","B","B","B","B","B","B","B","B","B","B","B","B","B","B","B","B","B","B","B","B","B","B","B","B","B","B","B","B","B","B","B","B","B","B","B","B","B","B","B","B","B","B","B","B","B","B","B","B","B","B","C","D","E","?","?","?","?","?","?","?","?","?","?","?","?","?","?","?","?","?","?","Q","Q","R","?","?","?","?","?","?","?","?","?","?","?","?","?","?","?","?","?","?","?","?","?","?","?","?","?","?","?","?","?","?","?","?","?","?","?","?","?","?","?","?","?","?","?","?","?","?","?","?","?","?","?","?","?","?","?","?","?","?","?","?","?","?","?","?","?","?","?","?","R","R","R","R","R","R","R","R","R","R","R","R","R","R","R","R","R","R","R","R","R","R","R","R","R","R","R","R","R","R","R","R","R","R","R","R","R","R","R","R","R","R","R","R","R","?","?","?","?","?","?","?","B","?","?","?","A","?","?","?","?","?","?","?","?","?","?","?","?","?","?","?","?","?","?","?","A","A","A","A","A","A","A","A","A","A","A","A","A","A","A","A","A","A","A","A","A","A","A","A","A","A","A","A","A","A","A","A","A","A","A","A","A","A","A","A","A","A","A","A","A","A","A","A","A","A","A","A","A","A","A","A","A","A","A","A","A","A","A","A","A","A","A","A","A","A","A","A","A","A","A","A","A","A","A","A","A","A","A","A","A","A","A","A","A","A","?","?","?","?","?","?","?","?","?","?","?","?","?","?","?","?","?","?","?","?","?","?","?","?","?","?","?","?","?","?","?","?","?","?","?","?","?","?","?","?","?","?","?","?","?","?","?","?","?","?","?","?"],"t":[48,64,85,111,136,160,179,200,223,243,258,276,292,309,325,343,359,376,394,409,425,442,459,477,493,510,527,543,559,577,592,610,626,643,659,676,691,709,726,752,767,781,799,810,825,845,859,876,893,909,926,944,960,976,995,1010,1027,1043,1060,1076,1094,1110,1128,1144,1160,1178,1193,1210,1226,1243,1261,1279,1294,1311,1328,1343,1361,1377,1395,1411,1427,1444,1461,1478,1495,1512,1528,1544,1561,1578,1595,1611,1628,1644,1661,1679,1696,1712,1729,1745,1762,1779,1795,1812,1828,1845,1862,1880,1895,1913,1929,1945,1963,1979,1995,2011,2028,2045,2063,2079,2098,2116,2133,2152,2171,2179,2196,2213,2230,2246,2262,2280,2296,2314,2330,2346,2363,2378,2397,2412,2431,2446,2464,2481,2497,2514,2530,2547,2564,2580,2597,2614,2630,2647,2664,2681,2698,2715,2730,2746,2764,2780,2798,2814,2830,2846,2864,2881,2898,2915,2931,2947,2964,2982,2997,3015,3032,3048,3065,3083,3097,3116,3132,3148,3165,3182,3198,3214,3231,3250,3265,3283,3298,3316,3332,3348,3366,3383,3399,3416,3431,3452,3470,3485,3501,3517,3543,3550,3566,3583,3599,3617,3633,3650,3665,3683,3700,3717,3733,3750,3766,3783,3801,3815,3834,3851,3867,3885,3899,3917,3933,3951,3967,3984,4001,4017,4034,4051,4068,4084,4100,4117,4135,4151,4168,4184,4200,4219,4235,4251,4268,4285,4301,4318,4335,4350,4368,4385,4402,4418,4435,4451,4469,4485,4503,4518,4535,4551,4569,4585,4603,4619,4637,4652,4669,4686,4703,4719,4736,4752,4768,4787,4803,4820,4836,4853,4873,4897,4914,4925,4944,4953,4969,4985,5003,5020,5036,5055,5070,5087,5104,5120,5136,5153,5171,5187,5202,5221,5237,5254,5271,5287,5304,5320,5337,5354,5371,5386,5405,5421,5438,5454,5472,5488,5504,5522,5537,5555,5571,5589,5605,5622,5637,5656,5670,5688,5706,5722,5739,5756,5771,5788,5806,5822,5839,5856,5872,5889,5905,5923,5939,5956,5972,5989,6006,6023,6039,6055,6072,6089,6107,6123,6140,6157,6172,6191,6206,6226,6243,6257,6276,6294,6318,6325,6339,6357,6384,6392,6407,6425,6440,6458,6475,6492,6508,6526,6542,6558,6575,6591,6608,6625,6643,6658,6676,6692,6708,6725,6742,6758,6774,6792,6809,6824,6843,6858,6876,6892,6910,6926,6944,6958,6976,6994,7010,7026,7045,7058,7076,7093,7110,7126,7143,7160,7177,7192,7209,7228,7243,7259,7276,7292,7310,7326,7343,7359,7377,7392,7409,7427,7443,7459,7475,7494,7510,7527,7543,7562,7579,7601,7621,7634,7654,7660,7677,7694,7711,7727,7743,7760,7778,7794,7810,7827,7844,7861,7878,7895,7911,7927,7945,7961,7978,7994,8012,8028,8044,8063,8077,8094,8111,8128,8144,8160,8178,8195,8211,8228,8245,8263,8277,8295,8313,8329,8346,8361,8378,8396,8412,8430,8445,8462,8479,8495,8512,8530,8546,8563,8578,8597,8613,8630,8646,8662,8680,8697,8713,8730,8746,8764,8781,8796,8815,8831,8846,8863,8880,8897,8913,8930,8947,8967,8986,9000,9022,9032,9053,9064,9082,9097,9114,9131,9147,9164,9182,9200,9218,9230,9248,9265,9281,9298,9315,9332,9349,9366,9382,9400,9416,9431,9448,9465,9483,9499,9515,9531,9548,9565,9583,9599,9617,9633,9651,9667,9683,9699,9717,9734,9751,9767,9784,9801,9816,9834,9850,9868,9883,9901,9916,9933,9949,9968,9982,10002,10017,10035,10050,10067,10084,10100,10118,10134,10152,10168,10185,10201,10218,10234,10250,10268,10284,10301,10329,10347,10359,10370,10395,10402,10418,10433,10452,10467,10485,10502,10518,10535,10553,10567,10584,10602,10617,10635,10652,10668,10686,10702,10718,10734,10752,10769,10784,10803,10818,10836,10852,10869,10885,10902,10918,10935,10953,10969,10987,11002,11019,11035,11053,11069,11086,11103,11120,11135,11154,11171,11186,11204,11219,11236,11254,11270,11286,11304,11320,11336,11354,11370,11386,11403,11420,11438,11453,11471,11487,11504,11520,11537,11555,11571,11587,11604,11621,11638,11654,11672,11687,11706,11721,11742,11757,11774,11797,11804,11821,11839,11855,11870,11889,11904,11921,11938,11955,11972,11989,12004,12021,12039,12056,12072,12089,12104,12121,12138,12157,12172,12189,12206,12222,12238,12256,12272,12290,12305,12323,12340,12357,12374,12390,12406,12422,12440,12455,12474,12491,12507,12524,12541,12556,12574,12590,12608,12623,12640,12656,12674,12691,12708,12724,12741,12757,12776,12790,12808,12824,12841,12857,12874,12891,12908,12925,12946,12967,12975,12997,13017,13025,13043,13058,13074,13093,13108,13126,13142,13159,13176,13191,13208,13226,13243,13259,13276,13291,13310,13325,13343,13358,13376,13392,13409,13426,13443,13462,13476,13493,13510,13527,13543,13561,13576,13593,13610,13625,13644,13659,13677,13692,13711,13728,13743,13761,13777,13794,13809,13827,13844,13861,13877,13894,13910,13927,13944,13961,13977,13994,14012,14027,14044,14060,14079,14095,14111,14127,14144,14160,14178,14195,14211,14228,14246,14261,14283,14297,14316,14330,14346,14361,14384,14396,14412,14429,14445,14463,14480,14496,14513,14529,14545,14562,14579,14596,14613,14630,14645,14663,14680,14695,14713,14729,14745,14762,14779,14796,14814,14830,14846,14862,14881,14897,14913,14930,14946,14963,14979,14996,15014,15030,15048,15064,15081,15098,15113,15130,15147,15164,15181,15197,15214,15231,15248,15265,15280,15298,15314,15331,15348,15364,15382,15398,15415,15431,15449,15465,15481,15498,15515,15531,15548,15565,15581,15598,15615,15632,15649,15665,15681,15701,15718,15733,15752,15775,15782,15799,15816,15832,15848,15866,15885,15899,15916,15933,15949,15966,15981,16000,16016,16033,16049,16067,16082,16100,16115,16133,16150,16166,16183,16199,16216,16233,16251,16268,16283,16300,16317,16333,16350,16366,16384,16401,16419,16433,16449,16467,16484,16501,16517,16534,16551,16568,16584,16602,16619,16634,16652,16668,16685,16702,16718,16734,16751,16769,16785,16802,16819,16835,16853,16870,16885,16902,16918,16936,16951,16969,16985,17002,17019,17035,17053,17069,17086,17106,17120,17143,17154,17169,17185,17202,17219,17235,17253,17269,17286,17303,17319,17337,17352,17369,17386,17404,17419,17436,17454,17470,17486,17504,17520,17537,17554,17570,17587,17604,17620,17637,17654,17671,17687,17705,17720,17737,17753,17771,17788,17804,17821,17838,17855,17872,17887,17904,17926,17937,17956,17971,17989,18005,18022,18038,18056,18072,18089,18105,18121,18138,18154,18173,18196,18216,18224,18238,18258,18274,18290,18306,18323,18340,18357,18373,18390,18417,18440,18455,18472,18488,18504,18522,18538,18556,18571,18589,18605,18622,18638,18656,18672,18689,18705,18723,18739,18756,18774,18789,18806,18823,18839,18857,18874,18891,18907,18923,18940,18956,18973,18990,19006,19022,19040,19056,19074,19089,19106,19123,19139,19157,19173,19191,19206,19224,19240,19257,19274,19291,19306,19324,19340,19358,19374,19391,19407,19425,19440,19457,19474,19492,19507,19525,19541,19559,19575,19592,19607,19625,19641,19659,19674,19692,19710,19731,19747,19759,19777,19793,19811,19826,19843,19859,19876,19894,19911,19927,19944,19960,19976,19993,20011,20027,20043,20061,20078,20094,20111,20128,20144,20160,20178,20194,20210,20227,20244,20261,20278,20295,20310,20327,20344,20361,20378,20394,20410,20428,20445,20461,20478,20495,20511,20529,20545,20562,20578,20595,20612,20629,20645,20662,20679,20695,20713,20729,20746,20762,20779,20795,20813,20829,20846,20863,20879,20896,20913,20929,20946,20963,20980,20996,21012,21030,21046,21067,21081,21101,21116,21134,21146,21164,21181,21197,21213,21229,21247,21262,21281,21297,21314,21331,21346,21364,21381,21397,21413,21430,21447,21464,21480,21498,21515,21530,21549,21565,21581,21598,21614,21631,21647,21665,21681,21698,21716,21732,21748,21764,21782,21798,21815,21832,21849,21865,21882,21899,21915,21932,21948,21966,21981,21998,22016,22031,22049,22066,22082,22098,22116,22132,22149,22165,22183,22200,22215,22233,22250,22266,22282,22300,22317,22334,22351,22367,22383,22401,22415,22436,22456,22475,22495,22502,22517,22533,22551,22568,22583,22600,22617,22633,22650,22667,22684,22701,22717,22733,22751,22768,22784,22800,22818,22834,22851,22868,22885,22901,22918,22935,22951,22968,22985,23001,23018,23035,23051,23069,23085,23102,23118,23136,23152,23169,23186,23203,23217,23236,23253,23269,23285,23302,23319,23336,23353,23369,23386,23403,23419,23436,23453,23469,23486,23503,23520,23536,23553,23570,23585,23604,23620,23637,23652,23670,23686,23702,23720,23738,23754,23770,23787,23804,23822,23840,23861,23874,23886,23904,23920,23937,23953,23970,23987,24005,24021,24038,24054,24072,24087,24105,24121,24138,24155,24171,24187,24203,24222,24239,24255,24271,24288,24305,24322,24339,24355,24372,24389,24406,24421,24439,24455,24472,24488,24505,24522,24539,24556,24572,24589,24606,24623,24640,24655,24673,24689,24705,24722,24740,24756,24772,24790,24806,24822,24840,24856,24874,24889,24907,24922,24941,24957,24973,24990,25008,25023,25040,25057,25076,25092,25110,25128,25141,25159,25174,25191,25207,25225,25241,25258,25274,25291,25308,25324,25340,25356,25375,25391,25408,25424,25440,25458,25474,25492,25507,25526,25542,25558,25575,25592,25608,25626,25642,25659,25676,25692,25709,25726,25743,25759,25775,25791,25808,25826,25843,25859,25876,25893,25909,25925,25942,25959,25976,25994,26011,26027,26043,26059,26076,26093,26110,26127,26143,26160,26178,26193,26209,26228,26244,26260,26277,26294,26310,26327,26344,26359,26377,26395,26411,26426,26453,26472,26485,26498,26513,26527,26545,26561,26578,26594,26610,26629,26644,26661,26678,26695,26711,26729,26744,26761,26779,26794,26813,26829,26845,26862,26879,26896,26912,26928,26945,26961,26979,26995,27012,27030,27044,27062,27079,27096,27112,27129,27146,27162,27181,27197,27212,27230,27246,27262,27279,27297,27313,27330,27347,27364,27381,27397,27414,27431,27447,27464,27481,27497,27515,27531,27547,27564,27580,27597,27613,27631,27646,27665,27681,27698,27714,27731,27748,27764,27791,27808,27827,27836,27850,27864,27881,27899,27913,27933,27948,27964,27981,27998,28015,28031,28048,28066,28083,28098,28116,28131,28148,28165,28183,28200,28215,28233,28250,28266,28283,28300,28316,28335,28350,28366,28383,28399,28416,28433,28450,28466,28484,28499,28517,28533,28550,28567,28583,28599,28616,28634,28649,28666,28684,28701,28717,28735,28750,28767,28785,28800,28817,28837,28850,28867,28885,28901,28918,28935,28950,28967,28985,29002,29018,29035,29051,29097,29113,29124,29145,29168,29184,29200,29216,29233,29250,29267,29283,29301,29316,29334,29350,29368,29384,29401,29418,29435,29451,29468,29483,29502,29518,29535,29550,29569,29584,29602,29617,29635,29652,29668,29685,29701,29719,29734,29751,29769,29785,29802,29818,29834,29852,29869,29885,29902,29919,29935,29952,29969,29987,30002,30020,30035,30053,30069,30087,30102,30120,30136,30154,30169,30187,30203,30220,30236,30254,30270,30288,30304,30323,30341,30359,30374,30395,30421,30437,30454,30471,30487,30503,30521,30537,30553,30571,30587,30604,30620,30638,30653,30671,30687,30704,30721,30738,30754,30772,30787,30805,30821,30838,30854,30873,30887,30905,30921,30938,30956,30971,30989,31004,31022,31038,31055,31071,31089,31105,31125],"hit":[null],"x":[-1.8775510204081634,-1.8775510204081634,-1.8775510204081634,-1.8775510204081634,-1.8775510204081634,-1.8775510204081634,-1.8775510204081634,-1.8775510204081634,-1.8775510204081634,-1.8775510204081634,-1.8775510204081634,-1.8775510204081634,-1.8775510204081634,-1.8775510204081634,-1.8775510204081634,-1.8775510204081634,-1.8775510204081634,-1.8775510204081634,-1.8775510204081634,-1.8775510204081634,-1.8775510204081634,-1.8775510204081634,-1.8775510204081634,-1.8775510204081634,-1.8775510204081634,-1.8775510204081634,-1.8775510204081634,-1.8775510204081634,-1.8775510204081634,-1.8775510204081634,-1.8775510204081634,-1.8775510204081634,-1.8775510204081634,-1.8775510204081634,-1.8775510204081634,-1.8775510204081634,-1.8775510204081634,-1.8775510204081634,-1.8775510204081634,-1.8775510204081634,-1.8775510204081634,-1.8775510204081634,-1.8775510204081634,-1.8775510204081634,-1.8775510204081634,-1.8775510204081634,-1.8775510204081634,-1.8775510204081634,-1.8775510204081634,-1.8775510204081634,-1.8775510204081634,-1.8775510204081634,-1.8775510204081634,-1.8775510204081634,-1.8775510204081634,-1.8775510204081634,-1.8775510204081634,-1.8775510204081634,-1.8775510204081634,-1.8775510204081634,-1.8775510204081634,-1.8775510204081634,-1.8775510204081634,-1.8775510204081634,-1.8775510204081634,-1.8775510204081634,-1.8775510204081634,-1.8775510204081634,-1.8775510204081634,-1.8775510204081634,-1.8775510204081634,-1.8775510204081634,-1.8775510204081634,-1.8775510204081634,-1.8775510204081634,-1.8775510204081634,-1.8775510204081634,-1.8775510204081634,-1.8775510204081634,-1.8775510204081634,-1.8775510204081634,-1.8775510204081634,-1.8775510204081634,-1.8775510204081634,-1.8775510204081634,-1.8775510204081634,-1.8775510204081634,-1.8775510204081634,-1.8775510204081634,-1.8775510204081634,-1.8775510204081634,-1.8775510204081634,-1.8775510204081634,-1.8775510204081634,-1.8775510204081634,-1.8775510204081634,-1.8775510204081634,-1.8775510204081634,-1.8775510204081634,-1.8775510204081634,-1.8775510204081634,-1.8775510204081634,-1.8775510204081634,-1.8775510204081634,-1.8775510204081634,-1.8775510204081634,-1.8775510204081634,-1.8775510204081634,-1.8775510204081634,-1.8775510204081634,-1.8775510204081634,-1.8775510204081634,-1.8775510204081634,-1.8775510204081634,-1.8775510204081634,-1.8775510204081634,-1.8775510204081634,-1.8775510204081634,-1.8775510204081634,-1.8775510204081634,-1.8775510204081634,-1.8775510204081634,-1.8775510204081634,-1.8775510204081634,-1.8775510204081634,-1.8775510204081634,-1.8775510204081634,-1.8775510204081634,-1.8775510204081634,-1.8775510204081634,-1.8775510204081634,-1.8775510204081634,-1.8775510204081634,-1.8775510204081634,-1.8775510204081634,-1.8775510204081634,-1.8775510204081634,-1.8775510204081634,-1.8775510204081634,-1.8775510204081634,-1.8775510204081634,-1.8775510204081634,-1.8775510204081634,-1.8775510204081634,-1.8775510204081634,-1.8775510204081634,-1.8775510204081634,-1.8775510204081634,-1.8775510204081634,-1.8775510204081634,-1.8775510204081634,-1.8775510204081634,-1.8775510204081634,-1.8775510204081634,-1.8775510204081634,-1.8775510204081634,-1.8775510204081634,-1.8775510204081634,-1.8775510204081634,-1.8775510204081634,-1.8775510204081634,-1.8775510204081634,-1.8775510204081634,-1.8775510204081634,-1.8775510204081634,-1.8775510204081634,-1.8775510204081634,-1.8775510204081634,-1.8775510204081634,-1.8775510204081634,-1.8775510204081634,-1.8775510204081634,-1.8775510204081634,-1.8775510204081634,-1.8775510204081634,-1.8775510204081634,-1.8775510204081634,-1.8775510204081634,-1.8775510204081634,-1.8775510204081634,-1.8775510204081634,-1.8775510204081634,-1.8775510204081634,-1.8775510204081634,-1.8775510204081634,-1.8775510204081634,-1.8775510204081634,-1.8775510204081634,-1.8775510204081634,-1.8775510204081634,-1.8775510204081634,-1.8775510204081634,-1.8775510204081634,-1.8775510204081634,-1.8775510204081634,-1.8775510204081634,-1.8775510204081634,-1.8775510204081634,-1.8775510204081634,-1.8775510204081634,-1.8775510204081634,-1.8775510204081634,-1.8775510204081634,-1.8775510204081634,-1.8775510204081634,-1.8775510204081634,-1.8775510204081634,-1.8775510204081634,-1.8775510204081634,-1.8775510204081634,-1.8775510204081634,-1.8775510204081634,-1.8775510204081634,-1.8775510204081634,-1.8775510204081634,-1.8775510204081634,-1.8775510204081634,-1.8775510204081634,-1.8775510204081634,-1.8775510204081634,-1.8775510204081634,-1.8775510204081634,-1.8775510204081634,-1.8775510204081634,-1.8775510204081634,-1.8775510204081634,-1.8775510204081634,-1.8775510204081634,-1.8775510204081634,-1.8775510204081634,-1.8775510204081634,-1.8775510204081634,-1.8775510204081634,-1.8775510204081634,-1.8775510204081634,-1.8775510204081634,-1.8775510204081634,-1.8775510204081634,-1.8775510204081634,-1.8775510204081634,-1.8775510204081634,-1.8775510204081634,-1.8775510204081634,-1.8775510204081634,-1.8775510204081634,-1.8775510204081634,-1.8775510204081634,-1.8775510204081634,-1.8775510204081634,-1.8775510204081634,-1.8775510204081634,-1.8775510204081634,-1.8775510204081634,-1.8775510204081634,-1.8775510204081634,-1.8775510204081634,-1.8775510204081634,-1.8775510204081634,-1.8775510204081634,-1.8775510204081634,-1.8775510204081634,-1.8775510204081634,-1.8775510204081634,-1.8775510204081634,-1.8775510204081634,-1.8775510204081634,-1.8775510204081634,-1.8775510204081634,-1.8775510204081634,-1.8775510204081634,-1.8775510204081634,-1.8775510204081634,-1.8775510204081634,-1.8775510204081634,-1.8775510204081634,-1.8775510204081634,-1.8775510204081634,-1.8775510204081634,-1.8775510204081634,-1.8775510204081634,-1.8775510204081634,-1.8775510204081634,-1.8775510204081634,-1.8775510204081634,-1.8775510204081634,-1.8775510204081634,-1.8775510204081634,-1.8775510204081634,-1.8775510204081634,-1.8775510204081634,-1.8775510204081634,-1.8775510204081634,-1.8775510204081634,-1.8775510204081634,-1.8775510204081634,-1.8775510204081634,-1.8775510204081634,-1.8775510204081634,-1.8775510204081634,-1.8775510204081634,-1.8775510204081634,-1.8775510204081634,-1.8775510204081634,-1.8775510204081634,-1.8775510204081634,-1.8775510204081634,-1.8775510204081634,-1.8775510204081634,-1.8775510204081634,-1.8775510204081634,-1.8775510204081634,-1.8775510204081634,-1.8775510204081634,-1.8775510204081634,-1.8775510204081634,-1.8775510204081634,-1.8775510204081634,-1.8775510204081634,-1.8775510204081634,-1.8775510204081634,-1.8775510204081634,-1.8775510204081634,-1.8775510204081634,-1.8775510204081634,-1.8775510204081634,-1.8775510204081634,-1.8775510204081634,-1.8775510204081634,-1.8775510204081634,-1.8775510204081634,-1.8775510204081634,-1.8775510204081634,-1.8775510204081634,-1.8775510204081634,-1.8775510204081634,-1.8775510204081634,-1.8775510204081634,-1.8775510204081634,-1.8775510204081634,-1.8775510204081634,-1.8775510204081634,-1.8775510204081634,-1.8775510204081634,-1.8775510204081634,-1.8775510204081634,-1.8775510204081634,-1.8775510204081634,-1.8775510204081634,-1.8775510204081634,-1.8775510204081634,-1.8775510204081634,-1.8775510204081634,-1.8775510204081634,-1.8775510204081634,-1.8775510204081634,-1.8775510204081634,-1.8775510204081634,-1.8775510204081634,-1.8775510204081634,-1.8775510204081634,-1.8775510204081634,-1.8775510204081634,-1.8775510204081634,-1.8775510204081634,-1.8775510204081634,-1.8775510204081634,-1.8775510204081634,-1.8775510204081634,-1.8775510204081634,-1.8775510204081634,-1.8775510204081634,-1.8775510204081634,-1.8775510204081634,-1.8775510204081634,-1.8775510204081634,-1.8775510204081634,0,0.030612244897959183,0.06802721088435375,0.11904761904761904,0.17346938775510204,0.20748299319727892,0.23809523809523808,0.2687074829931973,0.2891156462585034,0.29931972789115646,0.30272108843537415,0.30612244897959184,0.30612244897959184,0.30612244897959184,0.30612244897959184,0.30612244897959184,0.30612244897959184,0.30612244897959184,0.30612244897959184,0.30612244897959184,0.30612244897959184,0.30612244897959184,0.30612244897959184,0.30612244897959184,0.30612244897959184,0.30612244897959184,0.30612244897959184,0.30612244897959184,0.30612244897959184,0.30612244897959184,0.30612244897959184,0.30612244897959184,0.30612244897959184,0.30272108843537415,0.2755102040816326,0.24149659863945577,0.2108843537414966,0.19047619047619047,0.17006802721088435,0.16326530612244897,0.1598639455782313,0.1564625850340136,0.1564625850340136,0.1564625850340136,0.1564625850340136,0.1564625850340136,0.17346938775510204,0.19047619047619047,0.20748299319727892,0.22448979591836735,0.23129251700680273,0.23809523809523808,0.23809523809523808,0.23809523809523808,0.23809523809523808,0.23809523809523808,0.23809523809523808,0.23809523809523808,0.23809523809523808,0.23809523809523808,0.23809523809523808,0.23809523809523808,0.23809523809523808,0.23809523809523808,0.23469387755102042,0.23129251700680273,0.22448979591836735,0.21768707482993196,0.2108843537414966,0.20408163265306123,0.20408163265306123,0.20068027210884354,0.20068027210884354,0.19727891156462585,0.19727891156462585,0.19727891156462585,0.19727891156462585,0.19727891156462585,0.19387755102040816,0.19387755102040816,0.19387755102040816,0.19387755102040816,0.19387755102040816,0.19387755102040816,0.19387755102040816,0.19387755102040816,0.19387755102040816,0.19047619047619047,0.19047619047619047,0.1870748299319728,0.1870748299319728,0.1836734693877551,0.1836734693877551,0.1836734693877551,0.1836734693877551,0.18027210884353742,0.18027210884353742,0.18027210884353742,0.18027210884353742,0.18027210884353742,0.18027210884353742,0.18027210884353742,0.18027210884353742,0.18027210884353742,0.18027210884353742,0.18027210884353742,0.18027210884353742,0.18027210884353742,0.18027210884353742,0.18027210884353742,0.18027210884353742,0.18027210884353742,0.18027210884353742,0.18027210884353742,0.18027210884353742,0.18027210884353742,0.18027210884353742,0.18027210884353742,0.18027210884353742,0.18027210884353742,0.18027210884353742,0.18027210884353742,0.18027210884353742,0.17346938775510204,0.1564625850340136,0.14625850340136054,0.1360544217687075,0.12585034013605442,0.11224489795918367,0.10884353741496598,0.1054421768707483,0.10204081632653061,0.09863945578231292,0.09863945578231292,0.09863945578231292,0.09863945578231292,0.09863945578231292,0.09863945578231292,0.09863945578231292,0.09863945578231292,0.09863945578231292,0.09863945578231292,0.09863945578231292,0.09863945578231292,0.09863945578231292,0.09863945578231292,0.09863945578231292,0.09863945578231292,0.09863945578231292,0.09863945578231292,0.09863945578231292,0.09863945578231292,0.09863945578231292,0.09863945578231292,0.09863945578231292,0.09863945578231292,0.09863945578231292,0.09863945578231292,0.09863945578231292,0.09863945578231292,0.09863945578231292,0.09863945578231292,0.09863945578231292,0.10204081632653061,0.10204081632653061,0.1054421768707483,0.10884353741496598,0.11224489795918367,0.11224489795918367,0.11564625850340136,0.12244897959183673,0.12585034013605442,0.1292517006802721,0.1326530612244898,0.1326530612244898,0.1360544217687075,0.13945578231292516,0.13945578231292516,0.13945578231292516,0.13945578231292516,0.13945578231292516,0.13945578231292516,0.13945578231292516,0.13945578231292516,0.13945578231292516,0.13945578231292516,0.13945578231292516,0.13945578231292516,0.13945578231292516,0.13945578231292516,0.13945578231292516,0.13945578231292516,0.13945578231292516,0.13945578231292516,0.13945578231292516,0.13945578231292516,0.13945578231292516,0.13945578231292516,0.13945578231292516,0.13945578231292516,0.13945578231292516,0.13945578231292516,0.13945578231292516,0.13945578231292516,0.13945578231292516,0.13945578231292516,0.13945578231292516,0.13945578231292516,0.13945578231292516,0.13945578231292516,0.13945578231292516,0.13945578231292516,0.13945578231292516,0.13945578231292516,0.13945578231292516,0.13945578231292516,0.13945578231292516,0.13945578231292516,0.13945578231292516,0.13945578231292516,0.13945578231292516,0.13945578231292516,0.13945578231292516,0.13945578231292516,0.13945578231292516,0.13945578231292516,0.13945578231292516,0.13945578231292516,0.13945578231292516,0.13945578231292516,0.13945578231292516,0.13945578231292516,0.13945578231292516,0.13945578231292516,0.13945578231292516,0.13945578231292516,0.13945578231292516,0.13945578231292516,0.13945578231292516,0.13945578231292516,0.13945578231292516,0.13945578231292516,0.13945578231292516,0.13945578231292516,0.13945578231292516,0.13945578231292516,0.13945578231292516,0.13945578231292516,0.13945578231292516,0.13945578231292516,0.13945578231292516,0.13945578231292516,0.13945578231292516,0.13945578231292516,0.13945578231292516,0.13945578231292516,0.13945578231292516,0.13945578231292516,0.13945578231292516,0.13945578231292516,0.13945578231292516,0.13945578231292516,0.13945578231292516,0.13945578231292516,0.13945578231292516,0.13945578231292516,0.13945578231292516,0.13945578231292516,0.13945578231292516,0.13945578231292516,0.13945578231292516,0.13945578231292516,0.13945578231292516,0.13945578231292516,0.13945578231292516,0.13945578231292516,0.13945578231292516,0.13945578231292516,0.13945578231292516,0.13945578231292516,0.13945578231292516,0.13945578231292516,0.13945578231292516,0.13945578231292516,0.13945578231292516,0.13945578231292516,0.13945578231292516,0.13945578231292516,0.13945578231292516,0.13945578231292516,0.13945578231292516,0.13945578231292516,0.13945578231292516,0.13945578231292516,0.13945578231292516,0.13945578231292516,0.13945578231292516,0.13945578231292516,0.13945578231292516,0.13945578231292516,0.13945578231292516,0.13945578231292516,0.13945578231292516,0.13945578231292516,0.13945578231292516,0.13945578231292516,0.13945578231292516,0.13945578231292516,0.13945578231292516,0.13945578231292516,0.13945578231292516,0.13945578231292516,0.13945578231292516,0.13945578231292516,0.13945578231292516,0.13945578231292516,0.13945578231292516,0.13945578231292516,0.13945578231292516,0.13945578231292516,0.13945578231292516,0.13945578231292516,0.13945578231292516,0.13945578231292516,0.13945578231292516,0.13945578231292516,0.13945578231292516,0.13945578231292516,0.13945578231292516,0.13945578231292516,0.13945578231292516,0.13945578231292516,0.13945578231292516,0.13945578231292516,0.13945578231292516,0.13945578231292516,0.13945578231292516,0.13945578231292516,0.13945578231292516,0.13945578231292516,0.13945578231292516,0.13945578231292516,0.13945578231292516,0.13945578231292516,0.13945578231292516,0.13945578231292516,0.13945578231292516,0.13945578231292516,0.13945578231292516,0.14285714285714285,0.19387755102040816,0.2789115646258503,0.36054421768707484,0.3979591836734694,0.41496598639455784,0.4217687074829932,0.4217687074829932,0.4217687074829932,0.4217687074829932,0.4217687074829932,0.4217687074829932,0.4217687074829932,0.4217687074829932,0.4217687074829932,0.4217687074829932,0.4217687074829932,0.4217687074829932,0.41156462585034015,0.37755102040816324,0.30612244897959184,0.1836734693877551,0.10204081632653061,0.10204081632653061,0.01020408163265306,-0.05102040816326531,-0.08503401360544217,-0.11224489795918367,-0.12244897959183673,-0.12585034013605442,-0.12585034013605442,-0.12585034013605442,-0.12585034013605442,-0.12585034013605442,-0.12585034013605442,-0.1054421768707483,-0.06802721088435375,0,0.0782312925170068,0.16326530612244897,0.23809523809523808,0.2619047619047619,0.282312925170068,0.2891156462585034,0.2925170068027211,0.2925170068027211,0.2925170068027211,0.2925170068027211,0.2925170068027211,0.2925170068027211,0.2925170068027211,0.2925170068027211,0.2925170068027211,0.2925170068027211,0.2925170068027211,0.2891156462585034,0.2891156462585034,0.2891156462585034,0.282312925170068,0.2789115646258503,0.2653061224489796,0.21768707482993196,0.21768707482993196,0.21768707482993196,0.21768707482993196,0.21768707482993196,0.21768707482993196,0.21768707482993196,0.21768707482993196,0.21768707482993196,0.21768707482993196,0.21768707482993196,0.21768707482993196,0.21768707482993196,0.21768707482993196,0.21768707482993196,0.21768707482993196,0.21768707482993196,0.21768707482993196,0.21768707482993196,0.21768707482993196,0.21768707482993196,0.21768707482993196,0.21768707482993196,0.21768707482993196,0.21768707482993196,0.21768707482993196,0.21768707482993196,0.21768707482993196,0.21768707482993196,0.21768707482993196,0.21768707482993196,0.21768707482993196,0.21768707482993196,0.21768707482993196,0.21768707482993196,0.21768707482993196,0.21768707482993196,0.21768707482993196,0.21768707482993196,0.21768707482993196,0.21768707482993196,0.21768707482993196,0.21768707482993196,0.21768707482993196,0.21768707482993196,0.22789115646258504,0.24489795918367346,0.25170068027210885,0.25170068027210885,0.25170068027210885,0.25170068027210885,0.23809523809523808,0.21428571428571427,0.20408163265306123,0.19387755102040816,0.19047619047619047,0.1870748299319728,0.18027210884353742,0.17346938775510204,0.1598639455782313,0.14965986394557823,0.14285714285714285,0.13945578231292516,0.1360544217687075,0.1360544217687075,0.1326530612244898,0.1326530612244898,0.1326530612244898,0.1292517006802721,0.1292517006802721,0.1292517006802721,0.1292517006802721,0.1292517006802721,0.13945578231292516,0.14625850340136054,0.15306122448979592,0.1598639455782313,0.16666666666666666,0.17346938775510204,0.18027210884353742,0.1836734693877551,0.1870748299319728,0.1870748299319728,0.1870748299319728,0.1870748299319728,0.1870748299319728,0.1870748299319728,0.1870748299319728,0.19387755102040816,0.19727891156462585,0.20748299319727892,0.23469387755102042,0.3163265306122449,0.4387755102040816,0.5476190476190477,0.6632653061224489,0.7993197278911565,0.935374149659864,1.064625850340136,1.1394557823129252,1.2006802721088434,1.2244897959183674,1.2244897959183674,1.2414965986394557,1.2414965986394557,1.2414965986394557,1.2414965986394557,1.2414965986394557,1.2414965986394557,1.2414965986394557,1.2414965986394557,1.2414965986394557,1.2414965986394557,1.2414965986394557,1.2414965986394557,1.2414965986394557,1.2414965986394557,1.2414965986394557,1.2414965986394557,1.1904761904761905,1.163265306122449,1.1428571428571428,1.1360544217687074,1.1326530612244898,1.1326530612244898,1.1326530612244898,1.1326530612244898,1.1326530612244898,1.1326530612244898,1.1326530612244898,1.1326530612244898,1.1326530612244898,1.1326530612244898,1.1326530612244898,1.1326530612244898,1.1326530612244898,1.1326530612244898,1.1326530612244898,1.1360544217687074,1.1360544217687074,1.1360544217687074,1.1360544217687074,1.1360544217687074,1.1360544217687074,1.1360544217687074,1.1360544217687074,1.1360544217687074,1.1360544217687074,1.1360544217687074,1.1360544217687074,1.1360544217687074,1.1360544217687074,1.1360544217687074,1.1360544217687074,1.1360544217687074,1.1360544217687074,1.1360544217687074,1.1360544217687074,1.1360544217687074,1.1360544217687074,1.1360544217687074,1.1360544217687074,1.1360544217687074,1.1360544217687074,1.1360544217687074,1.1360544217687074,1.1360544217687074,1.1360544217687074,1.1360544217687074,1.1360544217687074,1.1360544217687074,1.1360544217687074,1.1360544217687074,1.1360544217687074,1.1360544217687074,1.1360544217687074,1.1360544217687074,1.1360544217687074,1.1360544217687074,1.1326530612244898,1.1054421768707483,1.0578231292517006,0.9965986394557823,0.9251700680272109,0.8877551020408163,0.8571428571428571,0.8435374149659864,0.8435374149659864,0.8367346938775511,0.8367346938775511,0.8367346938775511,0.8367346938775511,0.8367346938775511,0.8367346938775511,0.8367346938775511,0.8367346938775511,0.8367346938775511,0.8367346938775511,0.8367346938775511,0.8367346938775511,0.8367346938775511,0.8401360544217688,0.8469387755102041,0.8503401360544217,0.8537414965986394,0.8537414965986394,0.8537414965986394,0.8537414965986394,0.8537414965986394,0.8537414965986394,0.8537414965986394,0.8537414965986394,0.8537414965986394,0.8537414965986394,0.8537414965986394,0.8537414965986394,0.8537414965986394,0.8537414965986394,0.8537414965986394,0.8537414965986394,0.8537414965986394,0.8537414965986394,0.8537414965986394,0.8537414965986394,0.8537414965986394,0.8537414965986394,0.8537414965986394,0.8537414965986394,0.8537414965986394,0.8537414965986394,0.8537414965986394,0.8537414965986394,0.8537414965986394,0.8537414965986394,0.8537414965986394,0.8537414965986394,0.8537414965986394,0.8537414965986394,0.8537414965986394,0.8537414965986394,0.8537414965986394,0.8537414965986394,0.8537414965986394,0.8401360544217688,0.7687074829931972,0.7108843537414966,0.6462585034013606,0.608843537414966,0.5816326530612245,0.5544217687074829,0.5408163265306123,0.5306122448979592,0.5272108843537415,0.5272108843537415,0.5272108843537415,0.5238095238095238,0.5136054421768708,0.5068027210884354,0.5,0.4931972789115646,0.4931972789115646,0.4931972789115646,0.4931972789115646,0.4931972789115646,0.4931972789115646,0.4965986394557823,0.5,0.5102040816326531,0.5170068027210885,0.5238095238095238,0.5272108843537415,0.5306122448979592,0.5340136054421769,0.5340136054421769,0.5374149659863946,0.5374149659863946,0.5374149659863946,0.5408163265306123,0.5408163265306123,0.5408163265306123,0.5408163265306123,0.5408163265306123,0.5408163265306123,0.5408163265306123,0.5408163265306123,0.5408163265306123,0.5408163265306123,0.5408163265306123,0.5408163265306123,0.5408163265306123,0.5408163265306123,0.5408163265306123,0.5408163265306123,0.5408163265306123,0.5408163265306123,0.5408163265306123,0.5408163265306123,0.5408163265306123,0.5408163265306123,0.5408163265306123,0.5408163265306123,0.5408163265306123,0.5408163265306123,0.5408163265306123,0.5408163265306123,0.5408163265306123,0.5408163265306123,0.5408163265306123,0.5408163265306123,0.5408163265306123,0.5408163265306123,0.5408163265306123,0.5408163265306123,0.5408163265306123,0.5408163265306123,0.5408163265306123,0.5408163265306123,0.5408163265306123,0.5408163265306123,0.5408163265306123,0.5408163265306123,0.5408163265306123,0.5408163265306123,0.5408163265306123,0.5408163265306123,0.5476190476190477,0.5748299319727891,0.6224489795918368,0.6224489795918368,0.6700680272108843,0.7210884353741497,0.7755102040816326,0.8197278911564626,0.8435374149659864,0.8673469387755102,0.8809523809523809,0.891156462585034,0.8979591836734694,0.9013605442176871,0.9047619047619048,0.9047619047619048,0.9047619047619048,0.9047619047619048,0.9047619047619048,0.9047619047619048,0.9047619047619048,0.9047619047619048,0.9047619047619048,0.9047619047619048,0.9047619047619048,0.9047619047619048,0.9047619047619048,0.9047619047619048,0.9047619047619048,0.9047619047619048,0.9047619047619048,0.9047619047619048,0.9047619047619048,0.9047619047619048,0.9047619047619048,0.9047619047619048,0.9047619047619048,0.9047619047619048,0.9047619047619048,0.9047619047619048,0.9047619047619048,0.9047619047619048,0.9047619047619048,0.9047619047619048,0.9047619047619048,0.9047619047619048,0.9047619047619048,0.9047619047619048,0.9047619047619048,0.9047619047619048,0.9047619047619048,0.9047619047619048,0.9047619047619048,0.9047619047619048,0.9047619047619048,0.9047619047619048,0.9047619047619048,0.9047619047619048,0.9047619047619048,0.9047619047619048,0.9047619047619048,0.9047619047619048,0.9047619047619048,0.9047619047619048,0.9047619047619048,0.9047619047619048,0.9047619047619048,0.9047619047619048,0.9047619047619048,0.9047619047619048,0.9013605442176871,0.8945578231292517,0.8809523809523809,0.8741496598639455,0.8673469387755102,0.8639455782312925,0.8571428571428571,0.8537414965986394,0.8469387755102041,0.8435374149659864,0.8435374149659864,0.8435374149659864,0.8401360544217688,0.8401360544217688,0.8401360544217688,0.8401360544217688,0.8401360544217688,0.8401360544217688,0.8401360544217688,0.8401360544217688,0.8401360544217688,0.8401360544217688,0.8401360544217688,0.8401360544217688,0.8401360544217688,0.8401360544217688,0.8401360544217688,0.8401360544217688,0.8401360544217688,0.8401360544217688,0.8401360544217688,0.8401360544217688,0.8401360544217688,0.8401360544217688,0.8401360544217688,0.8401360544217688,0.8401360544217688,0.8401360544217688,0.8401360544217688,0.8401360544217688,0.8401360544217688,0.8401360544217688,0.8401360544217688,0.8401360544217688,0.8401360544217688,0.8401360544217688,0.8401360544217688,0.8401360544217688,0.8401360544217688,0.8401360544217688,0.8401360544217688,0.8401360544217688,0.8401360544217688,0.8401360544217688,0.8401360544217688,0.8401360544217688,0.8401360544217688,0.8401360544217688,0.8401360544217688,0.8401360544217688,0.8401360544217688,0.8401360544217688,0.8401360544217688,0.8401360544217688,0.8401360544217688,0.8401360544217688,0.8401360544217688,0.8401360544217688,0.8401360544217688,0.8401360544217688,0.8401360544217688,0.8401360544217688,0.8401360544217688,0.8401360544217688,0.8401360544217688,0.8401360544217688,0.8401360544217688,0.8401360544217688,0.8401360544217688,0.8401360544217688,0.8401360544217688,0.8401360544217688,0.8401360544217688,0.8401360544217688,0.8401360544217688,0.8401360544217688,0.8401360544217688,0.8401360544217688,0.8401360544217688,0.8401360544217688,0.8401360544217688,0.8401360544217688,0.8401360544217688,0.8401360544217688,0.8401360544217688,0.8401360544217688,0.8401360544217688,0.8401360544217688,0.8401360544217688,0.8401360544217688,0.8401360544217688,0.8401360544217688,0.8401360544217688,0.8231292517006803,0.7687074829931972,0.7414965986394558,0.7108843537414966,0.6870748299319728,0.6768707482993197,0.6666666666666666,0.6530612244897959,0.6190476190476191,0.5850340136054422,0.5374149659863946,0.4965986394557823,0.46598639455782315,0.4489795918367347,0.4217687074829932,0.3945578231292517,0.3741496598639456,0.35034013605442177,0.336734693877551,0.3299319727891156,0.29931972789115646,0.2585034013605442,0.21768707482993196,0.18027210884353742,0.16666666666666666,0.1598639455782313,0.1564625850340136,0.1564625850340136,0.1564625850340136,0.1564625850340136,0.1564625850340136,0.15306122448979592,0.15306122448979592,0.14965986394557823,0.13945578231292516,0.1292517006802721,0.11564625850340136,0.1054421768707483,0.09523809523809523,0.08503401360544217,0.07142857142857142,0.06462585034013606,0.061224489795918366,0.05442176870748299,0.05102040816326531,0.047619047619047616,0.04421768707482993,0.04081632653061224,0.03741496598639456,0.030612244897959183,0.023809523809523808,0.017006802721088437,0.013605442176870748,0.013605442176870748,0.013605442176870748,0.013605442176870748,0.013605442176870748,0.013605442176870748,0.013605442176870748,0.013605442176870748,0.013605442176870748,0.013605442176870748,0.013605442176870748,0.013605442176870748,0.013605442176870748,0.013605442176870748,0.013605442176870748,0.013605442176870748,0.013605442176870748,0.013605442176870748,0.013605442176870748,0.013605442176870748,0.02040816326530612,0.030612244897959183,0.030612244897959183,0.06462585034013606,0.11564625850340136,0.17346938775510204,0.23129251700680273,0.29591836734693877,0.3333333333333333,0.3707482993197279,0.43537414965986393,0.5340136054421769,0.6326530612244898,0.7653061224489796,0.8741496598639455,0.9319727891156463,0.9795918367346939,1.0034013605442176,1.010204081632653,1.010204081632653,1.010204081632653,1.010204081632653,1.010204081632653,1.010204081632653,1.010204081632653,1.010204081632653,1.010204081632653,1.010204081632653,1.010204081632653,1.010204081632653,1.0034013605442176,0.9931972789115646,0.9931972789115646,0.9897959183673469,0.9897959183673469,0.9897959183673469,0.9897959183673469,0.9897959183673469,0.9897959183673469,0.9897959183673469,0.9897959183673469,0.9897959183673469,0.9897959183673469,0.9897959183673469,0.9897959183673469,0.9897959183673469,0.9897959183673469,0.9897959183673469,0.9897959183673469,0.9931972789115646,0.9931972789115646,0.9931972789115646,0.9931972789115646,0.9931972789115646,0.9931972789115646,0.9931972789115646,0.9931972789115646,0.9931972789115646,0.9931972789115646,0.9931972789115646,0.9931972789115646,0.9931972789115646,0.9931972789115646,0.9931972789115646,0.9931972789115646,0.9931972789115646,0.9931972789115646,0.9931972789115646,0.9931972789115646,0.9931972789115646,0.9931972789115646,0.9931972789115646,0.9931972789115646,0.9931972789115646,0.9931972789115646,0.9931972789115646,0.9931972789115646,0.9931972789115646,0.9931972789115646,0.9931972789115646,0.9931972789115646,0.9931972789115646,0.9931972789115646,0.9931972789115646,0.9931972789115646,0.9931972789115646,0.9931972789115646,0.9931972789115646,0.9931972789115646,0.9931972789115646,0.9931972789115646,0.9863945578231292,0.9489795918367347,0.9183673469387755,0.8877551020408163,0.8707482993197279,0.8639455782312925,0.8605442176870748,0.8435374149659864,0.8095238095238095,0.7551020408163265,0.7278911564625851,0.6972789115646258,0.6802721088435374,0.6700680272108843,0.6530612244897959,0.6258503401360545,0.5952380952380952,0.5748299319727891,0.564625850340136,0.5578231292517006,0.54421768707483,0.5136054421768708,0.47278911564625853,0.43537414965986393,0.40816326530612246,0.3979591836734694,0.3945578231292517,0.3945578231292517,0.391156462585034,0.391156462585034,0.391156462585034,0.38095238095238093,0.3741496598639456,0.36394557823129253,0.35714285714285715,0.3469387755102041,0.3299319727891156,0.3163265306122449,0.30612244897959184,0.29931972789115646,0.282312925170068,0.2687074829931973,0.24489795918367346,0.20408163265306123,0.17687074829931973,0.14965986394557823,0.12585034013605442,0.12244897959183673,0.12244897959183673,0.11904761904761904,0.11904761904761904,0.11904761904761904,0.11904761904761904,0.11904761904761904,0.11904761904761904,0.11904761904761904,0.11904761904761904,0.11904761904761904,0.11904761904761904,0.11904761904761904,0.11904761904761904,0.11904761904761904,0.11904761904761904,0.11904761904761904,0.11904761904761904,0.11904761904761904,0.11904761904761904,0.11904761904761904,0.11904761904761904,0.11904761904761904,0.11904761904761904,0.11904761904761904,0.11904761904761904,0.11904761904761904,0.11904761904761904,0.11904761904761904,0.11904761904761904,0.11904761904761904,0.11904761904761904,0.11904761904761904,0.11904761904761904,0.11904761904761904,0.11904761904761904,0.11904761904761904,0.11904761904761904,0.11904761904761904,0.11904761904761904,0.11904761904761904,0.11904761904761904,0.11904761904761904,0.11904761904761904,0.11904761904761904,0.11904761904761904,0.11904761904761904,0.11904761904761904,0.1292517006802721,0.1836734693877551,0.2653061224489796,0.3877551020408163,0.5612244897959183,0.6496598639455783,0.7278911564625851,0.7687074829931972,0.7891156462585034,0.8027210884353742,0.8129251700680272,0.826530612244898,0.8367346938775511,0.8469387755102041,0.8605442176870748,0.8639455782312925,0.8639455782312925,0.8741496598639455,0.8877551020408163,0.9081632653061225,0.9285714285714286,0.935374149659864,0.9421768707482994,0.95578231292517,1.034013605442177,1.153061224489796,1.2551020408163265,1.336734693877551,1.3775510204081634,1.3945578231292517,1.3945578231292517,1.3979591836734695,1.3979591836734695,1.3979591836734695,1.3979591836734695,1.3979591836734695,1.3979591836734695,1.3979591836734695,1.380952380952381,1.3673469387755102,1.3503401360544218,1.3333333333333333,1.316326530612245,1.2959183673469388,1.2959183673469388,1.2585034013605443,1.2414965986394557,1.2346938775510203,1.227891156462585,1.227891156462585,1.2244897959183674,1.2244897959183674,1.2210884353741496,1.217687074829932,1.2142857142857142,1.2108843537414966,1.2074829931972788,1.2074829931972788,1.2040816326530612,1.2040816326530612,1.2040816326530612,1.2040816326530612,1.2040816326530612,1.2040816326530612,1.2040816326530612,1.2040816326530612,1.2040816326530612,1.2040816326530612,1.2040816326530612,1.2040816326530612,1.2040816326530612,1.2040816326530612,1.2040816326530612,1.2040816326530612,1.2040816326530612,1.2040816326530612,1.2040816326530612,1.2040816326530612,1.2040816326530612,1.2040816326530612,1.2040816326530612,1.2040816326530612,1.2040816326530612,1.2040816326530612,1.2040816326530612,1.2040816326530612,1.2040816326530612,1.2040816326530612,1.2040816326530612,1.2040816326530612,1.2040816326530612,1.2040816326530612,1.2040816326530612,1.2006802721088434,1.1938775510204083,1.1904761904761905,1.1870748299319729,1.1870748299319729,1.1870748299319729,1.1870748299319729,1.183673469387755,1.183673469387755,1.183673469387755,1.183673469387755,1.183673469387755,1.183673469387755,1.183673469387755,1.183673469387755,1.183673469387755,1.183673469387755,1.183673469387755,1.183673469387755,1.183673469387755,1.183673469387755,1.183673469387755,1.183673469387755,1.183673469387755,1.183673469387755,1.183673469387755,1.183673469387755,1.183673469387755,1.183673469387755,1.183673469387755,1.183673469387755,1.183673469387755,1.183673469387755,1.183673469387755,1.183673469387755,1.183673469387755,1.183673469387755,1.183673469387755,1.183673469387755,1.183673469387755,1.183673469387755,1.183673469387755,1.183673469387755,1.183673469387755,1.1768707482993197,1.129251700680272,1.0612244897959184,0.9455782312925171,0.8095238095238095,0.6564625850340136,0.48639455782312924,0.3435374149659864,0.2108843537414966,0.14285714285714285,0.09863945578231292,0.07142857142857142,0.04081632653061224,0.003401360544217687,-0.04081632653061224,-0.0782312925170068,-0.12244897959183673,-0.13945578231292516,-0.14285714285714285,-0.14625850340136054,-0.14625850340136054,-0.14625850340136054,-0.14625850340136054,-0.14625850340136054,-0.14625850340136054,-0.14625850340136054,-0.14625850340136054,-0.14625850340136054,-0.14625850340136054,-0.13945578231292516,-0.11904761904761904,-0.08843537414965986,-0.061224489795918366,-0.030612244897959183,-0.01020408163265306,-0.006802721088435374,0.003401360544217687,0.003401360544217687,0.003401360544217687,0.003401360544217687,0.003401360544217687,0.003401360544217687,0.003401360544217687,0.003401360544217687,0.003401360544217687,0.003401360544217687,0.003401360544217687,0.003401360544217687,0.003401360544217687,0.003401360544217687,0.003401360544217687,0.003401360544217687,0.003401360544217687,0.003401360544217687,0.003401360544217687,0.003401360544217687,0.003401360544217687,0.003401360544217687,0.003401360544217687,0.003401360544217687,0.003401360544217687,0.003401360544217687,0.003401360544217687,0.003401360544217687,0.003401360544217687,0.003401360544217687,0.003401360544217687,0.003401360544217687,0.003401360544217687,0.003401360544217687,0.003401360544217687,0.003401360544217687,0.003401360544217687,0.003401360544217687,0.003401360544217687,0.003401360544217687,0.003401360544217687,0.003401360544217687,0.003401360544217687,0.003401360544217687,0.003401360544217687,0.003401360544217687,0.003401360544217687,0.003401360544217687,0.003401360544217687,0.003401360544217687,0.003401360544217687,0.003401360544217687,0.003401360544217687,0.003401360544217687,0.003401360544217687,0.003401360544217687,0.003401360544217687,0.003401360544217687,0.003401360544217687,0.003401360544217687,0.003401360544217687,0.003401360544217687,0.003401360544217687,0.003401360544217687,0.003401360544217687,0.003401360544217687,0.003401360544217687,0.003401360544217687,0.003401360544217687,0.003401360544217687,0.003401360544217687,0.003401360544217687,0.003401360544217687,0.003401360544217687,0.003401360544217687,0.003401360544217687,0.003401360544217687,0.003401360544217687,0.003401360544217687,0.003401360544217687,0.003401360544217687,0.003401360544217687,0.003401360544217687,0.003401360544217687,0.003401360544217687,0,-0.023809523809523808,-0.07142857142857142,-0.11564625850340136,-0.16326530612244897,-0.20068027210884354,-0.20068027210884354,-0.24489795918367346,-0.24489795918367346,-0.2687074829931973,-0.2857142857142857,-0.3129251700680272,-0.3129251700680272,-0.3129251700680272,-0.3129251700680272,-0.3129251700680272,-0.3129251700680272,-0.3129251700680272,-0.3129251700680272,-0.3129251700680272,-0.3129251700680272,-0.3129251700680272,-0.3129251700680272,-0.3129251700680272,-0.3129251700680272,-0.3129251700680272,-0.3129251700680272,-0.3129251700680272,-0.3129251700680272,-0.3129251700680272,-0.3129251700680272,-0.3129251700680272,-0.3129251700680272,-0.3129251700680272,-0.3129251700680272,-0.3129251700680272,-0.3129251700680272,-0.3129251700680272,-0.3129251700680272,-0.3129251700680272,-0.3129251700680272,-0.3129251700680272,-0.3129251700680272,-0.3129251700680272,-0.3129251700680272,-0.3129251700680272,-0.3129251700680272,-0.3129251700680272,-0.3129251700680272,-0.3129251700680272,-0.3129251700680272,-0.3129251700680272,-0.3129251700680272,-0.3129251700680272],"y":[-3.4642857142857144,-3.4642857142857144,-3.4642857142857144,-3.4642857142857144,-3.4642857142857144,-3.4642857142857144,-3.4642857142857144,-3.4642857142857144,-3.4642857142857144,-3.4642857142857144,-3.4642857142857144,-3.4642857142857144,-3.4642857142857144,-3.4642857142857144,-3.4642857142857144,-3.4642857142857144,-3.4642857142857144,-3.4642857142857144,-3.4642857142857144,-3.4642857142857144,-3.4642857142857144,-3.4642857142857144,-3.4642857142857144,-3.4642857142857144,-3.4642857142857144,-3.4642857142857144,-3.4642857142857144,-3.4642857142857144,-3.4642857142857144,-3.4642857142857144,-3.4642857142857144,-3.4642857142857144,-3.4642857142857144,-3.4642857142857144,-3.4642857142857144,-3.4642857142857144,-3.4642857142857144,-3.4642857142857144,-3.4642857142857144,-3.4642857142857144,-3.4642857142857144,-3.4642857142857144,-3.4642857142857144,-3.4642857142857144,-3.4642857142857144,-3.4642857142857144,-3.4642857142857144,-3.4642857142857144,-3.4642857142857144,-3.4642857142857144,-3.4642857142857144,-3.4642857142857144,-3.4642857142857144,-3.4642857142857144,-3.4642857142857144,-3.4642857142857144,-3.4642857142857144,-3.4642857142857144,-3.4642857142857144,-3.4642857142857144,-3.4642857142857144,-3.4642857142857144,-3.4642857142857144,-3.4642857142857144,-3.4642857142857144,-3.4642857142857144,-3.4642857142857144,-3.4642857142857144,-3.4642857142857144,-3.4642857142857144,-3.4642857142857144,-3.4642857142857144,-3.4642857142857144,-3.4642857142857144,-3.4642857142857144,-3.4642857142857144,-3.4642857142857144,-3.4642857142857144,-3.4642857142857144,-3.4642857142857144,-3.4642857142857144,-3.4642857142857144,-3.4642857142857144,-3.4642857142857144,-3.4642857142857144,-3.4642857142857144,-3.4642857142857144,-3.4642857142857144,-3.4642857142857144,-3.4642857142857144,-3.4642857142857144,-3.4642857142857144,-3.4642857142857144,-3.4642857142857144,-3.4642857142857144,-3.4642857142857144,-3.4642857142857144,-3.4642857142857144,-3.4642857142857144,-3.4642857142857144,-3.4642857142857144,-3.4642857142857144,-3.4642857142857144,-3.4642857142857144,-3.4642857142857144,-3.4642857142857144,-3.4642857142857144,-3.4642857142857144,-3.4642857142857144,-3.4642857142857144,-3.4642857142857144,-3.4642857142857144,-3.4642857142857144,-3.4642857142857144,-3.4642857142857144,-3.4642857142857144,-3.4642857142857144,-3.4642857142857144,-3.4642857142857144,-3.4642857142857144,-3.4642857142857144,-3.4642857142857144,-3.4642857142857144,-3.4642857142857144,-3.4642857142857144,-3.4642857142857144,-3.4642857142857144,-3.4642857142857144,-3.4642857142857144,-3.4642857142857144,-3.4642857142857144,-3.4642857142857144,-3.4642857142857144,-3.4642857142857144,-3.4642857142857144,-3.4642857142857144,-3.4642857142857144,-3.4642857142857144,-3.4642857142857144,-3.4642857142857144,-3.4642857142857144,-3.4642857142857144,-3.4642857142857144,-3.4642857142857144,-3.4642857142857144,-3.4642857142857144,-3.4642857142857144,-3.4642857142857144,-3.4642857142857144,-3.4642857142857144,-3.4642857142857144,-3.4642857142857144,-3.4642857142857144,-3.4642857142857144,-3.4642857142857144,-3.4642857142857144,-3.4642857142857144,-3.4642857142857144,-3.4642857142857144,-3.4642857142857144,-3.4642857142857144,-3.4642857142857144,-3.4642857142857144,-3.4642857142857144,-3.4642857142857144,-3.4642857142857144,-3.4642857142857144,-3.4642857142857144,-3.4642857142857144,-3.4642857142857144,-3.4642857142857144,-3.4642857142857144,-3.4642857142857144,-3.4642857142857144,-3.4642857142857144,-3.4642857142857144,-3.4642857142857144,-3.4642857142857144,-3.4642857142857144,-3.4642857142857144,-3.4642857142857144,-3.4642857142857144,-3.4642857142857144,-3.4642857142857144,-3.4642857142857144,-3.4642857142857144,-3.4642857142857144,-3.4642857142857144,-3.4642857142857144,-3.4642857142857144,-3.4642857142857144,-3.4642857142857144,-3.4642857142857144,-3.4642857142857144,-3.4642857142857144,-3.4642857142857144,-3.4642857142857144,-3.4642857142857144,-3.4642857142857144,-3.4642857142857144,-3.4642857142857144,-3.4642857142857144,-3.4642857142857144,-3.4642857142857144,-3.4642857142857144,-3.4642857142857144,-3.4642857142857144,-3.4642857142857144,-3.4642857142857144,-3.4642857142857144,-3.4642857142857144,-3.4642857142857144,-3.4642857142857144,-3.4642857142857144,-3.4642857142857144,-3.4642857142857144,-3.4642857142857144,-3.4642857142857144,-3.4642857142857144,-3.4642857142857144,-3.4642857142857144,-3.4642857142857144,-3.4642857142857144,-3.4642857142857144,-3.4642857142857144,-3.4642857142857144,-3.4642857142857144,-3.4642857142857144,-3.4642857142857144,-3.4642857142857144,-3.4642857142857144,-3.4642857142857144,-3.4642857142857144,-3.4642857142857144,-3.4642857142857144,-3.4642857142857144,-3.4642857142857144,-3.4642857142857144,-3.4642857142857144,-3.4642857142857144,-3.4642857142857144,-3.4642857142857144,-3.4642857142857144,-3.4642857142857144,-3.4642857142857144,-3.4642857142857144,-3.4642857142857144,-3.4642857142857144,-3.4642857142857144,-3.4642857142857144,-3.4642857142857144,-3.4642857142857144,-3.4642857142857144,-3.4642857142857144,-3.4642857142857144,-3.4642857142857144,-3.4642857142857144,-3.4642857142857144,-3.4642857142857144,-3.4642857142857144,-3.4642857142857144,-3.4642857142857144,-3.4642857142857144,-3.4642857142857144,-3.4642857142857144,-3.4642857142857144,-3.4642857142857144,-3.4642857142857144,-3.4642857142857144,-3.4642857142857144,-3.4642857142857144,-3.4642857142857144,-3.4642857142857144,-3.4642857142857144,-3.4642857142857144,-3.4642857142857144,-3.4642857142857144,-3.4642857142857144,-3.4642857142857144,-3.4642857142857144,-3.4642857142857144,-3.4642857142857144,-3.4642857142857144,-3.4642857142857144,-3.4642857142857144,-3.4642857142857144,-3.4642857142857144,-3.4642857142857144,-3.4642857142857144,-3.4642857142857144,-3.4642857142857144,-3.4642857142857144,-3.4642857142857144,-3.4642857142857144,-3.4642857142857144,-3.4642857142857144,-3.4642857142857144,-3.4642857142857144,-3.4642857142857144,-3.4642857142857144,-3.4642857142857144,-3.4642857142857144,-3.4642857142857144,-3.4642857142857144,-3.4642857142857144,-3.4642857142857144,-3.4642857142857144,-3.4642857142857144,-3.4642857142857144,-3.4642857142857144,-3.4642857142857144,-3.4642857142857144,-3.4642857142857144,-3.4642857142857144,-3.4642857142857144,-3.4642857142857144,-3.4642857142857144,-3.4642857142857144,-3.4642857142857144,-3.4642857142857144,-3.4642857142857144,-3.4642857142857144,-3.4642857142857144,-3.4642857142857144,-3.4642857142857144,-3.4642857142857144,-3.4642857142857144,-3.4642857142857144,-3.4642857142857144,-3.4642857142857144,-3.4642857142857144,-3.4642857142857144,-3.4642857142857144,-3.4642857142857144,-3.4642857142857144,-3.4642857142857144,-3.4642857142857144,-3.4642857142857144,-3.4642857142857144,-3.4642857142857144,-3.4642857142857144,-3.4642857142857144,-3.4642857142857144,-3.4642857142857144,-3.4642857142857144,-3.4642857142857144,-3.4642857142857144,-3.4642857142857144,-3.4642857142857144,-3.4642857142857144,-3.4642857142857144,-3.4642857142857144,-3.4642857142857144,-3.4642857142857144,-3.4642857142857144,-3.4642857142857144,-3.4642857142857144,-3.4642857142857144,-3.4642857142857144,-3.4642857142857144,-3.4642857142857144,-3.4642857142857144,-3.4642857142857144,-3.4642857142857144,-3.4642857142857144,-3.4642857142857144,-3.4642857142857144,-3.4642857142857144,-3.4642857142857144,-3.4642857142857144,-3.4642857142857144,-3.4642857142857144,-3.4642857142857144,-3.4642857142857144,-3.4642857142857144,-3.4642857142857144,0.6309523809523809,0.6309523809523809,0.6023809523809524,0.5738095238095238,0.5357142857142857,0.5071428571428571,0.4785714285714286,0.46904761904761905,0.4595238095238095,0.4595238095238095,0.4595238095238095,0.4595238095238095,0.4595238095238095,0.4595238095238095,0.4595238095238095,0.4595238095238095,0.4595238095238095,0.4595238095238095,0.4595238095238095,0.4595238095238095,0.4595238095238095,0.4595238095238095,0.4595238095238095,0.4595238095238095,0.4595238095238095,0.4595238095238095,0.4595238095238095,0.4595238095238095,0.4595238095238095,0.4595238095238095,0.4595238095238095,0.4595238095238095,0.4595238095238095,0.4595238095238095,0.4595238095238095,0.4595238095238095,0.4595238095238095,0.4595238095238095,0.46904761904761905,0.4785714285714286,0.4785714285714286,0.4785714285714286,0.4880952380952381,0.4976190476190476,0.5071428571428571,0.5357142857142857,0.6023809523809524,0.6976190476190476,0.7738095238095238,0.8690476190476191,0.9547619047619048,1.0119047619047619,1.0404761904761906,1.05,1.0595238095238095,1.0595238095238095,1.0595238095238095,1.0595238095238095,1.0595238095238095,1.0595238095238095,1.0595238095238095,1.0595238095238095,1.0595238095238095,1.0595238095238095,1.0595238095238095,1.05,1.0404761904761906,1.0119047619047619,0.9928571428571429,0.9738095238095238,0.9738095238095238,0.9642857142857143,0.9547619047619048,0.9547619047619048,0.9547619047619048,0.9547619047619048,0.9547619047619048,0.9547619047619048,0.9547619047619048,0.9547619047619048,0.9547619047619048,0.9547619047619048,0.9547619047619048,0.9547619047619048,0.9547619047619048,0.9547619047619048,0.9547619047619048,0.9547619047619048,0.9547619047619048,0.9547619047619048,0.9642857142857143,0.9642857142857143,0.9642857142857143,0.9642857142857143,0.9642857142857143,0.9642857142857143,0.9738095238095238,0.9738095238095238,0.9738095238095238,0.9833333333333333,0.9833333333333333,0.9833333333333333,0.9833333333333333,0.9833333333333333,0.9833333333333333,0.9833333333333333,0.9833333333333333,0.9833333333333333,0.9833333333333333,0.9833333333333333,0.9833333333333333,0.9833333333333333,0.9833333333333333,0.9833333333333333,0.9833333333333333,0.9833333333333333,0.9833333333333333,0.9833333333333333,0.9833333333333333,0.9833333333333333,0.9833333333333333,0.9833333333333333,0.9833333333333333,0.9833333333333333,0.9833333333333333,0.9928571428571429,1.0214285714285714,1.0404761904761906,1.069047619047619,1.0976190476190477,1.1071428571428572,1.1166666666666667,1.1261904761904762,1.1357142857142857,1.1357142857142857,1.1357142857142857,1.1357142857142857,1.1357142857142857,1.1357142857142857,1.1357142857142857,1.1357142857142857,1.1357142857142857,1.1357142857142857,1.1357142857142857,1.1357142857142857,1.1357142857142857,1.1357142857142857,1.1357142857142857,1.1357142857142857,1.1357142857142857,1.1357142857142857,1.1357142857142857,1.1357142857142857,1.1357142857142857,1.1357142857142857,1.1357142857142857,1.1357142857142857,1.1357142857142857,1.1357142857142857,1.1357142857142857,1.1357142857142857,1.1357142857142857,1.1357142857142857,1.1357142857142857,1.1261904761904762,1.1261904761904762,1.1261904761904762,1.1261904761904762,1.1166666666666667,1.1166666666666667,1.1166666666666667,1.1071428571428572,1.1071428571428572,1.1071428571428572,1.1071428571428572,1.0976190476190477,1.0976190476190477,1.0976190476190477,1.0976190476190477,1.0976190476190477,1.0976190476190477,1.0976190476190477,1.0976190476190477,1.0976190476190477,1.0976190476190477,1.0976190476190477,1.0976190476190477,1.0976190476190477,1.0976190476190477,1.0976190476190477,1.0976190476190477,1.0976190476190477,1.0976190476190477,1.0976190476190477,1.0976190476190477,1.0976190476190477,1.0976190476190477,1.0976190476190477,1.0976190476190477,1.0976190476190477,1.0976190476190477,1.0976190476190477,1.0976190476190477,1.0976190476190477,1.0976190476190477,1.0976190476190477,1.0976190476190477,1.0976190476190477,1.0976190476190477,1.0976190476190477,1.0976190476190477,1.0976190476190477,1.0976190476190477,1.0976190476190477,1.0976190476190477,1.0976190476190477,1.0976190476190477,1.0976190476190477,1.0976190476190477,1.0976190476190477,1.0976190476190477,1.0976190476190477,1.0976190476190477,1.0976190476190477,1.0976190476190477,1.0976190476190477,1.0976190476190477,1.0976190476190477,1.0976190476190477,1.0976190476190477,1.0976190476190477,1.0976190476190477,1.0976190476190477,1.0976190476190477,1.0976190476190477,1.0976190476190477,1.0976190476190477,1.0976190476190477,1.0976190476190477,1.0976190476190477,1.0976190476190477,1.0976190476190477,1.0976190476190477,1.0976190476190477,1.0976190476190477,1.0976190476190477,1.0976190476190477,1.0976190476190477,1.0976190476190477,1.0976190476190477,1.0976190476190477,1.0976190476190477,1.0976190476190477,1.0976190476190477,1.0976190476190477,1.0976190476190477,1.0976190476190477,1.0976190476190477,1.0976190476190477,1.0976190476190477,1.0976190476190477,1.0976190476190477,1.0976190476190477,1.0976190476190477,1.0976190476190477,1.0976190476190477,1.0976190476190477,1.0976190476190477,1.0976190476190477,1.0976190476190477,1.0976190476190477,1.0976190476190477,1.0976190476190477,1.0976190476190477,1.0976190476190477,1.0976190476190477,1.0976190476190477,1.0976190476190477,1.0976190476190477,1.0976190476190477,1.0976190476190477,1.0976190476190477,1.0976190476190477,1.0976190476190477,1.0976190476190477,1.0976190476190477,1.0976190476190477,1.0976190476190477,1.0976190476190477,1.0976190476190477,1.0976190476190477,1.0976190476190477,1.0976190476190477,1.0976190476190477,1.0976190476190477,1.0976190476190477,1.0976190476190477,1.0976190476190477,1.0976190476190477,1.0976190476190477,1.0976190476190477,1.0976190476190477,1.0976190476190477,1.0976190476190477,1.0976190476190477,1.0976190476190477,1.0976190476190477,1.0976190476190477,1.0976190476190477,1.0976190476190477,1.0976190476190477,1.0976190476190477,1.0976190476190477,1.0976190476190477,1.0976190476190477,1.0976190476190477,1.0976190476190477,1.0976190476190477,1.0976190476190477,1.0976190476190477,1.0976190476190477,1.0976190476190477,1.0976190476190477,1.0976190476190477,1.0976190476190477,1.0976190476190477,1.0976190476190477,1.0976190476190477,1.0976190476190477,1.0976190476190477,1.0976190476190477,1.0976190476190477,1.0976190476190477,1.0976190476190477,1.0976190476190477,1.0976190476190477,1.0976190476190477,1.0976190476190477,1.0976190476190477,1.0976190476190477,1.0976190476190477,1.0976190476190477,1.0976190476190477,1.0976190476190477,1.0976190476190477,1.0976190476190477,1.0976190476190477,1.0976190476190477,1.088095238095238,0.9452380952380952,0.5071428571428571,-0.17857142857142858,-1.0071428571428571,-1.6738095238095239,-2.3595238095238096,-2.835714285714286,-2.9976190476190476,-3.0642857142857145,-3.092857142857143,-3.092857142857143,-3.092857142857143,-3.092857142857143,-3.092857142857143,-3.092857142857143,-3.092857142857143,-3.092857142857143,-3.092857142857143,-3.0547619047619046,-2.892857142857143,-2.5214285714285714,-1.8833333333333333,-1.473809523809524,-1.473809523809524,-0.9595238095238096,-0.6452380952380953,-0.4738095238095238,-0.33095238095238094,-0.25476190476190474,-0.2261904761904762,-0.20714285714285716,-0.20714285714285716,-0.20714285714285716,-0.20714285714285716,-0.20714285714285716,-0.29285714285714287,-0.3880952380952381,-0.569047619047619,-0.7690476190476191,-0.9785714285714285,-1.1976190476190476,-1.3023809523809524,-1.388095238095238,-1.4261904761904762,-1.4261904761904762,-1.4357142857142857,-1.4357142857142857,-1.4357142857142857,-1.4357142857142857,-1.4357142857142857,-1.4357142857142857,-1.4261904761904762,-1.4261904761904762,-1.4166666666666667,-1.4071428571428573,-1.4071428571428573,-1.4071428571428573,-1.3976190476190475,-1.388095238095238,-1.3785714285714286,-1.369047619047619,-1.3023809523809524,-1.3023809523809524,-1.3023809523809524,-1.3023809523809524,-1.3023809523809524,-1.3023809523809524,-1.3023809523809524,-1.3023809523809524,-1.3023809523809524,-1.3023809523809524,-1.3023809523809524,-1.3023809523809524,-1.3023809523809524,-1.3023809523809524,-1.3023809523809524,-1.3023809523809524,-1.3023809523809524,-1.3023809523809524,-1.3023809523809524,-1.3023809523809524,-1.3023809523809524,-1.3023809523809524,-1.3023809523809524,-1.3023809523809524,-1.3023809523809524,-1.3023809523809524,-1.3023809523809524,-1.3023809523809524,-1.3023809523809524,-1.3023809523809524,-1.3023809523809524,-1.3023809523809524,-1.3023809523809524,-1.3023809523809524,-1.3023809523809524,-1.3023809523809524,-1.3023809523809524,-1.3023809523809524,-1.3023809523809524,-1.3023809523809524,-1.3023809523809524,-1.3023809523809524,-1.3023809523809524,-1.2738095238095237,-1.0642857142857143,-0.6833333333333333,-0.17857142857142858,0.38333333333333336,0.8976190476190476,1.3357142857142856,1.6404761904761904,1.9166666666666667,2.164285714285714,2.2976190476190474,2.392857142857143,2.4309523809523808,2.45,2.4595238095238097,2.4595238095238097,2.4595238095238097,2.4595238095238097,2.4595238095238097,2.4595238095238097,2.4595238095238097,2.4595238095238097,2.4595238095238097,2.4595238095238097,2.4595238095238097,2.45,2.3261904761904764,2.126190476190476,1.9071428571428573,1.7547619047619047,1.5833333333333333,1.4595238095238094,1.3738095238095238,1.3071428571428572,1.2595238095238095,1.2214285714285715,1.1833333333333333,1.1642857142857144,1.1452380952380952,1.1261904761904762,1.1166666666666667,1.1166666666666667,1.1166666666666667,1.1166666666666667,1.1071428571428572,1.0976190476190477,1.0785714285714285,1.0404761904761906,0.9547619047619048,0.7833333333333333,0.611904761904762,0.46904761904761905,0.3357142857142857,0.23095238095238096,0.15476190476190477,0.14523809523809525,0.1261904761904762,0.1261904761904762,0.1261904761904762,0.1261904761904762,0.1261904761904762,0.1261904761904762,0.1261904761904762,0.1261904761904762,0.1261904761904762,0.1261904761904762,0.1261904761904762,0.1261904761904762,0.1261904761904762,0.1261904761904762,0.1261904761904762,0.1261904761904762,0.1261904761904762,0.1261904761904762,0.11666666666666667,0.11666666666666667,0.02142857142857143,-0.02619047619047619,-0.06428571428571428,-0.07380952380952381,-0.07380952380952381,-0.07380952380952381,-0.07380952380952381,-0.07380952380952381,-0.07380952380952381,-0.07380952380952381,-0.07380952380952381,-0.07380952380952381,-0.07380952380952381,-0.07380952380952381,-0.07380952380952381,-0.07380952380952381,-0.07380952380952381,-0.07380952380952381,-0.07380952380952381,-0.07380952380952381,-0.07380952380952381,-0.06428571428571428,-0.06428571428571428,-0.06428571428571428,-0.06428571428571428,-0.06428571428571428,-0.06428571428571428,-0.06428571428571428,-0.06428571428571428,-0.06428571428571428,-0.06428571428571428,-0.06428571428571428,-0.06428571428571428,-0.06428571428571428,-0.06428571428571428,-0.06428571428571428,-0.06428571428571428,-0.06428571428571428,-0.06428571428571428,-0.06428571428571428,-0.06428571428571428,-0.06428571428571428,-0.06428571428571428,-0.06428571428571428,-0.06428571428571428,-0.06428571428571428,-0.06428571428571428,-0.06428571428571428,-0.06428571428571428,-0.06428571428571428,-0.06428571428571428,-0.06428571428571428,-0.06428571428571428,-0.06428571428571428,-0.06428571428571428,-0.06428571428571428,-0.06428571428571428,-0.06428571428571428,-0.06428571428571428,-0.06428571428571428,-0.06428571428571428,-0.06428571428571428,-0.02619047619047619,0.02142857142857143,0.07857142857142857,0.09761904761904762,0.11666666666666667,0.1261904761904762,0.1261904761904762,0.1261904761904762,0.1261904761904762,0.1261904761904762,0.1261904761904762,0.1261904761904762,0.1261904761904762,0.1261904761904762,0.1261904761904762,0.1261904761904762,0.1261904761904762,0.1261904761904762,0.1261904761904762,0.11666666666666667,0.10714285714285714,0.09761904761904762,0.07857142857142857,0.07857142857142857,0.06904761904761905,0.06904761904761905,0.06904761904761905,0.06904761904761905,0.06904761904761905,0.06904761904761905,0.06904761904761905,0.06904761904761905,0.06904761904761905,0.06904761904761905,0.06904761904761905,0.06904761904761905,0.06904761904761905,0.06904761904761905,0.06904761904761905,0.06904761904761905,0.06904761904761905,0.06904761904761905,0.06904761904761905,0.06904761904761905,0.06904761904761905,0.06904761904761905,0.06904761904761905,0.06904761904761905,0.06904761904761905,0.06904761904761905,0.06904761904761905,0.06904761904761905,0.06904761904761905,0.06904761904761905,0.06904761904761905,0.06904761904761905,0.06904761904761905,0.06904761904761905,0.06904761904761905,0.06904761904761905,0.06904761904761905,0.06904761904761905,0.06904761904761905,0.06904761904761905,0.07857142857142857,0.0880952380952381,0.0880952380952381,0.0880952380952381,0.0880952380952381,0.0880952380952381,0.0880952380952381,0.0880952380952381,0.0880952380952381,0.0880952380952381,0.0880952380952381,0.0880952380952381,0.0880952380952381,0.0880952380952381,0.0880952380952381,0.0880952380952381,0.0880952380952381,0.0880952380952381,0.0880952380952381,0.0880952380952381,0.0880952380952381,0.0880952380952381,0.0880952380952381,0.0880952380952381,0.07857142857142857,0.07857142857142857,0.07857142857142857,0.06904761904761905,0.06904761904761905,0.06904761904761905,0.06904761904761905,0.06904761904761905,0.06904761904761905,0.06904761904761905,0.06904761904761905,0.06904761904761905,0.06904761904761905,0.06904761904761905,0.05952380952380952,0.05952380952380952,0.05952380952380952,0.05952380952380952,0.05952380952380952,0.05952380952380952,0.05952380952380952,0.05952380952380952,0.05952380952380952,0.05952380952380952,0.05952380952380952,0.05952380952380952,0.05952380952380952,0.05952380952380952,0.05952380952380952,0.05952380952380952,0.05952380952380952,0.05952380952380952,0.05952380952380952,0.05952380952380952,0.05952380952380952,0.05952380952380952,0.05952380952380952,0.05952380952380952,0.05952380952380952,0.05952380952380952,0.05952380952380952,0.05952380952380952,0.05952380952380952,0.05952380952380952,0.05952380952380952,0.05952380952380952,0.05952380952380952,0.05952380952380952,0.05952380952380952,0.05952380952380952,0.05952380952380952,0.05952380952380952,0.05952380952380952,0.05952380952380952,0.05952380952380952,0.05952380952380952,0.05952380952380952,0.05952380952380952,0.11666666666666667,0.11666666666666667,0.19285714285714287,0.26904761904761904,0.3738095238095238,0.45,0.5071428571428571,0.5452380952380952,0.5642857142857143,0.5833333333333334,0.5928571428571429,0.5928571428571429,0.6023809523809524,0.6023809523809524,0.6023809523809524,0.6023809523809524,0.6023809523809524,0.6023809523809524,0.6023809523809524,0.6023809523809524,0.6023809523809524,0.6023809523809524,0.6023809523809524,0.6023809523809524,0.6023809523809524,0.6023809523809524,0.6023809523809524,0.6023809523809524,0.6023809523809524,0.6023809523809524,0.6023809523809524,0.6023809523809524,0.6023809523809524,0.6023809523809524,0.6023809523809524,0.6023809523809524,0.6023809523809524,0.6023809523809524,0.6023809523809524,0.6023809523809524,0.6023809523809524,0.6023809523809524,0.6023809523809524,0.6023809523809524,0.6023809523809524,0.6023809523809524,0.6023809523809524,0.6023809523809524,0.6023809523809524,0.6023809523809524,0.6023809523809524,0.6023809523809524,0.6023809523809524,0.6023809523809524,0.6023809523809524,0.6023809523809524,0.6023809523809524,0.6023809523809524,0.6023809523809524,0.6023809523809524,0.6023809523809524,0.6023809523809524,0.6023809523809524,0.6023809523809524,0.6023809523809524,0.6023809523809524,0.611904761904762,0.6214285714285714,0.65,0.6880952380952381,0.7738095238095238,0.85,0.9642857142857143,1.0785714285714285,1.1738095238095239,1.2595238095238095,1.3166666666666667,1.3547619047619048,1.3738095238095238,1.3833333333333333,1.3833333333333333,1.3928571428571428,1.3928571428571428,1.3928571428571428,1.3928571428571428,1.3928571428571428,1.3928571428571428,1.3928571428571428,1.3928571428571428,1.3928571428571428,1.3928571428571428,1.3928571428571428,1.3928571428571428,1.3928571428571428,1.3928571428571428,1.3928571428571428,1.3928571428571428,1.3928571428571428,1.3928571428571428,1.3928571428571428,1.3928571428571428,1.3928571428571428,1.3928571428571428,1.3928571428571428,1.3928571428571428,1.3928571428571428,1.3928571428571428,1.3928571428571428,1.3928571428571428,1.3928571428571428,1.3928571428571428,1.3928571428571428,1.3928571428571428,1.3928571428571428,1.3928571428571428,1.3928571428571428,1.3928571428571428,1.3928571428571428,1.3928571428571428,1.3928571428571428,1.3928571428571428,1.3928571428571428,1.3928571428571428,1.3928571428571428,1.3928571428571428,1.3928571428571428,1.3928571428571428,1.3928571428571428,1.3928571428571428,1.3928571428571428,1.3928571428571428,1.3928571428571428,1.3928571428571428,1.3928571428571428,1.3928571428571428,1.3928571428571428,1.3928571428571428,1.3928571428571428,1.3928571428571428,1.3928571428571428,1.3928571428571428,1.3928571428571428,1.3928571428571428,1.3928571428571428,1.3928571428571428,1.3928571428571428,1.3928571428571428,1.3928571428571428,1.3928571428571428,1.3928571428571428,1.3928571428571428,1.3928571428571428,1.3928571428571428,1.3928571428571428,1.3928571428571428,1.3928571428571428,1.3928571428571428,1.3928571428571428,1.3928571428571428,1.3928571428571428,1.3928571428571428,1.3928571428571428,1.3928571428571428,1.3928571428571428,1.3928571428571428,1.3928571428571428,1.3928571428571428,1.3928571428571428,1.3928571428571428,1.3928571428571428,1.3928571428571428,1.3547619047619048,1.25,1.2119047619047618,1.1547619047619047,1.1261904761904762,1.1071428571428572,1.0976190476190477,1.088095238095238,1.0595238095238095,1.0404761904761906,1.0309523809523808,1.0119047619047619,1.0023809523809524,0.9928571428571429,0.9642857142857143,0.9357142857142857,0.8976190476190476,0.8404761904761905,0.8214285714285714,0.7928571428571428,0.7547619047619047,0.7166666666666667,0.6785714285714286,0.65,0.6309523809523809,0.6309523809523809,0.6309523809523809,0.6309523809523809,0.6309523809523809,0.6309523809523809,0.6309523809523809,0.6309523809523809,0.6309523809523809,0.6309523809523809,0.6309523809523809,0.6595238095238095,0.6785714285714286,0.7071428571428572,0.7166666666666667,0.7357142857142858,0.7452380952380953,0.7642857142857142,0.7738095238095238,0.7833333333333333,0.7928571428571428,0.8023809523809524,0.8119047619047619,0.8214285714285714,0.830952380952381,0.85,0.8690476190476191,0.8976190476190476,0.9071428571428571,0.9166666666666666,0.9357142857142857,0.9357142857142857,0.9357142857142857,0.9357142857142857,0.9357142857142857,0.9357142857142857,0.9357142857142857,0.9357142857142857,0.9357142857142857,0.9357142857142857,0.9357142857142857,0.9357142857142857,0.9357142857142857,0.9357142857142857,0.9357142857142857,0.9357142857142857,0.9357142857142857,0.9357142857142857,0.9357142857142857,0.9357142857142857,0.9357142857142857,0.9357142857142857,0.9357142857142857,0.9357142857142857,0.9357142857142857,0.9357142857142857,0.9357142857142857,0.9357142857142857,0.9357142857142857,1.0119047619047619,1.1166666666666667,1.2595238095238095,1.3642857142857143,1.4214285714285715,1.4690476190476192,1.4880952380952381,1.4976190476190476,1.4976190476190476,1.4976190476190476,1.4976190476190476,1.4976190476190476,1.4976190476190476,1.4880952380952381,1.4880952380952381,1.4785714285714286,1.4690476190476192,1.411904761904762,1.3261904761904761,1.2214285714285715,1.1357142857142857,1.088095238095238,1.069047619047619,1.0595238095238095,1.0595238095238095,1.0595238095238095,1.0595238095238095,1.0595238095238095,1.0595238095238095,1.0595238095238095,1.0595238095238095,1.0595238095238095,1.0595238095238095,1.0595238095238095,1.0595238095238095,1.0595238095238095,1.0595238095238095,1.069047619047619,1.069047619047619,1.069047619047619,1.069047619047619,1.069047619047619,1.069047619047619,1.069047619047619,1.069047619047619,1.069047619047619,1.069047619047619,1.069047619047619,1.069047619047619,1.069047619047619,1.069047619047619,1.069047619047619,1.069047619047619,1.069047619047619,1.069047619047619,1.069047619047619,1.069047619047619,1.069047619047619,1.069047619047619,1.069047619047619,1.069047619047619,1.069047619047619,1.069047619047619,1.069047619047619,1.069047619047619,1.069047619047619,1.069047619047619,1.069047619047619,1.069047619047619,1.069047619047619,1.069047619047619,1.069047619047619,1.069047619047619,1.069047619047619,1.069047619047619,1.069047619047619,1.069047619047619,1.069047619047619,1.069047619047619,1.069047619047619,1.05,0.9833333333333333,0.9261904761904762,0.8690476190476191,0.8404761904761905,0.830952380952381,0.8214285714285714,0.8023809523809524,0.7261904761904762,0.6309523809523809,0.5642857142857143,0.4976190476190476,0.4785714285714286,0.46904761904761905,0.4595238095238095,0.4595238095238095,0.4595238095238095,0.4595238095238095,0.45,0.44047619047619047,0.4119047619047619,0.3547619047619048,0.26904761904761904,0.22142857142857142,0.16428571428571428,0.14523809523809525,0.1261904761904762,0.1261904761904762,0.1261904761904762,0.1261904761904762,0.11666666666666667,0.10714285714285714,0.09761904761904762,0.07857142857142857,0.06904761904761905,0.05952380952380952,0.05952380952380952,0.05,0.04047619047619048,0.04047619047619048,0.04047619047619048,0.04047619047619048,0.04047619047619048,0.04047619047619048,0.04047619047619048,0.04047619047619048,0.04047619047619048,0.04047619047619048,0.04047619047619048,0.04047619047619048,0.04047619047619048,0.04047619047619048,0.04047619047619048,0.04047619047619048,0.04047619047619048,0.04047619047619048,0.04047619047619048,0.04047619047619048,0.04047619047619048,0.04047619047619048,0.04047619047619048,0.04047619047619048,0.04047619047619048,0.04047619047619048,0.04047619047619048,0.04047619047619048,0.04047619047619048,0.04047619047619048,0.04047619047619048,0.04047619047619048,0.04047619047619048,0.04047619047619048,0.04047619047619048,0.04047619047619048,0.04047619047619048,0.04047619047619048,0.04047619047619048,0.04047619047619048,0.04047619047619048,0.04047619047619048,0.04047619047619048,0.04047619047619048,0.04047619047619048,0.04047619047619048,0.04047619047619048,0.04047619047619048,0.04047619047619048,0.04047619047619048,0.04047619047619048,0.04047619047619048,0.04047619047619048,0.04047619047619048,0.04047619047619048,0.04047619047619048,0.04047619047619048,0.04047619047619048,0.04047619047619048,0.04047619047619048,0.05952380952380952,0.1261904761904762,0.1738095238095238,0.2119047619047619,0.23095238095238096,0.25,0.25952380952380955,0.26904761904761904,0.2785714285714286,0.28809523809523807,0.2976190476190476,0.30714285714285716,0.30714285714285716,0.30714285714285716,0.3261904761904762,0.3357142857142857,0.3547619047619048,0.36428571428571427,0.3738095238095238,0.38333333333333336,0.4023809523809524,0.5071428571428571,0.6595238095238095,0.7928571428571428,0.9071428571428571,0.9452380952380952,0.9642857142857143,0.9738095238095238,0.9738095238095238,0.9738095238095238,0.9738095238095238,0.9738095238095238,0.9738095238095238,0.9452380952380952,0.9452380952380952,0.8976190476190476,0.8595238095238096,0.8119047619047619,0.7738095238095238,0.7357142857142858,0.7071428571428572,0.7071428571428572,0.669047619047619,0.65,0.65,0.6309523809523809,0.6309523809523809,0.6309523809523809,0.6309523809523809,0.6309523809523809,0.6309523809523809,0.6214285714285714,0.6214285714285714,0.6214285714285714,0.6214285714285714,0.6214285714285714,0.6214285714285714,0.6214285714285714,0.6214285714285714,0.6214285714285714,0.6214285714285714,0.6214285714285714,0.6214285714285714,0.6214285714285714,0.6214285714285714,0.6214285714285714,0.6214285714285714,0.6214285714285714,0.6214285714285714,0.6214285714285714,0.6214285714285714,0.6214285714285714,0.6214285714285714,0.6214285714285714,0.6214285714285714,0.6214285714285714,0.6214285714285714,0.6214285714285714,0.6214285714285714,0.6214285714285714,0.6214285714285714,0.6214285714285714,0.6214285714285714,0.6214285714285714,0.6214285714285714,0.6214285714285714,0.6214285714285714,0.6214285714285714,0.6214285714285714,0.611904761904762,0.5833333333333334,0.5547619047619048,0.5357142857142857,0.5261904761904762,0.5261904761904762,0.5261904761904762,0.5166666666666667,0.5166666666666667,0.5166666666666667,0.5166666666666667,0.5166666666666667,0.5166666666666667,0.5166666666666667,0.5166666666666667,0.5166666666666667,0.5166666666666667,0.5166666666666667,0.5166666666666667,0.5166666666666667,0.5166666666666667,0.5166666666666667,0.5166666666666667,0.5166666666666667,0.5166666666666667,0.5166666666666667,0.5166666666666667,0.5166666666666667,0.5166666666666667,0.5166666666666667,0.5166666666666667,0.5166666666666667,0.5166666666666667,0.5166666666666667,0.5166666666666667,0.5166666666666667,0.5166666666666667,0.5166666666666667,0.5166666666666667,0.5166666666666667,0.5166666666666667,0.5166666666666667,0.5166666666666667,0.5166666666666667,0.5166666666666667,0.5166666666666667,0.5166666666666667,0.4976190476190476,0.430952380952381,0.3357142857142857,0.26904761904761904,0.19285714285714287,0.14523809523809525,0.14523809523809525,0.14523809523809525,0.14523809523809525,0.14523809523809525,0.14523809523809525,0.14523809523809525,0.14523809523809525,0.14523809523809525,0.14523809523809525,0.14523809523809525,0.14523809523809525,0.14523809523809525,0.14523809523809525,0.14523809523809525,0.14523809523809525,0.14523809523809525,0.14523809523809525,0.14523809523809525,0.14523809523809525,0.14523809523809525,0.14523809523809525,0.14523809523809525,0.1261904761904762,0.10714285714285714,0.07857142857142857,0.04047619047619048,0.02142857142857143,0.02142857142857143,0.011904761904761904,0.011904761904761904,0.011904761904761904,0.011904761904761904,0.011904761904761904,0.011904761904761904,0.011904761904761904,0.011904761904761904,0.011904761904761904,0.011904761904761904,0.011904761904761904,0.011904761904761904,0.011904761904761904,0.011904761904761904,0.011904761904761904,0.011904761904761904,0.011904761904761904,0.011904761904761904,0.011904761904761904,0.011904761904761904,0.011904761904761904,0.011904761904761904,0.011904761904761904,0.011904761904761904,0.011904761904761904,0.011904761904761904,0.011904761904761904,0.011904761904761904,0.011904761904761904,0.011904761904761904,0.011904761904761904,0.011904761904761904,0.011904761904761904,0.011904761904761904,0.011904761904761904,0.011904761904761904,0.011904761904761904,0.011904761904761904,0.011904761904761904,0.011904761904761904,0.011904761904761904,0.011904761904761904,0.011904761904761904,0.011904761904761904,0.011904761904761904,0.011904761904761904,0.011904761904761904,0.011904761904761904,0.011904761904761904,0.011904761904761904,0.011904761904761904,0.011904761904761904,0.011904761904761904,0.011904761904761904,0.011904761904761904,0.011904761904761904,0.011904761904761904,0.011904761904761904,0.011904761904761904,0.011904761904761904,0.011904761904761904,0.011904761904761904,0.011904761904761904,0.011904761904761904,0.011904761904761904,0.011904761904761904,0.011904761904761904,0.011904761904761904,0.011904761904761904,0.011904761904761904,0.011904761904761904,0.011904761904761904,0.011904761904761904,0.011904761904761904,0.011904761904761904,0.011904761904761904,0.011904761904761904,0.011904761904761904,0.011904761904761904,0.011904761904761904,0.011904761904761904,0.011904761904761904,0.011904761904761904,0.011904761904761904,0.011904761904761904,0.030952380952380953,0.14523809523809525,0.34523809523809523,0.5547619047619048,0.7833333333333333,0.9928571428571429,0.9928571428571429,1.3261904761904761,1.3261904761904761,1.4690476190476192,1.5928571428571427,1.7833333333333334,1.8214285714285714,1.85,1.8595238095238096,1.8595238095238096,1.8595238095238096,1.8595238095238096,1.8595238095238096,1.8595238095238096,1.8595238095238096,1.8595238095238096,1.8595238095238096,1.8595238095238096,1.8595238095238096,1.8595238095238096,1.8595238095238096,1.8595238095238096,1.8595238095238096,1.8595238095238096,1.8595238095238096,1.8595238095238096,1.8595238095238096,1.8595238095238096,1.8595238095238096,1.8595238095238096,1.8595238095238096,1.8595238095238096,1.8595238095238096,1.8595238095238096,1.8595238095238096,1.8595238095238096,1.8595238095238096,1.8595238095238096,1.8595238095238096,1.8595238095238096,1.8595238095238096,1.8595238095238096,1.8595238095238096,1.8595238095238096,1.8595238095238096,1.8595238095238096,1.8595238095238096,1.8595238095238096]},"final_keyboard_state":["T","I","G","E","Z","B","R","A"],"num_clicks":8,"points":12,"cheat":false,"trial_type":"Hangman","trial_index":5,"time_elapsed":85470,"internal_node_id":"0.0-4.0","protocol_sum":"","subject_identifier":429,"subject_sum":[128,43,144,106,24,89,30,173,138,109,216,9,178,98,172,228,198,92,22,232,151,100,196,10,227,38,207,207,248,17,225,12],"subject_pair":214,"STUDY_ID":"66a22c0758a3d5c9d26873c6","PROLIFIC_PID":"668ccc0547aefd19511d7780","SESSION_ID":"66a2cc6bc633037f5273c075","practice_instructions":1,"leaderboard_instructions":1,"bonus":0,"reveal_word":true,"self_rating":"3","confidence":"67"},{"view_history":"[{\"page_index\":0,\"viewing_time\":10653.700000017881},{\"page_index\":1,\"viewing_time\":16421.90000000596}]","rt":27076.90000000596,"trial_type":"instructions","trial_index":6,"time_elapsed":112549,"internal_node_id":"0.0-5.0","protocol_sum":"","subject_identifier":429,"subject_sum":[128,43,144,106,24,89,30,173,138,109,216,9,178,98,172,228,198,92,22,232,151,100,196,10,227,38,207,207,248,17,225,12],"subject_pair":214,"STUDY_ID":"66a22c0758a3d5c9d26873c6","PROLIFIC_PID":"668ccc0547aefd19511d7780","SESSION_ID":"66a2cc6bc633037f5273c075","practice_instructions":1,"leaderboard_instructions":1,"bonus":0,"reveal_word":true,"self_rating":"3","confidence":"67"},{"rt":6503.4000000059605,"responses":"{\"Q0\":\"...from <b>a previous session</b> that is part of the upcoming tournament.\"}","question_order":"[0]","trial_type":"survey-multi-choice","trial_index":7,"time_elapsed":119055,"internal_node_id":"0.0-6.0","protocol_sum":"","subject_identifier":429,"subject_sum":[128,43,144,106,24,89,30,173,138,109,216,9,178,98,172,228,198,92,22,232,151,100,196,10,227,38,207,207,248,17,225,12],"subject_pair":214,"correct":false,"test_part":"multichoice_leaderboard","STUDY_ID":"66a22c0758a3d5c9d26873c6","PROLIFIC_PID":"668ccc0547aefd19511d7780","SESSION_ID":"66a2cc6bc633037f5273c075","practice_instructions":1,"leaderboard_instructions":1,"bonus":0,"reveal_word":true,"self_rating":"3","confidence":"67"},{"view_history":"[{\"page_index\":0,\"viewing_time\":2288.199999988079}]","rt":2288.5999999940395,"trial_type":"instructions","trial_index":8,"time_elapsed":121345,"internal_node_id":"0.0-7.0-0.0","protocol_sum":"","subject_identifier":429,"subject_sum":[128,43,144,106,24,89,30,173,138,109,216,9,178,98,172,228,198,92,22,232,151,100,196,10,227,38,207,207,248,17,225,12],"subject_pair":214,"STUDY_ID":"66a22c0758a3d5c9d26873c6","PROLIFIC_PID":"668ccc0547aefd19511d7780","SESSION_ID":"66a2cc6bc633037f5273c075","practice_instructions":1,"leaderboard_instructions":1,"bonus":0,"reveal_word":true,"self_rating":"3","confidence":"67"},{"rt":15729.59999999404,"responses":"{\"Q0\":\"...from <b>a previous session</b> that is not part of the upcoming tournament.\"}","question_order":"[0]","trial_type":"survey-multi-choice","trial_index":9,"time_elapsed":137077,"internal_node_id":"0.0-7.0-1.0","protocol_sum":"","subject_identifier":429,"subject_sum":[128,43,144,106,24,89,30,173,138,109,216,9,178,98,172,228,198,92,22,232,151,100,196,10,227,38,207,207,248,17,225,12],"subject_pair":214,"correct":true,"test_part":"multichoice_leaderboard","STUDY_ID":"66a22c0758a3d5c9d26873c6","PROLIFIC_PID":"668ccc0547aefd19511d7780","SESSION_ID":"66a2cc6bc633037f5273c075","practice_instructions":1,"leaderboard_instructions":1,"bonus":0,"reveal_word":true,"self_rating":"3","confidence":"67"},{"view_history":"[{\"page_index\":0,\"viewing_time\":12497.300000011921}]","rt":12497.700000017881,"trial_type":"instructions","trial_index":10,"time_elapsed":149577,"internal_node_id":"0.0-8.0","protocol_sum":"","subject_identifier":429,"subject_sum":[128,43,144,106,24,89,30,173,138,109,216,9,178,98,172,228,198,92,22,232,151,100,196,10,227,38,207,207,248,17,225,12],"subject_pair":214,"STUDY_ID":"66a22c0758a3d5c9d26873c6","PROLIFIC_PID":"668ccc0547aefd19511d7780","SESSION_ID":"66a2cc6bc633037f5273c075","practice_instructions":1,"leaderboard_instructions":1,"bonus":0,"reveal_word":true,"self_rating":"3","confidence":"67"},{"rt":21440.100000023842,"responses":"{\"Q0\":\"...how well players did (in terms of <b>points</b>) in <b>previous games.</b>\"}","question_order":"[0]","trial_type":"survey-multi-choice","trial_index":11,"time_elapsed":171020,"internal_node_id":"0.0-9.0","protocol_sum":"","subject_identifier":429,"subject_sum":[128,43,144,106,24,89,30,173,138,109,216,9,178,98,172,228,198,92,22,232,151,100,196,10,227,38,207,207,248,17,225,12],"subject_pair":214,"correct":false,"test_part":"multichoice_tournament","STUDY_ID":"66a22c0758a3d5c9d26873c6","PROLIFIC_PID":"668ccc0547aefd19511d7780","SESSION_ID":"66a2cc6bc633037f5273c075","practice_instructions":1,"leaderboard_instructions":1,"bonus":0,"reveal_word":true,"self_rating":"3","confidence":"67"},{"view_history":"[{\"page_index\":0,\"viewing_time\":3117.5999999940395}]","rt":3118.0999999940395,"trial_type":"instructions","trial_index":12,"time_elapsed":174140,"internal_node_id":"0.0-10.0-0.0","protocol_sum":"","subject_identifier":429,"subject_sum":[128,43,144,106,24,89,30,173,138,109,216,9,178,98,172,228,198,92,22,232,151,100,196,10,227,38,207,207,248,17,225,12],"subject_pair":214,"STUDY_ID":"66a22c0758a3d5c9d26873c6","PROLIFIC_PID":"668ccc0547aefd19511d7780","SESSION_ID":"66a2cc6bc633037f5273c075","practice_instructions":1,"leaderboard_instructions":1,"bonus":0,"reveal_word":true,"self_rating":"3","confidence":"67"},{"rt":6650.700000017881,"responses":"{\"Q0\":\"...players' leaderboard position (in terms of <b>points</b>) in an <b>upcoming tournament.</b>\"}","question_order":"[0]","trial_type":"survey-multi-choice","trial_index":13,"time_elapsed":180793,"internal_node_id":"0.0-10.0-1.0","protocol_sum":"","subject_identifier":429,"subject_sum":[128,43,144,106,24,89,30,173,138,109,216,9,178,98,172,228,198,92,22,232,151,100,196,10,227,38,207,207,248,17,225,12],"subject_pair":214,"correct":true,"test_part":"multichoice_tournament","STUDY_ID":"66a22c0758a3d5c9d26873c6","PROLIFIC_PID":"668ccc0547aefd19511d7780","SESSION_ID":"66a2cc6bc633037f5273c075","practice_instructions":1,"leaderboard_instructions":1,"bonus":0,"reveal_word":true,"self_rating":"3","confidence":"67"},{"view_history":"[{\"page_index\":0,\"viewing_time\":14389.299999982119}]","rt":14