[{"success":true,"trial_type":"fullscreen","trial_index":0,"time_elapsed":4481,"internal_node_id":"0.0-0.0","protocol_sum":"","subject_identifier":118,"subject_sum":[62,30,150,126,155,121,62,144,143,142,174,131,199,77,186,155,204,204,230,165,83,91,75,70,43,217,153,69,55,191,225,92],"subject_pair":59,"STUDY_ID":"669a702db1122fc5150a13ce","PROLIFIC_PID":"6277f24d24ba4608b3fa016c","SESSION_ID":"669e31197c0117b5bc7de1de","practice_instructions":1,"leaderboard_instructions":0,"bonus":0,"reveal_word":false,"self_rating":"3","confidence":"76"},{"view_history":"[{\"page_index\":0,\"viewing_time\":12173}]","rt":12174,"trial_type":"instructions","trial_index":1,"time_elapsed":16656,"internal_node_id":"0.0-1.0","protocol_sum":"","subject_identifier":118,"subject_sum":[62,30,150,126,155,121,62,144,143,142,174,131,199,77,186,155,204,204,230,165,83,91,75,70,43,217,153,69,55,191,225,92],"subject_pair":59,"STUDY_ID":"669a702db1122fc5150a13ce","PROLIFIC_PID":"6277f24d24ba4608b3fa016c","SESSION_ID":"669e31197c0117b5bc7de1de","practice_instructions":1,"leaderboard_instructions":0,"bonus":0,"reveal_word":false,"self_rating":"3","confidence":"76"},{"view_history":"[{\"page_index\":0,\"viewing_time\":13364}]","rt":13365,"trial_type":"instructions","trial_index":2,"time_elapsed":30022,"internal_node_id":"0.0-2.0-0.0","protocol_sum":"","subject_identifier":118,"subject_sum":[62,30,150,126,155,121,62,144,143,142,174,131,199,77,186,155,204,204,230,165,83,91,75,70,43,217,153,69,55,191,225,92],"subject_pair":59,"STUDY_ID":"669a702db1122fc5150a13ce","PROLIFIC_PID":"6277f24d24ba4608b3fa016c","SESSION_ID":"669e31197c0117b5bc7de1de","practice_instructions":1,"leaderboard_instructions":0,"bonus":0,"reveal_word":false,"self_rating":"3","confidence":"76"},{"rt":12521,"responses":"{\"Q0\":\"... reveal the word with as <b>few letter guesses</b> as possible\"}","question_order":"[0]","trial_type":"survey-multi-choice","trial_index":3,"time_elapsed":42546,"internal_node_id":"0.0-2.0-1.0","protocol_sum":"","subject_identifier":118,"subject_sum":[62,30,150,126,155,121,62,144,143,142,174,131,199,77,186,155,204,204,230,165,83,91,75,70,43,217,153,69,55,191,225,92],"subject_pair":59,"correct":true,"test_part":"multichoice_nonpretend","STUDY_ID":"669a702db1122fc5150a13ce","PROLIFIC_PID":"6277f24d24ba4608b3fa016c","SESSION_ID":"669e31197c0117b5bc7de1de","practice_instructions":1,"leaderboard_instructions":0,"bonus":0,"reveal_word":false,"self_rating":"3","confidence":"76"},{"view_history":"[{\"page_index\":0,\"viewing_time\":7588}]","rt":7588,"trial_type":"instructions","trial_index":4,"time_elapsed":50135,"internal_node_id":"0.0-3.0","protocol_sum":"","subject_identifier":118,"subject_sum":[62,30,150,126,155,121,62,144,143,142,174,131,199,77,186,155,204,204,230,165,83,91,75,70,43,217,153,69,55,191,225,92],"subject_pair":59,"STUDY_ID":"669a702db1122fc5150a13ce","PROLIFIC_PID":"6277f24d24ba4608b3fa016c","SESSION_ID":"669e31197c0117b5bc7de1de","practice_instructions":1,"leaderboard_instructions":0,"bonus":0,"reveal_word":false,"self_rating":"3","confidence":"76"},{"word":"ZEBRA","click_log":{"letter":["","E","R","S","C","N","M","F","B","Z","A"],"t":[0,10798,19654,26444,35884,39001,42555.000000000015,48242,52831,57835.000000000015,59337],"hit":[null,1,1,0,0,0,0,0,1,1,1],"asked":["","E","ER","ERS","ERSC","ERSCN","ERSCNM","ERSCNMF","ERSCNMFB","ERSCNMFBZ","ERSCNMFBZA"],"word_state":["_____","_E___","_E_R_","_E_R_","_E_R_","_E_R_","_E_R_","_E_R_","_EBR_","ZEBR_","ZEBRA"]},"hover_log":{"letter":["?","?","?","?","?","?","?","?","?","?","?","?","?","?","?","?","?","?","?","?","?","?","?","?","?","?","?","?","?","?","?","?","?","?","?","?","?","?","?","?","?","?","?","?","?","?","?","?","?","?","?","?","?","?","?","?","?","?","?","?","?","?","?","?","?","?","?","?","?","?","?","?","?","?","?","?","?","?","?","?","?","?","?","?","?","?","?","?","?","?","?","?","?","?","?","?","?","?","?","?","?","?","?","?","?","?","?","?","?","?","?","?","?","?","?","?","?","?","?","?","?","?","?","?","?","?","?","?","?","?","?","?","?","?","?","?","?","?","?","?","?","?","?","?","?","?","?","?","?","?","?","?","?","?","?","?","?","?","?","?","?","?","?","?","?","?","?","?","?","?","?","?","?","?","?","?","?","?","?","?","?","?","?","?","?","?","?","?","?","?","?","?","?","?","?","?","?","?","?","?","?","?","?","?","?","?","?","?","?","?","?","?","?","?","?","?","?","?","?","?","?","?","?","?","?","?","?","?","?","?","?","?","?","?","?","?","?","?","?","?","?","?","?","?","?","?","?","?","?","?","?","?","?","?","?","?","?","?","?","?","?","?","?","?","?","?","?","?","?","?","?","?","?","?","?","?","?","?","?","?","?","?","?","?","?","?","?","?","?","?","?","?","?","?","?","?","?","?","?","?","?","?","?","?","?","?","?","?","?","?","?","?","?","?","?","?","?","?","?","?","?","?","?","?","?","?","?","?","?","?","?","?","?","?","?","?","?","?","?","?","?","?","?","?","?","?","?","?","?","?","?","?","?","?","?","?","?","?","?","?","?","?","?","?","?","?","?","?","?","?","?","?","?","?","?","?","?","?","?","?","?","?","?","?","?","?","?","?","?","?","?","?","?","?","?","?","?","?","?","?","?","?","?","?","?","?","?","?","?","?","?","?","?","?","?","?","?","?","?","?","?","?","?","?","?","?","?","?","?","?","?","?","?","?","?","?","?","?","?","?","?","?","?","?","?","?","?","?","?","?","?","?","?","?","?","?","?","?","?","?","?","?","?","?","?","?","?","?","?","?","?","?","?","?","?","?","?","?","?","?","?","?","?","?","?","?","?","?","?","?","?","?","?","?","?","?","?","?","?","?","?","?","?","?","?","?","?","?","?","?","?","?","?","?","?","?","?","?","?","?","?","?","?","?","?","?","?","?","?","?","?","?","?","?","?","?","?","?","?","?","?","?","?","?","?","?","?","?","?","?","?","?","?","?","?","?","?","?","?","?","?","?","?","?","?","?","?","?","?","?","?","?","?","?","?","?","?","?","?","?","?","?","?","?","?","?","?","?","?","?","?","?","?","?","?","?","?","?","?","?","?","?","?","?","?","?","?","?","?","?","?","?","?","?","E","E","E","E","E","E","E","E","E","E","E","E","E","E","E","E","E","E","E","E","E","E","E","E","E","E","E","E","E","E","E","E","E","E","E","E","E","E","E","E","E","E","E","E","E","E","E","E","E","E","E","E","E","E","E","E","E","E","E","E","E","E","E","E","E","E","E","E","E","E","E","E","E","E","E","E","E","E","E","E","E","E","E","E","E","E","E","E","E","E","E","E","E","E","E","E","E","E","E","E","E","E","E","E","E","E","E","E","E","E","E","E","E","E","E","E","E","E","E","E","E","E","E","E","E","E","E","E","E","E","E","E","E","E","E","E","E","E","E","E","E","E","E","E","E","E","E","E","E","E","E","E","E","E","E","E","E","E","E","E","E","E","E","E","E","E","E","E","E","E","E","E","E","E","E","E","E","E","E","E","E","E","E","E","E","E","E","E","E","E","E","E","E","E","E","E","E","E","E","E","E","E","E","E","E","E","E","E","E","E","E","E","E","E","E","E","E","E","E","E","E","E","E","E","E","E","E","E","E","E","E","E","E","E","E","E","E","E","E","E","E","E","E","E","E","E","E","E","E","E","E","E","E","E","E","E","E","E","E","E","E","E","E","E","E","E","E","E","E","E","E","E","E","E","E","E","E","E","E","E","E","E","E","E","E","E","E","E","E","E","E","E","E","E","E","E","E","E","E","E","E","E","E","E","E","E","E","E","E","E","E","E","E","E","E","E","E","E","E","E","E","E","E","E","E","E","E","E","E","E","E","E","E","E","E","E","E","E","E","E","E","E","E","E","E","E","E","E","E","E","E","E","E","E","E","E","E","E","E","E","E","E","E","E","E","E","E","E","E","E","E","E","E","E","E","E","E","E","E","E","E","E","E","E","E","E","E","E","E","E","E","E","E","E","E","E","E","E","E","E","E","E","E","E","E","E","E","E","E","E","E","E","E","E","E","E","E","E","E","E","E","E","E","E","E","E","E","E","E","E","E","E","E","E","E","E","E","E","E","E","E","E","E","E","E","E","E","E","E","E","E","E","E","E","E","E","E","E","E","E","E","E","E","E","E","E","E","E","E","E","E","E","E","E","E","E","E","E","E","E","E","E","E","E","E","E","E","E","E","E","E","E","E","E","E","E","E","E","E","E","E","E","E","E","E","E","E","E","E","E","E","E","E","E","E","E","E","E","E","E","E","E","E","E","E","E","E","E","E","E","R","R","R","R","R","R","R","R","R","R","R","R","R","R","R","R","R","R","R","R","R","R","R","R","R","R","R","R","R","R","R","R","R","R","R","R","R","R","R","R","R","R","R","R","R","R","R","R","R","R","R","R","R","R","R","R","R","R","R","R","R","R","R","R","R","R","R","R","R","R","R","R","R","R","R","R","R","R","R","R","R","R","R","R","R","R","R","R","R","R","R","R","R","R","R","R","R","R","R","R","R","R","R","R","R","R","R","R","R","R","R","R","R","R","R","R","R","R","R","R","R","R","R","R","R","R","R","R","R","R","R","R","R","R","R","R","R","R","R","R","R","R","R","R","R","R","R","R","R","R","R","R","R","R","R","R","R","R","R","R","R","R","R","R","R","R","R","R","R","R","R","R","R","R","R","R","R","R","R","R","R","R","R","R","R","R","R","R","R","R","R","R","R","R","R","R","R","R","R","R","R","R","R","R","R","R","R","R","R","R","R","R","R","R","R","R","R","R","R","R","R","R","R","R","R","R","R","R","R","R","R","R","R","R","R","R","R","R","R","R","R","R","R","R","R","R","R","R","R","R","R","R","R","R","R","R","R","R","R","R","R","R","R","R","R","R","R","R","R","R","R","R","R","R","R","R","R","R","R","R","R","R","R","R","R","R","R","R","R","R","R","R","R","R","R","R","R","R","R","R","R","R","R","R","R","R","R","R","R","R","R","R","R","R","R","R","R","R","R","R","R","R","R","R","R","R","R","R","R","R","R","R","R","R","R","R","R","R","R","R","R","R","R","R","R","R","R","R","R","R","R","R","R","R","R","R","R","R","R","R","R","R","R","R","R","R","R","R","R","R","R","R","R","R","R","R","R","R","R","R","R","R","R","R","R","R","R","R","R","R","R","R","R","R","R","R","R","R","R","R","R","R","R","R","R","R","R","S","S","S","S","S","S","S","S","S","S","S","S","S","S","S","S","S","S","S","S","S","S","S","S","S","S","S","S","S","S","S","S","S","S","S","S","S","S","S","S","S","S","S","S","S","S","S","S","S","S","S","S","S","S","S","S","S","S","S","S","S","S","S","S","S","S","S","S","S","S","S","S","S","S","S","S","S","S","S","S","S","S","S","S","S","S","S","S","S","S","S","S","S","S","S","S","S","S","S","S","S","S","S","S","S","S","S","S","S","S","S","S","S","S","S","S","S","S","S","S","S","S","S","S","S","S","S","S","S","S","S","S","S","S","S","S","S","S","S","S","S","S","S","S","S","S","S","S","S","S","S","S","S","S","S","S","S","S","S","S","S","S","S","S","S","S","S","S","S","S","S","S","S","S","S","S","S","S","S","S","S","S","S","S","S","S","S","S","S","S","S","S","S","S","S","S","S","S","S","S","S","S","S","S","S","S","S","S","S","S","S","S","S","S","S","S","S","S","S","S","S","S","S","S","S","S","S","S","S","S","S","S","S","S","S","S","S","S","S","S","S","S","S","S","S","S","S","S","S","S","S","S","S","S","S","S","S","S","S","S","S","S","S","S","S","S","S","S","S","S","S","S","S","S","S","S","S","S","S","S","S","S","S","S","S","S","S","S","S","S","S","S","S","S","S","S","S","S","S","S","S","S","S","S","S","S","S","S","S","S","S","S","S","S","S","S","S","S","S","S","S","S","S","S","S","S","S","S","S","S","S","S","S","S","S","S","S","S","S","S","S","S","S","S","S","S","S","S","S","S","S","S","S","S","S","S","S","S","S","S","S","S","S","S","S","S","S","S","S","S","S","S","S","S","S","S","S","S","S","S","S","S","S","S","S","S","S","S","S","S","S","S","S","S","S","S","S","S","S","S","S","S","S","S","S","S","S","S","S","S","S","S","S","S","S","S","S","S","S","S","S","S","S","S","S","S","S","S","S","S","S","S","S","S","S","S","S","S","S","S","S","S","S","S","S","S","S","S","S","S","S","S","S","S","S","S","S","S","S","S","S","S","S","S","S","S","S","S","S","S","S","S","S","S","S","S","S","S","S","S","S","S","S","S","S","S","S","S","S","S","S","S","S","S","S","S","S","S","S","S","S","S","S","S","S","S","S","S","S","S","S","S","S","S","S","S","S","S","S","S","S","S","S","S","S","S","S","S","S","S","S","S","S","S","S","S","S","S","S","S","S","S","S","S","S","S","S","S","S","S","S","S","S","S","S","S","S","S","S","S","S","C","C","C","C","C","C","C","C","C","C","C","C","C","C","C","C","C","C","C","C","C","C","C","C","C","C","C","C","C","C","C","C","C","C","C","C","C","C","C","C","C","C","C","C","C","C","C","C","C","C","C","C","C","C","C","C","C","C","C","C","C","C","C","C","C","C","C","C","C","C","C","C","C","C","C","C","C","C","C","C","C","C","C","C","C","C","C","C","C","C","C","C","C","C","C","C","C","C","C","C","C","C","C","C","C","C","C","C","C","C","C","C","C","C","C","C","C","C","C","C","C","C","C","C","C","C","C","C","C","C","C","C","C","C","C","C","C","C","C","C","C","C","C","C","C","C","C","C","C","C","C","C","C","C","C","C","C","C","C","C","C","C","C","C","C","C","C","C","C","C","C","C","C","C","C","C","C","C","C","C","C","C","C","C","C","C","N","N","N","N","N","N","N","N","N","N","N","N","N","N","N","N","N","N","N","N","N","N","N","N","N","N","N","N","N","N","N","N","N","N","N","N","N","N","N","N","N","N","N","N","N","N","N","N","N","N","N","N","N","N","N","N","N","N","N","N","N","N","N","N","N","N","N","N","N","N","N","N","N","N","N","N","N","N","N","N","N","N","N","N","N","N","N","N","N","N","N","N","N","N","N","N","N","N","N","N","N","N","N","N","N","N","N","N","N","N","N","N","N","N","N","N","N","N","N","N","N","N","N","N","N","N","N","N","N","N","N","N","N","N","N","N","N","N","N","N","N","N","N","N","N","N","N","N","N","N","N","N","N","N","N","N","N","N","N","N","N","N","N","N","N","N","N","N","N","N","N","N","N","N","N","N","N","N","N","N","N","N","N","N","N","N","N","N","N","N","N","N","N","N","N","N","N","N","N","N","N","N","N","N","N","N","N","N","N","N","N","N","M","M","M","M","M","M","M","M","M","M","M","M","M","M","M","M","M","M","M","M","M","M","M","M","M","M","M","M","M","M","M","M","M","M","M","M","M","M","M","M","M","M","M","M","M","M","M","M","M","M","M","M","M","M","M","M","M","M","M","M","M","M","M","M","M","M","M","M","M","M","M","M","M","M","M","M","M","M","M","M","M","M","M","M","M","M","M","M","M","M","M","M","M","M","M","M","M","M","M","M","M","M","M","M","M","M","M","M","M","M","M","M","M","M","M","M","M","M","M","M","M","M","M","M","M","M","M","M","M","M","M","M","M","M","M","M","M","M","M","M","M","M","M","M","M","M","M","M","M","M","M","M","M","M","M","M","M","M","M","M","M","M","M","M","M","M","M","M","M","M","M","M","M","M","M","M","M","M","M","M","M","M","M","M","M","M","M","M","M","M","M","M","M","M","M","M","M","M","M","M","M","M","M","M","M","M","M","M","M","M","M","M","M","M","M","M","M","M","M","M","M","M","M","M","M","M","M","M","M","M","M","M","M","M","M","M","M","M","M","M","M","M","M","M","M","M","M","M","M","M","M","M","M","M","M","M","M","M","M","M","M","M","M","M","M","M","M","M","M","M","M","M","M","M","M","M","M","M","M","M","M","M","M","M","M","M","M","M","M","M","M","M","M","M","M","M","M","M","M","M","M","M","M","M","M","M","M","M","M","M","M","M","M","M","M","M","M","M","M","M","M","M","M","M","M","M","M","M","M","M","M","M","M","M","M","M","M","M","M","F","F","F","F","F","F","F","F","F","F","F","F","F","F","F","F","F","F","F","F","F","F","F","F","F","F","F","F","F","F","F","F","F","F","F","F","F","F","F","F","F","F","F","F","F","F","F","F","F","F","F","F","F","F","F","F","F","F","F","F","F","F","F","F","F","F","F","F","F","F","F","F","F","F","F","F","F","F","F","F","F","F","F","F","F","F","F","F","F","F","F","F","F","F","F","F","F","F","F","F","F","F","F","F","F","F","F","F","F","F","F","F","F","F","F","F","F","F","F","F","F","F","F","F","F","F","F","?","?","?","?","?","?","?","?","?","?","?","?","?","?","?","?","?","?","?","?","?","?","?","?","?","?","?","?","?","?","?","?","?","?","?","?","?","?","?","?","?","?","?","?","?","?","?","?","?","?","?","?","?","?","?","?","?","?","?","?","?","?","?","?","?","?","?","?","?","?","?","?","?","?","?","?","?","?","?","?","?","?","?","?","?","?","?","?","?","?","?","?","?","?","?","?","?","?","?","?","?","?","?","?","?","?","?","?","?","?","?","?","?","?","?","?","?","?","?","?","?","?","?","?","?","?","?","?","?","?","?","?","?","?","?","?","?","?","?","?","?","?","?","?","?","B","B","B","B","B","B","B","B","B","B","B","B","B","B","B","B","B","B","B","B","B","B","B","B","B","B","B","B","B","B","B","B","B","B","B","B","B","B","B","B","B","B","B","B","B","B","B","B","B","B","B","B","B","B","B","B","B","B","B","B","B","B","B","B","B","B","B","B","B","B","B","B","B","B","B","B","B","B","B","B","B","B","B","B","B","B","B","B","B","B","B","B","B","B","B","B","B","B","B","B","B","B","B","B","B","B","B","B","B","B","B","B","B","B","B","B","B","B","B","B","B","B","B","B","B","B","B","B","B","B","B","B","B","B","B","B","B","B","B","B","B","B","B","B","B","B","B","B","B","B","B","B","B","B","B","B","B","B","B","B","B","B","B","B","B","B","B","B","B","B","B","B","B","B","B","?","?","?","?","?","?","?","?","?","?","?","?","?","?","?","?","?","?","?","?","?","?","?","?","?","?","?","?","?","?","?","?","?","?","?","?","?","?","?","?","?","?","?","?","?","?","?","?","?","?","?","?","?","?","?","?","?","?","?","?","?","?","?","?","?","?","?","?","?","?","?","?","?","?","?","?","?","?","?","?","?","?","?","?","?","?","?","?","?","?","?","?","?","?","?","?","?","?","?","?","?","?","?","?","?","?","?","?","?","?","?","?","?","?","?","?","?","?","?","?","?","?","Z","Z","Z","Z","Z","Z","Z","Z","Z","Z","Z","Z","Z","Z","Z","Z","Z","Z","Z","Z","Z","Z","Z","Z","Z","Z","Z","Z","Z","Z","Z","Z","Z","Z","Z","Z","Z","Z","Z","Z","Z","Z","Z","Z","Z","Z","Z","Z","Z","Z","Z","Z","Z","Z","Z","Z","Z","Z","Z","Z","Z","Z","Z","Z","Z","Z","Z","Z","Z","Z","Z","Z","Z","Z","Z","Z","Z","Z","Z","Z","Z","Z","Z","Z","Z","Z","Z","Z","A","A","A","A","A","A","A","A","A","A","A","A","A","A","A","A","A","A","A","A","A","A","A","A","A","A","A","A","A","A","A","A","A","A","A","A","A","A","A","A","A","A","A","A","A","A","A","A","A","A","A","A","A","A","A","A","A","A","A","A","A","A","A","A","A","A","A","A","A","A","A","A","A","A","A","A","A","A","A","A","A","A","A","A","A","A","A","A","A","A","A","A","A","A","A","A","A","A","A","A","A","A","A","A","A","A","A","A","A","A","A","A","A","A","A","A","A","A","A","A","A","A","A","A","A","A","A","A","A","A","A","A","A","A","A","A","A","A","A","A","A","A","A","A","A","A","A","A"],"t":[94,107,119,136,153,169,186,203,219,236,253,269,287,303,320,337,353,370,387,403,420,437,454,470,487,504,520,537,554,570,587,603,620,636,654,670,687,704,720,736,754,770,787,804,820,837,854,870,887,904,920,937,954,970,987,1004,1020,1037,1054,1071,1087,1104,1121,1137,1154,1171,1187,1204,1221,1238,1254,1271,1287,1304,1321,1337,1354,1371,1387,1404,1421,1437,1454,1471,1487,1504,1521,1538,1555,1571,1588,1604,1621,1638,1655,1671,1688,1704,1721,1738,1754,1771,1788,1804,1821,1838,1855,1871,1888,1905,1921,1938,1954,1971,1988,2005,2022,2038,2055,2072,2088,2105,2121,2138,2155,2171,2188,2205,2221,2238,2255,2271,2288,2305,2321,2338,2355,2371,2388,2405,2422,2438,2454,2472,2488,2505,2522,2538,2555,2572,2588,2605,2622,2639,2655,2672,2688,2705,2722,2739,2755,2772,2789,2805,2822,2838,2855,2872,2889,2905,2922,2939,2955,2972,2989,3005,3022,3039,3056,3072,3089,3106,3122,3139,3156,3172,3189,3205,3222,3239,3256,3272,3289,3306,3322,3339,3356,3372,3389,3406,3422,3439,3456,3472,3489,3506,3522,3539,3556,3573,3589,3606,3623,3639,3656,3672,3689,3706,3723,3739,3756,3773,3789,3806,3823,3839,3856,3873,3889,3906,3923,3939,3956,3973,3989,4006,4023,4040,4056,4073,4090,4106,4123,4140,4156,4173,4190,4206,4223,4240,4256,4273,4289,4307,4323,4340,4356,4373,4390,4406,4423,4440,4456,4473,4490,4506,4523,4540,4557,4573,4590,4607,4623,4640,4657,4674,4690,4707,4723,4740,4757,4773,4790,4807,4824,4840,4857,4873,4890,4907,4924,4940,4957,4974,4990,5007,5024,5040,5057,5074,5090,5107,5124,5140,5157,5174,5191,5207,5224,5240,5257,5274,5290,5307,5324,5340,5357,5374,5391,5407,5424,5440,5457,5474,5491,5507,5524,5541,5559,5574,5591,5608,5624,5641,5658,5674,5690,5707,5723,5741,5757,5774,5791,5807,5824,5841,5858,5874,5891,5907,5924,5940,5958,5974,5991,6008,6024,6042,6058,6075,6091,6108,6125,6141,6158,6175,6191,6208,6225,6241,6258,6275,6291,6308,6325,6341,6358,6375,6391,6408,6425,6441,6458,6477,6491,6508,6525,6542,6558,6575,6591,6608,6625,6641,6658,6675,6691,6708,6725,6742,6758,6775,6792,6808,6825,6842,6859,6875,6892,6909,6925,6942,6958,6975,6992,7008,7025,7042,7059,7075,7092,7108,7125,7142,7159,7175,7192,7209,7225,7242,7259,7275,7292,7309,7325,7342,7358,7375,7391,7410,7425,7442,7459,7475,7492,7509,7526,7542,7559,7576,7592,7609,7626,7642,7659,7676,7692,7709,7726,7742,7759,7776,7792,7809,7826,7842,7859,7876,7892,7909,7926,7942,7959,7976,7993,8009,8026,8043,8060,8076,8093,8109,8126,8143,8159,8176,8193,8209,8226,8243,8260,8276,8293,8309,8326,8343,8359,8376,8393,8409,8426,8443,8460,8476,8493,8510,8526,8543,8560,8576,8593,8610,8627,8643,8660,8677,8693,8710,8726,8743,8760,8776,8793,8810,8826,8843,8860,8877,8895,8910,8927,8943,8960,8977,8993,9010,9027,9044,9060,9077,9094,9110,9127,9144,9160,9177,9194,9210,9227,9243,9260,9277,9294,9310,9327,9344,9360,9377,9394,9410,9427,9444,9460,9477,9494,9510,9527,9544,9561,9578,9594,9611,9627,9644,9661,9677,9694,9711,9727,9744,9761,9777,9794,9811,9828,9844,9861,9877,9894,9911,9928,9944,9961,9978,9994,10011,10027,10044,10061,10078,10094,10111,10128,10144,10161,10178,10194,10211,10228,10244,10261,10278,10294,10311,10336,10362,10379,10396,10416,10428,10446,10462,10479,10496,10513,10529,10546,10562,10579,10596,10613,10629,10646,10663,10679,10696,10713,10729,10746,10763,10779,10796,10816,10831,10847,10864,10881,10897,10914,10930,10946,10963,10980,10997,11013,11031,11048,11064,11081,11098,11114,11131,11148,11164,11181,11197,11214,11231,11248,11263,11280,11297,11314,11329,11347,11364,11380,11397,11413,11431,11447,11464,11481,11498,11514,11531,11548,11564,11581,11598,11614,11631,11648,11664,11681,11698,11718,11730,11747,11764,11781,11798,11814,11831,11848,11864,11881,11898,11915,11931,11948,11965,11981,11998,12015,12031,12048,12064,12081,12098,12115,12131,12147,12164,12181,12198,12215,12231,12249,12265,12281,12298,12315,12331,12348,12365,12381,12398,12414,12431,12448,12465,12481,12498,12515,12532,12548,12565,12581,12598,12615,12632,12648,12665,12682,12698,12715,12731,12748,12765,12781,12798,12815,12832,12848,12865,12882,12898,12915,12932,12948,12965,12982,12998,13015,13032,13048,13065,13082,13098,13115,13132,13149,13165,13182,13199,13215,13232,13248,13265,13282,13299,13316,13332,13349,13365,13382,13399,13416,13432,13449,13465,13482,13499,13516,13532,13549,13566,13582,13599,13616,13632,13649,13666,13682,13699,13716,13732,13749,13766,13782,13799,13816,13832,13849,13866,13882,13899,13919,13932,13949,13965,13982,13999,14016,14032,14049,14066,14083,14099,14116,14133,14150,14166,14183,14199,14216,14233,14249,14266,14283,14300,14316,14333,14350,14366,14383,14399,14416,14433,14449,14466,14483,14499,14516,14533,14550,14567,14583,14600,14616,14633,14650,14667,14683,14700,14716,14733,14750,14766,14783,14800,14816,14833,14850,14867,14883,14899,14916,14933,14949,14966,14983,15000,15017,15033,15050,15067,15083,15100,15117,15133,15150,15167,15183,15200,15220,15233,15250,15267,15283,15300,15317,15333,15350,15367,15384,15400,15417,15434,15449,15466,15483,15500,15516,15533,15550,15566,15583,15599,15616,15632,15649,15666,15682,15699,15716,15732,15749,15766,15782,15799,15816,15832,15849,15866,15882,15899,15916,15933,15949,15966,15982,15999,16016,16033,16049,16066,16083,16099,16116,16132,16149,16166,16182,16199,16216,16233,16249,16266,16283,16299,16316,16333,16349,16366,16383,16399,16416,16433,16449,16466,16483,16500,16516,16533,16550,16566,16583,16599,16616,16633,16650,16666,16683,16699,16716,16733,16750,16766,16783,16800,16816,16833,16850,16867,16883,16900,16917,16933,16950,16966,16983,17000,17017,17033,17050,17066,17083,17100,17116,17133,17150,17167,17183,17200,17217,17233,17250,17267,17284,17300,17317,17333,17350,17367,17383,17400,17417,17433,17450,17467,17484,17501,17517,17534,17550,17567,17584,17602,17617,17634,17650,17667,17684,17700,17717,17734,17750,17767,17784,17800,17817,17834,17850,17867,17884,17901,17917,17934,17951,17967,17984,18001,18017,18034,18051,18068,18084,18101,18118,18134,18151,18168,18184,18201,18217,18234,18251,18267,18284,18301,18318,18334,18351,18368,18384,18401,18418,18434,18451,18468,18484,18501,18518,18534,18551,18568,18584,18601,18618,18635,18651,18669,18684,18701,18718,18735,18751,18768,18785,18801,18818,18835,18851,18868,18885,18902,18918,18935,18951,18968,18985,19002,19018,19035,19052,19068,19085,19102,19118,19135,19152,19168,19192,19218,19235,19252,19273,19285,19303,19319,19336,19353,19369,19386,19403,19419,19436,19453,19469,19486,19503,19520,19536,19553,19570,19586,19603,19620,19636,19653,19671,19687,19704,19721,19737,19754,19771,19787,19804,19821,19837,19853,19870,19887,19903,19920,19937,19954,19971,19987,20004,20021,20041,20054,20071,20087,20104,20121,20137,20154,20171,20188,20204,20221,20237,20254,20271,20288,20304,20321,20338,20354,20371,20388,20405,20421,20438,20455,20471,20487,20504,20521,20538,20555,20571,20588,20605,20620,20637,20654,20670,20688,20705,20721,20738,20755,20771,20788,20804,20821,20837,20854,20871,20888,20905,20921,20938,20955,20971,20988,21005,21022,21038,21055,21071,21088,21105,21122,21138,21155,21172,21188,21205,21222,21238,21255,21272,21288,21305,21322,21338,21355,21372,21388,21405,21422,21439,21455,21472,21488,21505,21522,21539,21555,21572,21588,21605,21622,21639,21655,21672,21689,21705,21722,21739,21758,21772,21789,21805,21822,21839,21856,21872,21889,21905,21922,21939,21956,21972,21989,22005,22022,22039,22055,22072,22089,22106,22122,22139,22156,22172,22189,22206,22222,22239,22256,22273,22289,22306,22322,22339,22356,22373,22389,22406,22423,22439,22456,22473,22489,22506,22523,22539,22556,22573,22589,22606,22623,22639,22656,22673,22690,22706,22723,22740,22756,22773,22790,22806,22823,22840,22856,22873,22890,22906,22923,22939,22956,22974,22989,23006,23025,23039,23056,23073,23090,23106,23123,23140,23156,23173,23190,23206,23223,23240,23256,23273,23290,23307,23323,23340,23357,23373,23390,23407,23423,23440,23457,23473,23490,23507,23523,23540,23557,23573,23590,23607,23624,23640,23657,23673,23690,23707,23724,23740,23757,23774,23790,23807,23824,23840,23857,23874,23891,23907,23924,23941,23957,23975,23990,24007,24024,24040,24057,24074,24091,24107,24124,24141,24157,24174,24191,24207,24224,24241,24260,24274,24290,24307,24324,24341,24358,24375,24390,24407,24424,24441,24458,24474,24491,24508,24524,24541,24558,24574,24591,24608,24624,24641,24658,24674,24691,24708,24724,24741,24758,24774,24791,24808,24824,24841,24858,24875,24891,24908,24925,24941,24958,24975,24991,25008,25025,25041,25058,25075,25092,25108,25125,25141,25158,25175,25191,25208,25225,25241,25258,25275,25292,25308,25325,25342,25358,25375,25392,25408,25425,25441,25458,25475,25492,25508,25525,25542,25558,25575,25592,25609,25625,25642,25658,25675,25692,25711,25725,25742,25759,25776,25792,25808,25825,25842,25859,25875,25892,25909,25925,25942,25959,25975,26007,26024,26041,26063,26074,26091,26108,26125,26142,26158,26176,26192,26209,26226,26242,26259,26276,26292,26309,26326,26343,26359,26376,26393,26409,26426,26443,26462,26507,26523,26540,26557,26573,26591,26608,26624,26641,26658,26674,26691,26708,26724,26741,26758,26774,26791,26808,26824,26841,26858,26874,26891,26908,26925,26941,26958,26974,26991,27008,27025,27041,27060,27075,27091,27108,27125,27142,27158,27175,27191,27208,27225,27242,27258,27275,27292,27308,27325,27342,27358,27375,27391,27408,27425,27442,27458,27475,27492,27508,27525,27542,27558,27575,27592,27608,27625,27642,27658,27675,27692,27708,27725,27742,27759,27775,27792,27808,27825,27842,27859,27875,27892,27908,27925,27942,27959,27975,27992,28009,28025,28042,28059,28075,28092,28109,28126,28142,28159,28176,28192,28209,28226,28242,28259,28276,28292,28309,28326,28342,28359,28376,28392,28409,28426,28442,28459,28477,28492,28508,28526,28543,28559,28576,28593,28609,28626,28643,28659,28676,28693,28709,28726,28743,28759,28776,28793,28809,28826,28843,28859,28876,28893,28909,28926,28943,28959,28976,28993,29009,29026,29043,29060,29076,29093,29110,29126,29143,29160,29176,29193,29210,29226,29243,29260,29276,29293,29310,29326,29343,29360,29376,29393,29410,29426,29443,29460,29477,29493,29510,29526,29543,29560,29577,29594,29610,29627,29643,29660,29677,29694,29711,29727,29743,29760,29777,29794,29810,29827,29844,29860,29877,29894,29910,29927,29944,29960,29977,29994,30011,30027,30044,30060,30077,30094,30111,30127,30144,30160,30177,30194,30211,30227,30244,30261,30277,30294,30310,30327,30344,30361,30377,30394,30411,30427,30444,30461,30477,30494,30511,30527,30544,30561,30577,30594,30611,30627,30644,30661,30678,30694,30711,30728,30744,30761,30777,30794,30811,30827,30844,30861,30878,30894,30911,30928,30946,30961,30978,30995,31011,31028,31044,31061,31078,31095,31111,31128,31145,31161,31178,31195,31211,31228,31245,31261,31278,31295,31311,31328,31345,31361,31378,31395,31411,31428,31445,31461,31478,31495,31512,31528,31545,31561,31578,31595,31612,31628,31645,31662,31678,31695,31712,31728,31745,31762,31778,31795,31812,31828,31845,31862,31878,31895,31912,31928,31945,31962,31978,31995,32012,32028,32045,32062,32079,32096,32112,32129,32145,32162,32180,32195,32212,32229,32246,32262,32279,32295,32312,32329,32345,32362,32379,32395,32412,32429,32445,32462,32479,32495,32512,32529,32546,32562,32579,32596,32612,32629,32646,32662,32679,32696,32712,32729,32746,32762,32779,32796,32812,32829,32846,32862,32879,32896,32912,32929,32946,32963,32979,32996,33013,33029,33046,33063,33079,33096,33113,33129,33146,33163,33180,33196,33213,33230,33246,33263,33280,33296,33313,33330,33346,33363,33379,33396,33413,33430,33446,33465,33479,33496,33513,33530,33546,33563,33580,33597,33613,33630,33647,33663,33680,33696,33713,33730,33747,33763,33780,33796,33813,33830,33847,33863,33880,33897,33913,33930,33947,33963,33980,33997,34013,34030,34047,34064,34080,34097,34114,34130,34147,34164,34180,34197,34214,34230,34247,34264,34280,34297,34314,34331,34347,34364,34381,34397,34414,34431,34447,34464,34480,34497,34514,34530,34547,34564,34581,34598,34614,34631,34647,34664,34681,34697,34714,34731,34748,34766,34781,34797,34814,34831,34847,34864,34881,34897,34914,34931,34948,34964,34981,34997,35014,35031,35047,35065,35081,35098,35115,35131,35148,35164,35181,35198,35214,35231,35248,35265,35281,35298,35314,35331,35348,35364,35381,35403,35431,35448,35465,35482,35503,35532,35549,35565,35582,35599,35616,35632,35649,35666,35682,35699,35716,35732,35749,35766,35782,35799,35816,35832,35849,35866,35883,35900,35917,35933,35950,35967,35983,36000,36017,36034,36050,36067,36087,36099,36117,36133,36150,36167,36184,36200,36217,36234,36250,36267,36284,36300,36317,36334,36350,36367,36384,36401,36417,36434,36450,36467,36484,36501,36517,36534,36551,36567,36584,36601,36617,36634,36651,36668,36684,36701,36717,36734,36751,36767,36784,36801,36817,36834,36851,36867,36884,36900,36918,36934,36951,36967,36984,37001,37017,37034,37051,37067,37084,37101,37118,37134,37151,37168,37184,37201,37218,37234,37251,37268,37284,37301,37318,37335,37351,37368,37385,37401,37418,37435,37451,37468,37485,37501,37518,37535,37551,37568,37585,37601,37617,37633,37650,37666,37683,37700,37716,37733,37750,37766,37783,37802,37816,37833,37850,37867,37883,37900,37916,37933,37950,37966,37983,38000,38017,38033,38050,38067,38083,38100,38117,38134,38150,38167,38184,38200,38217,38234,38250,38267,38284,38300,38317,38334,38350,38367,38384,38400,38417,38433,38450,38467,38484,38500,38517,38541,38567,38584,38601,38622,38634,38651,38667,38685,38701,38718,38734,38751,38767,38784,38801,38817,38834,38851,38867,38884,38901,38917,38934,38951,38968,38984,39001,39018,39034,39051,39068,39084,39102,39118,39134,39151,39168,39185,39201,39218,39235,39251,39268,39284,39301,39318,39334,39351,39368,39385,39401,39418,39434,39451,39468,39484,39501,39518,39534,39551,39568,39585,39601,39618,39635,39651,39668,39685,39702,39718,39735,39751,39768,39785,39801,39818,39835,39852,39868,39885,39901,39918,39935,39951,39968,39985,40002,40018,40035,40052,40068,40085,40101,40118,40135,40152,40169,40186,40202,40219,40235,40252,40269,40285,40302,40319,40335,40352,40369,40387,40402,40418,40435,40452,40469,40485,40502,40519,40535,40552,40569,40585,40602,40619,40635,40652,40669,40686,40702,40719,40736,40752,40769,40786,40802,40819,40836,40852,40869,40886,40902,40919,40936,40952,40969,40986,41003,41019,41036,41052,41069,41086,41102,41119,41136,41152,41170,41186,41203,41219,41236,41253,41269,41286,41303,41319,41336,41353,41370,41386,41403,41419,41436,41453,41469,41486,41503,41519,41536,41553,41569,41586,41603,41619,41636,41653,41670,41686,41703,41720,41736,41753,41770,41786,41803,41820,41836,41853,41870,41886,41903,41920,41936,41954,41969,41986,42003,42020,42036,42053,42070,42094,42120,42137,42154,42176,42204,42221,42238,42254,42271,42288,42304,42321,42338,42355,42372,42388,42404,42421,42438,42455,42471,42488,42505,42521,42538,42554,42571,42588,42605,42622,42639,42656,42672,42689,42706,42722,42739,42756,42772,42789,42805,42822,42839,42856,42872,42889,42906,42922,42939,42956,42972,42989,43004,43022,43039,43055,43071,43087,43105,43121,43138,43154,43172,43188,43205,43221,43238,43254,43271,43288,43304,43321,43337,43354,43371,43387,43406,43421,43438,43454,43471,43488,43504,43521,43538,43554,43571,43588,43605,43621,43638,43655,43671,43688,43705,43721,43738,43755,43771,43788,43805,43822,43838,43855,43871,43888,43905,43922,43938,43954,43971,43988,44005,44022,44038,44055,44071,44088,44105,44122,44138,44155,44172,44188,44205,44222,44238,44255,44272,44288,44305,44322,44338,44355,44372,44389,44405,44422,44438,44455,44472,44489,44505,44522,44539,44555,44572,44588,44605,44622,44639,44656,44672,44689,44705,44722,44739,44755,44772,44789,44806,44822,44839,44856,44872,44889,44905,44922,44939,44957,44972,44989,45006,45022,45039,45056,45072,45089,45106,45122,45139,45156,45173,45189,45206,45222,45239,45256,45273,45289,45306,45322,45339,45356,45372,45389,45406,45423,45439,45456,45473,45489,45506,45523,45539,45556,45573,45589,45606,45623,45640,45656,45673,45690,45706,45723,45740,45756,45773,45789,45806,45823,45840,45857,45873,45890,45906,45923,45940,45956,45973,45990,46007,46023,46040,46056,46073,46090,46107,46123,46140,46157,46174,46190,46207,46223,46240,46257,46273,46290,46307,46325,46340,46357,46373,46390,46407,46424,46440,46457,46473,46490,46507,46524,46540,46557,46574,46590,46607,46623,46640,46657,46674,46690,46707,46724,46740,46757,46774,46790,46807,46824,46841,46857,46874,46891,46907,46924,46940,46957,46974,46990,47007,47024,47040,47057,47074,47090,47107,47124,47141,47157,47174,47191,47207,47224,47241,47257,47274,47291,47307,47324,47341,47357,47374,47391,47407,47424,47441,47457,47474,47491,47508,47524,47541,47558,47574,47591,47608,47624,47641,47658,47675,47691,47708,47725,47743,47758,47782,47808,47825,47842,47861,47875,47891,47908,47925,47941,47958,47975,47991,48008,48025,48041,48058,48075,48091,48108,48125,48141,48158,48175,48191,48208,48225,48242,48258,48275,48292,48308,48325,48342,48358,48375,48392,48408,48425,48442,48458,48475,48492,48509,48525,48542,48558,48575,48592,48608,48625,48642,48659,48675,48692,48709,48725,48742,48759,48776,48792,48809,48826,48842,48859,48875,48892,48909,48926,48942,48959,48975,48992,49009,49026,49042,49059,49077,49092,49109,49126,49142,49159,49176,49192,49209,49226,49242,49259,49276,49292,49309,49326,49342,49359,49376,49392,49409,49426,49442,49459,49476,49492,49509,49526,49542,49559,49576,49592,49609,49626,49643,49659,49676,49693,49710,49726,49743,49759,49776,49793,49809,49825,49842,49858,49875,49892,49914,49925,49942,49959,49975,49994,50009,50026,50043,50060,50076,50093,50110,50126,50143,50160,50177,50193,50210,50226,50243,50260,50277,50293,50310,50327,50343,50360,50377,50393,50410,50427,50443,50460,50476,50493,50510,50527,50543,50560,50577,50593,50610,50628,50643,50660,50677,50694,50710,50727,50744,50760,50777,50793,50810,50827,50844,50860,50877,50894,50910,50927,50944,50960,50977,50994,51010,51027,51044,51060,51077,51094,51111,51127,51144,51161,51178,51194,51220,51244,51261,51278,51295,51317,51345,51361,51378,51395,51412,51428,51445,51462,51478,51495,51512,51528,51545,51562,51578,51595,51612,51629,51645,51662,51679,51696,51713,51729,51746,51763,51779,51796,51813,51829,51846,51863,51879,51896,51913,51930,51946,51963,51980,51996,52013,52030,52046,52063,52080,52096,52113,52130,52146,52163,52180,52199,52212,52229,52246,52263,52280,52296,52313,52330,52347,52377,52395,52412,52430,52450,52462,52479,52496,52512,52530,52547,52563,52580,52597,52613,52630,52647,52663,52680,52697,52713,52730,52747,52763,52780,52797,52814,52830,52847,52864,52880,52897,52914,52930,52947,52964,52981,52997,53013,53030,53047,53064,53081,53097,53114,53130,53147,53164,53181,53197,53214,53231,53247,53264,53281,53297,53314,53331,53347,53364,53381,53397,53414,53431,53447,53464,53481,53498,53514,53531,53547,53564,53581,53598,53614,53631,53648,53664,53681,53698,53714,53734,53747,53764,53781,53798,53814,53831,53848,53864,53881,53898,53914,53931,53948,53965,53981,53998,54014,54031,54048,54065,54081,54098,54114,54131,54148,54165,54181,54198,54215,54232,54248,54265,54281,54298,54315,54331,54348,54365,54382,54398,54415,54431,54448,54465,54481,54498,54515,54532,54548,54565,54582,54598,54615,54631,54648,54664,54680,54698,54714,54731,54749,54765,54782,54798,54815,54832,54849,54865,54882,54899,54915,54932,54949,54965,54982,54999,55015,55032,55049,55065,55082,55099,55115,55132,55149,55169,55182,55199,55215,55232,55249,55266,55282,55315,55331,55348,55365,55382,55403,55414,55432,55448,55466,55482,55499,55516,55532,55549,55566,55582,55599,55616,55633,55649,55666,55683,55699,55716,55733,55749,55766,55783,55799,55816,55833,55849,55866,55883,55899,55917,55933,55950,55966,55983,56000,56016,56033,56050,56066,56083,56100,56116,56133,56150,56167,56183,56200,56216,56233,56250,56266,56283,56300,56317,56333,56350,56366,56383,56400,56432,56448,56465,56482,56503,56515,56532,56549,56566,56583,56599,56616,56633,56650,56666,56683,56700,56717,56733,56750,56767,56783,56800,56817,56834,56850,56867,56883,56900,56917,56934,56950,56967,56983,57000,57017,57034,57051,57070,57083,57100,57117,57134,57150,57167,57184,57200,57217,57234,57250,57267,57284,57300,57317,57334,57351,57382,57399,57416,57434,57455,57483,57500,57517,57534,57550,57567,57584,57601,57617,57634,57651,57668,57684,57701,57717,57734,57751,57767,57784,57801,57818,57834,57851,57868,57885,57901,57918,57934,57951,57968,57984,58001,58018,58035,58051,58068,58084,58101,58118,58135,58151,58168,58185,58201,58218,58235,58251,58268,58285,58301,58318,58334,58351,58368,58385,58402,58418,58435,58451,58469,58485,58502,58518,58535,58552,58568,58585,58602,58618,58635,58652,58668,58688,58701,58718,58735,58752,58768,58785,58802,58818,58835,58852,58875,58900,58917,58935,58959,58986,59003,59018,59035,59053,59069,59086,59101,59119,59136,59152,59169,59186,59201,59217,59233,59250,59270,59286,59303,59317,59336,59352,59368,59386,59401,59419,59435,59452,59469,59484,59502,59519,59537,59552,59568,59586,59602,59619,59636,59651,59669,59685,59702,59719,59736,59753,59770,59786,59803,59820,59836,59853,59869,59886,59903,59920,59936,59953,59970,59986,60003,60020,60037,60053,60070,60087,60103,60119,60136,60153,60170,60187,60203,60219,60237,60253,60269,60286,60303,60319,60336,60353,60370,60385,60402,60418,60435,60452,60469,60486,60503,60519,60536,60553,60570,60587,60603,60620,60637,60653,60670,60687,60703,60720,60736,60753,60769,60787,60803,60820,60837,60853,60870,60887,60904,60920,60937,60954,60971,60987,61003,61020,61037,61053,61070,61087,61104,61121,61137,61154,61171,61187,61204,61220,61237,61254,61271,61287,61304,61321,61337,61356],"hit":[null],"x":[-1.0952380952380953,-1.0952380952380953,-1.0952380952380953,-1.0952380952380953,-1.0952380952380953,-1.0952380952380953,-1.0952380952380953,-1.0952380952380953,-1.0952380952380953,-1.0952380952380953,-1.0952380952380953,-1.0952380952380953,-1.0952380952380953,-1.0952380952380953,-1.0952380952380953,-1.0952380952380953,-1.0952380952380953,-1.0952380952380953,-1.0952380952380953,-1.0952380952380953,-1.0952380952380953,-1.0952380952380953,-1.0952380952380953,-1.0952380952380953,-1.0952380952380953,-1.0952380952380953,-1.0952380952380953,-1.0952380952380953,-1.0952380952380953,-1.0952380952380953,-1.0952380952380953,-1.0952380952380953,-1.0952380952380953,-1.0952380952380953,-1.0952380952380953,-1.0952380952380953,-1.0952380952380953,-1.0952380952380953,-1.0952380952380953,-1.0952380952380953,-1.0952380952380953,-1.0952380952380953,-1.0952380952380953,-1.0952380952380953,-1.0952380952380953,-1.0952380952380953,-1.0952380952380953,-1.0952380952380953,-1.0952380952380953,-1.0952380952380953,-1.0952380952380953,-1.0952380952380953,-1.0952380952380953,-1.0952380952380953,-1.0952380952380953,-1.0952380952380953,-1.0952380952380953,-1.0952380952380953,-1.0952380952380953,-1.0952380952380953,-1.0952380952380953,-1.0952380952380953,-1.0952380952380953,-1.0952380952380953,-1.0952380952380953,-1.0952380952380953,-1.0952380952380953,-1.0952380952380953,-1.0952380952380953,-1.0952380952380953,-1.0952380952380953,-1.0952380952380953,-1.0952380952380953,-1.0952380952380953,-1.0952380952380953,-1.0952380952380953,-1.0952380952380953,-1.0952380952380953,-1.0952380952380953,-1.0952380952380953,-1.0952380952380953,-1.0952380952380953,-1.0952380952380953,-1.0952380952380953,-1.0952380952380953,-1.0952380952380953,-1.0952380952380953,-1.0952380952380953,-1.0952380952380953,-1.0952380952380953,-1.0952380952380953,-1.0952380952380953,-1.0952380952380953,-1.0952380952380953,-1.0952380952380953,-1.0952380952380953,-1.0952380952380953,-1.0952380952380953,-1.0952380952380953,-1.0952380952380953,-1.0952380952380953,-1.0952380952380953,-1.0952380952380953,-1.0952380952380953,-1.0952380952380953,-1.0952380952380953,-1.0952380952380953,-1.0952380952380953,-1.0952380952380953,-1.0952380952380953,-1.0952380952380953,-1.0952380952380953,-1.0952380952380953,-1.0952380952380953,-1.0952380952380953,-1.0952380952380953,-1.0952380952380953,-1.0952380952380953,-1.0952380952380953,-1.0952380952380953,-1.0952380952380953,-1.0952380952380953,-1.0952380952380953,-1.0952380952380953,-1.0952380952380953,-1.0952380952380953,-1.0952380952380953,-1.0952380952380953,-1.0952380952380953,-1.0952380952380953,-1.0952380952380953,-1.0952380952380953,-1.0952380952380953,-1.0952380952380953,-1.0952380952380953,-1.0952380952380953,-1.0952380952380953,-1.0952380952380953,-1.0952380952380953,-1.0952380952380953,-1.0952380952380953,-1.0952380952380953,-1.0952380952380953,-1.0952380952380953,-1.0952380952380953,-1.0952380952380953,-1.0952380952380953,-1.0952380952380953,-1.0952380952380953,-1.0952380952380953,-1.0952380952380953,-1.0952380952380953,-1.0952380952380953,-1.0952380952380953,-1.0952380952380953,-1.0952380952380953,-1.0952380952380953,-1.0952380952380953,-1.0952380952380953,-1.0952380952380953,-1.0952380952380953,-1.0952380952380953,-1.0952380952380953,-1.0952380952380953,-1.0952380952380953,-1.0952380952380953,-1.0952380952380953,-1.0952380952380953,-1.0952380952380953,-1.0952380952380953,-1.0952380952380953,-1.0952380952380953,-1.0952380952380953,-1.0952380952380953,-1.0952380952380953,-1.0952380952380953,-1.0952380952380953,-1.0952380952380953,-1.0952380952380953,-1.0952380952380953,-1.0952380952380953,-1.0952380952380953,-1.0952380952380953,-1.0952380952380953,-1.0952380952380953,-1.0952380952380953,-1.0952380952380953,-1.0952380952380953,-1.0952380952380953,-1.0952380952380953,-1.0952380952380953,-1.0952380952380953,-1.0952380952380953,-1.0952380952380953,-1.0952380952380953,-1.0952380952380953,-1.0952380952380953,-1.0952380952380953,-1.0952380952380953,-1.0952380952380953,-1.0952380952380953,-1.0952380952380953,-1.0952380952380953,-1.0952380952380953,-1.0952380952380953,-1.0952380952380953,-1.0952380952380953,-1.0952380952380953,-1.0952380952380953,-1.0952380952380953,-1.0952380952380953,-1.0952380952380953,-1.0952380952380953,-1.0952380952380953,-1.0952380952380953,-1.0952380952380953,-1.0952380952380953,-1.0952380952380953,-1.0952380952380953,-1.0952380952380953,-1.0952380952380953,-1.0952380952380953,-1.0952380952380953,-1.0952380952380953,-1.0952380952380953,-1.0952380952380953,-1.0952380952380953,-1.0952380952380953,-1.0952380952380953,-1.0952380952380953,-1.0952380952380953,-1.0952380952380953,-1.0952380952380953,-1.0952380952380953,-1.0952380952380953,-1.0952380952380953,-1.0952380952380953,-1.0952380952380953,-1.0952380952380953,-1.0952380952380953,-1.0952380952380953,-1.0952380952380953,-1.0952380952380953,-1.0952380952380953,-1.0952380952380953,-1.0952380952380953,-1.0952380952380953,-1.0952380952380953,-1.0952380952380953,-1.0952380952380953,-1.0952380952380953,-1.0952380952380953,-1.0952380952380953,-1.0952380952380953,-1.0952380952380953,-1.0952380952380953,-1.0952380952380953,-1.0952380952380953,-1.0952380952380953,-1.0952380952380953,-1.0952380952380953,-1.0952380952380953,-1.0952380952380953,-1.0952380952380953,-1.0952380952380953,-1.0952380952380953,-1.0952380952380953,-1.0952380952380953,-1.0952380952380953,-1.0952380952380953,-1.0952380952380953,-1.0952380952380953,-1.0952380952380953,-1.0952380952380953,-1.0952380952380953,-1.0952380952380953,-1.0952380952380953,-1.0952380952380953,-1.0952380952380953,-1.0952380952380953,-1.0952380952380953,-1.0952380952380953,-1.0952380952380953,-1.0952380952380953,-1.0952380952380953,-1.0952380952380953,-1.0952380952380953,-1.0952380952380953,-1.0952380952380953,-1.0952380952380953,-1.0952380952380953,-1.0952380952380953,-1.0952380952380953,-1.0952380952380953,-1.0952380952380953,-1.0952380952380953,-1.0952380952380953,-1.0952380952380953,-1.0952380952380953,-1.0952380952380953,-1.0952380952380953,-1.0952380952380953,-1.0952380952380953,-1.0952380952380953,-1.0952380952380953,-1.0952380952380953,-1.0952380952380953,-1.0952380952380953,-1.0952380952380953,-1.0952380952380953,-1.0952380952380953,-1.0952380952380953,-1.0952380952380953,-1.0952380952380953,-1.0952380952380953,-1.0952380952380953,-1.0952380952380953,-1.0952380952380953,-1.0952380952380953,-1.0952380952380953,-1.0952380952380953,-1.0952380952380953,-1.0952380952380953,-1.0952380952380953,-1.0952380952380953,-1.0952380952380953,-1.0952380952380953,-1.0952380952380953,-1.0952380952380953,-1.0952380952380953,-1.0952380952380953,-1.0952380952380953,-1.0952380952380953,-1.0952380952380953,-1.0952380952380953,-1.0952380952380953,-1.0952380952380953,-1.0952380952380953,-1.0952380952380953,-1.0952380952380953,-1.0952380952380953,-1.0952380952380953,-1.0952380952380953,-1.0952380952380953,-1.0952380952380953,-1.0952380952380953,-1.0952380952380953,-1.0952380952380953,-1.0952380952380953,-1.0952380952380953,-1.0952380952380953,-1.0952380952380953,-1.0952380952380953,-1.0952380952380953,-1.0952380952380953,-1.0952380952380953,-1.0952380952380953,-1.0952380952380953,-1.0952380952380953,-1.0952380952380953,-1.0952380952380953,-1.0952380952380953,-1.0952380952380953,-1.0952380952380953,-1.0952380952380953,-1.0952380952380953,-1.0952380952380953,-1.0952380952380953,-1.0952380952380953,-1.0952380952380953,-1.0952380952380953,-1.0952380952380953,-1.0952380952380953,-1.0952380952380953,-1.0952380952380953,-1.0952380952380953,-1.0952380952380953,-1.0952380952380953,-1.0952380952380953,-1.0952380952380953,-1.0952380952380953,-1.0952380952380953,-1.0952380952380953,-1.0952380952380953,-1.0952380952380953,-1.0952380952380953,-1.0952380952380953,-1.0952380952380953,-1.0952380952380953,-1.0952380952380953,-1.0952380952380953,-1.0952380952380953,-1.0952380952380953,-1.0952380952380953,-1.0952380952380953,-1.0952380952380953,-1.0952380952380953,-1.0952380952380953,-1.0952380952380953,-1.0952380952380953,-1.0952380952380953,-1.0952380952380953,-1.0952380952380953,-1.0952380952380953,-1.0952380952380953,-1.0952380952380953,-1.0952380952380953,-1.0952380952380953,-1.0952380952380953,-1.0952380952380953,-1.0952380952380953,-1.0952380952380953,-1.0952380952380953,-1.0952380952380953,-1.0952380952380953,-1.0952380952380953,-1.0952380952380953,-1.0952380952380953,-1.0952380952380953,-1.0952380952380953,-1.0952380952380953,-1.0952380952380953,-1.0952380952380953,-1.0952380952380953,-1.0952380952380953,-1.0952380952380953,-1.0952380952380953,-1.0952380952380953,-1.0952380952380953,-1.0952380952380953,-1.0952380952380953,-1.0952380952380953,-1.0952380952380953,-1.0952380952380953,-1.0952380952380953,-1.0952380952380953,-1.0952380952380953,-1.0952380952380953,-1.0952380952380953,-1.0952380952380953,-1.0952380952380953,-1.0952380952380953,-1.0952380952380953,-1.0952380952380953,-1.0952380952380953,-1.0952380952380953,-1.0952380952380953,-1.0952380952380953,-1.0952380952380953,-1.0952380952380953,-1.0952380952380953,-1.0952380952380953,-1.0952380952380953,-1.0952380952380953,-1.0952380952380953,-1.0952380952380953,-1.0952380952380953,-1.0952380952380953,-1.0952380952380953,-1.0952380952380953,-1.0952380952380953,-1.0952380952380953,-1.0952380952380953,-1.0952380952380953,-1.0952380952380953,-1.0952380952380953,-1.0952380952380953,-1.0952380952380953,-1.0952380952380953,-1.0952380952380953,-1.0952380952380953,-1.0952380952380953,-1.0952380952380953,-1.0952380952380953,-1.0952380952380953,-1.0952380952380953,-1.0952380952380953,-1.0952380952380953,-1.0952380952380953,-1.0952380952380953,-1.0952380952380953,-1.0952380952380953,-1.0952380952380953,-1.0952380952380953,-1.0952380952380953,-1.0952380952380953,-1.0952380952380953,-1.0952380952380953,-1.0952380952380953,-1.0952380952380953,-1.0952380952380953,-1.0952380952380953,-1.0952380952380953,-1.0952380952380953,-1.0952380952380953,-1.0952380952380953,-1.0952380952380953,-1.0952380952380953,-1.0952380952380953,-1.0952380952380953,-1.0952380952380953,-1.0952380952380953,-1.0952380952380953,-1.0952380952380953,-1.0952380952380953,-1.0952380952380953,-1.0952380952380953,-1.0952380952380953,-1.0952380952380953,-1.0952380952380953,-1.0952380952380953,-1.0952380952380953,-1.0952380952380953,-1.0952380952380953,-1.0952380952380953,-1.0952380952380953,-1.0952380952380953,-1.0952380952380953,-1.0952380952380953,-1.0952380952380953,-1.0952380952380953,-1.0952380952380953,-1.0952380952380953,-1.0952380952380953,-1.0952380952380953,-1.0952380952380953,-1.0952380952380953,-1.0952380952380953,-1.0952380952380953,-1.0952380952380953,-1.0952380952380953,-1.0952380952380953,-1.0952380952380953,-1.0952380952380953,-1.0952380952380953,-1.0952380952380953,-1.0952380952380953,-1.0952380952380953,-1.0952380952380953,-1.0952380952380953,-1.0952380952380953,-1.0952380952380953,-1.0952380952380953,-1.0952380952380953,-1.0952380952380953,-1.0952380952380953,-1.0952380952380953,-1.0952380952380953,-1.0952380952380953,-1.0952380952380953,-1.0952380952380953,-1.0952380952380953,-1.0952380952380953,-1.0952380952380953,-1.0952380952380953,-1.0952380952380953,-1.0952380952380953,-1.0952380952380953,-1.0952380952380953,-1.0952380952380953,-1.0952380952380953,-1.0952380952380953,-1.0952380952380953,-1.0952380952380953,-1.0952380952380953,-1.0952380952380953,-1.0952380952380953,-1.0952380952380953,-1.0952380952380953,-1.0952380952380953,-1.0952380952380953,-1.0952380952380953,-1.0952380952380953,-1.0952380952380953,-1.0952380952380953,-1.0952380952380953,-1.0952380952380953,-1.0952380952380953,-1.0952380952380953,-1.0952380952380953,-1.0952380952380953,-1.0952380952380953,-1.0952380952380953,-1.0952380952380953,-1.0952380952380953,-1.0952380952380953,-1.0952380952380953,-1.0952380952380953,-1.0952380952380953,-1.0952380952380953,-1.0952380952380953,-1.0952380952380953,-1.0952380952380953,-1.0952380952380953,-1.0952380952380953,-1.0952380952380953,-1.0952380952380953,-1.0952380952380953,-1.0952380952380953,-1.0952380952380953,-1.0952380952380953,-1.0952380952380953,-1.0952380952380953,-1.0952380952380953,-1.0952380952380953,-1.0952380952380953,-1.0952380952380953,-1.0952380952380953,-1.0952380952380953,-1.0952380952380953,-1.0952380952380953,-1.0952380952380953,-1.0952380952380953,-1.0952380952380953,0.5782312925170068,0.5782312925170068,0.5782312925170068,0.5782312925170068,0.5782312925170068,0.5782312925170068,0.5782312925170068,0.5782312925170068,0.5782312925170068,0.5782312925170068,0.5782312925170068,0.5782312925170068,0.5782312925170068,0.5782312925170068,0.5782312925170068,0.5782312925170068,0.5782312925170068,0.5782312925170068,0.5782312925170068,0.5782312925170068,0.5782312925170068,0.5782312925170068,0.5782312925170068,0.5782312925170068,0.5782312925170068,0.5782312925170068,0.5782312925170068,0.5782312925170068,0.5782312925170068,0.5782312925170068,0.5782312925170068,0.5782312925170068,0.5782312925170068,0.5782312925170068,0.5782312925170068,0.5782312925170068,0.5782312925170068,0.5782312925170068,0.5782312925170068,0.5782312925170068,0.5782312925170068,0.5782312925170068,0.5782312925170068,0.5782312925170068,0.5782312925170068,0.5782312925170068,0.5782312925170068,0.5782312925170068,0.5782312925170068,0.5782312925170068,0.5782312925170068,0.5782312925170068,0.5782312925170068,0.5782312925170068,0.5782312925170068,0.5782312925170068,0.5782312925170068,0.5782312925170068,0.5782312925170068,0.5782312925170068,0.5782312925170068,0.5782312925170068,0.5782312925170068,0.5782312925170068,0.5782312925170068,0.5782312925170068,0.5782312925170068,0.5782312925170068,0.5782312925170068,0.5782312925170068,0.5782312925170068,0.5782312925170068,0.5782312925170068,0.5782312925170068,0.5782312925170068,0.5782312925170068,0.5782312925170068,0.5782312925170068,0.5782312925170068,0.5782312925170068,0.5782312925170068,0.5782312925170068,0.5782312925170068,0.5782312925170068,0.5782312925170068,0.5782312925170068,0.5782312925170068,0.5782312925170068,0.5782312925170068,0.5782312925170068,0.5782312925170068,0.5782312925170068,0.5782312925170068,0.5782312925170068,0.5782312925170068,0.5782312925170068,0.5782312925170068,0.5782312925170068,0.5782312925170068,0.5782312925170068,0.5782312925170068,0.5782312925170068,0.5782312925170068,0.5782312925170068,0.5782312925170068,0.5782312925170068,0.5782312925170068,0.5782312925170068,0.5782312925170068,0.5782312925170068,0.5782312925170068,0.5782312925170068,0.5782312925170068,0.5782312925170068,0.5782312925170068,0.5782312925170068,0.5782312925170068,0.5782312925170068,0.5782312925170068,0.5782312925170068,0.5782312925170068,0.5782312925170068,0.5782312925170068,0.5782312925170068,0.5782312925170068,0.5782312925170068,0.5782312925170068,0.5782312925170068,0.5782312925170068,0.5782312925170068,0.5782312925170068,0.5782312925170068,0.5782312925170068,0.5782312925170068,0.5782312925170068,0.5782312925170068,0.5782312925170068,0.5782312925170068,0.5782312925170068,0.5782312925170068,0.5782312925170068,0.5782312925170068,0.5782312925170068,0.5782312925170068,0.5782312925170068,0.5782312925170068,0.5782312925170068,0.5782312925170068,0.5782312925170068,0.5782312925170068,0.5782312925170068,0.5782312925170068,0.5782312925170068,0.5782312925170068,0.5782312925170068,0.5782312925170068,0.5782312925170068,0.5782312925170068,0.5782312925170068,0.5782312925170068,0.5782312925170068,0.5782312925170068,0.5782312925170068,0.5782312925170068,0.5782312925170068,0.5782312925170068,0.5782312925170068,0.5782312925170068,0.5782312925170068,0.5782312925170068,0.5782312925170068,0.5782312925170068,0.5782312925170068,0.5782312925170068,0.5782312925170068,0.5782312925170068,0.5782312925170068,0.5782312925170068,0.5782312925170068,0.5782312925170068,0.5782312925170068,0.5782312925170068,0.5782312925170068,0.5782312925170068,0.5782312925170068,0.5782312925170068,0.5782312925170068,0.5782312925170068,0.5782312925170068,0.5782312925170068,0.5782312925170068,0.5782312925170068,0.5782312925170068,0.5782312925170068,0.5782312925170068,0.5782312925170068,0.5782312925170068,0.5782312925170068,0.5782312925170068,0.5782312925170068,0.5782312925170068,0.5782312925170068,0.5782312925170068,0.5782312925170068,0.5782312925170068,0.5782312925170068,0.5782312925170068,0.5782312925170068,0.5782312925170068,0.5782312925170068,0.5782312925170068,0.5782312925170068,0.5782312925170068,0.5782312925170068,0.5782312925170068,0.5782312925170068,0.5782312925170068,0.5782312925170068,0.5782312925170068,0.5782312925170068,0.5782312925170068,0.5782312925170068,0.5782312925170068,0.5782312925170068,0.5782312925170068,0.5782312925170068,0.5782312925170068,0.5782312925170068,0.5782312925170068,0.5782312925170068,0.5782312925170068,0.5782312925170068,0.5782312925170068,0.5782312925170068,0.5782312925170068,0.5782312925170068,0.5782312925170068,0.5782312925170068,0.5782312925170068,0.5782312925170068,0.5782312925170068,0.5782312925170068,0.5782312925170068,0.5782312925170068,0.5782312925170068,0.5782312925170068,0.5782312925170068,0.5782312925170068,0.5782312925170068,0.5782312925170068,0.5782312925170068,0.5782312925170068,0.5782312925170068,0.5782312925170068,0.5782312925170068,0.5782312925170068,0.5782312925170068,0.5782312925170068,0.5782312925170068,0.5782312925170068,0.5782312925170068,0.5782312925170068,0.5782312925170068,0.5782312925170068,0.5782312925170068,0.5782312925170068,0.5782312925170068,0.5782312925170068,0.5782312925170068,0.5782312925170068,0.5782312925170068,0.5782312925170068,0.5782312925170068,0.5782312925170068,0.5782312925170068,0.5782312925170068,0.5782312925170068,0.5782312925170068,0.5782312925170068,0.5782312925170068,0.5782312925170068,0.5782312925170068,0.5782312925170068,0.5782312925170068,0.5782312925170068,0.5782312925170068,0.5782312925170068,0.5782312925170068,0.5782312925170068,0.5782312925170068,0.5782312925170068,0.5782312925170068,0.5782312925170068,0.5782312925170068,0.5782312925170068,0.5782312925170068,0.5782312925170068,0.5782312925170068,0.5782312925170068,0.5782312925170068,0.5782312925170068,0.5782312925170068,0.5782312925170068,0.5782312925170068,0.5782312925170068,0.5782312925170068,0.5782312925170068,0.5782312925170068,0.5782312925170068,0.5782312925170068,0.5782312925170068,0.5782312925170068,0.5782312925170068,0.5782312925170068,0.5782312925170068,0.5782312925170068,0.5782312925170068,0.5782312925170068,0.5782312925170068,0.5782312925170068,0.5782312925170068,0.5782312925170068,0.5782312925170068,0.5782312925170068,0.5782312925170068,0.5782312925170068,0.5782312925170068,0.5782312925170068,0.5782312925170068,0.5782312925170068,0.5782312925170068,0.5782312925170068,0.5782312925170068,0.5782312925170068,0.5782312925170068,0.5782312925170068,0.5782312925170068,0.5782312925170068,0.5782312925170068,0.5782312925170068,0.5782312925170068,0.5782312925170068,0.5782312925170068,0.5782312925170068,0.5782312925170068,0.5782312925170068,0.5782312925170068,0.5782312925170068,0.5782312925170068,0.5782312925170068,0.5782312925170068,0.5782312925170068,0.5782312925170068,0.5782312925170068,0.5782312925170068,0.5782312925170068,0.5782312925170068,0.5782312925170068,0.5782312925170068,0.5782312925170068,0.5782312925170068,0.5782312925170068,0.5782312925170068,0.5782312925170068,0.5782312925170068,0.5782312925170068,0.5782312925170068,0.5782312925170068,0.5782312925170068,0.5782312925170068,0.5782312925170068,0.5782312925170068,0.5782312925170068,0.5782312925170068,0.5782312925170068,0.5782312925170068,0.5782312925170068,0.5782312925170068,0.5782312925170068,0.5782312925170068,0.5782312925170068,0.5782312925170068,0.5782312925170068,0.5782312925170068,0.5782312925170068,0.5782312925170068,0.5782312925170068,0.5782312925170068,0.5782312925170068,0.5782312925170068,0.5782312925170068,0.5782312925170068,0.5782312925170068,0.5782312925170068,0.5782312925170068,0.5782312925170068,0.5782312925170068,0.5782312925170068,0.5782312925170068,0.5782312925170068,0.5782312925170068,0.5782312925170068,0.5782312925170068,0.5782312925170068,0.5782312925170068,0.5782312925170068,0.5782312925170068,0.5782312925170068,0.5782312925170068,0.5782312925170068,0.5782312925170068,0.5782312925170068,0.5782312925170068,0.5782312925170068,0.5782312925170068,0.5782312925170068,0.5782312925170068,0.5782312925170068,0.5782312925170068,0.5782312925170068,0.5782312925170068,0.5782312925170068,0.5782312925170068,0.5782312925170068,0.5782312925170068,0.5782312925170068,0.5782312925170068,0.5782312925170068,0.5782312925170068,0.5782312925170068,0.5782312925170068,0.5782312925170068,0.5782312925170068,0.5782312925170068,0.5782312925170068,0.5782312925170068,0.5782312925170068,0.5782312925170068,0.5782312925170068,0.5782312925170068,0.5782312925170068,0.5782312925170068,0.5782312925170068,0.5782312925170068,0.5782312925170068,0.5782312925170068,0.5782312925170068,0.5782312925170068,0.5782312925170068,0.5782312925170068,0.5782312925170068,0.5782312925170068,0.5782312925170068,0.5782312925170068,0.5782312925170068,0.5782312925170068,0.5782312925170068,0.5782312925170068,0.5782312925170068,0.5782312925170068,0.5782312925170068,0.5782312925170068,0.5782312925170068,0.5782312925170068,0.5782312925170068,0.5782312925170068,0.5782312925170068,0.5782312925170068,0.5782312925170068,0.5782312925170068,0.5782312925170068,0.5782312925170068,0.5782312925170068,0.5782312925170068,0.5782312925170068,0.5782312925170068,0.5782312925170068,0.5782312925170068,0.5782312925170068,0.5782312925170068,0.5782312925170068,0.5782312925170068,0.5782312925170068,0.5782312925170068,0.5782312925170068,0.5782312925170068,0.5782312925170068,0.5782312925170068,0.5782312925170068,0.5782312925170068,0.5782312925170068,0.5782312925170068,0.5782312925170068,0.5782312925170068,0.5782312925170068,0.5782312925170068,0.5782312925170068,0.5782312925170068,0.5782312925170068,0.5782312925170068,0.5782312925170068,0.5782312925170068,0.5782312925170068,0.5782312925170068,0.5782312925170068,0.5782312925170068,0.5782312925170068,0.5782312925170068,0.5782312925170068,0.5782312925170068,0.5782312925170068,0.5782312925170068,0.5782312925170068,0.5782312925170068,0.5782312925170068,0.5782312925170068,0.5782312925170068,0.5782312925170068,0.5782312925170068,0.5782312925170068,0.5782312925170068,0.5782312925170068,0.5782312925170068,0.5782312925170068,0.5782312925170068,0.5782312925170068,0.5782312925170068,0.5782312925170068,0.5782312925170068,0.5782312925170068,1.1734693877551021,1.1734693877551021,1.1734693877551021,1.1734693877551021,1.1734693877551021,1.1734693877551021,1.1734693877551021,1.1734693877551021,1.1734693877551021,1.1734693877551021,1.1734693877551021,1.1734693877551021,1.1734693877551021,1.1734693877551021,1.1734693877551021,1.1734693877551021,1.1734693877551021,1.1734693877551021,1.1734693877551021,1.1734693877551021,1.1734693877551021,1.1734693877551021,1.1734693877551021,1.1734693877551021,1.1734693877551021,1.1734693877551021,1.1734693877551021,1.1734693877551021,1.1734693877551021,1.1734693877551021,1.1734693877551021,1.1734693877551021,1.1734693877551021,1.1734693877551021,1.1734693877551021,1.1734693877551021,1.1734693877551021,1.1734693877551021,1.1734693877551021,1.1734693877551021,1.1734693877551021,1.1734693877551021,1.1734693877551021,1.1734693877551021,1.1734693877551021,1.1734693877551021,1.1734693877551021,1.1734693877551021,1.1734693877551021,1.1734693877551021,1.1734693877551021,1.1734693877551021,1.1734693877551021,1.1734693877551021,1.1734693877551021,1.1734693877551021,1.1734693877551021,1.1734693877551021,1.1734693877551021,1.1734693877551021,1.1734693877551021,1.1734693877551021,1.1734693877551021,1.1734693877551021,1.1734693877551021,1.1734693877551021,1.1734693877551021,1.1734693877551021,1.1734693877551021,1.1734693877551021,1.1734693877551021,1.1734693877551021,1.1734693877551021,1.1734693877551021,1.1734693877551021,1.1734693877551021,1.1734693877551021,1.1734693877551021,1.1734693877551021,1.1734693877551021,1.1734693877551021,1.1734693877551021,1.1734693877551021,1.1734693877551021,1.1734693877551021,1.1734693877551021,1.1734693877551021,1.1734693877551021,1.1734693877551021,1.1734693877551021,1.1734693877551021,1.1734693877551021,1.1734693877551021,1.1734693877551021,1.1734693877551021,1.1734693877551021,1.1734693877551021,1.1734693877551021,1.1734693877551021,1.1734693877551021,1.1734693877551021,1.1734693877551021,1.1734693877551021,1.1734693877551021,1.1734693877551021,1.1734693877551021,1.1734693877551021,1.1734693877551021,1.1734693877551021,1.1734693877551021,1.1734693877551021,1.1734693877551021,1.1734693877551021,1.1734693877551021,1.1734693877551021,1.1734693877551021,1.1734693877551021,1.1734693877551021,1.1734693877551021,1.1734693877551021,1.1734693877551021,1.1734693877551021,1.1734693877551021,1.1734693877551021,1.1734693877551021,1.1734693877551021,1.1734693877551021,1.1734693877551021,1.1734693877551021,1.1734693877551021,1.1734693877551021,1.1734693877551021,1.1734693877551021,1.1734693877551021,1.1734693877551021,1.1734693877551021,1.1734693877551021,1.1734693877551021,1.1734693877551021,1.1734693877551021,1.1734693877551021,1.1734693877551021,1.1734693877551021,1.1734693877551021,1.1734693877551021,1.1734693877551021,1.1734693877551021,1.1734693877551021,1.1734693877551021,1.1734693877551021,1.1734693877551021,1.1734693877551021,1.1734693877551021,1.1734693877551021,1.1734693877551021,1.1734693877551021,1.1734693877551021,1.1734693877551021,1.1734693877551021,1.1734693877551021,1.1734693877551021,1.1734693877551021,1.1734693877551021,1.1734693877551021,1.1734693877551021,1.1734693877551021,1.1734693877551021,1.1734693877551021,1.1734693877551021,1.1734693877551021,1.1734693877551021,1.1734693877551021,1.1734693877551021,1.1734693877551021,1.1734693877551021,1.1734693877551021,1.1734693877551021,1.1734693877551021,1.1734693877551021,1.1734693877551021,1.1734693877551021,1.1734693877551021,1.1734693877551021,1.1734693877551021,1.1734693877551021,1.1734693877551021,1.1734693877551021,1.1734693877551021,1.1734693877551021,1.1734693877551021,1.1734693877551021,1.1734693877551021,1.1734693877551021,1.1734693877551021,1.1734693877551021,1.1734693877551021,1.1734693877551021,1.1734693877551021,1.1734693877551021,1.1734693877551021,1.1734693877551021,1.1734693877551021,1.1734693877551021,1.1734693877551021,1.1734693877551021,1.1734693877551021,1.1734693877551021,1.1734693877551021,1.1734693877551021,1.1734693877551021,1.1734693877551021,1.1734693877551021,1.1734693877551021,1.1734693877551021,1.1734693877551021,1.1734693877551021,1.1734693877551021,1.1734693877551021,1.1734693877551021,1.1734693877551021,1.1734693877551021,1.1734693877551021,1.1734693877551021,1.1734693877551021,1.1734693877551021,1.1734693877551021,1.1734693877551021,1.1734693877551021,1.1734693877551021,1.1734693877551021,1.1734693877551021,1.1734693877551021,1.1734693877551021,1.1734693877551021,1.1734693877551021,1.1734693877551021,1.1734693877551021,1.1734693877551021,1.1734693877551021,1.1734693877551021,1.1734693877551021,1.1734693877551021,1.1734693877551021,1.1734693877551021,1.1734693877551021,1.1734693877551021,1.1734693877551021,1.1734693877551021,1.1734693877551021,1.1734693877551021,1.1734693877551021,1.1734693877551021,1.1734693877551021,1.1734693877551021,1.1734693877551021,1.1734693877551021,1.1734693877551021,1.1734693877551021,1.1734693877551021,1.1734693877551021,1.1734693877551021,1.1734693877551021,1.1734693877551021,1.1734693877551021,1.1734693877551021,1.1734693877551021,1.1734693877551021,1.1734693877551021,1.1734693877551021,1.1734693877551021,1.1734693877551021,1.1734693877551021,1.1734693877551021,1.1734693877551021,1.1734693877551021,1.1734693877551021,1.1734693877551021,1.1734693877551021,1.1734693877551021,1.1734693877551021,1.1734693877551021,1.1734693877551021,1.1734693877551021,1.1734693877551021,1.1734693877551021,1.1734693877551021,1.1734693877551021,1.1734693877551021,1.1734693877551021,1.1734693877551021,1.1734693877551021,1.1734693877551021,1.1734693877551021,1.1734693877551021,1.1734693877551021,1.1734693877551021,1.1734693877551021,1.1734693877551021,1.1734693877551021,1.1734693877551021,1.1734693877551021,1.1734693877551021,1.1734693877551021,1.1734693877551021,1.1734693877551021,1.1734693877551021,1.1734693877551021,1.1734693877551021,1.1734693877551021,1.1734693877551021,1.1734693877551021,1.1734693877551021,1.1734693877551021,1.1734693877551021,1.1734693877551021,1.1734693877551021,1.1734693877551021,1.1734693877551021,1.1734693877551021,1.1734693877551021,1.1734693877551021,1.1734693877551021,1.1734693877551021,1.1734693877551021,1.1734693877551021,1.1734693877551021,1.1734693877551021,1.1734693877551021,1.1734693877551021,1.1734693877551021,1.1734693877551021,1.1734693877551021,1.1734693877551021,1.1734693877551021,1.1734693877551021,1.1734693877551021,1.1734693877551021,1.1734693877551021,1.1734693877551021,1.1734693877551021,1.1734693877551021,1.1734693877551021,1.1734693877551021,1.1734693877551021,1.1734693877551021,1.1734693877551021,1.1734693877551021,1.1734693877551021,1.1734693877551021,1.1734693877551021,1.1734693877551021,1.1734693877551021,1.1734693877551021,1.1734693877551021,1.1734693877551021,1.1734693877551021,1.1734693877551021,1.1734693877551021,1.1734693877551021,1.1734693877551021,1.1734693877551021,1.1734693877551021,1.1734693877551021,1.1734693877551021,1.1734693877551021,1.1734693877551021,1.1734693877551021,1.1734693877551021,1.1734693877551021,1.1734693877551021,1.1734693877551021,1.1734693877551021,1.1734693877551021,1.1734693877551021,1.1734693877551021,1.1734693877551021,1.1734693877551021,1.1734693877551021,1.1734693877551021,1.1734693877551021,1.1734693877551021,1.1734693877551021,1.1734693877551021,1.1734693877551021,1.1734693877551021,1.1734693877551021,1.1734693877551021,1.1734693877551021,1.1734693877551021,1.1734693877551021,1.1734693877551021,1.1734693877551021,1.1734693877551021,1.1734693877551021,1.1734693877551021,1.1734693877551021,1.1734693877551021,1.1734693877551021,1.1734693877551021,1.1734693877551021,1.1734693877551021,1.1734693877551021,1.1734693877551021,1.1734693877551021,1.1734693877551021,1.1734693877551021,1.1734693877551021,0,0,0,0,0,0,0,0,0,0,0,0,0,0,0,0,0,0,0,0,0,0,0,0,0,0,0,0,0,0,0,0,0,0,0,0,0,0,0,0,0,0,0,0,0,0,0,0,0,0,0,0,0,0,0,0,0,0,0,0,0,0,0,0,0,0,0,0,0,0,0,0,0,0,0,0,0,0,0,0,0,0,0,0,0,0,0,0,0,0,0,0,0,0,0,0,0,0,0,0,0,0,0,0,0,0,0,0,0,0,0,0,0,0,0,0,0,0,0,0,0,0,0,0,0,0,0,0,0,0,0,0,0,0,0,0,0,0,0,0,0,0,0,0,0,0,0,0,0,0,0,0,0,0,0,0,0,0,0,0,0,0,0,0,0,0,0,0,0,0,0,0,0,0,0,0,0,0,0,0,0,0,0,0,0,0,0,0,0,0,0,0,0,0,0,0,0,0,0,0,0,0,0,0,0,0,0,0,0,0,0,0,0,0,0,0,0,0,0,0,0,0,0,0,0,0,0,0,0,0,0,0,0,0,0,0,0,0,0,0,0,0,0,0,0,0,0,0,0,0,0,0,0,0,0,0,0,0,0,0,0,0,0,0,0,0,0,0,0,0,0,0,0,0,0,0,0,0,0,0,0,0,0,0,0,0,0,0,0,0,0,0,0,0,0,0,0,0,0,0,0,0,0,0,0,0,0,0,0,0,0,0,0,0,0,0,0,0,0,0,0,0,0,0,0,0,0,0,0,0,0,0,0,0,0,0,0,0,0,0,0,0,0,0,0,0,0,0,0,0,0,0,0,0,0,0,0,0,0,0,0,0,0,0,0,0,0,0,0,0,0,0,0,0,0,0,0,0,0,0,0,0,0,0,0,0,0,0,0,0,0,0,0,0,0,0,0,0,0,0,0,0,0,0,0,0,0,0,0,0,0,0,0,0,0,0,0,0,0,0,0,0,0,0,0,0,0,0,0,0,0,0,0,0,0,0,0,0,0,0,0,0,0,0,0,0,0,0,0,0,0,0,0,0,0,0,0,0,0,0,0,0,0,0,0,0,0,0,0,0,0,0,0,0,0,0,0,0,0,0,0,0,0,0,0,0,0,0,0,0,0,0,0,0,0,0,0,0,0,0,0,0,0,0,0,0,0,0,0,0,0,0,0,0,0,0,0,0,0,0,0,0,0,0,0,0,0,0,0,0,0,0,0,0,0,0,0,0,0,0,0,0,0,0,0,0,0,0,0,0,0,0,0,0,0,0,0,0,0,0,0,0.3299319727891156,0.3299319727891156,0.3299319727891156,0.3299319727891156,0.3299319727891156,0.3299319727891156,0.3299319727891156,0.3299319727891156,0.3299319727891156,0.3299319727891156,0.3299319727891156,0.3299319727891156,0.3299319727891156,0.3299319727891156,0.3299319727891156,0.3299319727891156,0.3299319727891156,0.3299319727891156,0.3299319727891156,0.3299319727891156,0.3299319727891156,0.3299319727891156,0.3299319727891156,0.3299319727891156,0.3299319727891156,0.3299319727891156,0.3299319727891156,0.3299319727891156,0.3299319727891156,0.3299319727891156,0.3299319727891156,0.3299319727891156,0.3299319727891156,0.3299319727891156,0.3299319727891156,0.3299319727891156,0.3299319727891156,0.3299319727891156,0.3299319727891156,0.3299319727891156,0.3299319727891156,0.3299319727891156,0.3299319727891156,0.3299319727891156,0.3299319727891156,0.3299319727891156,0.3299319727891156,0.3299319727891156,0.3299319727891156,0.3299319727891156,0.3299319727891156,0.3299319727891156,0.3299319727891156,0.3299319727891156,0.3299319727891156,0.3299319727891156,0.3299319727891156,0.3299319727891156,0.3299319727891156,0.3299319727891156,0.3299319727891156,0.3299319727891156,0.3299319727891156,0.3299319727891156,0.3299319727891156,0.3299319727891156,0.3299319727891156,0.3299319727891156,0.3299319727891156,0.3299319727891156,0.3299319727891156,0.3299319727891156,0.3299319727891156,0.3299319727891156,0.3299319727891156,0.3299319727891156,0.3299319727891156,0.3299319727891156,0.3299319727891156,0.3299319727891156,0.3299319727891156,0.3299319727891156,0.3299319727891156,0.3299319727891156,0.3299319727891156,0.3299319727891156,0.3299319727891156,0.3299319727891156,0.3299319727891156,0.3299319727891156,0.3299319727891156,0.3299319727891156,0.3299319727891156,0.3299319727891156,0.3299319727891156,0.3299319727891156,0.3299319727891156,0.3299319727891156,0.3299319727891156,0.3299319727891156,0.3299319727891156,0.3299319727891156,0.3299319727891156,0.3299319727891156,0.3299319727891156,0.3299319727891156,0.3299319727891156,0.3299319727891156,0.3299319727891156,0.3299319727891156,0.3299319727891156,0.3299319727891156,0.3299319727891156,0.3299319727891156,0.3299319727891156,0.3299319727891156,0.3299319727891156,0.3299319727891156,0.3299319727891156,0.3299319727891156,0.3299319727891156,0.3299319727891156,0.3299319727891156,0.3299319727891156,0.3299319727891156,0.3299319727891156,0.3299319727891156,0.3299319727891156,0.3299319727891156,0.3299319727891156,0.3299319727891156,0.3299319727891156,0.3299319727891156,0.3299319727891156,0.3299319727891156,0.3299319727891156,0.3299319727891156,0.3299319727891156,0.3299319727891156,0.3299319727891156,0.3299319727891156,0.3299319727891156,0.3299319727891156,0.3299319727891156,0.3299319727891156,0.3299319727891156,0.3299319727891156,0.3299319727891156,0.3299319727891156,0.3299319727891156,0.3299319727891156,0.3299319727891156,0.3299319727891156,0.3299319727891156,0.3299319727891156,0.3299319727891156,0.3299319727891156,0.3299319727891156,0.3299319727891156,0.3299319727891156,0.3299319727891156,0.3299319727891156,0.3299319727891156,0.3299319727891156,0.3299319727891156,0.3299319727891156,0.3299319727891156,0.3299319727891156,0.3299319727891156,0.3299319727891156,0.3299319727891156,0.3299319727891156,0.3299319727891156,0.3299319727891156,0.3299319727891156,0.3299319727891156,0.3299319727891156,0.3299319727891156,0.3299319727891156,0.3299319727891156,0.3299319727891156,0.3299319727891156,0.3299319727891156,0.3299319727891156,0.3299319727891156,0.3299319727891156,0.608843537414966,0.608843537414966,0.608843537414966,0.608843537414966,0.608843537414966,0.608843537414966,0.608843537414966,0.608843537414966,0.608843537414966,0.608843537414966,0.608843537414966,0.608843537414966,0.608843537414966,0.608843537414966,0.608843537414966,0.608843537414966,0.608843537414966,0.608843537414966,0.608843537414966,0.608843537414966,0.608843537414966,0.608843537414966,0.608843537414966,0.608843537414966,0.608843537414966,0.608843537414966,0.608843537414966,0.608843537414966,0.608843537414966,0.608843537414966,0.608843537414966,0.608843537414966,0.608843537414966,0.608843537414966,0.608843537414966,0.608843537414966,0.608843537414966,0.608843537414966,0.608843537414966,0.608843537414966,0.608843537414966,0.608843537414966,0.608843537414966,0.608843537414966,0.608843537414966,0.608843537414966,0.608843537414966,0.608843537414966,0.608843537414966,0.608843537414966,0.608843537414966,0.608843537414966,0.608843537414966,0.608843537414966,0.608843537414966,0.608843537414966,0.608843537414966,0.608843537414966,0.608843537414966,0.608843537414966,0.608843537414966,0.608843537414966,0.608843537414966,0.608843537414966,0.608843537414966,0.608843537414966,0.608843537414966,0.608843537414966,0.608843537414966,0.608843537414966,0.608843537414966,0.608843537414966,0.608843537414966,0.608843537414966,0.608843537414966,0.608843537414966,0.608843537414966,0.608843537414966,0.608843537414966,0.608843537414966,0.608843537414966,0.608843537414966,0.608843537414966,0.608843537414966,0.608843537414966,0.608843537414966,0.608843537414966,0.608843537414966,0.608843537414966,0.608843537414966,0.608843537414966,0.608843537414966,0.608843537414966,0.608843537414966,0.608843537414966,0.608843537414966,0.608843537414966,0.608843537414966,0.608843537414966,0.608843537414966,0.608843537414966,0.608843537414966,0.608843537414966,0.608843537414966,0.608843537414966,0.608843537414966,0.608843537414966,0.608843537414966,0.608843537414966,0.608843537414966,0.608843537414966,0.608843537414966,0.608843537414966,0.608843537414966,0.608843537414966,0.608843537414966,0.608843537414966,0.608843537414966,0.608843537414966,0.608843537414966,0.608843537414966,0.608843537414966,0.608843537414966,0.608843537414966,0.608843537414966,0.608843537414966,0.608843537414966,0.608843537414966,0.608843537414966,0.608843537414966,0.608843537414966,0.608843537414966,0.608843537414966,0.608843537414966,0.608843537414966,0.608843537414966,0.608843537414966,0.608843537414966,0.608843537414966,0.608843537414966,0.608843537414966,0.608843537414966,0.608843537414966,0.608843537414966,0.608843537414966,0.608843537414966,0.608843537414966,0.608843537414966,0.608843537414966,0.608843537414966,0.608843537414966,0.608843537414966,0.608843537414966,0.608843537414966,0.608843537414966,0.608843537414966,0.608843537414966,0.608843537414966,0.608843537414966,0.608843537414966,0.608843537414966,0.608843537414966,0.608843537414966,0.608843537414966,0.608843537414966,0.608843537414966,0.608843537414966,0.608843537414966,0.608843537414966,0.608843537414966,0.608843537414966,0.608843537414966,0.608843537414966,0.608843537414966,0.608843537414966,0.608843537414966,0.608843537414966,0.608843537414966,0.608843537414966,0.608843537414966,0.608843537414966,0.608843537414966,0.608843537414966,0.608843537414966,0.608843537414966,0.608843537414966,0.608843537414966,0.608843537414966,0.608843537414966,0.608843537414966,0.608843537414966,0.608843537414966,0.608843537414966,0.608843537414966,0.608843537414966,0.608843537414966,0.608843537414966,0.608843537414966,0.608843537414966,0.608843537414966,0.608843537414966,0.608843537414966,0.608843537414966,0.608843537414966,0.608843537414966,0.608843537414966,0.608843537414966,0.608843537414966,0.608843537414966,0.608843537414966,0.608843537414966,0.608843537414966,0.46258503401360546,0.46258503401360546,0.46258503401360546,0.46258503401360546,0.46258503401360546,0.46258503401360546,0.46258503401360546,0.46258503401360546,0.46258503401360546,0.46258503401360546,0.46258503401360546,0.46258503401360546,0.46258503401360546,0.46258503401360546,0.46258503401360546,0.46258503401360546,0.46258503401360546,0.46258503401360546,0.46258503401360546,0.46258503401360546,0.46258503401360546,0.46258503401360546,0.46258503401360546,0.46258503401360546,0.46258503401360546,0.46258503401360546,0.46258503401360546,0.46258503401360546,0.46258503401360546,0.46258503401360546,0.46258503401360546,0.46258503401360546,0.46258503401360546,0.46258503401360546,0.46258503401360546,0.46258503401360546,0.46258503401360546,0.46258503401360546,0.46258503401360546,0.46258503401360546,0.46258503401360546,0.46258503401360546,0.46258503401360546,0.46258503401360546,0.46258503401360546,0.46258503401360546,0.46258503401360546,0.46258503401360546,0.46258503401360546,0.46258503401360546,0.46258503401360546,0.46258503401360546,0.46258503401360546,0.46258503401360546,0.46258503401360546,0.46258503401360546,0.46258503401360546,0.46258503401360546,0.46258503401360546,0.46258503401360546,0.46258503401360546,0.46258503401360546,0.46258503401360546,0.46258503401360546,0.46258503401360546,0.46258503401360546,0.46258503401360546,0.46258503401360546,0.46258503401360546,0.46258503401360546,0.46258503401360546,0.46258503401360546,0.46258503401360546,0.46258503401360546,0.46258503401360546,0.46258503401360546,0.46258503401360546,0.46258503401360546,0.46258503401360546,0.46258503401360546,0.46258503401360546,0.46258503401360546,0.46258503401360546,0.46258503401360546,0.46258503401360546,0.46258503401360546,0.46258503401360546,0.46258503401360546,0.46258503401360546,0.46258503401360546,0.46258503401360546,0.46258503401360546,0.46258503401360546,0.46258503401360546,0.46258503401360546,0.46258503401360546,0.46258503401360546,0.46258503401360546,0.46258503401360546,0.46258503401360546,0.46258503401360546,0.46258503401360546,0.46258503401360546,0.46258503401360546,0.46258503401360546,0.46258503401360546,0.46258503401360546,0.46258503401360546,0.46258503401360546,0.46258503401360546,0.46258503401360546,0.46258503401360546,0.46258503401360546,0.46258503401360546,0.46258503401360546,0.46258503401360546,0.46258503401360546,0.46258503401360546,0.46258503401360546,0.46258503401360546,0.46258503401360546,0.46258503401360546,0.46258503401360546,0.46258503401360546,0.46258503401360546,0.46258503401360546,0.46258503401360546,0.46258503401360546,0.46258503401360546,0.46258503401360546,0.46258503401360546,0.46258503401360546,0.46258503401360546,0.46258503401360546,0.46258503401360546,0.46258503401360546,0.46258503401360546,0.46258503401360546,0.46258503401360546,0.46258503401360546,0.46258503401360546,0.46258503401360546,0.46258503401360546,0.46258503401360546,0.46258503401360546,0.46258503401360546,0.46258503401360546,0.46258503401360546,0.46258503401360546,0.46258503401360546,0.46258503401360546,0.46258503401360546,0.46258503401360546,0.46258503401360546,0.46258503401360546,0.46258503401360546,0.46258503401360546,0.46258503401360546,0.46258503401360546,0.46258503401360546,0.46258503401360546,0.46258503401360546,0.46258503401360546,0.46258503401360546,0.46258503401360546,0.46258503401360546,0.46258503401360546,0.46258503401360546,0.46258503401360546,0.46258503401360546,0.46258503401360546,0.46258503401360546,0.46258503401360546,0.46258503401360546,0.46258503401360546,0.46258503401360546,0.46258503401360546,0.46258503401360546,0.46258503401360546,0.46258503401360546,0.46258503401360546,0.46258503401360546,0.46258503401360546,0.46258503401360546,0.46258503401360546,0.46258503401360546,0.46258503401360546,0.46258503401360546,0.46258503401360546,0.46258503401360546,0.46258503401360546,0.46258503401360546,0.46258503401360546,0.46258503401360546,0.46258503401360546,0.46258503401360546,0.46258503401360546,0.46258503401360546,0.46258503401360546,0.46258503401360546,0.46258503401360546,0.46258503401360546,0.46258503401360546,0.46258503401360546,0.46258503401360546,0.46258503401360546,0.46258503401360546,0.46258503401360546,0.46258503401360546,0.46258503401360546,0.46258503401360546,0.46258503401360546,0.46258503401360546,0.46258503401360546,0.46258503401360546,0.46258503401360546,0.46258503401360546,0.46258503401360546,0.46258503401360546,0.46258503401360546,0.46258503401360546,0.46258503401360546,0.46258503401360546,0.46258503401360546,0.46258503401360546,0.46258503401360546,0.46258503401360546,0.46258503401360546,0.46258503401360546,0.46258503401360546,0.46258503401360546,0.46258503401360546,0.46258503401360546,0.46258503401360546,0.46258503401360546,0.46258503401360546,0.46258503401360546,0.46258503401360546,0.46258503401360546,0.46258503401360546,0.46258503401360546,0.46258503401360546,0.46258503401360546,0.46258503401360546,0.46258503401360546,0.46258503401360546,0.46258503401360546,0.46258503401360546,0.46258503401360546,0.46258503401360546,0.46258503401360546,0.46258503401360546,0.46258503401360546,0.46258503401360546,0.46258503401360546,0.46258503401360546,0.46258503401360546,0.46258503401360546,0.46258503401360546,0.46258503401360546,0.46258503401360546,0.46258503401360546,0.46258503401360546,0.46258503401360546,0.46258503401360546,0.46258503401360546,0.46258503401360546,0.46258503401360546,0.46258503401360546,0.46258503401360546,0.46258503401360546,0.46258503401360546,0.46258503401360546,0.46258503401360546,0.46258503401360546,0.46258503401360546,0.46258503401360546,0.46258503401360546,0.46258503401360546,0.46258503401360546,0.46258503401360546,0.46258503401360546,0.46258503401360546,0.46258503401360546,0.46258503401360546,0.46258503401360546,0.46258503401360546,0.46258503401360546,0.46258503401360546,0.46258503401360546,0.46258503401360546,0.46258503401360546,0.46258503401360546,0.46258503401360546,0.46258503401360546,0.46258503401360546,0.46258503401360546,0.46258503401360546,0.46258503401360546,0.46258503401360546,0.46258503401360546,0.46258503401360546,0.46258503401360546,0.46258503401360546,0.46258503401360546,0.46258503401360546,0.46258503401360546,0.46258503401360546,0.46258503401360546,0.46258503401360546,0.46258503401360546,0.46258503401360546,0.46258503401360546,0.46258503401360546,0.46258503401360546,0.46258503401360546,0.46258503401360546,0.46258503401360546,0.46258503401360546,0.46258503401360546,0.46258503401360546,0.46258503401360546,0.46258503401360546,0.46258503401360546,0.46258503401360546,0.46258503401360546,0.46258503401360546,0.46258503401360546,0.46258503401360546,0.46258503401360546,0.46258503401360546,0.46258503401360546,0.46258503401360546,0.46258503401360546,0.46258503401360546,0.46258503401360546,0.46258503401360546,0.46258503401360546,0.46258503401360546,0.7414965986394558,0.7414965986394558,0.7414965986394558,0.7414965986394558,0.7414965986394558,0.7414965986394558,0.7414965986394558,0.7414965986394558,0.7414965986394558,0.7414965986394558,0.7414965986394558,0.7414965986394558,0.7414965986394558,0.7414965986394558,0.7414965986394558,0.7414965986394558,0.7414965986394558,0.7414965986394558,0.7414965986394558,0.7414965986394558,0.7414965986394558,0.7414965986394558,0.7414965986394558,0.7414965986394558,0.7414965986394558,0.7414965986394558,0.7448979591836735,0.7448979591836735,0.7448979591836735,0.7448979591836735,0.7448979591836735,0.7448979591836735,0.7448979591836735,0.7448979591836735,0.7448979591836735,0.7448979591836735,0.7448979591836735,0.7448979591836735,0.7448979591836735,0.7448979591836735,0.7448979591836735,0.7448979591836735,0.7448979591836735,0.7448979591836735,0.7448979591836735,0.7448979591836735,0.7448979591836735,0.7448979591836735,0.7448979591836735,0.7448979591836735,0.7448979591836735,0.7448979591836735,0.7448979591836735,0.7448979591836735,0.7448979591836735,0.7448979591836735,0.7448979591836735,0.7448979591836735,0.7448979591836735,0.7448979591836735,0.7448979591836735,0.7448979591836735,0.7448979591836735,0.7448979591836735,0.7448979591836735,0.7448979591836735,0.7448979591836735,0.7448979591836735,0.7448979591836735,0.7448979591836735,0.7448979591836735,0.7448979591836735,0.7448979591836735,0.7448979591836735,0.7448979591836735,0.7448979591836735,0.7448979591836735,0.7448979591836735,0.7448979591836735,0.7448979591836735,0.7448979591836735,0.7448979591836735,0.7448979591836735,0.7448979591836735,0.7448979591836735,0.7448979591836735,0.7448979591836735,0.7448979591836735,0.7448979591836735,0.7448979591836735,0.7448979591836735,0.7448979591836735,0.7448979591836735,0.7448979591836735,0.7448979591836735,0.7448979591836735,0.7448979591836735,0.7448979591836735,0.7448979591836735,0.7448979591836735,0.7448979591836735,0.7448979591836735,0.7448979591836735,0.7448979591836735,0.7448979591836735,0.7448979591836735,0.7448979591836735,0.7448979591836735,0.7448979591836735,0.7448979591836735,0.7448979591836735,0.7448979591836735,0.7448979591836735,0.7448979591836735,0.7448979591836735,0.7448979591836735,0.7448979591836735,0.7448979591836735,0.7448979591836735,0.7448979591836735,0.7448979591836735,0.7448979591836735,0.7448979591836735,0.7448979591836735,0.7448979591836735,0.7448979591836735,0.7448979591836735,0.9149659863945578,0.9149659863945578,0.9149659863945578,0.9149659863945578,0.9149659863945578,0.9149659863945578,0.9149659863945578,0.9149659863945578,0.9149659863945578,0.9149659863945578,0.9149659863945578,0.9149659863945578,0.9149659863945578,0.9149659863945578,0.9149659863945578,0.9149659863945578,0.9149659863945578,0.9149659863945578,0.9149659863945578,0.9149659863945578,0.9149659863945578,0.9149659863945578,0.9149659863945578,0.9149659863945578,0.9149659863945578,0.9149659863945578,0.9149659863945578,0.9149659863945578,0.9149659863945578,0.9149659863945578,0.9149659863945578,0.9149659863945578,0.9149659863945578,0.9149659863945578,0.9149659863945578,0.9149659863945578,0.9149659863945578,0.9149659863945578,0.9149659863945578,0.9149659863945578,0.9149659863945578,0.9149659863945578,0.9149659863945578,0.9149659863945578,0.9149659863945578,0.9149659863945578,0.9149659863945578,0.9149659863945578,0.9149659863945578,0.9149659863945578,0.9149659863945578,0.9149659863945578,0.9149659863945578,0.9149659863945578,0.9149659863945578,0.9149659863945578,0.9149659863945578,0.9149659863945578,0.9149659863945578,0.9149659863945578,0.9149659863945578,0.9149659863945578,0.9149659863945578,0.9149659863945578,0.9149659863945578,0.9149659863945578,0.9149659863945578,0.9149659863945578,0.9149659863945578,0.9149659863945578,0.9149659863945578,0.9149659863945578,0.9149659863945578,0.9149659863945578,0.9149659863945578,0.9149659863945578,0.9149659863945578,0.9149659863945578,0.08503401360544217,0.08503401360544217,0.08503401360544217,0.08503401360544217,0.08503401360544217,0.08503401360544217,0.08503401360544217,0.08503401360544217,0.08503401360544217,0.08503401360544217,0.08503401360544217,0.08503401360544217,0.08503401360544217,0.08503401360544217,0.08503401360544217,0.08503401360544217,0.08503401360544217,0.08503401360544217,0.08503401360544217,0.08503401360544217,0.08503401360544217,0.08503401360544217,0.08503401360544217,0.08503401360544217,0.08503401360544217,0.08503401360544217,0.08843537414965986,0.08843537414965986,0.08843537414965986,0.08843537414965986,0.08843537414965986,0.08843537414965986,0.08843537414965986,0.08843537414965986,0.08843537414965986,0.08843537414965986,0.08843537414965986,0.08843537414965986,0.08843537414965986,0.08843537414965986,0.08843537414965986,0.08843537414965986,0.08843537414965986,0.08843537414965986,0.08843537414965986,0.08843537414965986,0.08843537414965986,0.08843537414965986,0.08843537414965986,0.08843537414965986,0.08843537414965986,0.08843537414965986,0.08843537414965986,0.08843537414965986,0.08843537414965986,0.08843537414965986,0.08843537414965986,0.08843537414965986,0.08843537414965986,0.08843537414965986,0.08843537414965986,0.08843537414965986,0.08843537414965986,0.08843537414965986,0.08843537414965986,0.08843537414965986,0.08843537414965986,0.17346938775510204,0.17346938775510204,0.17346938775510204,0.17346938775510204,0.17346938775510204,0.17346938775510204,0.17346938775510204,0.17346938775510204,0.17346938775510204,0.17346938775510204,0.17346938775510204,0.17346938775510204,0.17346938775510204,0.17346938775510204,0.17346938775510204,0.17346938775510204,0.17346938775510204,0.17346938775510204,0.17346938775510204,0.17346938775510204,0.17346938775510204,0.17346938775510204,0.17346938775510204,0.17346938775510204,0.17346938775510204,0.17346938775510204,0.17346938775510204,0.17346938775510204,0.17346938775510204,0.17346938775510204,0.17346938775510204,0.17346938775510204,0.17346938775510204,0.17346938775510204,0.17346938775510204,0.17346938775510204,0.17346938775510204,0.17346938775510204,0.17346938775510204,0.17346938775510204,0.17346938775510204,0.17346938775510204,0.17346938775510204,0.17346938775510204,0.17346938775510204,0.17346938775510204,0.17346938775510204,0.17346938775510204,0.17346938775510204,0.17346938775510204,0.17346938775510204,0.17346938775510204,0.17346938775510204,0.17346938775510204,0.17346938775510204,0.17346938775510204,0.17346938775510204,0.17346938775510204,0.17346938775510204,0.17346938775510204,0.17346938775510204,0.17346938775510204,0.17346938775510204,0.17346938775510204,0.17346938775510204,0.17346938775510204,0.17346938775510204,0.17346938775510204,0.17346938775510204,0.17346938775510204,0.17346938775510204,0.17346938775510204,0.17346938775510204,0.17346938775510204,0.17346938775510204,0.17346938775510204,0.17346938775510204,0.17346938775510204,0.17346938775510204,0.17346938775510204,0.17346938775510204,0.17346938775510204,0.17346938775510204,0.17346938775510204,0.17346938775510204,0.17346938775510204,0.17346938775510204,0.17346938775510204,0.17346938775510204,0.17346938775510204,0.17346938775510204,0.17346938775510204,0.17346938775510204,0.17346938775510204,0.17346938775510204,0.17346938775510204,0.17346938775510204,0.17346938775510204,0.17346938775510204,0.17346938775510204,0.17346938775510204,0.17346938775510204,0.17346938775510204,0.17346938775510204,0.17346938775510204,0.17346938775510204,0.17346938775510204,0.17346938775510204,0.17346938775510204,0.17346938775510204,0.17346938775510204,0.17346938775510204,0.17346938775510204,0.17346938775510204,0.17346938775510204,0.17346938775510204,0.17346938775510204,0.17346938775510204,0.17346938775510204,0.17346938775510204,0.17346938775510204,0.17346938775510204,0.17346938775510204,0.17346938775510204,0.17346938775510204,0.17346938775510204,0.17346938775510204,0.17346938775510204,0.17346938775510204,0.17346938775510204,0.17346938775510204,0.17346938775510204,0.17346938775510204,0.17346938775510204,0.17346938775510204,0.17346938775510204,0.17346938775510204,0.17346938775510204,0.17346938775510204,0.17346938775510204,0.17346938775510204,0.17346938775510204,0.17346938775510204,0.17346938775510204,0.17346938775510204,0.17346938775510204,0.17346938775510204,0.17346938775510204,0.17346938775510204,0.17346938775510204,0.17346938775510204,0.17346938775510204,0.17346938775510204,0.17346938775510204,0.17346938775510204,0.17346938775510204,0.17346938775510204,0.17346938775510204,0.17346938775510204,0.17346938775510204,0.17346938775510204,0.17346938775510204,0.17346938775510204,0.17346938775510204,0.17346938775510204,0.17346938775510204,0.17346938775510204,0.17346938775510204,0.17346938775510204,0.17346938775510204,0.17346938775510204,0.17346938775510204,0.17346938775510204,0.17346938775510204,0.17346938775510204,1.0850340136054422,1.0850340136054422,1.0850340136054422,1.0850340136054422,1.0850340136054422,1.0850340136054422,1.0850340136054422,1.0850340136054422,1.0850340136054422,1.0850340136054422,1.0850340136054422,1.0850340136054422,1.0850340136054422,1.0850340136054422,1.0850340136054422,1.0850340136054422,1.0850340136054422,1.0850340136054422,1.0850340136054422,1.0850340136054422,1.0850340136054422,1.0850340136054422,1.0850340136054422,1.0850340136054422,1.0850340136054422,1.0850340136054422,1.0850340136054422,1.08843537414966,1.08843537414966,1.08843537414966,1.08843537414966,1.08843537414966,1.08843537414966,1.08843537414966,1.08843537414966,1.08843537414966,1.08843537414966,1.08843537414966,1.08843537414966,1.08843537414966,1.08843537414966,1.08843537414966,1.08843537414966,1.08843537414966,1.08843537414966,1.08843537414966,1.08843537414966,1.08843537414966,1.08843537414966,1.08843537414966,1.08843537414966,1.08843537414966,1.08843537414966,1.08843537414966,1.08843537414966,1.08843537414966,1.08843537414966,1.08843537414966,1.08843537414966,1.08843537414966,1.08843537414966,1.08843537414966,1.08843537414966,1.08843537414966,1.08843537414966,1.08843537414966,1.0850340136054422,1.0850340136054422,1.0850340136054422,1.0850340136054422,1.0850340136054422,1.0850340136054422,1.0850340136054422,1.0850340136054422,1.0850340136054422,1.0850340136054422,1.0850340136054422,1.0850340136054422,1.0850340136054422,1.0850340136054422,1.0850340136054422,1.0850340136054422,1.0850340136054422,1.0850340136054422,1.0850340136054422,1.0850340136054422,1.0850340136054422,1.0850340136054422,1.0850340136054422,1.0850340136054422,1.0850340136054422,1.0850340136054422,1.0850340136054422,1.0850340136054422,1.0850340136054422,1.0850340136054422,1.0850340136054422,1.0850340136054422,1.0850340136054422,1.0850340136054422,1.0850340136054422,1.0850340136054422,1.0850340136054422,1.0850340136054422,1.0850340136054422,1.0850340136054422,1.0850340136054422,1.0850340136054422,1.0850340136054422,1.0850340136054422,1.0850340136054422,1.0850340136054422,1.0850340136054422,1.0850340136054422,1.0850340136054422,1.0850340136054422,1.0850340136054422,1.0850340136054422,1.0850340136054422,1.0850340136054422,1.0850340136054422,1.0850340136054422,1.054421768707483,1.054421768707483,1.054421768707483,1.054421768707483,1.054421768707483,1.054421768707483,1.054421768707483,1.054421768707483,1.054421768707483,1.054421768707483,1.054421768707483,1.054421768707483,1.054421768707483,1.054421768707483,1.054421768707483,1.054421768707483,1.054421768707483,1.054421768707483,1.054421768707483,1.054421768707483,1.054421768707483,1.054421768707483,1.054421768707483,1.054421768707483,1.054421768707483,1.0578231292517006,1.0578231292517006,1.0578231292517006,1.0578231292517006,1.0578231292517006,1.0578231292517006,1.0578231292517006,1.0578231292517006,1.0578231292517006,1.0578231292517006,1.0578231292517006,1.0578231292517006,1.0578231292517006,1.0578231292517006,1.0578231292517006,1.0578231292517006,1.0578231292517006,1.0578231292517006,1.0578231292517006,1.0578231292517006,1.0578231292517006,1.0578231292517006,1.0578231292517006,1.0578231292517006,1.0578231292517006,1.0578231292517006,1.0578231292517006,1.0578231292517006,1.0578231292517006,1.0578231292517006,1.0578231292517006,1.0578231292517006,1.0578231292517006,1.0578231292517006,1.0578231292517006,1.0578231292517006,1.0578231292517006,1.0578231292517006,1.0578231292517006,1.0578231292517006,1.0578231292517006,1.0578231292517006,1.0578231292517006,1.0578231292517006,1.0578231292517006,1.0578231292517006,1.0578231292517006,1.0578231292517006,1.0578231292517006,1.0578231292517006,1.0578231292517006,1.0578231292517006,1.0578231292517006,1.0578231292517006,1.0578231292517006,1.0578231292517006,1.0578231292517006,1.0578231292517006,1.0578231292517006,1.0578231292517006,1.0578231292517006,1.0578231292517006,1.0578231292517006,0.003401360544217687,0.003401360544217687,0.003401360544217687,0.003401360544217687,0.003401360544217687,0.003401360544217687,0.003401360544217687,0.003401360544217687,0.003401360544217687,0.003401360544217687,0.003401360544217687,0.003401360544217687,0.003401360544217687,0.003401360544217687,0.003401360544217687,0.003401360544217687,0.003401360544217687,0.003401360544217687,0.003401360544217687,0.003401360544217687,0.003401360544217687,0.003401360544217687,0.003401360544217687,0.003401360544217687,0.003401360544217687,0.006802721088435374,0.006802721088435374,0.006802721088435374,0.006802721088435374,0.006802721088435374,0.006802721088435374,0.006802721088435374,0.006802721088435374,0.006802721088435374,0.006802721088435374,0.006802721088435374,0.006802721088435374,0.006802721088435374,0.006802721088435374,0.006802721088435374,0.006802721088435374,0.006802721088435374,0.006802721088435374,0.006802721088435374,0.006802721088435374,0.006802721088435374,0.006802721088435374,0.006802721088435374,0.006802721088435374,0.006802721088435374,0.006802721088435374,0.006802721088435374,0.006802721088435374,0.006802721088435374,0.006802721088435374,0.006802721088435374,0.006802721088435374,0.006802721088435374,0.006802721088435374,0.006802721088435374,0.006802721088435374,0.006802721088435374,0.006802721088435374,0.006802721088435374,0.006802721088435374,0.006802721088435374,0.006802721088435374,0.006802721088435374,0.006802721088435374,0.006802721088435374,0.006802721088435374,0.006802721088435374,0.006802721088435374,0.006802721088435374,0.006802721088435374,0.006802721088435374,0.006802721088435374,0.006802721088435374,0.006802721088435374,0.006802721088435374,0.006802721088435374,0.006802721088435374,0.006802721088435374,0.006802721088435374,0.006802721088435374,0.006802721088435374,0.006802721088435374,0.006802721088435374,0.006802721088435374,0.006802721088435374,0.006802721088435374,0.006802721088435374,0.006802721088435374,0.006802721088435374,0.006802721088435374,0.006802721088435374,0.006802721088435374,0.006802721088435374,0.006802721088435374,0.006802721088435374,0.006802721088435374,0.006802721088435374,0.006802721088435374,0.006802721088435374,0.006802721088435374,0.006802721088435374,0.006802721088435374,0.006802721088435374,0.006802721088435374,0.006802721088435374,0.006802721088435374,0.006802721088435374,0.006802721088435374,0.006802721088435374,0.006802721088435374,0.006802721088435374,0.006802721088435374,0.006802721088435374,0.006802721088435374,0.006802721088435374,0.006802721088435374,0.006802721088435374,0.006802721088435374,0.006802721088435374,0.00680272108843537