[{"success":true,"trial_type":"fullscreen","trial_index":0,"time_elapsed":3343,"internal_node_id":"0.0-0.0","protocol_sum":"","subject_identifier":322,"subject_sum":[187,102,140,169,85,99,33,96,136,185,138,98,85,127,161,226,104,2,86,63,57,25,172,120,174,48,83,59,185,237,66,44],"subject_pair":161,"STUDY_ID":"66a0b3911f23dfc7665bb169","PROLIFIC_PID":"65f0f44f1cae5992a2cc2c8b","SESSION_ID":"66a14a47d73a61f8a202d570","practice_instructions":1,"leaderboard_instructions":0,"bonus":0,"reveal_word":false,"self_rating":"4","confidence":"83"},{"view_history":"[{\"page_index\":0,\"viewing_time\":6307.299999999814}]","rt":6307.4000000003725,"trial_type":"instructions","trial_index":1,"time_elapsed":9653,"internal_node_id":"0.0-1.0","protocol_sum":"","subject_identifier":322,"subject_sum":[187,102,140,169,85,99,33,96,136,185,138,98,85,127,161,226,104,2,86,63,57,25,172,120,174,48,83,59,185,237,66,44],"subject_pair":161,"STUDY_ID":"66a0b3911f23dfc7665bb169","PROLIFIC_PID":"65f0f44f1cae5992a2cc2c8b","SESSION_ID":"66a14a47d73a61f8a202d570","practice_instructions":1,"leaderboard_instructions":0,"bonus":0,"reveal_word":false,"self_rating":"4","confidence":"83"},{"view_history":"[{\"page_index\":0,\"viewing_time\":28352.50000000093}]","rt":28352.700000000186,"trial_type":"instructions","trial_index":2,"time_elapsed":38006,"internal_node_id":"0.0-2.0-0.0","protocol_sum":"","subject_identifier":322,"subject_sum":[187,102,140,169,85,99,33,96,136,185,138,98,85,127,161,226,104,2,86,63,57,25,172,120,174,48,83,59,185,237,66,44],"subject_pair":161,"STUDY_ID":"66a0b3911f23dfc7665bb169","PROLIFIC_PID":"65f0f44f1cae5992a2cc2c8b","SESSION_ID":"66a14a47d73a61f8a202d570","practice_instructions":1,"leaderboard_instructions":0,"bonus":0,"reveal_word":false,"self_rating":"4","confidence":"83"},{"rt":10063.099999999627,"responses":"{\"Q0\":\"... reveal the word with as <b>few letter guesses</b> as possible\"}","question_order":"[0]","trial_type":"survey-multi-choice","trial_index":3,"time_elapsed":48070,"internal_node_id":"0.0-2.0-1.0","protocol_sum":"","subject_identifier":322,"subject_sum":[187,102,140,169,85,99,33,96,136,185,138,98,85,127,161,226,104,2,86,63,57,25,172,120,174,48,83,59,185,237,66,44],"subject_pair":161,"correct":true,"test_part":"multichoice_nonpretend","STUDY_ID":"66a0b3911f23dfc7665bb169","PROLIFIC_PID":"65f0f44f1cae5992a2cc2c8b","SESSION_ID":"66a14a47d73a61f8a202d570","practice_instructions":1,"leaderboard_instructions":0,"bonus":0,"reveal_word":false,"self_rating":"4","confidence":"83"},{"view_history":"[{\"page_index\":0,\"viewing_time\":1606.300000000745}]","rt":1606.4000000003725,"trial_type":"instructions","trial_index":4,"time_elapsed":49678,"internal_node_id":"0.0-3.0","protocol_sum":"","subject_identifier":322,"subject_sum":[187,102,140,169,85,99,33,96,136,185,138,98,85,127,161,226,104,2,86,63,57,25,172,120,174,48,83,59,185,237,66,44],"subject_pair":161,"STUDY_ID":"66a0b3911f23dfc7665bb169","PROLIFIC_PID":"65f0f44f1cae5992a2cc2c8b","SESSION_ID":"66a14a47d73a61f8a202d570","practice_instructions":1,"leaderboard_instructions":0,"bonus":0,"reveal_word":false,"self_rating":"4","confidence":"83"},{"word":"ZEBRA","click_log":{"letter":["","A","O","E","I","S","L","M","H","R","Z","B"],"t":[0,4370.199999999255,14778.699999999255,19914.300000000745,71146.59999999963,75682.19999999925,78450.19999999925,80065.90000000037,82162.19999999925,83909.59999999963,93835.69999999925,97775.69999999925],"hit":[null,1,0,1,0,0,0,0,0,1,1,1],"asked":["","A","AO","AOE","AOEI","AOEIS","AOEISL","AOEISLM","AOEISLMH","AOEISLMHR","AOEISLMHRZ","AOEISLMHRZB"],"word_state":["_____","____A","____A","_E__A","_E__A","_E__A","_E__A","_E__A","_E__A","_E_RA","ZE_RA","ZEBRA"]},"hover_log":{"letter":["?","?","?","?","?","?","?","?","?","?","?","?","?","?","?","?","?","?","?","?","?","?","?","?","?","?","?","?","?","?","?","?","?","?","?","?","?","?","?","?","?","?","?","?","?","?","?","?","?","?","?","?","?","?","?","?","?","?","?","?","?","?","?","?","?","?","?","?","?","?","?","?","?","?","?","?","?","?","?","?","?","?","?","?","?","?","?","?","?","?","?","?","?","?","?","?","?","?","?","?","?","?","?","?","?","?","?","?","?","?","?","?","?","?","?","?","?","?","?","?","?","?","?","?","?","?","?","?","?","?","?","?","?","?","?","?","?","?","?","?","?","?","?","?","?","?","?","?","?","?","?","?","?","?","?","?","?","?","?","?","?","?","?","?","?","?","?","?","?","?","?","?","?","?","?","?","?","?","?","?","?","?","?","?","?","?","?","?","?","?","T","T","T","?","?","K","K","K","K","?","?","?","?","?","?","?","?","?","?","A","A","A","A","A","A","A","A","A","A","A","A","A","A","A","A","A","A","A","A","A","A","A","A","A","A","A","A","A","A","A","A","A","A","A","A","A","A","A","A","A","A","A","A","A","A","A","A","A","A","A","A","A","A","A","A","A","A","A","A","A","A","A","A","A","A","A","A","A","A","A","?","J","J","?","S","?","?","?","?","?","?","?","?","?","?","?","?","?","?","?","?","?","?","?","?","?","?","?","?","?","?","?","?","?","?","?","?","?","?","?","?","?","?","?","?","?","?","?","?","?","?","?","?","?","?","?","?","?","?","?","?","?","?","?","?","?","?","?","?","?","?","?","?","?","?","?","?","?","?","?","?","?","?","?","?","?","?","?","?","?","?","?","?","?","?","?","?","?","?","?","?","?","?","?","?","?","?","?","?","?","?","?","?","?","?","?","?","?","?","?","?","?","?","?","?","?","?","?","?","?","?","?","?","?","?","?","?","?","?","?","?","?","?","?","?","?","?","?","?","?","?","?","?","?","?","?","?","?","?","?","?","?","?","?","?","?","?","?","?","?","?","?","?","?","?","?","?","?","?","?","?","?","?","?","?","?","?","?","?","?","?","?","?","?","?","?","?","?","?","?","?","?","?","?","?","?","?","?","?","?","?","?","?","?","?","?","?","?","?","?","?","?","?","?","?","?","?","?","?","?","?","?","?","?","?","?","?","?","?","?","?","?","?","?","?","?","?","?","?","?","?","?","?","?","C","?","?","?","?","?","?","?","?","?","?","?","?","?","?","?","?","?","?","?","?","?","?","?","?","?","?","?","?","?","?","?","?","?","?","?","?","?","?","?","?","?","?","?","?","?","?","?","?","?","?","?","?","?","?","?","?","?","?","?","?","?","?","?","?","?","?","?","?","?","?","?","?","?","?","?","?","?","?","?","?","?","?","?","?","?","?","?","?","?","?","?","?","?","?","?","?","?","?","?","?","?","?","?","?","?","?","?","?","?","?","?","?","?","?","?","?","?","?","?","?","?","?","?","?","?","?","?","?","F","F","?","O","X","X","X","X","X","X","X","X","X","X","X","?","?","?","?","?","?","?","?","?","?","?","?","?","?","?","?","?","?","?","?","?","?","?","?","?","?","?","?","?","?","?","W","W","W","W","W","W","W","W","?","?","?","?","?","?","?","?","?","?","?","?","?","?","?","?","?","?","?","?","?","?","?","?","?","?","?","?","?","?","?","?","?","?","?","?","?","?","?","?","?","?","?","?","?","?","?","?","?","?","?","?","?","?","?","?","?","?","?","?","?","?","?","?","?","?","?","?","?","?","?","?","?","?","?","?","?","?","?","?","?","?","?","?","?","?","?","?","?","?","?","?","?","?","?","?","?","?","?","?","?","?","?","?","?","?","?","?","?","?","?","?","?","?","?","?","?","?","?","?","?","?","?","?","?","?","?","?","?","?","?","?","?","?","?","W","W","W","W","W","?","?","?","?","?","?","?","O","O","O","O","O","O","O","O","O","O","O","O","O","O","O","O","O","O","O","O","O","O","O","O","O","O","O","O","O","O","O","O","O","O","?","?","?","W","W","W","?","?","?","?","?","?","?","?","?","?","?","?","?","?","?","?","?","?","?","?","?","?","?","?","?","?","?","?","?","?","?","?","?","?","?","?","?","?","?","?","?","?","?","?","?","?","?","?","?","?","?","?","?","?","?","?","?","?","?","?","?","?","?","?","?","?","?","?","?","?","?","?","?","?","?","?","?","?","?","?","?","?","?","?","?","?","?","?","?","?","?","?","?","?","?","?","?","?","?","?","?","?","?","?","?","?","?","?","?","?","?","?","?","?","?","?","?","?","?","?","?","?","?","?","?","?","?","?","?","?","?","?","?","?","?","?","?","?","?","?","?","?","?","?","?","?","?","?","?","?","?","?","?","?","?","?","?","?","?","?","?","?","?","?","?","?","?","?","?","?","?","?","?","?","?","?","?","?","?","?","?","?","?","?","?","?","?","?","?","?","?","?","?","?","?","?","?","?","?","?","?","?","?","?","?","?","?","?","?","?","?","?","?","?","?","?","?","?","?","?","?","?","?","?","?","N","N","N","N","N","N","?","?","?","?","E","E","E","E","E","E","E","E","E","E","E","E","E","E","E","E","E","E","E","E","E","E","E","E","E","E","E","E","E","E","E","E","E","E","E","E","E","E","E","E","E","E","E","E","E","E","E","E","E","E","E","E","E","E","E","E","E","E","E","E","E","E","E","E","E","E","E","E","E","E","E","E","E","E","E","E","E","E","E","E","E","E","E","E","E","E","E","E","E","E","?","?","?","?","?","?","?","?","?","?","?","?","?","?","?","?","?","?","?","?","?","?","?","?","?","?","?","?","?","?","?","?","?","?","?","?","?","?","?","?","?","?","?","?","?","?","?","?","?","?","?","?","?","?","?","?","?","?","?","?","?","?","?","?","?","?","?","?","?","?","?","?","?","?","?","?","?","?","?","?","?","?","?","?","?","?","?","?","?","?","?","?","?","?","?","?","?","?","?","?","?","?","?","?","?","?","?","?","?","?","?","?","?","?","?","?","?","?","?","?","?","?","?","?","?","?","?","?","?","?","?","?","?","?","?","?","?","?","?","?","?","?","?","?","?","?","?","?","?","?","?","?","?","?","?","?","?","?","?","?","?","?","?","?","?","?","?","?","?","?","?","?","?","?","?","?","?","?","?","?","?","?","?","?","?","?","?","?","?","?","?","?","?","?","?","?","?","?","?","?","?","?","?","?","?","?","?","?","?","?","?","?","?","?","?","?","?","?","?","?","?","?","?","?","?","?","?","?","?","?","?","?","?","?","?","?","?","?","?","?","?","?","?","?","?","?","?","?","?","?","?","?","?","?","?","?","?","?","?","?","?","?","?","?","?","?","?","?","?","?","?","?","?","?","?","?","?","?","?","?","?","?","?","?","?","?","?","?","?","?","?","?","?","?","?","?","?","?","?","?","?","?","?","?","?","?","?","?","?","?","?","?","?","?","?","?","?","?","?","?","?","?","?","?","?","?","?","?","?","?","?","?","?","?","?","?","?","?","?","?","?","?","?","?","?","?","?","?","?","?","?","?","?","?","?","?","?","?","?","?","?","?","?","?","?","?","?","?","?","?","?","?","?","?","?","?","?","?","?","?","?","?","?","?","?","?","?","?","?","?","?","?","?","?","?","?","?","?","?","?","?","?","?","?","?","?","?","?","?","?","?","?","?","?","?","?","?","?","?","?","?","?","?","?","?","?","?","?","?","?","?","?","?","?","?","?","?","?","?","?","?","?","?","?","?","?","?","?","?","?","?","?","?","?","?","?","?","?","?","?","?","?","?","?","?","?","?","?","?","?","?","?","?","?","?","?","?","?","?","?","?","?","?","?","?","?","?","?","?","?","?","?","?","?","?","?","?","?","?","?","?","?","?","?","?","?","?","?","?","?","?","?","?","?","?","?","?","?","?","?","?","?","?","?","?","?","?","?","?","?","?","?","?","?","?","?","?","?","?","?","?","?","?","?","?","?","?","?","?","?","?","?","?","?","?","?","?","?","?","?","?","?","?","?","?","?","?","?","?","?","?","?","?","?","?","?","?","?","?","?","?","?","?","?","?","?","?","?","?","?","?","?","?","?","?","?","?","?","?","?","?","?","?","?","?","?","?","?","?","?","?","?","?","?","?","?","?","?","?","?","?","?","?","?","?","?","?","?","?","?","?","?","?","?","?","?","?","?","?","?","?","?","?","?","?","?","?","?","?","?","?","?","?","?","?","?","?","?","?","?","?","?","?","?","?","?","?","?","?","?","?","?","?","?","?","?","?","?","?","?","?","?","?","?","?","?","?","?","?","?","?","?","?","?","?","?","?","?","?","?","?","?","?","?","?","?","?","?","?","?","?","?","?","?","?","?","?","?","?","?","?","?","?","?","?","?","?","?","?","?","?","?","?","?","?","?","?","?","?","?","?","?","?","?","?","?","?","?","?","?","?","?","?","?","?","?","?","?","?","?","?","?","?","?","?","?","?","?","?","?","?","?","?","?","?","?","?","?","?","?","?","?","?","?","?","?","?","?","?","?","?","?","?","?","?","?","?","?","?","?","?","?","?","?","?","?","?","?","?","?","?","?","?","?","?","?","?","?","?","?","?","?","?","?","?","?","?","?","?","?","?","?","?","?","?","?","?","?","?","?","?","?","?","?","?","?","?","?","?","?","?","?","?","?","?","?","?","?","?","?","?","?","?","?","?","?","?","?","?","?","?","?","?","?","?","?","?","?","?","?","?","?","?","?","?","?","?","?","?","?","?","?","?","?","?","?","?","?","?","?","?","?","?","?","?","?","?","?","?","?","?","?","?","?","?","?","?","?","?","?","?","?","?","?","?","?","?","?","?","?","?","?","?","?","?","?","?","?","?","?","?","?","?","?","?","?","?","?","?","?","?","?","?","?","?","?","?","?","?","?","?","?","?","?","?","?","?","?","?","?","?","?","?","?","?","?","?","?","?","?","?","?","?","?","?","?","?","?","?","?","?","?","?","?","?","?","?","?","?","?","?","?","?","?","?","?","?","?","?","?","?","?","?","?","?","?","?","?","?","?","?","?","?","?","?","?","?","?","?","?","?","?","?","?","?","?","?","?","?","?","?","?","?","?","?","?","?","?","?","?","?","?","?","?","?","?","?","?","?","?","?","?","?","?","?","?","?","?","?","?","?","?","?","?","?","?","?","?","?","?","?","?","?","?","?","?","?","?","?","?","?","?","?","?","?","?","?","?","?","?","?","?","?","?","?","?","?","?","?","?","?","?","?","?","?","?","?","?","?","?","?","?","?","?","?","?","?","?","?","?","?","?","?","?","?","?","?","?","?","?","?","?","?","?","?","?","?","?","?","?","?","?","?","?","?","?","?","?","?","?","?","?","?","?","?","?","?","?","?","?","?","?","?","?","?","?","?","?","?","?","?","?","?","?","?","?","?","?","?","?","?","?","?","?","?","?","?","?","?","?","?","?","?","?","?","?","?","?","?","?","?","?","?","?","?","?","?","?","?","?","?","?","?","?","?","?","?","?","?","?","?","?","?","?","?","?","?","?","?","?","?","?","?","?","?","?","?","?","?","?","?","?","?","?","?","?","?","?","?","?","?","?","?","?","?","?","?","?","?","?","?","?","?","?","?","?","?","?","?","?","?","?","?","?","?","?","?","?","?","?","?","?","?","?","?","?","?","?","?","?","?","?","?","?","?","?","?","?","?","?","?","?","?","?","?","?","?","?","?","?","?","?","?","?","?","X","X","X","X","X","X","X","X","X","X","X","X","X","X","X","X","X","X","X","X","X","X","X","X","X","X","X","X","X","X","X","X","X","X","X","X","X","X","X","X","X","X","X","X","X","X","X","X","X","X","X","X","X","X","X","X","X","X","X","X","X","X","X","X","X","X","X","X","X","X","X","X","X","X","X","X","X","X","X","X","X","X","X","X","X","X","X","X","X","X","X","X","X","X","X","X","X","X","X","X","X","X","X","X","X","X","X","X","X","X","X","X","X","X","X","X","X","X","X","X","X","X","X","X","X","X","X","X","X","X","X","X","X","X","X","X","X","X","X","X","X","X","X","X","X","X","X","X","X","X","X","X","X","X","X","X","X","X","X","X","X","X","X","X","X","X","X","X","X","X","X","X","X","X","X","X","X","X","X","X","X","X","X","X","X","X","X","X","X","X","X","X","X","X","X","X","X","X","X","X","X","X","X","X","X","X","X","X","X","X","X","X","X","X","X","X","X","X","X","X","X","X","X","X","X","X","X","X","X","X","X","X","X","X","X","X","X","X","X","X","X","X","X","X","X","X","X","X","X","X","X","X","X","X","X","X","X","X","X","X","X","X","X","X","X","X","X","X","X","X","X","X","X","X","X","X","X","X","X","X","X","X","X","X","X","X","X","X","X","X","X","X","X","X","X","X","X","X","X","X","X","X","X","X","X","X","X","X","X","X","X","X","X","X","X","X","X","X","X","X","X","X","X","X","X","X","X","X","X","X","X","X","X","X","X","X","X","X","X","X","X","X","X","X","X","X","X","X","X","X","X","X","X","X","X","X","X","X","X","X","X","X","X","X","X","X","X","X","X","X","X","X","X","X","X","X","X","X","X","X","X","X","X","X","X","X","X","X","X","X","X","X","X","X","X","X","X","X","X","X","X","X","X","X","X","X","X","X","X","X","X","X","X","X","X","X","X","X","X","X","X","X","X","X","X","X","X","X","X","X","X","X","X","X","X","X","X","X","X","X","X","X","X","X","X","X","X","X","X","X","X","X","X","X","X","X","X","X","X","X","X","X","X","X","X","X","X","X","X","X","X","X","X","X","X","X","X","X","X","X","X","X","X","X","X","X","X","X","X","X","X","X","X","X","X","X","X","X","X","X","X","X","X","X","X","X","X","X","X","X","X","X","X","X","X","X","X","X","X","X","X","X","X","X","X","X","X","X","X","X","X","X","X","X","X","X","X","X","X","X","X","X","X","X","X","X","X","X","X","X","X","X","X","X","X","X","X","X","X","X","X","X","X","X","X","X","X","X","X","X","X","X","X","X","X","X","X","X","X","X","X","X","X","X","X","X","X","X","X","X","X","X","X","X","X","X","X","X","X","X","X","X","X","X","X","X","X","X","X","X","X","X","X","X","X","X","X","X","X","X","X","X","X","X","X","X","X","X","X","X","X","X","X","X","X","X","X","X","X","X","X","X","X","X","X","X","X","X","X","X","X","X","X","X","X","X","X","X","X","X","X","X","X","X","X","X","X","X","X","X","X","X","X","X","X","X","X","X","X","X","X","X","X","X","X","X","X","X","X","X","X","X","X","X","X","X","X","X","X","X","X","X","X","X","X","X","X","X","X","X","X","X","X","X","X","X","X","X","X","X","X","X","X","X","X","X","X","X","X","X","X","X","X","X","X","X","X","X","X","X","X","X","X","X","X","X","X","X","X","X","X","X","X","X","X","X","X","X","X","X","X","X","X","X","X","X","X","X","X","X","X","X","X","X","X","X","X","X","X","X","X","X","X","X","X","X","X","X","X","X","X","X","X","X","X","X","X","X","X","X","X","X","X","X","X","X","X","X","X","X","X","X","X","X","X","X","X","X","X","X","X","X","X","X","X","X","X","X","X","X","X","X","X","X","X","X","X","X","X","X","X","X","X","X","X","X","X","X","X","X","X","X","X","X","X","X","X","X","X","X","X","X","X","X","X","X","X","X","X","X","X","X","X","X","X","X","X","X","X","X","X","X","X","X","X","X","X","X","X","X","X","X","X","X","X","X","X","X","X","X","X","X","X","X","X","X","X","X","X","X","X","X","X","X","X","X","X","X","X","X","X","X","X","X","X","X","X","X","X","X","X","X","X","X","X","X","X","X","X","X","X","X","X","X","X","X","X","X","?","?","?","?","?","?","?","?","?","?","?","?","?","?","?","?","?","?","?","?","?","?","?","?","?","?","?","?","?","?","?","?","?","?","?","?","?","?","?","?","?","?","?","?","?","?","?","?","?","?","?","?","?","?","?","?","?","?","?","?","?","?","?","?","?","?","?","?","?","?","?","?","?","?","?","?","?","?","?","?","?","?","?","?","?","?","?","?","?","?","?","?","?","?","?","?","?","?","?","?","?","?","?","?","?","?","?","?","?","?","?","?","?","?","?","?","?","?","?","?","?","?","?","?","?","?","?","?","?","?","?","?","?","?","?","?","?","?","?","?","?","?","?","?","?","?","?","?","?","?","?","?","?","?","?","?","?","?","?","?","?","?","?","?","?","?","?","?","?","?","?","?","?","?","?","?","?","?","?","?","?","?","?","?","?","?","?","?","?","?","?","?","?","?","?","?","?","?","?","?","?","?","?","?","?","?","?","?","?","?","?","?","?","?","?","?","?","?","?","?","?","?","?","?","?","?","?","V","V","V","?","U","U","U","U","U","U","?","T","T","T","T","T","T","T","T","T","T","T","T","?","?","?","?","?","?","?","?","?","?","?","?","?","?","?","?","?","?","?","?","?","?","?","?","?","?","?","?","?","?","?","?","?","?","?","?","?","?","L","L","L","L","L","L","L","L","L","L","L","L","L","L","L","L","L","L","L","L","L","L","L","L","L","L","?","?","?","?","?","?","?","?","?","?","?","?","?","M","M","M","?","N","N","?","O","O","O","O","?","?","?","?","P","P","P","?","?","?","?","?","?","?","?","?","?","?","?","?","?","I","I","I","I","I","I","I","I","I","I","I","I","I","I","I","I","I","I","I","I","I","I","I","I","I","I","I","I","I","I","I","I","I","I","I","I","I","I","I","I","I","I","I","I","I","I","I","I","I","I","I","I","I","I","I","I","I","I","I","I","I","I","I","I","I","I","?","?","?","?","?","?","?","?","?","?","?","?","?","H","H","H","H","H","H","H","H","H","H","?","?","?","?","?","?","?","?","?","?","?","?","?","?","?","?","?","?","?","?","I","I","I","I","I","I","I","I","I","I","I","I","I","I","I","I","I","I","I","I","I","I","I","I","I","I","I","I","I","I","I","I","I","I","I","I","I","I","I","I","I","I","I","I","I","I","I","I","I","I","I","I","I","I","I","I","I","I","I","I","I","I","I","I","I","I","I","I","I","I","I","I","I","I","I","I","I","I","I","I","I","I","I","I","I","I","I","I","I","I","I","I","I","I","I","I","I","I","I","I","I","I","I","I","I","I","I","I","I","I","I","I","I","I","I","I","I","I","I","I","I","I","I","I","I","I","I","I","I","I","I","I","I","I","I","I","I","I","I","I","I","I","I","I","I","I","I","I","I","I","I","I","I","I","I","I","I","I","I","I","I","I","I","I","I","I","I","I","I","I","I","I","I","I","I","I","I","I","I","I","I","I","I","I","I","I","I","I","I","I","I","I","I","I","I","I","I","I","I","I","I","I","I","I","I","I","I","I","I","I","I","I","I","I","I","I","I","I","I","I","I","I","I","I","I","I","I","I","I","I","I","I","I","I","I","I","I","I","I","I","I","I","I","I","I","I","I","I","I","I","I","I","I","I","I","I","I","I","I","I","I","I","I","I","I","I","I","I","I","I","I","I","I","I","I","I","I","I","I","I","I","I","I","I","I","I","I","I","I","I","I","I","I","I","I","I","I","I","I","I","I","I","I","I","I","I","I","I","I","I","I","I","I","I","I","I","I","I","I","I","I","I","I","I","I","I","I","I","I","I","?","H","H","?","?","?","O","N","N","?","?","?","?","?","?","?","?","?","?","V","V","V","V","V","V","V","V","V","V","V","V","V","V","V","V","V","V","?","?","?","?","?","?","?","?","?","?","?","?","U","U","U","U","U","U","U","U","U","U","U","U","U","U","U","U","U","U","U","U","U","U","U","U","U","U","U","U","U","U","U","U","U","U","U","U","U","U","U","U","U","U","U","U","U","U","U","U","U","U","U","U","U","U","U","U","U","U","U","U","U","U","U","U","U","U","U","U","U","U","U","U","U","U","U","U","U","U","U","U","U","U","U","U","U","U","U","U","U","U","U","U","U","U","U","U","?","?","?","V","V","V","V","?","W","?","?","?","?","?","?","?","?","?","?","P","P","P","P","P","P","P","P","P","P","P","P","P","?","?","?","?","?","?","?","?","?","?","?","N","N","?","M","M","M","M","?","?","?","?","?","?","?","?","?","?","?","?","?","?","?","?","T","T","T","T","T","T","T","T","T","?","?","?","?","?","?","S","S","S","S","S","S","S","S","S","S","S","S","S","S","S","S","S","S","S","S","S","S","S","S","S","S","S","S","S","S","S","S","S","S","S","S","S","S","S","S","S","S","S","S","S","S","S","S","?","?","T","T","T","T","?","?","?","?","?","?","?","?","?","?","?","?","?","?","?","?","?","?","?","?","?","?","?","?","?","?","?","?","?","?","?","?","?","?","?","?","?","?","?","?","?","?","?","?","?","?","?","?","?","?","?","?","?","?","?","?","?","?","?","?","?","?","?","?","?","?","?","?","?","?","?","?","?","?","?","?","?","?","?","?","?","?","?","?","?","?","?","?","?","?","?","?","?","?","?","?","?","?","V","?","?","?","?","?","?","?","?","?","?","?","L","L","L","L","L","L","L","L","L","L","L","L","L","L","L","L","L","L","L","L","L","L","L","L","L","L","L","L","L","L","L","L","L","L","L","L","L","L","L","L","?","?","U","U","U","?","V","?","?","?","?","?","?","?","?","?","?","?","?","?","?","?","?","?","?","?","?","?","?","?","?","?","?","?","?","?","?","?","?","?","?","?","?","?","?","?","?","?","?","?","W","W","W","W","?","?","?","M","M","M","M","M","M","M","M","M","M","M","M","M","M","M","M","M","M","M","M","M","M","M","?","?","V","V","?","?","?","?","?","?","?","?","?","?","?","?","?","?","?","?","?","?","?","?","?","?","?","?","?","?","?","?","?","?","?","?","?","?","?","?","?","?","?","?","?","?","?","?","?","?","?","?","?","?","?","?","?","?","?","?","?","?","?","?","?","?","?","?","?","?","Y","Y","Y","Y","Y","Y","Y","Y","Y","?","?","?","?","?","?","?","Y","Y","Y","Y","Y","?","?","P","P","P","?","?","?","?","?","?","H","H","H","H","H","H","H","H","H","H","H","H","H","H","H","H","H","H","H","H","H","H","H","?","?","P","P","P","?","?","?","X","X","?","?","?","?","?","?","?","?","?","?","?","?","?","?","?","?","?","?","?","?","?","?","?","?","?","?","?","?","?","?","?","?","?","?","?","?","?","?","?","?","?","?","?","?","?","?","?","?","?","?","?","?","?","Z","Z","Z","Z","?","?","?","?","?","?","?","?","R","R","R","R","R","R","R","R","R","R","R","R","R","R","R","R","R","R","R","R","R","R","R","R","R","R","R","R","R","R","R","?","?","?","Y","?","?","?","?","?","?","?","?","?","?","?","?","?","?","?","?","?","?","?","?","?","?","?","?","?","?","?","?","?","?","?","?","?","?","?","?","?","?","?","?","?","?","?","?","?","?","?","?","?","?","?","?","?","?","?","?","?","?","?","?","?","?","?","?","?","?","?","?","?","?","?","?","?","?","?","?","?","?","?","?","?","?","?","?","?","?","?","?","?","?","?","?","?","?","?","?","?","?","?","?","?","?","?","?","?","?","?","?","?","?","?","?","?","?","?","?","?","?","?","?","?","?","?","?","?","?","?","?","?","?","?","?","?","?","?","?","?","?","?","?","?","?","?","?","?","?","?","?","?","?","?","?","?","?","?","?","?","?","?","?","?","?","?","?","?","?","?","?","?","?","?","?","?","?","?","?","?","?","?","?","?","?","?","?","?","?","?","?","?","?","?","?","?","?","?","?","?","?","?","?","?","?","?","?","?","?","?","?","?","?","?","?","?","?","?","?","?","?","?","?","?","?","?","?","?","?","?","?","?","?","?","?","?","?","?","?","?","?","?","?","?","?","?","?","?","?","?","?","?","?","?","?","?","?","?","?","?","?","?","?","?","?","?","?","?","?","?","?","?","?","?","?","?","?","?","?","?","?","?","?","?","?","?","?","?","?","?","?","?","?","?","?","?","?","?","?","?","?","?","?","?","?","?","?","?","?","?","?","?","?","?","?","?","?","?","?","?","?","?","?","?","?","?","?","?","?","?","?","?","?","?","?","?","?","?","?","?","?","?","?","?","?","?","?","?","?","?","?","?","?","?","?","?","?","?","?","?","?","?","?","?","?","?","?","?","?","?","?","?","?","?","?","?","?","?","?","?","?","?","?","?","?","?","?","?","?","?","?","?","?","?","?","?","?","?","?","?","?","?","?","?","?","?","?","?","?","?","?","?","?","?","?","?","?","?","?","?","?","?","?","?","?","?","?","?","?","?","?","?","?","?","?","?","?","?","?","?","?","?","?","?","?","?","?","?","?","?","?","?","?","?","?","?","?","?","?","?","?","?","?","?","?","?","?","?","?","?","?","?","?","?","?","?","?","?","?","?","?","?","?","?","?","?","?","?","?","?","?","?","?","?","?","?","?","?","?","?","?","?","?","?","?","?","?","?","?","?","Y","Y","Y","Y","Y","Y","Y","Y","Y","?","?","Z","Z","Z","Z","Z","Z","Z","Z","Z","Z","Z","Z","Z","Z","Z","Z","Z","Z","Z","Z","Z","Z","Z","Z","Z","Z","Z","Z","Z","Z","Z","Z","Z","Z","Z","Z","Z","Z","Z","Z","Z","Z","Z","Z","Z","Z","Z","Z","Z","Z","Z","Z","Z","Z","Z","Z","Z","Z","Z","Z","Z","Z","Z","Z","Z","Z","Z","Z","Z","Z","Z","Z","Z","Z","Z","Z","Z","Z","Z","Z","Z","Z","Z","Z","Z","Z","Z","Z","Z","?","?","?","?","?","?","?","?","?","?","?","?","?","?","?","?","?","?","?","?","?","?","?","?","?","?","?","?","?","F","?","?","?","?","?","?","?","?","?","?","?","?","?","?","?","?","?","?","?","?","?","?","?","?","?","?","?","?","?","?","?","?","?","?","?","?","?","?","?","?","?","?","?","?","?","?","?","?","?","?","?","E","?","D","D","D","?","C","C","C","C","C","C","C","C","C","C","C","C","C","C","C","C","C","?","?","?","?","?","?","B","B","B","B","B","B","B","B","B","B","B","B","B","B","B","B","B","B","B","B","B","B","B","B","B","B","B","B","B","B","B","B","B","B","B","B","B","B","B","B","B","B","B","B","B","B","B","B","B","B","B","B","B","B","B","B","B","B","B","B","B","B","B","B","B","B","B","B","B","B","B","B","B","B","B","B","B","B","B","B","B","B","B","B","B","B","B","B","B","B","B","B","B","B","B","B","B","B","B","B","B","B","B","B","B","B","B","B","B","B","B","B","B","B","B","B","B","B","B","B","B","B","B","?","?","K","K","?","U","U","U","?","?","?","?","?","?","?","?","?","?","?","?","?","?","?","?","?","?","?","?","?","?","?","?","?","?","?","?","?","?","?","?","?","?","?","?","?","?","?","?","?","?","?","?","?","?","?","?","?","?","?","?","?","?","?","?","?","?","?","?","?","?","?","?","?","?","?","?","?","?","?","?","?","?","?","?","?","?","?","?","?","?","?","?","?","?","?","?","?","?","?","?","?","?"],"t":[35,42,58,74,91,108,125,141,159,175,192,207,224,241,257,274,291,308,324,340,358,375,391,407,424,441,458,474,492,507,524,541,557,574,591,607,624,640,657,675,690,707,723,740,757,773,791,807,824,840,857,874,890,907,923,940,957,973,990,1007,1023,1040,1057,1074,1091,1108,1125,1141,1158,1175,1191,1208,1224,1241,1257,1274,1290,1307,1324,1340,1357,1374,1390,1407,1425,1440,1457,1474,1490,1507,1524,1540,1557,1574,1590,1607,1624,1640,1657,1673,1690,1708,1724,1741,1757,1774,1790,1808,1823,1841,1857,1874,1890,1907,1924,1941,1957,1974,1990,2007,2024,2040,2057,2074,2090,2107,2124,2141,2157,2174,2190,2207,2224,2240,2257,2274,2291,2307,2323,2340,2357,2373,2391,2407,2423,2441,2457,2473,2491,2508,2524,2540,2557,2574,2590,2607,2624,2641,2658,2674,2691,2707,2723,2740,2757,2774,2790,2807,2824,2840,2857,2873,2890,2907,2923,2940,2957,2973,2990,3007,3023,3040,3057,3074,3090,3107,3124,3140,3158,3174,3194,3208,3224,3241,3257,3275,3290,3307,3324,3341,3358,3373,3390,3407,3423,3441,3457,3474,3491,3507,3524,3541,3557,3573,3591,3608,3624,3640,3657,3674,3691,3707,3723,3740,3757,3773,3790,3807,3824,3840,3857,3873,3890,3907,3924,3941,3957,3974,3990,4007,4025,4040,4057,4074,4090,4107,4123,4140,4157,4174,4190,4207,4224,4240,4257,4274,4290,4307,4324,4341,4357,4375,4391,4407,4424,4441,4457,4474,4491,4507,4524,4541,4557,4574,4591,4608,4624,4641,4658,4674,4691,4707,4724,4741,4757,4774,4790,4807,4824,4840,4857,4874,4890,4907,4924,4941,4957,4974,4991,5007,5024,5040,5057,5074,5090,5107,5124,5140,5157,5174,5191,5208,5224,5241,5257,5274,5290,5307,5324,5341,5358,5374,5391,5407,5423,5442,5457,5474,5491,5507,5524,5541,5557,5573,5590,5608,5625,5640,5657,5674,5690,5707,5724,5740,5757,5774,5791,5808,5825,5841,5858,5875,5890,5907,5924,5940,5957,5974,5990,6007,6024,6040,6057,6074,6090,6107,6123,6140,6157,6174,6191,6207,6224,6241,6257,6274,6290,6307,6325,6340,6357,6373,6390,6407,6424,6442,6457,6473,6490,6507,6523,6540,6557,6573,6590,6607,6623,6640,6658,6674,6691,6707,6723,6740,6757,6773,6790,6807,6823,6840,6856,6873,6890,6907,6924,6940,6958,6975,6991,7007,7023,7040,7057,7073,7090,7106,7123,7141,7156,7173,7191,7207,7224,7240,7257,7274,7291,7307,7323,7340,7358,7373,7390,7407,7424,7441,7460,7474,7490,7507,7523,7540,7557,7573,7590,7607,7623,7640,7658,7673,7690,7707,7724,7740,7757,7773,7790,7806,7824,7841,7857,7874,7890,7907,7924,7940,7957,7974,7990,8007,8023,8040,8057,8073,8090,8107,8123,8140,8157,8174,8191,8207,8224,8240,8257,8274,8290,8307,8324,8341,8357,8373,8390,8406,8423,8440,8456,8473,8490,8507,8524,8540,8557,8574,8590,8607,8624,8641,8657,8674,8690,8707,8723,8740,8757,8774,8790,8807,8823,8840,8857,8873,8891,8907,8924,8940,8957,8974,8991,9007,9024,9040,9056,9074,9090,9107,9124,9140,9158,9174,9190,9207,9223,9240,9257,9275,9290,9308,9324,9341,9357,9374,9391,9407,9424,9440,9457,9474,9491,9507,9524,9540,9557,9574,9590,9607,9624,9640,9657,9674,9690,9707,9724,9740,9758,9774,9790,9807,9823,9840,9857,9873,9890,9907,9923,9940,9957,9974,9990,10007,10024,10040,10057,10073,10090,10107,10123,10140,10156,10174,10191,10207,10223,10240,10257,10273,10290,10307,10323,10340,10358,10374,10390,10407,10424,10440,10457,10473,10490,10507,10524,10540,10557,10573,10590,10607,10623,10640,10658,10674,10690,10706,10723,10740,10756,10774,10790,10807,10824,10840,10858,10874,10890,10907,10923,10941,10957,10973,10991,11007,11023,11040,11057,11074,11091,11107,11124,11140,11157,11173,11191,11206,11224,11241,11257,11274,11290,11307,11324,11340,11356,11374,11390,11407,11424,11440,11457,11474,11490,11507,11524,11541,11558,11574,11590,11607,11623,11640,11656,11673,11693,11707,11724,11742,11757,11773,11790,11807,11823,11840,11857,11873,11890,11907,11925,11940,11956,11973,11991,12007,12024,12040,12057,12074,12090,12107,12123,12140,12157,12173,12190,12207,12223,12240,12256,12274,12290,12307,12325,12340,12357,12374,12390,12407,12423,12440,12457,12473,12490,12507,12523,12540,12557,12573,12591,12607,12623,12640,12657,12673,12690,12707,12723,12740,12757,12774,12790,12806,12823,12840,12857,12873,12890,12907,12924,12940,12957,12973,12990,13006,13023,13040,13057,13073,13090,13109,13124,13140,13157,13173,13190,13207,13223,13240,13257,13273,13290,13307,13323,13341,13357,13373,13390,13406,13424,13440,13457,13474,13490,13507,13523,13540,13556,13573,13590,13607,13624,13640,13656,13673,13691,13707,13723,13741,13757,13774,13789,13807,13824,13840,13857,13873,13890,13907,13923,13940,13957,13973,13990,14006,14024,14040,14056,14073,14090,14107,14124,14140,14157,14174,14190,14207,14223,14240,14257,14273,14290,14307,14323,14340,14356,14373,14390,14408,14424,14440,14456,14473,14490,14507,14524,14540,14557,14573,14590,14607,14623,14640,14657,14673,14690,14706,14724,14740,14757,14774,14790,14807,14824,14840,14857,14874,14890,14907,14923,14941,14957,14973,14990,15007,15024,15041,15057,15074,15090,15107,15124,15140,15157,15174,15191,15207,15224,15241,15258,15273,15291,15306,15324,15340,15356,15373,15390,15407,15424,15440,15457,15473,15490,15507,15523,15540,15557,15573,15590,15606,15623,15640,15657,15673,15690,15706,15723,15740,15756,15773,15790,15806,15823,15840,15857,15873,15889,15906,15924,15940,15956,15975,15990,16007,16023,16040,16057,16073,16090,16107,16123,16141,16157,16173,16190,16206,16223,16240,16256,16273,16290,16307,16323,16340,16356,16373,16390,16407,16424,16440,16457,16474,16491,16507,16524,16541,16558,16573,16590,16606,16623,16640,16657,16673,16690,16707,16724,16740,16757,16773,16790,16806,16824,16841,16856,16873,16890,16907,16923,16940,16957,16973,16990,17006,17023,17040,17056,17073,17090,17106,17123,17140,17157,17173,17190,17207,17224,17240,17257,17274,17290,17307,17324,17340,17358,17374,17390,17407,17424,17440,17457,17473,17490,17507,17523,17540,17557,17573,17590,17607,17623,17640,17657,17673,17691,17707,17723,17741,17756,17774,17790,17807,17823,17840,17857,17873,17890,17906,17923,17940,17957,17973,17990,18007,18024,18040,18056,18073,18090,18106,18123,18140,18157,18173,18190,18207,18223,18240,18257,18274,18290,18307,18324,18340,18357,18373,18390,18407,18423,18441,18456,18473,18490,18507,18524,18540,18557,18573,18591,18607,18623,18640,18657,18673,18690,18706,18724,18740,18757,18773,18791,18807,18824,18840,18857,18873,18890,18907,18924,18940,18957,18973,18990,19007,19023,19040,19056,19074,19090,19106,19124,19140,19156,19173,19189,19207,19224,19241,19256,19273,19290,19306,19323,19340,19356,19373,19390,19407,19423,19440,19456,19474,19490,19507,19523,19540,19556,19574,19590,19606,19623,19640,19656,19673,19690,19707,19724,19740,19757,19774,19790,19807,19824,19840,19857,19873,19890,19907,19923,19940,19957,19973,19990,20007,20024,20040,20057,20074,20090,20107,20123,20140,20157,20173,20190,20207,20223,20240,20256,20274,20290,20306,20323,20340,20356,20374,20390,20406,20423,20441,20456,20473,20490,20507,20525,20540,20558,20573,20590,20607,20623,20640,20656,20674,20690,20707,20724,20740,20757,20773,20790,20806,20823,20839,20856,20874,20891,20907,20923,20940,20957,20974,20990,21008,21024,21040,21057,21073,21090,21107,21124,21141,21157,21173,21190,21207,21223,21240,21257,21273,21290,21307,21323,21340,21357,21373,21390,21407,21423,21439,21457,21474,21490,21507,21523,21540,21557,21573,21590,21607,21624,21640,21659,21674,21690,21707,21723,21740,21757,21773,21791,21808,21824,21841,21858,21874,21890,21907,21923,21940,21956,21973,21990,22007,22024,22040,22057,22073,22090,22107,22124,22140,22156,22173,22190,22207,22223,22240,22256,22273,22290,22307,22323,22339,22356,22373,22390,22407,22424,22441,22457,22473,22490,22508,22523,22541,22557,22573,22590,22606,22623,22640,22658,22673,22690,22706,22723,22741,22757,22773,22790,22807,22823,22840,22857,22874,22890,22907,22924,22940,22956,22973,22990,23007,23023,23040,23056,23075,23090,23106,23123,23140,23156,23174,23190,23207,23223,23240,23257,23273,23291,23307,23323,23340,23357,23374,23390,23406,23423,23440,23456,23473,23490,23507,23523,23540,23557,23573,23590,23607,23623,23640,23657,23673,23690,23707,23723,23740,23757,23773,23790,23807,23823,23840,23856,23873,23890,23907,23923,23940,23957,23974,23990,24007,24024,24040,24057,24073,24090,24106,24123,24140,24156,24173,24190,24207,24223,24241,24257,24273,24290,24307,24323,24340,24357,24373,24390,24407,24423,24440,24457,24473,24490,24506,24524,24540,24557,24573,24591,24606,24623,24640,24656,24674,24690,24707,24724,24740,24756,24773,24790,24806,24823,24840,24856,24873,24889,24907,24923,24940,24957,24974,24989,25008,25023,25040,25057,25073,25090,25107,25123,25140,25156,25173,25189,25207,25223,25240,25257,25273,25291,25307,25323,25339,25356,25373,25390,25407,25424,25440,25457,25473,25490,25506,25523,25539,25556,25573,25590,25606,25623,25640,25656,25674,25690,25706,25724,25740,25756,25773,25790,25806,25823,25840,25857,25873,25889,25909,25923,25940,25956,25973,25990,26008,26023,26040,26057,26073,26090,26107,26124,26140,26157,26173,26190,26207,26223,26241,26256,26274,26290,26306,26323,26339,26356,26373,26390,26407,26423,26440,26456,26473,26490,26506,26523,26540,26556,26573,26590,26607,26623,26640,26657,26673,26690,26707,26724,26740,26756,26773,26790,26807,26824,26839,26857,26873,26890,26907,26923,26940,26956,26973,26990,27006,27023,27040,27056,27073,27090,27107,27123,27140,27156,27173,27190,27206,27223,27240,27257,27273,27291,27307,27323,27342,27356,27373,27389,27407,27423,27440,27456,27473,27490,27507,27523,27540,27557,27573,27590,27606,27623,27640,27657,27673,27690,27707,27723,27740,27756,27773,27790,27807,27823,27840,27856,27874,27889,27906,27923,27940,27957,27973,27990,28006,28024,28040,28056,28073,28090,28106,28123,28139,28157,28173,28191,28207,28223,28240,28256,28273,28291,28306,28323,28340,28356,28373,28389,28406,28423,28439,28457,28473,28489,28506,28523,28540,28556,28574,28591,28606,28623,28640,28656,28673,28690,28707,28723,28740,28757,28773,28790,28806,28823,28840,28857,28873,28891,28906,28923,28940,28957,28973,28990,29007,29024,29041,29057,29074,29090,29106,29123,29141,29156,29173,29189,29208,29223,29240,29256,29274,29289,29307,29323,29340,29358,29373,29391,29407,29423,29440,29457,29473,29490,29506,29523,29539,29557,29573,29589,29606,29624,29639,29657,29673,29689,29706,29723,29740,29758,29773,29790,29807,29823,29840,29857,29873,29890,29906,29923,29940,29957,29973,29990,30007,30023,30040,30056,30073,30090,30106,30123,30139,30157,30173,30191,30206,30223,30239,30256,30273,30290,30307,30324,30341,30356,30374,30390,30406,30423,30439,30456,30473,30490,30506,30523,30540,30557,30573,30590,30606,30623,30640,30658,30673,30690,30707,30723,30741,30756,30773,30790,30807,30823,30840,30857,30873,30889,30906,30923,30940,30956,30973,30990,31006,31023,31039,31057,31073,31089,31107,31124,31140,31156,31173,31189,31207,31223,31240,31257,31273,31290,31307,31323,31340,31356,31373,31390,31408,31423,31440,31456,31473,31490,31507,31523,31541,31556,31573,31590,31606,31623,31640,31656,31673,31690,31707,31723,31740,31757,31772,31790,31807,31823,31840,31856,31873,31890,31907,31924,31940,31956,31973,31990,32006,32023,32040,32057,32073,32090,32106,32123,32140,32157,32173,32191,32206,32223,32240,32257,32273,32290,32306,32323,32341,32356,32373,32389,32406,32423,32439,32457,32474,32489,32506,32523,32540,32557,32573,32589,32607,32624,32640,32656,32673,32689,32707,32723,32739,32756,32773,32790,32808,32823,32840,32856,32873,32891,32906,32923,32940,32956,32973,32990,33007,33023,33039,33056,33072,33089,33107,33124,33140,33157,33174,33190,33207,33223,33240,33257,33273,33290,33306,33323,33340,33357,33373,33390,33407,33424,33440,33456,33473,33489,33506,33523,33539,33556,33572,33590,33606,33623,33639,33656,33673,33690,33707,33723,33740,33757,33774,33789,33806,33823,33840,33857,33873,33889,33907,33924,33940,33956,33973,33989,34006,34022,34039,34057,34073,34090,34106,34123,34140,34156,34173,34189,34206,34224,34240,34256,34273,34290,34306,34323,34342,34356,34372,34390,34406,34423,34440,34456,34473,34490,34506,34523,34540,34556,34573,34590,34606,34623,34639,34657,34673,34689,34707,34722,34739,34756,34773,34790,34806,34824,34840,34857,34873,34889,34906,34923,34939,34957,34974,34989,35006,35023,35039,35057,35073,35089,35106,35123,35139,35156,35174,35190,35206,35223,35239,35256,35274,35290,35308,35323,35340,35356,35374,35390,35406,35423,35439,35456,35473,35489,35507,35523,35539,35556,35572,35589,35607,35623,35640,35658,35674,35690,35706,35723,35742,35756,35774,35790,35806,35823,35839,35856,35873,35889,35907,35923,35940,35956,35973,35990,36006,36023,36039,36056,36073,36090,36107,36123,36140,36156,36173,36189,36206,36223,36239,36256,36273,36290,36306,36324,36340,36357,36373,36389,36406,36424,36440,36456,36472,36490,36507,36523,36540,36556,36573,36590,36606,36623,36640,36656,36673,36690,36706,36722,36740,36756,36772,36790,36806,36823,36840,36856,36873,36889,36906,36923,36940,36957,36973,36989,37006,37022,37039,37056,37073,37090,37106,37123,37140,37156,37176,37190,37206,37223,37239,37256,37273,37290,37306,37323,37339,37356,37373,37389,37406,37422,37439,37456,37472,37490,37507,37524,37540,37557,37573,37589,37606,37622,37639,37656,37673,37690,37706,37723,37740,37756,37773,37789,37806,37823,37840,37856,37873,37890,37907,37923,37940,37956,37973,37990,38007,38023,38039,38057,38073,38089,38107,38122,38140,38156,38173,38189,38207,38222,38239,38256,38273,38289,38306,38323,38340,38356,38372,38390,38406,38423,38439,38457,38473,38490,38506,38523,38539,38556,38573,38591,38606,38623,38639,38657,38673,38691,38707,38723,38741,38756,38772,38789,38806,38823,38839,38857,38873,38889,38907,38924,38939,38956,38974,38989,39006,39022,39040,39056,39073,39089,39106,39123,39140,39156,39173,39189,39206,39222,39239,39257,39273,39289,39307,39322,39339,39357,39373,39390,39406,39423,39439,39457,39473,39491,39507,39523,39541,39556,39573,39590,39606,39623,39640,39656,39673,39689,39707,39723,39739,39756,39773,39789,39806,39822,39839,39856,39873,39890,39906,39923,39940,39956,39973,39991,40007,40023,40041,40056,40073,40090,40106,40124,40140,40156,40173,40189,40206,40223,40239,40256,40273,40290,40306,40322,40339,40356,40373,40390,40406,40423,40440,40456,40472,40489,40506,40522,40540,40556,40573,40589,40607,40623,40640,40656,40673,40689,40706,40723,40740,40756,40772,40789,40806,40822,40840,40855,40872,40889,40906,40923,40940,40956,40973,40989,41006,41022,41039,41056,41073,41089,41106,41123,41139,41156,41172,41190,41206,41222,41239,41256,41273,41289,41306,41322,41339,41356,41372,41390,41409,41422,41439,41456,41473,41489,41507,41523,41540,41556,41573,41590,41606,41624,41639,41656,41672,41689,41706,41722,41740,41756,41774,41790,41806,41823,41839,41856,41873,41890,41906,41923,41940,41956,41973,41989,42006,42024,42040,42057,42074,42090,42106,42123,42139,42156,42173,42189,42206,42222,42239,42256,42273,42291,42306,42323,42339,42357,42373,42389,42407,42423,42440,42457,42473,42490,42508,42523,42540,42557,42574,42589,42606,42623,42640,42656,42673,42690,42706,42723,42739,42756,42773,42790,42806,42823,42840,42856,42873,42889,42907,42922,42941,42956,42974,42989,43007,43023,43039,43056,43073,43089,43106,43122,43139,43156,43173,43189,43207,43223,43239,43257,43273,43289,43306,43323,43339,43356,43372,43389,43406,43423,43440,43456,43473,43489,43506,43523,43540,43557,43573,43589,43606,43622,43639,43656,43672,43689,43706,43722,43739,43756,43773,43791,43806,43823,43839,43856,43873,43889,43907,43923,43939,43956,43973,43990,44007,44024,44040,44056,44072,44090,44106,44123,44140,44156,44173,44190,44206,44223,44239,44257,44273,44289,44306,44322,44340,44356,44373,44389,44406,44423,44439,44456,44473,44489,44506,44522,44540,44556,44573,44589,44606,44623,44639,44656,44673,44689,44706,44723,44740,44756,44773,44790,44806,44823,44839,44856,44873,44890,44906,44923,44939,44957,44973,44989,45006,45022,45039,45056,45073,45089,45106,45123,45139,45156,45173,45189,45206,45223,45239,45256,45272,45289,45306,45322,45339,45356,45373,45389,45406,45422,45440,45457,45473,45490,45506,45522,45539,45556,45573,45591,45606,45623,45639,45656,45672,45689,45706,45723,45739,45756,45774,45790,45806,45823,45839,45857,45873,45889,45906,45923,45939,45956,45972,45989,46006,46022,46039,46056,46072,46089,46105,46122,46139,46156,46173,46189,46207,46223,46239,46256,46273,46289,46306,46322,46340,46356,46373,46390,46406,46422,46439,46456,46472,46490,46506,46523,46539,46556,46572,46589,46606,46622,46639,46656,46673,46689,46706,46722,46739,46757,46773,46790,46806,46823,46839,46856,46873,46890,46906,46922,46939,46955,46973,46989,47006,47022,47039,47059,47073,47090,47106,47123,47139,47156,47172,47189,47205,47223,47239,47256,47273,47289,47306,47322,47339,47356,47373,47389,47406,47423,47439,47456,47473,47489,47507,47523,47540,47557,47572,47589,47607,47622,47639,47655,47673,47689,47705,47723,47740,47756,47773,47789,47806,47822,47839,47856,47872,47889,47906,47923,47940,47956,47972,47989,48006,48023,48039,48056,48072,48089,48106,48122,48139,48156,48172,48189,48206,48223,48240,48256,48272,48289,48306,48323,48339,48356,48373,48390,48406,48422,48439,48456,48472,48489,48506,48522,48539,48556,48572,48589,48606,48623,48639,48657,48673,48689,48706,48723,48739,48757,48773,48789,48806,48823,48839,48856,48872,48890,48906,48923,48939,48956,48973,48989,49006,49023,49039,49056,49073,49089,49107,49123,49139,49156,49173,49189,49206,49223,49239,49256,49273,49290,49305,49323,49340,49356,49374,49389,49406,49422,49439,49456,49472,49489,49507,49522,49539,49556,49572,49590,49607,49623,49639,49656,49674,49689,49707,49723,49739,49756,49773,49789,49806,49823,49839,49858,49872,49890,49907,49923,49939,49956,49972,49990,50006,50023,50039,50056,50074,50089,50107,50122,50139,50156,50172,50189,50206,50223,50240,50256,50272,50289,50306,50322,50339,50356,50372,50389,50406,50422,50439,50456,50473,50489,50506,50523,50539,50556,50574,50589,50607,50623,50639,50656,50672,50689,50706,50722,50739,50755,50772,50790,50806,50823,50839,50855,50872,50889,50906,50923,50939,50956,50972,50989,51006,51024,51039,51056,51073,51089,51106,51123,51139,51156,51172,51189,51206,51222,51239,51256,51272,51289,51306,51323,51340,51355,51372,51389,51407,51423,51440,51456,51473,51490,51507,51522,51540,51555,51572,51590,51606,51623,51639,51656,51673,51689,51706,51722,51740,51756,51773,51789,51806,51823,51840,51857,51872,51889,51906,51923,51940,51955,51973,51989,52006,52023,52039,52056,52072,52089,52106,52122,52140,52156,52173,52189,52207,52222,52240,52256,52273,52289,52306,52323,52339,52356,52373,52389,52407,52423,52439,52456,52472,52489,52505,52522,52540,52556,52572,52589,52605,52622,52639,52656,52673,52689,52707,52722,52739,52756,52772,52789,52806,52822,52839,52855,52873,52889,52905,52922,52939,52956,52973,52989,53006,53023,53039,53056,53073,53089,53106,53122,53139,53156,53173,53190,53206,53223,53239,53256,53272,53290,53306,53322,53339,53355,53372,53390,53406,53422,53439,53456,53472,53489,53506,53522,53539,53557,53572,53589,53606,53623,53639,53656,53673,53690,53706,53723,53740,53755,53772,53789,53806,53823,53839,53857,53872,53889,53905,53922,53940,53955,53972,53989,54006,54022,54039,54056,54073,54092,54106,54123,54140,54157,54173,54189,54206,54223,54239,54257,54272,54290,54307,54322,54339,54356,54372,54389,54407,54423,54439,54456,54472,54489,54505,54522,54539,54556,54573,54589,54606,54622,54640,54656,54672,54689,54706,54722,54739,54756,54772,54789,54807,54823,54839,54856,54873,54889,54906,54922,54939,54955,54972,54989,55006,55023,55040,55055,55073,55090,55106,55123,55140,55155,55173,55189,55207,55223,55239,55256,55274,55290,55306,55323,55339,55356,55372,55390,55405,55423,55439,55456,55472,55489,55505,55524,55539,55555,55573,55589,55606,55623,55639,55656,55672,55689,55706,55723,55740,55755,55772,55790,55807,55823,55839,55856,55872,55889,55906,55923,55939,55956,55972,55989,56006,56022,56039,56057,56072,56089,56105,56123,56139,56156,56173,56189,56206,56222,56239,56256,56273,56289,56306,56322,56339,56356,56372,56389,56406,56422,56439,56456,56473,56490,56507,56523,56539,56556,56572,56590,56606,56622,56639,56656,56672,56689,56707,56722,56739,56756,56773,56789,56806,56822,56839,56856,56872,56889,56906,56923,56939,56956,56972,56989,57007,57022,57039,57055,57072,57090,57105,57123,57139,57155,57172,57189,57206,57223,57240,57255,57274,57290,57306,57323,57339,57356,57372,57389,57406,57422,57439,57456,57473,57489,57506,57522,57539,57555,57572,57589,57607,57622,57639,57655,57672,57690,57706,57723,57740,57756,57773,57790,57806,57822,57839,57856,57872,57889,57906,57922,57939,57955,57973,57989,58005,58023,58039,58055,58072,58089,58107,58122,58139,58155,58172,58189,58205,58222,58239,58255,58273,58289,58306,58322,58339,58356,58372,58389,58406,58422,58440,58456,58472,58489,58506,58523,58539,58555,58572,58590,58606,58622,58639,58656,58672,58690,58707,58722,58740,58757,58773,58789,58806,58823,58839,58856,58872,58889,58906,58922,58939,58956,58972,58989,59005,59022,59039,59057,59072,59090,59106,59122,59139,59156,59172,59189,59206,59222,59239,59255,59272,59289,59306,59322,59339,59356,59372,59389,59406,59422,59439,59456,59473,59489,59506,59522,59540,59556,59573,59589,59606,59622,59639,59655,59673,59689,59708,59722,59739,59756,59772,59789,59807,59824,59840,59856,59873,59890,59906,59922,59940,59955,59972,59989,60006,60022,60039,60056,60073,60089,60105,60122,60139,60155,60172,60189,60206,60222,60239,60256,60272,60289,60306,60323,60339,60356,60372,60389,60406,60423,60439,60457,60472,60489,60507,60522,60540,60556,60572,60589,60606,60623,60638,60656,60672,60689,60705,60722,60738,60756,60772,60790,60806,60822,60839,60856,60872,60889,60905,60922,60939,60955,60972,60989,61006,61022,61039,61056,61073,61089,61106,61123,61142,61156,61173,61190,61206,61222,61239,61255,61272,61289,61307,61323,61339,61356,61372,61389,61406,61422,61439,61456,61472,61490,61506,61522,61540,61555,61572,61588,61606,61622,61639,61657,61674,61689,61705,61723,61739,61755,61773,61789,61805,61822,61839,61856,61872,61890,61907,61923,61939,61956,61973,61989,62006,62022,62039,62056,62072,62089,62106,62122,62140,62156,62173,62189,62206,62223,62239,62255,62273,62289,62306,62323,62340,62356,62373,62389,62406,62422,62439,62455,62473,62489,62506,62523,62539,62556,62573,62589,62606,62622,62640,62656,62672,62689,62706,62723,62739,62756,62772,62789,62806,62822,62839,62857,62873,62889,62906,62922,62939,62957,62972,62989,63007,63022,63039,63056,63073,63089,63106,63123,63139,63156,63174,63189,63206,63222,63239,63256,63272,63289,63306,63322,63338,63355,63372,63389,63406,63422,63439,63456,63472,63490,63505,63522,63538,63556,63572,63589,63606,63623,63639,63656,63673,63690,63706,63722,63739,63755,63772,63789,63806,63823,63839,63856,63872,63889,63906,63922,63942,63956,63972,63989,64006,64023,64039,64055,64072,64090,64105,64123,64139,64156,64172,64190,64206,64223,64239,64256,64273,64289,64306,64322,64339,64356,64372,64389,64405,64422,64439,64455,64473,64489,64505,64522,64539,64555,64572,64588,64606,64623,64639,64655,64672,64690,64706,64722,64740,64756,64773,64789,64806,64822,64839,64855,64872,64889,64905,64923,64939,64956,64972,64989,65006,65022,65039,65057,65073,65088,65105,65123,65139,65156,65173,65190,65206,65222,65239,65255,65272,65289,65305,65322,65338,65358,65372,65389,65405,65422,65439,65455,65472,65489,65506,65523,65539,65555,65572,65589,65606,65622,65639,65657,65673,65689,65706,65723,65739,65756,65772,65789,65805,65822,65839,65855,65872,65888,65906,65923,65939,65955,65973,65989,66006,66023,66040,66055,66072,66089,66106,66122,66139,66155,66173,66188,66205,66222,66239,66256,66272,66289,66306,66322,66339,66356,66372,66389,66405,66423,66440,66455,66472,66489,66506,66524,66539,66557,66572,66589,66606,66623,66639,66655,66673,66689,66706,66722,66740,66756,66772,66789,66806,66822,66839,66856,66873,66889,66905,66922,66939,66955,66972,66989,67005,67022,67039,67056,67072,67090,67105,67123,67139,67156,67172,67189,67205,67222,67239,67255,67272,67289,67305,67322,67339,67355,67372,67389,67406,67422,67438,67455,67472,67489,67506,67522,67539,67555,67572,67589,67606,67622,67640,67656,67673,67689,67707,67722,67739,67757,67772,67789,67806,67822,67839,67855,67872,67888,67905,67923,67939,67955,67972,67989,68006,68022,68038,68055,68073,68089,68105,68122,68141,68155,68173,68188,68205,68222,68239,68255,68272,68289,68305,68322,68338,68355,68372,68389,68406,68422,68439,68456,68472,68489,68506,68522,68539,68555,68572,68588,68606,68622,68639,68656,68672,68688,68705,68722,68739,68756,68772,68789,68805,68822,68839,68855,68872,68889,68906,68922,68938,68955,68972,68990,69005,69023,69039,69055,69072,69088,69105,69122,69139,69156,69172,69190,69205,69222,69238,69256,69273,69288,69305,69322,69340,69355,69373,69389,69405,69422,69438,69455,69472,69489,69506,69523,69538,69557,69572,69592,69606,69622,69638,69655,69673,69688,69705,69722,69738,69755,69772,69789,69806,69822,69839,69856,69872,69890,69905,69922,69939,69955,69973,69989,70005,70022,70038,70056,70073,70089,70106,70123,70140,70155,70172,70189,70205,70222,70238,70256,70272,70288,70305,70322,70338,70356,70372,70389,70405,70422,70438,70455,70472,70489,70506,70522,70539,70555,70572,70589,70606,70622,70639,70655,70672,70689,70705,70722,70740,70757,70773,70789,70806,70822,70839,70855,70872,70889,70905,70922,70939,70956,70972,70988,71007,71022,71039,71055,71072,71089,71105,71123,71139,71155,71172,71189,71205,71222,71239,71255,71272,71290,71305,71322,71339,71356,71372,71389,71406,71422,71439,71455,71472,71488,71505,71523,71539,71555,71572,71588,71605,71623,71638,71656,71672,71688,71706,71722,71739,71756,71772,71788,71805,71822,71838,71856,71873,71889,71905,71922,71938,71956,71972,71989,72007,72022,72039,72055,72073,72089,72105,72122,72140,72156,72172,72190,72206,72222,72239,72255,72272,72289,72306,72323,72339,72356,72372,72390,72406,72423,72439,72455,72472,72490,72506,72522,72539,72556,72572,72589,72605,72622,72638,72655,72672,72688,72706,72722,72739,72756,72772,72789,72807,72822,72839,72855,72872,72889,72906,72922,72939,72956,72972,72989,73006,73022,73038,73055,73072,73090,73106,73122,73139,73155,73172,73188,73205,73222,73239,73256,73272,73289,73306,73322,73339,73355,73372,73388,73405,73422,73438,73456,73472,73488,73505,73521,73539,73555,73572,73589,73605,73622,73638,73655,73672,73688,73705,73722,73739,73756,73772,73790,73805,73822,73839,73856,73873,73889,73906,73921,73938,73955,73973,73989,74005,74022,74039,74057,74072,74089,74105,74122,74139,74155,74173,74190,74205,74222,74238,74255,74272,74288,74305,74323,74339,74356,74373,74389,74405,74422,74439,74455,74472,74489,74507,74522,74540,74556,74572,74588,74606,74622,74638,74655,74672,74690,74706,74722,74739,74756,74772,74789,74806,74822,74838,74855,74872,74889,74906,74922,74940,74955,74974,74989,75005,75022,75039,75055,75072,75088,75105,75123,75139,75155,75172,75188,75205,75222,75239,75255,75272,75288,75306,75322,75339,75356,75371,75388,75405,75422,75438,75455,75472,75490,75506,75522,75539,75555,75572,75590,75605,75622,75638,75655,75672,75689,75705,75722,75739,75756,75772,75789,75805,75822,75838,75855,75872,75889,75905,75922,75939,75956,75972,75989,76005,76022,76039,76055,76072,76090,76105,76121,76139,76156,76172,76190,76205,76223,76239,76255,76272,76288,76305,76323,76338,76356,76373,76389,76405,76423,76439,76455,76472,76489,76505,76522,76539,76555,76573,76589,76606,76622,76640,76655,76672,76690,76706,76722,76738,76755,76771,76788,76805,76822,76839,76855,76872,76889,76905,76922,76939,76955,76972,76990,77005,77023,77039,77056,77071,77089,77105,77123,77139,77156,77172,77188,77205,77222,77239,77256,77272,77288,77305,77321,77339,77356,77371,77389,77405,77422,77438,77455,77472,77489,77505,77522,77539,77555,77572,77588,77605,77622,77639,77655,77672,77689,77705,77722,77738,77755,77772,77789,77805,77822,77838,77855,77872,77888,77905,77922,77939,77956,77972,77989,78007,78022,78039,78056,78072,78089,78106,78122,78139,78155,78173,78189,78206,78222,78239,78255,78272,78289,78305,78322,78339,78355,78372,78389,78405,78422,78438,78455,78473,78489,78506,78522,78538,78555,78572,78588,78605,78622,78638,78656,78673,78689,78705,78722,78739,78755,78771,78788,78805,78822,78838,78855,78872,78890,78905,78922,78939,78955,78972,78988,79005,79022,79038,79055,79072,79089,79106,79122,79139,79155,79172,79188,79205,79222,79238,79256,79272,79289,79305,79322,79338,79355,79372,79390,79405,79421,79438,79455,79472,79489,79505,79522,79538,79555,79573,79588,79605,79622,79638,79655,79672,79688,79706,79722,79739,79755,79773,79789,79805,79822,79839,79855,79873,79890,79906,79922,79939,79955,79973,79990,80006,80022,80038,80056,80072,80089,80105,80121,80138,80156,80172,80189,80205,80222,80239,80255,80272,80290,80306,80322,80339,80355,80372,80390,80405,80422,80439,80455,80472,80489,80505,80524,80539,80555,80572,80590,80606,80622,80638,80655,80672,80688,80705,80722,80739,80756,80772,80790,80805,80822,80839,80855,80872,80889,80905,80922,80938,80955,80972,80990,81005,81022,81039,81055,81072,81088,81105,81122,81138,81155,81171,81189,81205,81222,81239,81255,81272,81289,81306,81322,81339,81355,81372,81389,81405,81422,81438,81455,81472,81488,81506,81522,81539,81555,81571,81589,81606,81622,81639,81655,81672,81688,81706,81722,81739,81756,81772,81788,81805,81822,81839,81855,81872,81888,81905,81922,81940,81955,81973,81990,82006,82022,82039,82055,82072,82089,82105,82123,82138,82155,82173,82190,82205,82222,82238,82255,82272,82290,82305,82322,82338,82355,82372,82389,82405,82422,82439,82455,82472,82488,82505,82522,82539,82555,82573,82588,82605,82622,82639,82655,82672,82688,82705,82722,82738,82755,82772,82789,82805,82823,82839,82855,82872,82888,82905,82921,82938,82955,82973,82989,83006,83021,83038,83055,83072,83088,83105,83122,83140,83155,83172,83188,83205,83223,83238,83256,83272,83289,83306,83323,83339,83356,83372,83388,83405,83422,83438,83455,83472,83489,83505,83523,83538,83555,83571,83590,83605,83622,83638,83655,83671,83688,83705,83721,83738,83755,83771,83788,83805,83822,83840,83855,83871,83889,83905,83922,83938,83955,83972,83988,84005,84022,84038,84055,84072,84088,84105,84122,84139,84156,84171,84188,84206,84222,84239,84255,84272,84288,84305,84322,84339,84355,84371,84388,84405,84422,84440,84455,84472,84490,84505,84522,84538,84555,84572,84589,84606,84621,84639,84656,84672,84689,84705,84722,84739,84755,84772,84789,84805,84822,84839,84855,84872,84889,84905,84922,84939,84955,84971,84988,85005,85022,85039,85057,85072,85088,85106,85121,85139,85155,85172,85189,85205,85222,85238,85255,85272,85288,85305,85322,85339,85355,85371,85389,85405,85421,85439,85455,85472,85490,85505,85522,85539,85555,85572,85589,85605,85622,85639,85655,85672,85689,85705,85722,85740,85755,85772,85790,85805,85822,85838,85856,85872,85890,85905,85922,85938,85955,85973,85989,86005,86022,86038,86055,86072,86088,86106,86123,86138,86155,86172,86189,86205,86222,86238,86255,86272,86289,86305,86323,86339,86355,86371,86388,86405,86422,86439,86456,86471,86489,86505,86521,86538,86555,86572,86588,86606,86622,86638,86655,86672,86688,86705,86722,86739,86756,86771,86788,86805,86821,86838,86855,86871,86888,86906,86922,86939,86955,86972,86989,87005,87023,87039,87056,87073,87088,87104,87121,87139,87156,87171,87188,87205,87222,87240,87255,87272,87289,87305,87322,87338,87355,87371,87388,87405,87421,87438,87455,87471,87488,87505,87521,87539,87555,87572,87588,87605,87621,87638,87655,87672,87688,87705,87722,87738,87755,87771,87788,87805,87822,87838,87855,87872,87890,87905,87922,87939,87955,87972,87989,88005,88021,88039,88055,88072,88090,88105,88122,88139,88155,88172,88189,88205,88222,88239,88255,88272,88288,88305,88322,88338,88355,88371,88388,88405,88421,88438,88455,88472,88489,88505,88522,88540,88555,88572,88588,88605,88622,88638,88655,88672,88688,88705,88723,88738,88755,88771,88788,88805,88821,88839,88855,88872,88888,88905,88922,88938,88955,88972,88988,89005,89021,89038,89055,89072,89088,89105,89122,89138,89155,89172,89188,89205,89222,89240,89255,89272,89288,89305,89322,89338,89355,89372,89388,89405,89421,89438,89454,89471,89488,89505,89522,89539,89555,89572,89588,89606,89622,89639,89655,89672,89689,89705,89722,89739,89755,89772,89789,89806,89822,89838,89855,89871,89888,89905,89921,89939,89955,89972,89988,90005,90022,90038,90057,90071,90088,90105,90121,90138,90155,90171,90188,90205,90221,90238,90255,90272,90289,90305,90322,90338,90354,90372,90389,90405,90422,90438,90455,90471,90488,90505,90522,90540,90555,90572,90588,90605,90621,90639,90655,90672,90689,90705,90721,90738,90755,90771,90790,90805,90822,90840,90856,90872,90890,90905,90922,90940,90956,90971,90988,91004,91021,91039,91054,91071,91088,91105,91122,91138,91154,91172,91188,91205,91222,91238,91256,91273,91288,91305,91322,91339,91355,91372,91389,91405,91421,91441,91454,91471,91488,91505,91521,91538,91555,91572,91589,91605,91621,91638,91655,91671,91688,91704,91723,91738,91755,91771,91788,91805,91821,91840,91855,91872,91888,91905,91921,91938,91954,91971,91988,92005,92021,92038,92055,92072,92088,92105,92122,92139,92155,92172,92189,92206,92222,92238,92255,92272,92288,92305,92322,92338,92355,92373,92389,92405,92422,92438,92455,92471,92488,92505,92521,92538,92555,92572,92589,92605,92622,92639,92655,92671,92689,92705,92722,92739,92755,92772,92788,92805,92821,92841,92855,92873,92888,92905,92921,92938,92956,92972,92988,93005,93021,93038,93055,93071,93088,93104,93123,93139,93155,93171,93188,93204,93222,93238,93254,93271,93288,93305,93322,93338,93355,93372,93388,93405,93422,93438,93455,93472,93488,93504,93522,93539,93555,93572,93589,93605,93621,93638,93655,93671,93689,93705,93721,93740,93756,93771,93789,93805,93822,93839,93855,93872,93890,93905,93922,93939,93955,93971,93988,94005,94021,94038,94055,94071,94088,94105,94122,94139,94155,94172,94189,94205,94221,94238,94255,94271,94288,94305,94321,94339,94355,94371,94389,94405,94421,94438,94455,94471,94488,94504,94522,94538,94555,94572,94588,94605,94622,94638,94655,94671,94688,94705,94721,94738,94755,94772,94788,94805,94822,94838,94856,94872,94888,94905,94921,94939,94955,94971,94990,95005,95023,95039,95054,95072,95089,95105,95122,95138,95155,95171,95188,95206,95221,95239,95255,95272,95289,95305,95322,95338,95356,95371,95388,95405,95421,95438,95455,95471,95488,95505,95521,95540,95555,95572,95588,95606,95622,95638,95655,95671,95688,95704,95721,95738,95755,95772,95789,95805,95822,95838,95855,95871,95888,95905,95921,95938,95955,95972,95989,96005,96021,96039,96055,96071,96088,96105,96122,96139,96154,96171,96189,96205,96222,96238,96255,96272,96289,96305,96322,96339,96355,96372,96388,96405,96421,96439,96454,96471,96489,96505,96522,96538,96555,96572,96589,96605,96621,96638,96655,96671,96688,96704,96722,96739,96755,96771,96789,96805,96821,96841,96855,96872,96888,96906,96921,96938,96955,96971,96988,97005,97021,97038,97054,97072,97088,97105,97122,97138,97155,97172,97188,97205,97222,97238,97255,97271,97289,97305,97321,97340,97356,97372,97388,97405,97422,97438,97455,97472,97488,97505,97521,97538,97555,97572,97588,97605,97621,97638,97655,97671,97688,97704,97721,97738,97755,97771,97789,97806,97822,97838,97855,97872,97890,97905,97922,97939,97955,97972,97988,98005,98022,98039,98056,98071,98088,98105,98122,98139,98155,98171,98189,98206,98222,98239,98255,98271,98288,98305,98321,98339,98355,98372,98388,98405,98422,98438,98455,98472,98489,98504,98521,98538,98555,98571,98588,98606,98621,98639,98655,98672,98688,98705,98721,98738,98755,98773,98788,98805,98821,98838,98855,98872,98889,98905,98921,98939,98954,98972,98988,99004,99021,99038,99055,99072,99088,99104,99121,99138,99155,99172,99188,99204,99221,99238,99255,99271,99288,99305,99321,99338,99354,99371,99388,99405,99421,99440,99454,99471,99488,99504,99521,99539,99555,99573,99588,99605,99622,99638,99655,99671,99689,99705,99721,99739,99754,99771,99791],"hit":[null],"x":[-2.693877551020408,-2.693877551020408,-2.693877551020408,-2.693877551020408,-2.693877551020408,0.061224489795918366,0.06462585034013606,0.06802721088435375,0.08163265306122448,0.09863945578231292,0.11564625850340136,0.1292517006802721,0.14965986394557823,0.16326530612244897,0.17346938775510204,0.1836734693877551,0.1870748299319728,0.19047619047619047,0.19047619047619047,0.19047619047619047,0.19047619047619047,0.19047619047619047,0.19387755102040816,0.20068027210884354,0.20748299319727892,0.21428571428571427,0.21768707482993196,0.22448979591836735,0.22789115646258504,0.22789115646258504,0.22789115646258504,0.22789115646258504,0.22789115646258504,0.22789115646258504,0.22789115646258504,0.23129251700680273,0.23129251700680273,0.23469387755102042,0.23809523809523808,0.25170068027210885,0.25510204081632654,0.2619047619047619,0.2619047619047619,0.2619047619047619,0.2619047619047619,0.2619047619047619,0.2619047619047619,0.2619047619047619,0.2619047619047619,0.2619047619047619,0.2619047619047619,0.2619047619047619,0.2653061224489796,0.2687074829931973,0.2687074829931973,0.2687074829931973,0.2687074829931973,0.2687074829931973,0.2687074829931973,0.2687074829931973,0.2687074829931973,0.2687074829931973,0.2687074829931973,0.2687074829931973,0.2687074829931973,0.2687074829931973,0.2687074829931973,0.2687074829931973,0.2687074829931973,0.2687074829931973,0.2687074829931973,0.2687074829931973,0.2687074829931973,0.2687074829931973,0.2687074829931973,0.2687074829931973,0.2687074829931973,0.2687074829931973,0.2687074829931973,0.2687074829931973,0.2687074829931973,0.2687074829931973,0.2687074829931973,0.2687074829931973,0.2687074829931973,0.2687074829931973,0.2687074829931973,0.2687074829931973,0.2687074829931973,0.2687074829931973,0.2687074829931973,0.2687074829931973,0.2687074829931973,0.2687074829931973,0.2687074829931973,0.2687074829931973,0.2687074829931973,0.2687074829931973,0.2687074829931973,0.2687074829931973,0.2687074829931973,0.2687074829931973,0.2687074829931973,0.2687074829931973,0.2687074829931973,0.2687074829931973,0.2687074829931973,0.2687074829931973,0.2687074829931973,0.2687074829931973,0.2687074829931973,0.2687074829931973,0.2687074829931973,0.2687074829931973,0.2687074829931973,0.2687074829931973,0.2687074829931973,0.2687074829931973,0.2687074829931973,0.2687074829931973,0.2687074829931973,0.2687074829931973,0.2687074829931973,0.2687074829931973,0.2687074829931973,0.2687074829931973,0.2687074829931973,0.2687074829931973,0.2687074829931973,0.2687074829931973,0.2687074829931973,0.2687074829931973,0.2687074829931973,0.2687074829931973,0.2687074829931973,0.2687074829931973,0.2687074829931973,0.2857142857142857,0.29591836734693877,0.29591836734693877,0.29591836734693877,0.29591836734693877,0.29591836734693877,0.29591836734693877,0.29591836734693877,0.29591836734693877,0.29591836734693877,0.29591836734693877,0.29591836734693877,0.29591836734693877,0.29591836734693877,0.29591836734693877,0.29591836734693877,0.29591836734693877,0.29931972789115646,0.30272108843537415,0.30272108843537415,0.30272108843537415,0.30272108843537415,0.30272108843537415,0.30272108843537415,0.30272108843537415,0.30272108843537415,0.30272108843537415,0.30272108843537415,0.30272108843537415,0.30272108843537415,0.30272108843537415,0.30272108843537415,0.30272108843537415,0.30272108843537415,0.30272108843537415,0.30272108843537415,0.30272108843537415,0.30272108843537415,0.30272108843537415,0.30272108843537415,0.30272108843537415,0.30272108843537415,0.30272108843537415,0.29931972789115646,0.29931972789115646,0.29591836734693877,0.2925170068027211,0.2857142857142857,0.2653061224489796,0.24489795918367346,0.21768707482993196,0.20068027210884354,0.18027210884353742,0.17346938775510204,0.1598639455782313,0.15306122448979592,0.14625850340136054,0.13945578231292516,0.12585034013605442,0.12244897959183673,0.11224489795918367,0.10884353741496598,0.1054421768707483,0.10204081632653061,0.10204081632653061,0.09523809523809523,0.09183673469387756,0.09183673469387756,0.08843537414965986,0.08503401360544217,0.0782312925170068,0.06802721088435375,0.05782312925170068,0.047619047619047616,0.04081632653061224,0.03741496598639456,0.03741496598639456,0.030612244897959183,0.030612244897959183,0.030612244897959183,0.030612244897959183,0.030612244897959183,0.030612244897959183,0.030612244897959183,0.030612244897959183,0.030612244897959183,0.030612244897959183,0.030612244897959183,0.030612244897959183,0.030612244897959183,0.030612244897959183,0.030612244897959183,0.027210884353741496,0.027210884353741496,0.023809523809523808,0.017006802721088437,0.013605442176870748,0.01020408163265306,0.006802721088435374,0.003401360544217687,0.003401360544217687,0.003401360544217687,0.003401360544217687,0.003401360544217687,0.003401360544217687,0.003401360544217687,0.003401360544217687,0.003401360544217687,0.003401360544217687,0.003401360544217687,0.003401360544217687,0.003401360544217687,0.003401360544217687,0.003401360544217687,0.003401360544217687,0.003401360544217687,0.003401360544217687,0.003401360544217687,0.003401360544217687,0.003401360544217687,0.003401360544217687,0.003401360544217687,0.003401360544217687,0.003401360544217687,0.003401360544217687,0.003401360544217687,0.003401360544217687,0.003401360544217687,0.003401360544217687,0.003401360544217687,0.003401360544217687,0.003401360544217687,0.003401360544217687,0.003401360544217687,0.003401360544217687,0.003401360544217687,0.003401360544217687,0.003401360544217687,0.003401360544217687,0.003401360544217687,0.003401360544217687,0.003401360544217687,0,-0.003401360544217687,-0.003401360544217687,0.006802721088435374,0.02040816326530612,0.047619047619047616,0.0782312925170068,0.11564625850340136,0.17006802721088435,0.23129251700680273,0.2857142857142857,0.3401360544217687,0.3741496598639456,0.3945578231292517,0.40816326530612246,0.40816326530612246,0.40816326530612246,0.40816326530612246,0.40816326530612246,0.40816326530612246,0.40816326530612246,0.40816326530612246,0.40816326530612246,0.40816326530612246,0.40816326530612246,0.40816326530612246,0.40816326530612246,0.40816326530612246,0.40816326530612246,0.40816326530612246,0.40816326530612246,0.40816326530612246,0.40816326530612246,0.40816326530612246,0.40816326530612246,0.40816326530612246,0.40816326530612246,0.40816326530612246,0.41156462585034015,0.41156462585034015,0.41156462585034015,0.41496598639455784,0.41496598639455784,0.41496598639455784,0.41496598639455784,0.41496598639455784,0.41496598639455784,0.41496598639455784,0.41496598639455784,0.41156462585034015,0.41156462585034015,0.41156462585034015,0.41156462585034015,0.41156462585034015,0.41156462585034015,0.41156462585034015,0.41156462585034015,0.41156462585034015,0.41156462585034015,0.41156462585034015,0.41156462585034015,0.41156462585034015,0.41156462585034015,0.41156462585034015,0.41156462585034015,0.41156462585034015,0.41156462585034015,0.41156462585034015,0.41156462585034015,0.41156462585034015,0.41156462585034015,0.41156462585034015,0.41156462585034015,0.41156462585034015,0.41156462585034015,0.41156462585034015,0.41156462585034015,0.41156462585034015,0.41156462585034015,0.41156462585034015,0.41156462585034015,0.41156462585034015,0.41156462585034015,0.41156462585034015,0.41156462585034015,0.41156462585034015,0.41156462585034015,0.41156462585034015,0.41156462585034015,0.41156462585034015,0.41156462585034015,0.41156462585034015,0.41156462585034015,0.41156462585034015,0.41156462585034015,0.41156462585034015,0.41156462585034015,0.41156462585034015,0.41156462585034015,0.41156462585034015,0.41156462585034015,0.41156462585034015,0.41156462585034015,0.41156462585034015,0.41156462585034015,0.41156462585034015,0.41156462585034015,0.41156462585034015,0.41156462585034015,0.41156462585034015,0.41156462585034015,0.41156462585034015,0.41156462585034015,0.41156462585034015,0.41156462585034015,0.41156462585034015,0.41156462585034015,0.41156462585034015,0.41156462585034015,0.41156462585034015,0.41156462585034015,0.41156462585034015,0.41156462585034015,0.41156462585034015,0.41156462585034015,0.41156462585034015,0.41156462585034015,0.41156462585034015,0.41156462585034015,0.41156462585034015,0.41156462585034015,0.41156462585034015,0.41156462585034015,0.41156462585034015,0.41156462585034015,0.41156462585034015,0.41156462585034015,0.41156462585034015,0.41156462585034015,0.41156462585034015,0.41156462585034015,0.41156462585034015,0.41156462585034015,0.41156462585034015,0.41156462585034015,0.41156462585034015,0.41156462585034015,0.41156462585034015,0.41156462585034015,0.41156462585034015,0.41156462585034015,0.41156462585034015,0.41156462585034015,0.41156462585034015,0.41156462585034015,0.41156462585034015,0.41156462585034015,0.41156462585034015,0.41156462585034015,0.41156462585034015,0.41156462585034015,0.41156462585034015,0.41156462585034015,0.41156462585034015,0.41156462585034015,0.41156462585034015,0.41156462585034015,0.41156462585034015,0.41156462585034015,0.41156462585034015,0.41156462585034015,0.41156462585034015,0.41156462585034015,0.41156462585034015,0.41156462585034015,0.41156462585034015,0.41156462585034015,0.41156462585034015,0.41156462585034015,0.41156462585034015,0.41156462585034015,0.41156462585034015,0.41156462585034015,0.41156462585034015,0.41156462585034015,0.41156462585034015,0.41156462585034015,0.41156462585034015,0.41156462585034015,0.41156462585034015,0.41156462585034015,0.41156462585034015,0.41156462585034015,0.41156462585034015,0.41156462585034015,0.41156462585034015,0.41156462585034015,0.41156462585034015,0.41156462585034015,0.41156462585034015,0.41156462585034015,0.41156462585034015,0.41156462585034015,0.41156462585034015,0.41156462585034015,0.41156462585034015,0.41156462585034015,0.41156462585034015,0.41156462585034015,0.41156462585034015,0.41156462585034015,0.41156462585034015,0.41156462585034015,0.41156462585034015,0.41156462585034015,0.41156462585034015,0.41156462585034015,0.41156462585034015,0.41156462585034015,0.41156462585034015,0.41156462585034015,0.41156462585034015,0.41156462585034015,0.41156462585034015,0.41156462585034015,0.41156462585034015,0.41156462585034015,0.41156462585034015,0.41156462585034015,0.41156462585034015,0.41156462585034015,0.41156462585034015,0.41156462585034015,0.41156462585034015,0.41156462585034015,0.41156462585034015,0.41156462585034015,0.41156462585034015,0.41156462585034015,0.41156462585034015,0.41156462585034015,0.41156462585034015,0.41156462585034015,0.41156462585034015,0.41156462585034015,0.41156462585034015,0.41156462585034015,0.41156462585034015,0.41156462585034015,0.41156462585034015,0.41156462585034015,0.40816326530612246,0.391156462585034,0.36394557823129253,0.3231292517006803,0.23809523809523808,0.1836734693877551,0.1292517006802721,0.08163265306122448,0.04081632653061224,0.02040816326530612,0.013605442176870748,0.01020408163265306,0.01020408163265306,0.01020408163265306,0.01020408163265306,0.02040816326530612,0.030612244897959183,0.034013605442176874,0.04081632653061224,0.04421768707482993,0.04421768707482993,0.04421768707482993,0.05102040816326531,0.05782312925170068,0.08163265306122448,0.11564625850340136,0.15306122448979592,0.20748299319727892,0.24149659863945577,0.272108843537415,0.30272108843537415,0.3231292517006803,0.336734693877551,0.3435374149659864,0.3469387755102041,0.35034013605442177,0.35714285714285715,0.3673469387755102,0.3741496598639456,0.38095238095238093,0.3877551020408163,0.3877551020408163,0.3877551020408163,0.3877551020408163,0.3877551020408163,0.3877551020408163,0.3877551020408163,0.3877551020408163,0.3877551020408163,0.3877551020408163,0.3877551020408163,0.3877551020408163,0.391156462585034,0.391156462585034,0.3945578231292517,0.3979591836734694,0.4013605442176871,0.41156462585034015,0.41496598639455784,0.4217687074829932,0.42857142857142855,0.42857142857142855,0.43197278911564624,0.43197278911564624,0.43197278911564624,0.43197278911564624,0.4387755102040816,0.4489795918367347,0.46938775510204084,0.5068027210884354,0.5476190476190477,0.5850340136054422,0.608843537414966,0.6156462585034014,0.6224489795918368,0.6224489795918368,0.6258503401360545,0.6258503401360545,0.6258503401360545,0.6258503401360545,0.6258503401360545,0.6258503401360545,0.6258503401360545,0.6258503401360545,0.6258503401360545,0.6258503401360545,0.6258503401360545,0.6258503401360545,0.6258503401360545,0.6258503401360545,0.6258503401360545,0.6292517006802721,0.6360544217687075,0.6394557823129252,0.6428571428571429,0.6462585034013606,0.6530612244897959,0.6564625850340136,0.6598639455782312,0.6666666666666666,0.6836734693877551,0.7006802721088435,0.7108843537414966,0.7244897959183674,0.7414965986394558,0.7551020408163265,0.7687074829931972,0.7755102040816326,0.7789115646258503,0.7789115646258503,0.7789115646258503,0.7789115646258503,0.7789115646258503,0.7789115646258503,0.7789115646258503,0.7789115646258503,0.7789115646258503,0.7789115646258503,0.7789115646258503,0.7789115646258503,0.7789115646258503,0.7755102040816326,0.7755102040816326,0.7755102040816326,0.7755102040816326,0.7755102040816326,0.7721088435374149,0.7687074829931972,0.7653061224489796,0.7653061224489796,0.7585034013605442,0.7482993197278912,0.7380952380952381,0.7210884353741497,0.7142857142857143,0.7142857142857143,0.7210884353741497,0.7244897959183674,0.7278911564625851,0.7278911564625851,0.7278911564625851,0.7278911564625851,0.7278911564625851,0.7278911564625851,0.7244897959183674,0.7210884353741497,0.7142857142857143,0.7040816326530612,0.6904761904761905,0.6870748299319728,0.6870748299319728,0.6870748299319728,0.6870748299319728,0.6870748299319728,0.6870748299319728,0.6870748299319728,0.6870748299319728,0.6870748299319728,0.6870748299319728,0.6870748299319728,0.6870748299319728,0.6870748299319728,0.6870748299319728,0.6870748299319728,0.6870748299319728,0.6870748299319728,0.6870748299319728,0.6870748299319728,0.6870748299319728,0.6870748299319728,0.6768707482993197,0.6700680272108843,0.6496598639455783,0.6326530612244898,0.6156462585034014,0.6156462585034014,0.6156462585034014,0.6122448979591837,0.6020408163265306,0.5850340136054422,0.5748299319727891,0.5748299319727891,0.5748299319727891,0.5748299319727891,0.5748299319727891,0.5748299319727891,0.5748299319727891,0.5714285714285714,0.5680272108843537,0.564625850340136,0.564625850340136,0.564625850340136,0.5612244897959183,0.5612244897959183,0.5578231292517006,0.5578231292517006,0.5578231292517006,0.5578231292517006,0.5578231292517006,0.5578231292517006,0.5578231292517006,0.5578231292517006,0.5544217687074829,0.5544217687074829,0.5544217687074829,0.5510204081632653,0.5476190476190477,0.54421768707483,0.5340136054421769,0.5272108843537415,0.5238095238095238,0.5102040816326531,0.5102040816326531,0.5102040816326531,0.5102040816326531,0.5102040816326531,0.5102040816326531,0.5102040816326531,0.5102040816326531,0.5102040816326531,0.5102040816326531,0.5136054421768708,0.5204081632653061,0.5204081632653061,0.5204081632653061,0.5204081632653061,0.5204081632653061,0.5204081632653061,0.5204081632653061,0.5204081632653061,0.5204081632653061,0.5204081632653061,0.5204081632653061,0.5204081632653061,0.5204081632653061,0.5204081632653061,0.5204081632653061,0.5204081632653061,0.5204081632653061,0.5204081632653061,0.5204081632653061,0.5204081632653061,0.5204081632653061,0.5204081632653061,0.5204081632653061,0.5204081632653061,0.5204081632653061,0.5204081632653061,0.5204081632653061,0.5204081632653061,0.5204081632653061,0.5204081632653061,0.5204081632653061,0.5204081632653061,0.5204081632653061,0.5204081632653061,0.5204081632653061,0.5204081632653061,0.5204081632653061,0.5204081632653061,0.5204081632653061,0.5204081632653061,0.5170068027210885,0.5170068027210885,0.5170068027210885,0.5170068027210885,0.5170068027210885,0.5170068027210885,0.5170068027210885,0.5170068027210885,0.5170068027210885,0.5170068027210885,0.5170068027210885,0.5136054421768708,0.5136054421768708,0.5136054421768708,0.5136054421768708,0.5136054421768708,0.5136054421768708,0.5136054421768708,0.5136054421768708,0.5136054421768708,0.5136054421768708,0.5136054421768708,0.5136054421768708,0.5136054421768708,0.5136054421768708,0.5136054421768708,0.5136054421768708,0.5136054421768708,0.5136054421768708,0.5136054421768708,0.5136054421768708,0.5136054421768708,0.5136054421768708,0.5136054421768708,0.5136054421768708,0.5136054421768708,0.5136054421768708,0.5136054421768708,0.5136054421768708,0.5136054421768708,0.5136054421768708,0.5136054421768708,0.5136054421768708,0.5136054421768708,0.5136054421768708,0.5136054421768708,0.5136054421768708,0.5136054421768708,0.5136054421768708,0.5136054421768708,0.5136054421768708,0.5136054421768708,0.5136054421768708,0.5136054421768708,0.5136054421768708,0.5136054421768708,0.5136054421768708,0.5238095238095238,0.5340136054421769,0.54421768707483,0.5544217687074829,0.5680272108843537,0.5850340136054422,0.6020408163265306,0.6190476190476191,0.6326530612244898,0.6394557823129252,0.6496598639455783,0.6632653061224489,0.673469387755102,0.6768707482993197,0.6802721088435374,0.6870748299319728,0.6938775510204082,0.6972789115646258,0.7006802721088435,0.7006802721088435,0.7040816326530612,0.7074829931972789,0.7108843537414966,0.7142857142857143,0.7142857142857143,0.7142857142857143,0.7142857142857143,0.7142857142857143,0.717687074829932,0.7210884353741497,0.7210884353741497,0.7210884353741497,0.7210884353741497,0.7210884353741497,0.7210884353741497,0.7210884353741497,0.7210884353741497,0.7210884353741497,0.7210884353741497,0.7210884353741497,0.7210884353741497,0.7210884353741497,0.7210884353741497,0.7210884353741497,0.7210884353741497,0.7210884353741497,0.717687074829932,0.7108843537414966,0.7006802721088435,0.6870748299319728,0.6700680272108843,0.6428571428571429,0.6190476190476191,0.5986394557823129,0.5850340136054422,0.5714285714285714,0.5578231292517006,0.5408163265306123,0.5306122448979592,0.5170068027210885,0.5068027210884354,0.5,0.4965986394557823,0.4965986394557823,0.4965986394557823,0.4965986394557823,0.4965986394557823,0.4931972789115646,0.4931972789115646,0.4931972789115646,0.4931972789115646,0.4931972789115646,0.4931972789115646,0.4931972789115646,0.4931972789115646,0.4931972789115646,0.4931972789115646,0.4931972789115646,0.4931972789115646,0.4931972789115646,0.4931972789115646,0.4931972789115646,0.4931972789115646,0.4931972789115646,0.4931972789115646,0.4931972789115646,0.4931972789115646,0.4931972789115646,0.4931972789115646,0.4931972789115646,0.4931972789115646,0.4931972789115646,0.4931972789115646,0.4931972789115646,0.4931972789115646,0.4931972789115646,0.4931972789115646,0.4931972789115646,0.4931972789115646,0.4931972789115646,0.4931972789115646,0.4931972789115646,0.4931972789115646,0.4931972789115646,0.4931972789115646,0.4931972789115646,0.4931972789115646,0.4931972789115646,0.4931972789115646,0.4897959183673469,0.48639455782312924,0.48639455782312924,0.48639455782312924,0.48299319727891155,0.48299319727891155,0.47959183673469385,0.47619047619047616,0.46598639455782315,0.46258503401360546,0.46258503401360546,0.46258503401360546,0.46258503401360546,0.46258503401360546,0.46258503401360546,0.46258503401360546,0.46258503401360546,0.46258503401360546,0.46258503401360546,0.46258503401360546,0.46258503401360546,0.46258503401360546,0.46258503401360546,0.46258503401360546,0.46258503401360546,0.46258503401360546,0.46258503401360546,0.46598639455782315,0.46938775510204084,0.46938775510204084,0.46938775510204084,0.46938775510204084,0.46938775510204084,0.46938775510204084,0.46938775510204084,0.46938775510204084,0.46938775510204084,0.46938775510204084,0.46938775510204084,0.46938775510204084,0.46938775510204084,0.46938775510204084,0.46938775510204084,0.46938775510204084,0.46938775510204084,0.46938775510204084,0.46938775510204084,0.46938775510204084,0.46938775510204084,0.46938775510204084,0.46938775510204084,0.46938775510204084,0.46938775510204084,0.46938775510204084,0.46938775510204084,0.46938775510204084,0.46938775510204084,0.46938775510204084,0.46938775510204084,0.46938775510204084,0.46938775510204084,0.46938775510204084,0.46938775510204084,0.46938775510204084,0.46938775510204084,0.46938775510204084,0.46938775510204084,0.46938775510204084,0.46938775510204084,0.46938775510204084,0.46938775510204084,0.46938775510204084,0.46938775510204084,0.46938775510204084,0.46938775510204084,0.46938775510204084,0.46938775510204084,0.46938775510204084,0.46938775510204084,0.46938775510204084,0.46938775510204084,0.46938775510204084,0.46938775510204084,0.46938775510204084,0.46938775510204084,0.46938775510204084,0.46938775510204084,0.46938775510204084,0.46938775510204084,0.46938775510204084,0.46938775510204084,0.46938775510204084,0.46938775510204084,0.46938775510204084,0.46938775510204084,0.46938775510204084,0.46938775510204084,0.46938775510204084,0.46938775510204084,0.46938775510204084,0.46938775510204084,0.46938775510204084,0.46938775510204084,0.46938775510204084,0.46938775510204084,0.46938775510204084,0.46938775510204084,0.46938775510204084,0.46938775510204084,0.46938775510204084,0.46938775510204084,0.46938775510204084,0.46938775510204084,0.46938775510204084,0.46938775510204084,0.46938775510204084,0.46938775510204084,0.46938775510204084,0.46938775510204084,0.46938775510204084,0.46938775510204084,0.46938775510204084,0.46938775510204084,0.46938775510204084,0.46938775510204084,0.46938775510204084,0.46938775510204084,0.46938775510204084,0.46938775510204084,0.46938775510204084,0.46938775510204084,0.46938775510204084,0.46938775510204084,0.46938775510204084,0.46938775510204084,0.46938775510204084,0.46938775510204084,0.46938775510204084,0.46938775510204084,0.46938775510204084,0.46938775510204084,0.46938775510204084,0.46938775510204084,0.46938775510204084,0.46938775510204084,0.46938775510204084,0.46938775510204084,0.46938775510204084,0.46938775510204084,0.46938775510204084,0.46938775510204084,0.46938775510204084,0.46938775510204084,0.46938775510204084,0.46938775510204084,0.46938775510204084,0.46938775510204084,0.46938775510204084,0.46938775510204084,0.46938775510204084,0.46938775510204084,0.46938775510204084,0.46938775510204084,0.46938775510204084,0.47278911564625853,0.4897959183673469,0.5034013605442177,0.5136054421768708,0.5204081632653061,0.5238095238095238,0.5306122448979592,0.5374149659863946,0.54421768707483,0.5510204081632653,0.5544217687074829,0.5578231292517006,0.5612244897959183,0.564625850340136,0.5680272108843537,0.5748299319727891,0.5816326530612245,0.5850340136054422,0.5884353741496599,0.5884353741496599,0.5884353741496599,0.5952380952380952,0.5952380952380952,0.5986394557823129,0.5986394557823129,0.5986394557823129,0.5986394557823129,0.6020408163265306,0.6020408163265306,0.6020408163265306,0.6020408163265306,0.6020408163265306,0.6020408163265306,0.6020408163265306,0.6020408163265306,0.6020408163265306,0.6020408163265306,0.6020408163265306,0.6020408163265306,0.6020408163265306,0.6020408163265306,0.6020408163265306,0.6020408163265306,0.6020408163265306,0.6020408163265306,0.6020408163265306,0.6020408163265306,0.5952380952380952,0.5918367346938775,0.5884353741496599,0.5884353741496599,0.5884353741496599,0.5884353741496599,0.5884353741496599,0.5884353741496599,0.5884353741496599,0.5884353741496599,0.5884353741496599,0.5884353741496599,0.5850340136054422,0.5782312925170068,0.5782312925170068,0.5748299319727891,0.5748299319727891,0.5748299319727891,0.5748299319727891,0.5748299319727891,0.5748299319727891,0.5748299319727891,0.5748299319727891,0.5748299319727891,0.5748299319727891,0.5748299319727891,0.5748299319727891,0.5748299319727891,0.5748299319727891,0.5748299319727891,0.5748299319727891,0.5748299319727891,0.5748299319727891,0.5748299319727891,0.5748299319727891,0.5748299319727891,0.5748299319727891,0.5748299319727891,0.5748299319727891,0.5748299319727891,0.5748299319727891,0.5748299319727891,0.5748299319727891,0.5748299319727891,0.5748299319727891,0.5748299319727891,0.5748299319727891,0.5748299319727891,0.5748299319727891,0.5748299319727891,0.5714285714285714,0.5680272108843537,0.5680272108843537,0.5680272108843537,0.564625850340136,0.564625850340136,0.5612244897959183,0.5544217687074829,0.5476190476190477,0.5374149659863946,0.5272108843537415,0.5068027210884354,0.4965986394557823,0.4931972789115646,0.48639455782312924,0.48639455782312924,0.48639455782312924,0.48639455782312924,0.4965986394557823,0.5102040816326531,0.5204081632653061,0.5340136054421769,0.5408163265306123,0.5408163265306123,0.5408163265306123,0.5408163265306123,0.5408163265306123,0.5408163265306123,0.5408163265306123,0.5408163265306123,0.5408163265306123,0.5408163265306123,0.5408163265306123,0.5408163265306123,0.5408163265306123,0.5408163265306123,0.5408163265306123,0.5408163265306123,0.5408163265306123,0.5408163265306123,0.5408163265306123,0.5408163265306123,0.5408163265306123,0.5408163265306123,0.5408163265306123,0.5408163265306123,0.5408163265306123,0.5408163265306123,0.5408163265306123,0.5408163265306123,0.5408163265306123,0.5408163265306123,0.5408163265306123,0.5408163265306123,0.5408163265306123,0.5408163265306123,0.5408163265306123,0.5408163265306123,0.5408163265306123,0.5408163265306123,0.5408163265306123,0.5408163265306123,0.5408163265306123,0.5408163265306123,0.5408163265306123,0.5408163265306123,0.5408163265306123,0.5408163265306123,0.5408163265306123,0.5408163265306123,0.5408163265306123,0.5408163265306123,0.5408163265306123,0.5408163265306123,0.5408163265306123,0.5408163265306123,0.5408163265306123,0.5408163265306123,0.5408163265306123,0.5408163265306123,0.5408163265306123,0.5408163265306123,0.5408163265306123,0.5408163265306123,0.5408163265306123,0.5408163265306123,0.5408163265306123,0.5408163265306123,0.5408163265306123,0.5408163265306123,0.5408163265306123,0.5408163265306123,0.5408163265306123,0.5408163265306123,0.5408163265306123,0.5408163265306123,0.5408163265306123,0.5408163265306123,0.5408163265306123,0.5408163265306123,0.5408163265306123,0.5408163265306123,0.5408163265306123,0.5408163265306123,0.5408163265306123,0.5408163265306123,0.5408163265306123,0.5408163265306123,0.5408163265306123,0.5408163265306123,0.5408163265306123,0.5408163265306123,0.5408163265306123,0.5408163265306123,0.5408163265306123,0.5408163265306123,0.5408163265306123,0.5408163265306123,0.5408163265306123,0.5408163265306123,0.5408163265306123,0.5408163265306123,0.5408163265306123,0.5408163265306123,0.5408163265306123,0.5408163265306123,0.5408163265306123,0.5408163265306123,0.5408163265306123,0.5408163265306123,0.5408163265306123,0.5408163265306123,0.5408163265306123,0.5408163265306123,0.5408163265306123,0.5408163265306123,0.5408163265306123,0.5408163265306123,0.5408163265306123,0.5408163265306123,0.5408163265306123,0.5408163265306123,0.5408163265306123,0.5408163265306123,0.5408163265306123,0.5408163265306123,0.5408163265306123,0.5408163265306123,0.5408163265306123,0.5408163265306123,0.5408163265306123,0.5408163265306123,0.5408163265306123,0.5408163265306123,0.5408163265306123,0.5408163265306123,0.5408163265306123,0.5408163265306123,0.5408163265306123,0.5408163265306123,0.5408163265306123,0.5408163265306123,0.5408163265306123,0.5408163265306123,0.5408163265306123,0.5408163265306123,0.5408163265306123,0.5408163265306123,0.5408163265306123,0.5408163265306123,0.5408163265306123,0.5408163265306123,0.5408163265306123,0.5408163265306123,0.5408163265306123,0.5408163265306123,0.5408163265306123,0.5408163265306123,0.5408163265306123,0.5408163265306123,0.5408163265306123,0.5408163265306123,0.5408163265306123,0.5408163265306123,0.5408163265306123,0.5408163265306123,0.5408163265306123,0.5408163265306123,0.5408163265306123,0.5408163265306123,0.5408163265306123,0.5408163265306123,0.5408163265306123,0.5408163265306123,0.5408163265306123,0.5408163265306123,0.5408163265306123,0.5408163265306123,0.5408163265306123,0.5408163265306123,0.5408163265306123,0.5408163265306123,0.5408163265306123,0.5408163265306123,0.5408163265306123,0.5408163265306123,0.5408163265306123,0.5408163265306123,0.5408163265306123,0.5408163265306123,0.5408163265306123,0.5408163265306123,0.5408163265306123,0.5408163265306123,0.5408163265306123,0.5408163265306123,0.5408163265306123,0.5408163265306123,0.5408163265306123,0.5408163265306123,0.5408163265306123,0.5408163265306123,0.5408163265306123,0.5408163265306123,0.5408163265306123,0.5408163265306123,0.5408163265306123,0.5408163265306123,0.5408163265306123,0.5408163265306123,0.5408163265306123,0.5408163265306123,0.5408163265306123,0.5408163265306123,0.5408163265306123,0.5408163265306123,0.5408163265306123,0.5408163265306123,0.5408163265306123,0.5408163265306123,0.5408163265306123,0.5408163265306123,0.5408163265306123,0.5408163265306123,0.5408163265306123,0.5408163265306123,0.5408163265306123,0.5408163265306123,0.5408163265306123,0.5408163265306123,0.5408163265306123,0.5408163265306123,0.5408163265306123,0.5408163265306123,0.5408163265306123,0.5408163265306123,0.5408163265306123,0.5408163265306123,0.5408163265306123,0.5408163265306123,0.5408163265306123,0.5408163265306123,0.5408163265306123,0.5408163265306123,0.5408163265306123,0.5408163265306123,0.5408163265306123,0.5408163265306123,0.5408163265306123,0.5408163265306123,0.5408163265306123,0.5408163265306123,0.5408163265306123,0.5408163265306123,0.5408163265306123,0.5408163265306123,0.5408163265306123,0.5408163265306123,0.5408163265306123,0.5408163265306123,0.5408163265306123,0.5408163265306123,0.5408163265306123,0.5408163265306123,0.5408163265306123,0.5408163265306123,0.5408163265306123,0.5408163265306123,0.5408163265306123,0.5408163265306123,0.5408163265306123,0.5408163265306123,0.5408163265306123,0.5408163265306123,0.5408163265306123,0.5408163265306123,0.5408163265306123,0.5408163265306123,0.5408163265306123,0.5408163265306123,0.5408163265306123,0.5408163265306123,0.5408163265306123,0.5408163265306123,0.5408163265306123,0.5408163265306123,0.5408163265306123,0.5408163265306123,0.5408163265306123,0.5408163265306123,0.5408163265306123,0.5408163265306123,0.5408163265306123,0.5408163265306123,0.5408163265306123,0.5408163265306123,0.5408163265306123,0.5408163265306123,0.5408163265306123,0.5408163265306123,0.54421768707483,0.54421768707483,0.5544217687074829,0.5612244897959183,0.5612244897959183,0.564625850340136,0.5612244897959183,0.5612244897959183,0.5612244897959183,0.5612244897959183,0.5612244897959183,0.5612244897959183,0.5612244897959183,0.5612244897959183,0.5612244897959183,0.5612244897959183,0.5612244897959183,0.5612244897959183,0.5612244897959183,0.5612244897959183,0.5612244897959183,0.5612244897959183,0.5612244897959183,0.5612244897959183,0.5612244897959183,0.5612244897959183,0.5612244897959183,0.5612244897959183,0.5612244897959183,0.5612244897959183,0.5612244897959183,0.5612244897959183,0.5612244897959183,0.5612244897959183,0.5612244897959183,0.5612244897959183,0.5612244897959183,0.5612244897959183,0.5612244897959183,0.5612244897959183,0.5612244897959183,0.5612244897959183,0.5612244897959183,0.5612244897959183,0.5612244897959183,0.5612244897959183,0.5612244897959183,0.5612244897959183,0.5612244897959183,0.5612244897959183,0.5612244897959183,0.5612244897959183,0.5612244897959183,0.5612244897959183,0.5612244897959183,0.5612244897959183,0.5612244897959183,0.5612244897959183,0.5612244897959183,0.5612244897959183,0.5612244897959183,0.5612244897959183,0.564625850340136,0.5714285714285714,0.5714285714285714,0.5748299319727891,0.5748299319727891,0.5748299319727891,0.5748299319727891,0.5748299319727891,0.5748299319727891,0.5748299319727891,0.5748299319727891,0.5748299319727891,0.5748299319727891,0.5748299319727891,0.5748299319727891,0.5714285714285714,0.5714285714285714,0.5714285714285714,0.5714285714285714,0.5714285714285714,0.5714285714285714,0.5714285714285714,0.5714285714285714,0.5714285714285714,0.5714285714285714,0.5714285714285714,0.5714285714285714,0.5714285714285714,0.5714285714285714,0.5714285714285714,0.5714285714285714,0.5714285714285714,0.5714285714285714,0.5714285714285714,0.5714285714285714,0.5714285714285714,0.5714285714285714,0.5714285714285714,0.5714285714285714,0.5714285714285714,0.5714285714285714,0.5714285714285714,0.5714285714285714,0.5714285714285714,0.5714285714285714,0.5714285714285714,0.5714285714285714,0.5714285714285714,0.5714285714285714,0.5748299319727891,0.5782312925170068,0.5782312925170068,0.5714285714285714,0.5714285714285714,0.5714285714285714,0.5714285714285714,0.5714285714285714,0.5714285714285714,0.5714285714285714,0.5714285714285714,0.5714285714285714,0.5714285714285714,0.5714285714285714,0.5748299319727891,0.5748299319727891,0.5748299319727891,0.5748299319727891,0.5748299319727891,0.5748299319727891,0.5782312925170068,0.5816326530612245,0.5816326530612245,0.5816326530612245,0.5816326530612245,0.5816326530612245,0.5816326530612245,0.5816326530612245,0.5816326530612245,0.5816326530612245,0.5816326530612245,0.5816326530612245,0.5816326530612245,0.5816326530612245,0.5816326530612245,0.5816326530612245,0.5816326530612245,0.5816326530612245,0.5816326530612245,0.5816326530612245,0.5816326530612245,0.5816326530612245,0.5816326530612245,0.5816326530612245,0.5816326530612245,0.5816326530612245,0.5816326530612245,0.5816326530612245,0.5816326530612245,0.5816326530612245,0.5816326530612245,0.5816326530612245,0.5816326530612245,0.5816326530612245,0.5816326530612245,0.5816326530612245,0.5816326530612245,0.5816326530612245,0.5816326530612245,0.5816326530612245,0.5816326530612245,0.5816326530612245,0.5816326530612245,0.5816326530612245,0.5816326530612245,0.5816326530612245,0.5816326530612245,0.5816326530612245,0.5816326530612245,0.5816326530612245,0.5816326530612245,0.5816326530612245,0.5816326530612245,0.5816326530612245,0.5816326530612245,0.5816326530612245,0.5816326530612245,0.5816326530612245,0.5816326530612245,0.5816326530612245,0.5816326530612245,0.5816326530612245,0.5816326530612245,0.5816326530612245,0.5816326530612245,0.5816326530612245,0.5816326530612245,0.5816326530612245,0.5816326530612245,0.5816326530612245,0.5816326530612245,0.5816326530612245,0.5816326530612245,0.5816326530612245,0.5816326530612245,0.5816326530612245,0.5816326530612245,0.5816326530612245,0.5816326530612245,0.5816326530612245,0.5816326530612245,0.5816326530612245,0.5816326530612245,0.5816326530612245,0.5816326530612245,0.5816326530612245,0.5816326530612245,0.5816326530612245,0.5816326530612245,0.5816326530612245,0.5816326530612245,0.5816326530612245,0.5816326530612245,0.5816326530612245,0.5816326530612245,0.5816326530612245,0.5816326530612245,0.5816326530612245,0.5816326530612245,0.5816326530612245,0.5816326530612245,0.5816326530612245,0.5816326530612245,0.5816326530612245,0.5816326530612245,0.5816326530612245,0.5816326530612245,0.5816326530612245,0.5816326530612245,0.5816326530612245,0.5816326530612245,0.5816326530612245,0.5816326530612245,0.5816326530612245,0.5816326530612245,0.5816326530612245,0.5816326530612245,0.5816326530612245,0.5816326530612245,0.5816326530612245,0.5816326530612245,0.5816326530612245,0.5816326530612245,0.5816326530612245,0.5816326530612245,0.5816326530612245,0.5816326530612245,0.5816326530612245,0.5816326530612245,0.5816326530612245,0.5816326530612245,0.5816326530612245,0.5816326530612245,0.5816326530612245,0.5816326530612245,0.5816326530612245,0.5816326530612245,0.5816326530612245,0.5816326530612245,0.5816326530612245,0.5816326530612245,0.5816326530612245,0.5816326530612245,0.5816326530612245,0.5816326530612245,0.5816326530612245,0.5816326530612245,0.5816326530612245,0.5816326530612245,0.5816326530612245,0.5816326530612245,0.5816326530612245,0.5816326530612245,0.5816326530612245,0.5816326530612245,0.5816326530612245,0.5816326530612245,0.5816326530612245,0.5816326530612245,0.5816326530612245,0.5816326530612245,0.5816326530612245,0.5816326530612245,0.5816326530612245,0.5816326530612245,0.5816326530612245,0.5816326530612245,0.5816326530612245,0.5816326530612245,0.5816326530612245,0.5816326530612245,0.5816326530612245,0.5816326530612245,0.5816326530612245,0.5816326530612245,0.5816326530612245,0.5816326530612245,0.5816326530612245,0.5816326530612245,0.5816326530612245,0.5816326530612245,0.5816326530612245,0.5816326530612245,0.5816326530612245,0.5816326530612245,0.5850340136054422,0.5850340136054422,0.5850340136054422,0.5850340136054422,0.5850340136054422,0.5850340136054422,0.5850340136054422,0.5884353741496599,0.5884353741496599,0.5884353741496599,0.5884353741496599,0.5918367346938775,0.5918367346938775,0.5918367346938775,0.5918367346938775,0.5918367346938775,0.5918367346938775,0.5918367346938775,0.5918367346938775,0.5918367346938775,0.5918367346938775,0.5918367346938775,0.5918367346938775,0.5918367346938775,0.5918367346938775,0.5918367346938775,0.5918367346938775,0.5918367346938775,0.5918367346938775,0.5918367346938775,0.5918367346938775,0.5918367346938775,0.5918367346938775,0.5918367346938775,0.5918367346938775,0.5918367346938775,0.5918367346938775,0.5918367346938775,0.5918367346938775,0.5918367346938775,0.5918367346938775,0.5918367346938775,0.5918367346938775,0.5918367346938775,0.5918367346938775,0.5918367346938775,0.5918367346938775,0.5918367346938775,0.5918367346938775,0.5918367346938775,0.5918367346938775,0.5918367346938775,0.5918367346938775,0.5918367346938775,0.5918367346938775,0.5918367346938775,0.5918367346938775,0.5918367346938775,0.5918367346938775,0.5918367346938775,0.5918367346938775,0.5918367346