[{"success":true,"trial_type":"fullscreen","trial_index":0,"time_elapsed":5011,"internal_node_id":"0.0-0.0","protocol_sum":"","subject_identifier":335,"subject_sum":[115,211,241,186,6,37,133,188,229,31,119,215,10,38,190,136,196,75,85,215,15,129,184,189,126,45,237,3,12,164,69,74],"subject_pair":167,"STUDY_ID":"66a0b3911f23dfc7665bb169","PROLIFIC_PID":"665af31ac32544bf6323607f","SESSION_ID":"66a174ff41e98cb469f12cef","practice_instructions":1,"leaderboard_instructions":0,"bonus":0,"reveal_word":true,"self_rating":"2","confidence":"87"},{"view_history":"[{\"page_index\":0,\"viewing_time\":13928}]","rt":13928,"trial_type":"instructions","trial_index":1,"time_elapsed":18940,"internal_node_id":"0.0-1.0","protocol_sum":"","subject_identifier":335,"subject_sum":[115,211,241,186,6,37,133,188,229,31,119,215,10,38,190,136,196,75,85,215,15,129,184,189,126,45,237,3,12,164,69,74],"subject_pair":167,"STUDY_ID":"66a0b3911f23dfc7665bb169","PROLIFIC_PID":"665af31ac32544bf6323607f","SESSION_ID":"66a174ff41e98cb469f12cef","practice_instructions":1,"leaderboard_instructions":0,"bonus":0,"reveal_word":true,"self_rating":"2","confidence":"87"},{"view_history":"[{\"page_index\":0,\"viewing_time\":12247}]","rt":12247,"trial_type":"instructions","trial_index":2,"time_elapsed":31190,"internal_node_id":"0.0-2.0-0.0","protocol_sum":"","subject_identifier":335,"subject_sum":[115,211,241,186,6,37,133,188,229,31,119,215,10,38,190,136,196,75,85,215,15,129,184,189,126,45,237,3,12,164,69,74],"subject_pair":167,"STUDY_ID":"66a0b3911f23dfc7665bb169","PROLIFIC_PID":"665af31ac32544bf6323607f","SESSION_ID":"66a174ff41e98cb469f12cef","practice_instructions":1,"leaderboard_instructions":0,"bonus":0,"reveal_word":true,"self_rating":"2","confidence":"87"},{"rt":7737,"responses":"{\"Q0\":\"... reveal the word with as <b>few letter guesses</b> as possible\"}","question_order":"[0]","trial_type":"survey-multi-choice","trial_index":3,"time_elapsed":38928,"internal_node_id":"0.0-2.0-1.0","protocol_sum":"","subject_identifier":335,"subject_sum":[115,211,241,186,6,37,133,188,229,31,119,215,10,38,190,136,196,75,85,215,15,129,184,189,126,45,237,3,12,164,69,74],"subject_pair":167,"correct":true,"test_part":"multichoice_nonpretend","STUDY_ID":"66a0b3911f23dfc7665bb169","PROLIFIC_PID":"665af31ac32544bf6323607f","SESSION_ID":"66a174ff41e98cb469f12cef","practice_instructions":1,"leaderboard_instructions":0,"bonus":0,"reveal_word":true,"self_rating":"2","confidence":"87"},{"view_history":"[{\"page_index\":0,\"viewing_time\":2597}]","rt":2597,"trial_type":"instructions","trial_index":4,"time_elapsed":41526,"internal_node_id":"0.0-3.0","protocol_sum":"","subject_identifier":335,"subject_sum":[115,211,241,186,6,37,133,188,229,31,119,215,10,38,190,136,196,75,85,215,15,129,184,189,126,45,237,3,12,164,69,74],"subject_pair":167,"STUDY_ID":"66a0b3911f23dfc7665bb169","PROLIFIC_PID":"665af31ac32544bf6323607f","SESSION_ID":"66a174ff41e98cb469f12cef","practice_instructions":1,"leaderboard_instructions":0,"bonus":0,"reveal_word":true,"self_rating":"2","confidence":"87"},{"word":"ZEBRA","click_log":{"letter":["","Z","E","A","R","B"],"t":[0,5941,8707,17893,32152,33908],"hit":[null,1,1,1,1,1],"asked":["","Z","ZE","ZEA","ZEAR","ZEARB"],"word_state":["_____","Z____","ZE___","ZE__A","ZE_RA","ZEBRA"]},"hover_log":{"letter":["?","?","?","?","?","?","?","?","?","?","?","?","?","?","?","?","?","?","?","?","?","?","?","?","?","?","?","?","?","?","?","?","?","?","?","?","?","?","?","?","?","?","?","?","?","?","?","?","?","?","?","?","?","?","?","?","?","?","?","?","?","?","?","?","?","?","?","?","?","?","?","?","?","?","?","?","?","?","?","?","?","?","?","?","?","?","?","?","?","?","?","?","?","?","?","?","?","?","?","?","?","?","?","?","?","?","?","?","?","?","?","?","?","?","?","?","?","?","?","?","?","?","?","?","?","?","?","?","?","?","?","?","?","?","?","?","?","?","?","?","?","?","?","?","?","?","?","?","?","?","?","?","?","?","?","?","?","?","?","?","?","?","?","?","?","?","?","?","?","?","J","J","J","J","J","J","J","J","J","J","J","J","J","J","J","?","?","?","?","?","T","T","?","?","?","U","U","U","U","U","U","U","U","U","U","U","U","U","U","U","U","U","U","U","U","U","U","U","U","U","U","V","V","V","V","V","V","V","?","?","?","?","?","?","?","?","W","W","W","W","W","?","?","?","?","?","?","?","?","?","?","?","?","?","?","?","?","?","?","?","?","?","?","?","?","?","?","?","?","?","?","?","?","?","?","?","W","W","W","W","W","?","?","?","?","?","?","?","?","?","?","?","?","W","W","X","X","?","Y","Y","?","?","?","?","?","?","?","?","?","?","?","?","?","?","?","?","?","?","?","?","Z","Z","Z","Z","Z","Z","Z","Z","Z","Z","Z","Z","Z","Z","Z","Z","Z","Z","Z","Z","Z","Z","Z","Z","Z","Z","Z","Z","Z","Z","Z","Z","Z","Z","Z","Z","Z","Z","Z","Z","Z","Z","Z","Z","Z","Z","Z","Z","Z","Z","Z","?","Y","?","O","N","?","?","?","?","?","?","D","D","D","D","?","C","C","C","C","C","C","C","C","C","C","C","C","C","C","C","C","?","?","?","?","?","?","?","?","?","?","C","C","C","C","C","C","C","C","C","C","C","C","C","C","C","C","C","C","C","C","C","C","C","C","?","?","?","?","?","M","M","M","M","M","M","M","M","M","M","M","M","M","M","M","M","M","M","?","L","L","L","L","L","L","L","L","L","L","L","L","L","L","L","?","?","?","?","D","D","D","E","E","E","E","E","E","E","E","E","E","E","E","E","E","E","E","E","E","E","E","E","E","E","E","E","E","E","E","E","E","E","E","E","E","E","E","E","E","E","E","E","E","E","E","E","E","E","E","E","E","E","E","E","E","E","E","E","E","?","?","?","N","N","N","N","N","N","N","?","?","?","?","?","?","?","?","?","?","?","?","?","?","?","?","?","?","?","?","?","?","?","?","?","?","?","?","?","?","?","?","?","?","?","?","?","?","?","?","?","?","?","?","?","?","?","?","?","?","?","?","?","?","?","?","?","?","?","?","?","?","?","?","?","?","?","?","?","V","V","V","V","V","V","V","V","V","V","V","V","V","V","V","V","V","V","V","V","V","V","V","V","V","V","V","?","?","?","W","W","W","W","W","W","W","W","W","W","W","W","W","W","W","?","X","X","X","X","X","?","Y","Y","Y","Y","Y","Y","Y","Y","Y","Y","Y","Y","Y","Y","Y","Y","Y","Y","?","?","?","?","?","?","?","?","?","?","?","?","?","?","?","?","P","P","P","P","P","P","P","P","P","P","P","?","?","?","?","?","?","O","O","O","O","O","O","O","O","O","?","?","?","?","?","?","N","N","N","N","N","N","N","N","N","N","N","N","N","N","N","N","N","N","N","N","N","N","?","?","?","?","?","?","?","?","?","?","?","?","?","?","?","?","M","M","M","M","M","M","M","M","M","M","M","M","M","M","M","M","M","M","M","M","M","M","M","M","M","M","M","M","M","M","M","M","M","M","M","M","M","M","M","M","M","M","M","M","M","M","M","M","M","M","M","M","M","M","M","M","M","M","M","M","M","M","M","M","M","M","M","M","M","M","M","M","M","M","M","M","M","M","M","M","M","M","M","M","M","M","M","?","?","?","?","?","?","?","?","?","?","?","?","?","?","?","F","F","F","F","?","?","?","?","?","?","?","?","?","?","?","G","G","G","G","G","G","G","G","G","G","G","G","G","G","G","G","G","G","G","G","G","G","G","G","G","G","G","G","G","G","G","G","G","G","G","G","G","G","G","G","G","G","G","G","G","G","G","G","G","G","G","G","G","G","G","G","G","G","G","G","G","G","G","G","G","G","G","G","G","G","G","G","G","G","G","G","G","G","G","G","G","G","G","G","G","G","G","G","G","G","G","G","G","G","G","G","G","?","?","?","?","?","?","?","?","?","?","?","?","?","?","?","?","?","?","?","?","M","M","L","L","L","?","K","K","K","K","?","?","?","J","J","J","J","J","J","J","J","J","?","?","?","?","?","?","?","?","A","A","A","A","A","A","A","A","A","A","A","A","A","A","A","A","A","A","A","A","A","A","A","A","A","A","A","A","A","A","A","A","A","A","A","A","A","A","A","A","A","A","A","A","A","A","A","A","A","A","A","A","A","A","A","A","A","A","?","?","?","?","?","?","?","L","L","?","M","?","?","?","?","W","W","W","W","W","W","W","W","W","W","W","W","W","W","W","W","W","?","?","?","?","?","?","?","?","?","?","?","?","?","?","?","?","?","?","?","?","?","?","?","?","?","?","?","?","?","?","V","V","V","V","V","V","V","V","?","?","?","?","?","?","?","?","?","?","?","?","?","?","?","?","?","?","?","?","?","?","?","?","?","?","?","?","?","?","?","?","?","?","?","?","?","?","?","?","?","?","?","?","?","?","?","?","?","?","?","?","?","?","?","?","?","L","L","L","L","L","L","L","L","L","L","L","L","L","L","L","L","L","L","?","?","?","?","?","?","?","?","?","?","?","?","?","?","?","?","?","?","?","?","?","?","?","?","?","?","?","?","?","?","?","?","?","?","?","?","?","?","?","?","?","?","?","?","?","?","?","?","?","?","?","?","?","?","?","?","?","?","?","?","?","?","?","?","?","?","?","?","?","?","?","?","?","?","?","?","?","?","?","?","?","?","?","?","?","?","?","?","?","?","?","?","?","?","?","?","?","?","?","?","?","?","?","?","?","?","?","?","?","?","?","?","?","?","?","?","?","?","?","?","?","?","?","?","?","?","?","?","?","?","?","?","?","?","?","?","?","?","?","?","?","?","?","?","?","?","?","?","?","?","?","?","?","?","?","?","?","?","?","?","?","?","?","?","?","?","?","?","?","?","?","?","?","?","?","?","?","?","?","?","?","?","?","?","?","?","?","?","?","?","?","?","?","?","?","?","?","?","?","?","?","?","?","?","?","?","?","?","?","?","?","?","?","?","?","?","?","?","?","?","?","?","?","?","?","?","?","?","?","?","?","?","?","?","?","?","?","?","?","?","?","?","?","?","?","?","?","?","?","?","?","?","?","?","?","M","M","M","M","M","M","M","M","M","M","M","M","M","M","M","?","?","?","N","N","N","?","O","O","O","O","O","O","O","O","O","O","O","?","?","?","?","?","?","?","?","?","?","?","?","?","?","?","?","?","?","?","?","?","?","?","?","?","?","?","?","?","?","?","?","?","?","?","?","?","?","?","?","?","?","?","?","?","?","?","?","?","?","?","?","?","?","?","?","?","?","?","?","?","?","?","?","?","?","?","?","?","?","?","?","?","?","?","?","?","?","?","?","?","?","?","?","?","?","?","?","?","?","?","?","?","?","?","?","?","?","N","N","N","N","N","N","N","N","N","N","N","N","N","N","?","?","?","?","?","?","?","?","?","?","?","?","?","?","?","?","?","?","?","?","?","?","?","?","?","?","?","?","?","?","?","?","?","?","?","?","?","?","?","?","?","?","?","?","?","?","?","?","?","?","?","?","?","?","L","L","?","?","?","?","?","?","?","?","?","?","?","?","?","?","?","?","?","?","?","?","?","?","?","?","?","?","?","?","?","?","?","?","?","?","?","?","?","?","?","?","?","?","?","?","?","?","?","?","?","?","?","?","?","?","?","?","?","?","?","?","?","D","D","?","?","N","?","O","O","O","?","?","?","?","?","?","?","?","?","W","W","W","W","?","V","V","V","V","V","V","V","V","V","V","?","?","?","?","?","U","U","U","U","U","U","U","U","U","U","U","U","U","U","U","U","U","U","U","U","U","U","U","U","U","U","U","U","U","U","U","?","?","?","?","?","?","?","?","?","?","M","M","M","M","M","M","M","M","M","M","M","M","M","M","M","M","M","M","?","?","?","?","?","?","?","P","?","Q","Q","?","?","?","R","R","?","?","?","?","?","?","?","?","?","?","?","?","?","?","?","?","?","?","?","R","R","R","R","R","R","R","R","R","R","R","R","R","R","R","R","R","R","R","R","R","R","R","R","R","R","R","R","R","R","R","R","R","R","R","R","R","R","R","R","R","R","R","R","R","R","R","R","R","R","R","R","R","R","?","?","F","?","?","?","?","?","?","?","?","?","?","?","?","?","?","?","?","?","?","?","?","?","?","?","?","?","?","C","C","C","C","C","C","C","C","?","?","?","?","?","?","?","?","?","?","B","B","B","B","B","B","B","B","B","B","B","B","B","B","B","B","B","B","B","B","B","B","B","B","B","B","B","B","B","B","B","B","B","B","B","B","B","B","B","B","B","B","B","B","B","B","B","B","B","B","B","B","B","B","B","B","B","B","B","B","B","B","B","B","B","B","B","B","B","B","B","B","B","B","B","B","B","B","B","B","B","B","B","B","B","B","B","B","B","B","B","B","B","B","B","B","B","B","B","B","B","B","B","B","B","B","B","B","B","B","B","B","B","B","B","B","B","B","B","B","B","B","B","B","B","B","B","B","B","B","B","B","B","B","B","B","B","B","B","B","B","B","B","B","B","B","B","B","B","B","B","B","B"],"t":[21,115,136,150,167,184,200,217,233,250,266,283,300,316,333,351,366,384,400,416,433,450,466,483,500,516,533,550,567,583,600,616,634,650,666,684,700,717,733,751,769,783,800,818,834,850,867,884,901,917,934,951,967,984,1001,1018,1034,1052,1067,1084,1101,1117,1134,1151,1167,1184,1201,1218,1235,1251,1269,1284,1301,1317,1334,1351,1368,1384,1401,1418,1434,1451,1468,1485,1502,1518,1535,1551,1568,1585,1602,1619,1635,1651,1669,1685,1701,1718,1735,1752,1768,1785,1802,1818,1836,1853,1869,1886,1902,1919,1935,1952,1969,1985,2003,2019,2036,2053,2069,2086,2103,2119,2137,2153,2170,2186,2204,2219,2236,2252,2269,2286,2303,2320,2336,2353,2369,2387,2404,2420,2436,2453,2470,2486,2503,2520,2537,2553,2570,2587,2604,2620,2637,2654,2670,2686,2704,2720,2737,2753,2770,2787,2804,2820,2837,2854,2871,2887,2904,2922,2940,2955,2971,2988,3005,3021,3038,3056,3073,3089,3107,3121,3138,3154,3172,3189,3206,3221,3239,3255,3272,3288,3306,3324,3338,3355,3372,3389,3405,3422,3440,3456,3472,3488,3510,3523,3539,3555,3572,3589,3605,3623,3639,3656,3673,3690,3706,3723,3740,3757,3773,3790,3806,3823,3841,3856,3873,3890,3907,3923,3939,3956,3973,3989,4007,4022,4040,4057,4074,4090,4107,4123,4141,4157,4174,4189,4206,4224,4240,4256,4273,4290,4307,4323,4340,4357,4374,4390,4406,4424,4440,4457,4473,4490,4507,4523,4540,4557,4574,4590,4607,4624,4641,4657,4675,4691,4708,4724,4741,4758,4774,4791,4807,4825,4841,4857,4874,4891,4908,4924,4941,4958,4975,4991,5009,5025,5042,5058,5075,5092,5108,5125,5142,5158,5176,5192,5209,5225,5243,5258,5275,5292,5308,5325,5343,5359,5376,5392,5409,5426,5442,5459,5476,5493,5509,5526,5542,5560,5576,5592,5609,5625,5643,5659,5677,5693,5709,5726,5743,5760,5776,5793,5809,5826,5844,5861,5876,5893,5909,5927,5945,5961,5977,5994,6010,6027,6044,6061,6078,6094,6111,6127,6144,6162,6178,6194,6211,6228,6244,6262,6277,6294,6311,6328,6344,6361,6377,6395,6413,6429,6446,6462,6479,6495,6511,6528,6544,6561,6578,6595,6611,6629,6645,6662,6678,6695,6711,6728,6745,6761,6779,6795,6811,6828,6845,6862,6878,6895,6912,6929,6945,6961,6980,6995,7012,7028,7045,7064,7079,7095,7112,7129,7145,7162,7179,7196,7213,7229,7247,7263,7279,7296,7313,7329,7346,7363,7381,7397,7413,7430,7446,7464,7479,7497,7513,7531,7546,7563,7580,7597,7613,7629,7647,7663,7680,7696,7713,7730,7747,7764,7780,7797,7814,7830,7847,7864,7881,7898,7913,7931,7947,7963,7982,7997,8014,8030,8047,8065,8081,8098,8114,8130,8148,8164,8181,8197,8214,8231,8249,8264,8283,8298,8315,8331,8348,8364,8381,8397,8415,8431,8448,8465,8481,8498,8515,8531,8548,8565,8582,8600,8615,8632,8648,8665,8682,8698,8715,8732,8749,8765,8782,8799,8815,8832,8849,8865,8882,8899,8916,8932,8949,8965,8982,8999,9016,9032,9049,9066,9083,9100,9116,9133,9150,9167,9183,9200,9216,9233,9250,9267,9283,9300,9317,9334,9349,9366,9383,9401,9417,9433,9450,9467,9485,9500,9517,9534,9551,9567,9584,9600,9617,9634,9651,9667,9683,9701,9717,9734,9751,9768,9784,9800,9817,9834,9851,9867,9884,9900,9918,9934,9951,9968,9984,10001,10018,10035,10052,10067,10084,10101,10118,10134,10151,10168,10185,10201,10218,10235,10252,10268,10285,10302,10318,10335,10352,10368,10385,10402,10419,10435,10452,10468,10486,10502,10518,10535,10553,10569,10585,10602,10619,10636,10652,10669,10686,10702,10719,10735,10753,10770,10786,10803,10819,10836,10853,10869,10886,10902,10919,10937,10953,10969,10986,11002,11020,11037,11054,11071,11089,11104,11120,11137,11154,11171,11188,11203,11220,11236,11254,11272,11287,11303,11320,11338,11353,11371,11387,11404,11422,11438,11454,11470,11487,11504,11521,11538,11554,11571,11588,11604,11621,11638,11654,11671,11688,11705,11721,11737,11754,11771,11788,11805,11821,11838,11855,11872,11888,11905,11921,11938,11955,11972,11988,12005,12022,12038,12055,12072,12089,12105,12123,12138,12156,12172,12189,12206,12222,12239,12255,12272,12288,12306,12322,12339,12355,12372,12389,12407,12423,12439,12456,12473,12489,12506,12522,12540,12556,12573,12589,12606,12623,12639,12656,12673,12689,12706,12723,12740,12756,12772,12790,12806,12823,12840,12857,12873,12890,12906,12924,12940,12956,12973,12991,13007,13024,13039,13058,13074,13090,13107,13123,13140,13157,13174,13191,13207,13224,13240,13258,13274,13291,13308,13324,13342,13358,13374,13391,13407,13424,13441,13458,13474,13491,13507,13524,13541,13558,13574,13591,13608,13624,13641,13657,13675,13691,13707,13725,13742,13758,13774,13792,13808,13824,13842,13858,13875,13891,13908,13925,13942,13959,13975,13992,14009,14026,14041,14059,14075,14092,14109,14126,14142,14159,14176,14192,14209,14226,14242,14259,14276,14292,14309,14326,14343,14359,14376,14393,14410,14426,14443,14460,14476,14493,14510,14526,14543,14560,14576,14593,14609,14626,14643,14660,14676,14693,14710,14726,14744,14759,14777,14793,14810,14826,14843,14860,14878,14894,14910,14927,14944,14960,14977,14994,15010,15027,15044,15062,15078,15093,15110,15128,15144,15160,15177,15194,15211,15228,15245,15261,15277,15296,15311,15328,15345,15361,15378,15395,15412,15428,15445,15461,15478,15495,15512,15528,15545,15562,15578,15594,15612,15629,15645,15662,15678,15695,15712,15729,15746,15762,15779,15797,15814,15829,15846,15863,15879,15895,15912,15929,15945,15962,15979,15996,16013,16029,16047,16062,16080,16096,16112,16130,16147,16163,16179,16196,16214,16229,16246,16263,16281,16296,16313,16330,16346,16363,16380,16396,16413,16430,16447,16464,16480,16496,16513,16531,16547,16564,16581,16597,16615,16630,16647,16664,16680,16697,16714,16731,16747,16763,16781,16798,16814,16830,16848,16863,16880,16898,16914,16930,16947,16965,16982,16998,17014,17031,17049,17065,17081,17098,17115,17132,17147,17165,17182,17197,17215,17231,17248,17265,17281,17298,17315,17331,17349,17365,17382,17398,17416,17432,17448,17465,17483,17498,17515,17532,17549,17565,17582,17599,17616,17633,17649,17665,17682,17699,17716,17733,17749,17766,17783,17799,17816,17833,17849,17865,17883,17899,17916,17933,17950,17966,17983,18000,18017,18033,18050,18067,18083,18100,18117,18133,18150,18166,18183,18200,18217,18234,18250,18267,18283,18300,18316,18334,18350,18367,18384,18400,18417,18435,18451,18468,18483,18501,18517,18534,18551,18567,18584,18601,18618,18634,18652,18667,18684,18702,18718,18735,18751,18767,18785,18801,18818,18834,18852,18869,18884,18901,18918,18935,18952,18968,18985,19001,19018,19036,19052,19069,19085,19102,19119,19135,19151,19169,19185,19201,19218,19235,19252,19268,19286,19302,19319,19335,19352,19369,19385,19402,19419,19435,19453,19469,19486,19502,19520,19536,19553,19570,19585,19603,19619,19636,19654,19670,19687,19703,19720,19736,19753,19769,19786,19802,19820,19836,19853,19870,19886,19903,19920,19938,19954,19970,19987,20004,20020,20037,20053,20071,20087,20104,20122,20139,20155,20171,20187,20205,20221,20237,20254,20270,20288,20304,20320,20337,20355,20371,20387,20404,20421,20437,20454,20471,20488,20505,20521,20539,20555,20573,20588,20604,20621,20638,20655,20671,20689,20705,20721,20738,20755,20771,20788,20805,20821,20838,20855,20872,20888,20905,20922,20939,20955,20972,20988,21005,21022,21039,21055,21073,21089,21105,21122,21139,21155,21172,21189,21206,21222,21239,21256,21273,21289,21306,21323,21340,21357,21372,21389,21406,21423,21439,21456,21473,21490,21506,21523,21539,21556,21573,21589,21607,21623,21640,21656,21673,21690,21707,21724,21741,21757,21774,21789,21806,21823,21840,21857,21874,21890,21907,21923,21940,21957,21974,21991,22007,22024,22041,22058,22075,22091,22107,22123,22140,22158,22174,22191,22209,22225,22241,22258,22274,22291,22308,22325,22342,22358,22374,22391,22408,22426,22441,22458,22475,22491,22508,22525,22542,22559,22576,22591,22608,22625,22642,22659,22675,22691,22708,22725,22741,22759,22775,22792,22808,22825,22842,22860,22875,22892,22909,22925,22942,22959,22976,22993,23009,23025,23042,23060,23076,23092,23109,23126,23142,23159,23176,23193,23209,23226,23243,23260,23276,23293,23310,23326,23343,23360,23377,23394,23411,23429,23443,23460,23477,23494,23509,23527,23543,23560,23576,23593,23610,23627,23644,23661,23678,23693,23711,23727,23744,23761,23777,23794,23811,23827,23844,23861,23878,23894,23911,23928,23945,23962,23978,23994,24013,24028,24044,24062,24078,24095,24111,24128,24145,24162,24178,24195,24212,24229,24245,24261,24278,24295,24312,24328,24345,24363,24378,24395,24412,24428,24445,24462,24479,24496,24512,24528,24547,24562,24579,24597,24612,24629,24645,24662,24679,24695,24712,24729,24746,24762,24779,24797,24814,24830,24846,24862,24880,24896,24913,24929,24947,24964,24980,24996,25013,25030,25046,25065,25079,25096,25113,25130,25148,25165,25181,25199,25214,25230,25252,25263,25280,25298,25314,25332,25348,25363,25380,25397,25416,25432,25447,25464,25481,25498,25514,25531,25548,25563,25581,25598,25613,25631,25647,25664,25681,25698,25714,25731,25748,25765,25781,25797,25815,25831,25848,25866,25882,25897,25916,25932,25948,25965,25982,25999,26015,26031,26050,26066,26082,26099,26115,26132,26148,26166,26182,26199,26215,26232,26249,26265,26281,26298,26315,26332,26348,26365,26382,26399,26415,26432,26449,26466,26482,26499,26516,26533,26550,26566,26582,26599,26616,26632,26651,26666,26683,26700,26716,26733,26749,26766,26783,26799,26816,26833,26850,26867,26883,26901,26917,26933,26950,26967,26983,27001,27017,27035,27051,27067,27083,27100,27117,27135,27150,27167,27184,27200,27217,27234,27251,27267,27283,27301,27317,27333,27350,27368,27383,27400,27419,27434,27451,27468,27485,27501,27518,27534,27552,27568,27584,27601,27617,27635,27651,27668,27685,27702,27718,27734,27752,27768,27785,27802,27819,27835,27852,27868,27886,27902,27919,27935,27952,27969,27985,28001,28019,28035,28052,28069,28086,28102,28119,28136,28153,28169,28186,28202,28219,28236,28252,28269,28286,28302,28319,28335,28353,28371,28386,28402,28420,28436,28453,28469,28486,28503,28520,28538,28553,28570,28586,28603,28620,28637,28654,28670,28686,28703,28719,28737,28753,28770,28786,28803,28820,28837,28853,28870,28888,28903,28921,28938,28954,28970,28987,29004,29021,29037,29054,29071,29088,29103,29120,29137,29154,29171,29187,29204,29220,29238,29255,29271,29288,29304,29320,29339,29355,29371,29387,29405,29421,29437,29455,29473,29488,29504,29525,29540,29555,29572,29589,29606,29622,29639,29656,29672,29689,29705,29722,29739,29756,29773,29789,29806,29822,29839,29856,29872,29889,29905,29922,29940,29956,29974,29990,30005,30023,30039,30056,30073,30089,30106,30124,30139,30155,30173,30190,30207,30223,30239,30256,30273,30290,30306,30323,30340,30356,30374,30390,30406,30423,30440,30457,30473,30490,30507,30523,30541,30556,30573,30590,30607,30623,30641,30657,30673,30691,30708,30723,30740,30757,30774,30791,30807,30825,30841,30857,30874,30891,30908,30924,30940,30957,30974,30991,31008,31026,31042,31058,31074,31092,31108,31124,31141,31159,31175,31191,31208,31226,31242,31258,31275,31292,31309,31325,31341,31358,31375,31392,31410,31425,31441,31458,31475,31492,31509,31526,31541,31558,31576,31593,31609,31626,31642,31660,31676,31692,31709,31726,31742,31760,31776,31793,31809,31826,31843,31860,31875,31893,31909,31926,31942,31960,31976,31992,32010,32026,32045,32059,32078,32093,32110,32127,32143,32160,32176,32193,32210,32226,32243,32260,32277,32293,32310,32327,32344,32360,32377,32393,32411,32428,32444,32460,32477,32493,32510,32527,32544,32561,32577,32594,32611,32628,32644,32661,32678,32694,32711,32727,32745,32761,32777,32794,32812,32828,32844,32861,32878,32894,32911,32928,32944,32961,32978,32995,33012,33028,33045,33062,33079,33095,33112,33129,33146,33162,33184,33195,33213,33228,33245,33262,33278,33296,33312,33329,33346,33361,33379,33395,33412,33429,33445,33463,33479,33495,33512,33529,33547,33564,33579,33596,33613,33631,33646,33662,33679,33696,33713,33730,33746,33763,33780,33796,33813,33829,33847,33865,33880,33896,33914,33930,33946,33963,33980,33996,34013,34030,34047,34064,34080,34098,34115,34132,34148,34163,34182,34196,34213,34231,34248,34264,34280,34298,34314,34332,34348,34364,34381,34398,34414,34431,34448,34464,34480,34498,34515,34531,34547,34564,34581,34598,34614,34631,34648,34665,34681,34698,34715,34732,34748,34765,34781,34798,34815,34832,34849,34865,34882,34899,34916,34931,34948,34965,34982,34998,35015,35032,35049,35065,35083,35099,35116,35132,35149,35166,35184,35199,35216,35233,35249,35266,35282,35298,35316,35332,35349,35366,35383,35399,35416,35433,35450,35466,35482,35500,35516,35533,35550,35566,35583,35599,35616,35633,35650,35666,35683,35700,35716,35733,35750,35767,35783,35800,35817,35834,35850,35867,35884,35900,35917],"hit":[null],"x":[-2.1496598639455784,-2.1496598639455784,-2.1496598639455784,-2.1496598639455784,-2.1496598639455784,-2.1496598639455784,-2.1496598639455784,-2.1496598639455784,-2.1496598639455784,-2.1496598639455784,-2.1496598639455784,-2.1496598639455784,-2.1496598639455784,-2.1496598639455784,-2.1496598639455784,-2.1496598639455784,-2.1496598639455784,-2.1496598639455784,-2.1496598639455784,-2.1496598639455784,-2.1496598639455784,-2.1496598639455784,-2.1496598639455784,-2.1496598639455784,-2.1496598639455784,-2.1496598639455784,-2.1496598639455784,-2.1496598639455784,-2.1496598639455784,-2.1496598639455784,-2.1496598639455784,-2.1496598639455784,-2.1496598639455784,-2.1496598639455784,-2.1496598639455784,-2.1496598639455784,-2.1496598639455784,-2.1496598639455784,-2.1496598639455784,-2.1496598639455784,-2.1496598639455784,-2.1496598639455784,-2.1496598639455784,-2.1496598639455784,-2.1496598639455784,-2.1496598639455784,-2.1496598639455784,-2.1496598639455784,-2.1496598639455784,-2.1496598639455784,-2.1496598639455784,-2.1496598639455784,-2.1496598639455784,-2.1496598639455784,-2.1496598639455784,-2.1496598639455784,-2.1496598639455784,-2.1496598639455784,-2.1496598639455784,-2.1496598639455784,-2.1496598639455784,-2.1496598639455784,-2.1496598639455784,-2.1496598639455784,-2.1496598639455784,-2.1496598639455784,-2.1496598639455784,-2.1496598639455784,-2.1496598639455784,-2.1496598639455784,-2.1496598639455784,-2.1496598639455784,-2.1496598639455784,-2.1496598639455784,-2.1496598639455784,-2.1496598639455784,-2.1496598639455784,-2.1496598639455784,-2.1496598639455784,-2.1496598639455784,-2.1496598639455784,-2.1496598639455784,-2.1496598639455784,-2.1496598639455784,-2.1496598639455784,-2.1496598639455784,-2.1496598639455784,-2.1496598639455784,-2.1496598639455784,-2.1496598639455784,-2.1496598639455784,-2.1496598639455784,-2.1496598639455784,-2.1496598639455784,-2.1496598639455784,-2.1496598639455784,-2.1496598639455784,-2.1496598639455784,-2.1496598639455784,-2.1496598639455784,-2.1496598639455784,-2.1496598639455784,-2.1496598639455784,-2.1496598639455784,-2.1496598639455784,-2.1496598639455784,-2.1496598639455784,-2.1496598639455784,-2.1496598639455784,-2.1496598639455784,-2.1496598639455784,-2.1496598639455784,-2.1496598639455784,-2.1496598639455784,-2.1496598639455784,-2.1496598639455784,-2.1496598639455784,-2.1496598639455784,-2.1496598639455784,-2.1496598639455784,-2.1496598639455784,-2.1496598639455784,-2.1496598639455784,-2.1496598639455784,-2.1496598639455784,-2.1496598639455784,-2.1496598639455784,-2.1496598639455784,-2.1496598639455784,-2.1496598639455784,-2.1496598639455784,-2.1496598639455784,-2.1496598639455784,-2.1496598639455784,-2.1496598639455784,-2.1496598639455784,-2.1496598639455784,-2.1496598639455784,-2.1496598639455784,-2.1496598639455784,-2.1496598639455784,-2.1496598639455784,-2.1496598639455784,-2.1496598639455784,-2.1496598639455784,-2.1496598639455784,-2.1496598639455784,-2.1496598639455784,-2.1496598639455784,-2.1496598639455784,-2.1496598639455784,-2.1496598639455784,-2.1496598639455784,-2.1496598639455784,-2.1496598639455784,-2.1496598639455784,-2.1496598639455784,-2.1496598639455784,-2.1496598639455784,-2.1496598639455784,-2.1496598639455784,-2.1496598639455784,-2.1496598639455784,-2.1496598639455784,-2.1496598639455784,-2.1496598639455784,-2.1496598639455784,-2.1496598639455784,-2.1496598639455784,-2.1496598639455784,-0.030612244897959183,-0.023809523809523808,-0.023809523809523808,-0.02040816326530612,-0.013605442176870748,-0.01020408163265306,-0.006802721088435374,-0.003401360544217687,0,0.003401360544217687,0.006802721088435374,0.013605442176870748,0.02040816326530612,0.027210884353741496,0.030612244897959183,0.03741496598639456,0.05442176870748299,0.061224489795918366,0.07142857142857142,0.08843537414965986,0.1564625850340136,0.18027210884353742,0.20068027210884354,0.21428571428571427,0.22789115646258504,0.24829931972789115,0.25170068027210885,0.25510204081632654,0.25510204081632654,0.25510204081632654,0.25510204081632654,0.25510204081632654,0.25510204081632654,0.25510204081632654,0.25510204081632654,0.25510204081632654,0.25510204081632654,0.25510204081632654,0.25510204081632654,0.25510204081632654,0.25510204081632654,0.25510204081632654,0.25510204081632654,0.25510204081632654,0.25510204081632654,0.2789115646258503,0.2925170068027211,0.30272108843537415,0.30952380952380953,0.3163265306122449,0.3299319727891156,0.37755102040816324,0.40476190476190477,0.41836734693877553,0.43537414965986393,0.4523809523809524,0.45918367346938777,0.46598639455782315,0.47619047619047616,0.48639455782312924,0.4897959183673469,0.4965986394557823,0.5034013605442177,0.5238095238095238,0.5340136054421769,0.5374149659863946,0.5510204081632653,0.5578231292517006,0.564625850340136,0.5748299319727891,0.5850340136054422,0.6156462585034014,0.6258503401360545,0.6326530612244898,0.6394557823129252,0.6394557823129252,0.6394557823129252,0.6394557823129252,0.6394557823129252,0.6394557823129252,0.6394557823129252,0.6394557823129252,0.6394557823129252,0.6394557823129252,0.6394557823129252,0.6394557823129252,0.6394557823129252,0.6394557823129252,0.6394557823129252,0.6394557823129252,0.6394557823129252,0.6360544217687075,0.6360544217687075,0.6360544217687075,0.6360544217687075,0.6360544217687075,0.6360544217687075,0.6360544217687075,0.6360544217687075,0.6360544217687075,0.6360544217687075,0.6360544217687075,0.6326530612244898,0.6258503401360545,0.6190476190476191,0.6122448979591837,0.5986394557823129,0.5918367346938775,0.5816326530612245,0.5714285714285714,0.54421768707483,0.5238095238095238,0.5136054421768708,0.5136054421768708,0.5136054421768708,0.5136054421768708,0.5136054421768708,0.5136054421768708,0.5136054421768708,0.5136054421768708,0.5136054421768708,0.5136054421768708,0.5170068027210885,0.5272108843537415,0.5476190476190477,0.6802721088435374,0.7278911564625851,0.7789115646258503,0.8231292517006803,0.8503401360544217,0.8809523809523809,0.8843537414965986,0.8843537414965986,0.8843537414965986,0.8843537414965986,0.8843537414965986,0.8843537414965986,0.8843537414965986,0.8843537414965986,0.8843537414965986,0.8843537414965986,0.8843537414965986,0.8843537414965986,0.8843537414965986,0.8877551020408163,0.9013605442176871,0.9081632653061225,0.9183673469387755,0.9251700680272109,0.935374149659864,0.9591836734693877,0.9625850340136054,0.9659863945578231,0.9693877551020408,0.9727891156462585,0.9761904761904762,0.9761904761904762,0.9795918367346939,0.9795918367346939,0.9795918367346939,0.9795918367346939,0.9795918367346939,0.9795918367346939,0.9795918367346939,0.9829931972789115,0.9829931972789115,0.9829931972789115,0.9829931972789115,0.9829931972789115,0.9829931972789115,0.9829931972789115,0.9829931972789115,0.9829931972789115,0.9829931972789115,0.9829931972789115,0.9829931972789115,0.9829931972789115,0.9829931972789115,0.9829931972789115,0.9829931972789115,0.9829931972789115,0.9829931972789115,0.9829931972789115,0.9829931972789115,0.9829931972789115,0.9829931972789115,0.9829931972789115,0.9829931972789115,0.9829931972789115,0.9829931972789115,0.9829931972789115,0.9829931972789115,0.9829931972789115,0.9829931972789115,0.9829931972789115,0.9829931972789115,0.9829931972789115,0.9829931972789115,0.9829931972789115,0.9829931972789115,0.9625850340136054,0.9251700680272109,0.8673469387755102,0.8163265306122449,0.6598639455782312,0.6190476190476191,0.5918367346938775,0.5714285714285714,0.5578231292517006,0.5306122448979592,0.5204081632653061,0.5,0.47959183673469385,0.4421768707482993,0.42517006802721086,0.3979591836734694,0.35714285714285715,0.336734693877551,0.3231292517006803,0.30272108843537415,0.2857142857142857,0.24829931972789115,0.24149659863945577,0.23809523809523808,0.23469387755102042,0.23469387755102042,0.23469387755102042,0.23469387755102042,0.23469387755102042,0.23469387755102042,0.23129251700680273,0.23129251700680273,0.23129251700680273,0.22789115646258504,0.22789115646258504,0.22789115646258504,0.22789115646258504,0.22789115646258504,0.22789115646258504,0.22789115646258504,0.22789115646258504,0.22789115646258504,0.22789115646258504,0.25170068027210885,0.2687074829931973,0.2857142857142857,0.2925170068027211,0.29591836734693877,0.29931972789115646,0.29931972789115646,0.29931972789115646,0.29931972789115646,0.29931972789115646,0.29931972789115646,0.30272108843537415,0.30272108843537415,0.30272108843537415,0.30272108843537415,0.30272108843537415,0.3129251700680272,0.3231292517006803,0.32653061224489793,0.3333333333333333,0.3333333333333333,0.336734693877551,0.336734693877551,0.336734693877551,0.336734693877551,0.35374149659863946,0.36054421768707484,0.3673469387755102,0.3877551020408163,0.41836734693877553,0.43537414965986393,0.4523809523809524,0.46258503401360546,0.46938775510204084,0.46938775510204084,0.46938775510204084,0.46938775510204084,0.46938775510204084,0.46938775510204084,0.46938775510204084,0.46938775510204084,0.46938775510204084,0.46938775510204084,0.46938775510204084,0.4523809523809524,0.41156462585034015,0.3741496598639456,0.3469387755102041,0.32653061224489793,0.3163265306122449,0.30272108843537415,0.29591836734693877,0.2925170068027211,0.2857142857142857,0.2857142857142857,0.282312925170068,0.2789115646258503,0.2789115646258503,0.2789115646258503,0.2789115646258503,0.2755102040816326,0.2755102040816326,0.2755102040816326,0.2755102040816326,0.2755102040816326,0.2925170068027211,0.35034013605442177,0.4013605442176871,0.4421768707482993,0.47619047619047616,0.5272108843537415,0.5408163265306123,0.5510204081632653,0.5612244897959183,0.5680272108843537,0.5680272108843537,0.5714285714285714,0.5714285714285714,0.5748299319727891,0.5748299319727891,0.5782312925170068,0.5816326530612245,0.5816326530612245,0.5816326530612245,0.5816326530612245,0.5816326530612245,0.5816326530612245,0.5816326530612245,0.5816326530612245,0.5850340136054422,0.5850340136054422,0.5850340136054422,0.5850340136054422,0.5850340136054422,0.5850340136054422,0.5850340136054422,0.5850340136054422,0.5850340136054422,0.5850340136054422,0.5850340136054422,0.5850340136054422,0.5850340136054422,0.5850340136054422,0.5850340136054422,0.5850340136054422,0.5850340136054422,0.5850340136054422,0.5850340136054422,0.5850340136054422,0.5850340136054422,0.5850340136054422,0.5850340136054422,0.5850340136054422,0.5850340136054422,0.5850340136054422,0.5850340136054422,0.5850340136054422,0.5850340136054422,0.5850340136054422,0.5850340136054422,0.5850340136054422,0.5850340136054422,0.5850340136054422,0.5850340136054422,0.5850340136054422,0.5850340136054422,0.5816326530612245,0.5782312925170068,0.5782312925170068,0.5748299319727891,0.5714285714285714,0.5578231292517006,0.5544217687074829,0.5544217687074829,0.5544217687074829,0.5510204081632653,0.54421768707483,0.5374149659863946,0.5340136054421769,0.5306122448979592,0.5272108843537415,0.5204081632653061,0.5204081632653061,0.5170068027210885,0.5170068027210885,0.5170068027210885,0.5170068027210885,0.5170068027210885,0.5170068027210885,0.5136054421768708,0.5102040816326531,0.5102040816326531,0.5102040816326531,0.5068027210884354,0.5068027210884354,0.5034013605442177,0.5034013605442177,0.5,0.4965986394557823,0.4965986394557823,0.4965986394557823,0.4965986394557823,0.4965986394557823,0.4965986394557823,0.4965986394557823,0.4965986394557823,0.4965986394557823,0.4965986394557823,0.4965986394557823,0.4965986394557823,0.4965986394557823,0.4965986394557823,0.4965986394557823,0.4965986394557823,0.4965986394557823,0.4965986394557823,0.4965986394557823,0.4965986394557823,0.4965986394557823,0.4965986394557823,0.4965986394557823,0.4965986394557823,0.4965986394557823,0.4965986394557823,0.4965986394557823,0.4965986394557823,0.4965986394557823,0.4965986394557823,0.4965986394557823,0.4965986394557823,0.4965986394557823,0.4965986394557823,0.4965986394557823,0.4965986394557823,0.4965986394557823,0.4965986394557823,0.4965986394557823,0.4965986394557823,0.4965986394557823,0.4965986394557823,0.4965986394557823,0.4965986394557823,0.4965986394557823,0.4965986394557823,0.4965986394557823,0.4897959183673469,0.48299319727891155,0.46258503401360546,0.4489795918367347,0.4421768707482993,0.43197278911564624,0.4217687074829932,0.41836734693877553,0.41836734693877553,0.41496598639455784,0.41496598639455784,0.41496598639455784,0.41496598639455784,0.41496598639455784,0.41496598639455784,0.41496598639455784,0.41496598639455784,0.41496598639455784,0.41496598639455784,0.41496598639455784,0.41496598639455784,0.41496598639455784,0.42517006802721086,0.42857142857142855,0.43537414965986393,0.4387755102040816,0.445578231292517,0.46598639455782315,0.47959183673469385,0.4897959183673469,0.4965986394557823,0.5034013605442177,0.5204081632653061,0.5272108843537415,0.5374149659863946,0.54421768707483,0.5476190476190477,0.5544217687074829,0.5578231292517006,0.5578231292517006,0.5578231292517006,0.5680272108843537,0.5850340136054422,0.5884353741496599,0.5952380952380952,0.6020408163265306,0.6156462585034014,0.6598639455782312,0.6768707482993197,0.6904761904761905,0.7040816326530612,0.7210884353741497,0.7619047619047619,0.782312925170068,0.8027210884353742,0.8095238095238095,0.8197278911564626,0.8197278911564626,0.826530612244898,0.8299319727891157,0.8299319727891157,0.8333333333333334,0.8367346938775511,0.8367346938775511,0.8401360544217688,0.8401360544217688,0.8401360544217688,0.8435374149659864,0.8469387755102041,0.8503401360544217,0.8503401360544217,0.8537414965986394,0.8537414965986394,0.8537414965986394,0.8537414965986394,0.8537414965986394,0.8537414965986394,0.8537414965986394,0.8537414965986394,0.8537414965986394,0.8537414965986394,0.8537414965986394,0.8537414965986394,0.8537414965986394,0.8503401360544217,0.8503401360544217,0.8435374149659864,0.8401360544217688,0.8401360544217688,0.8367346938775511,0.8333333333333334,0.8299319727891157,0.8299319727891157,0.826530612244898,0.826530612244898,0.826530612244898,0.826530612244898,0.8197278911564626,0.8129251700680272,0.8027210884353742,0.7925170068027211,0.782312925170068,0.7789115646258503,0.7721088435374149,0.7687074829931972,0.7585034013605442,0.7551020408163265,0.7482993197278912,0.7380952380952381,0.7142857142857143,0.6802721088435374,0.6700680272108843,0.6632653061224489,0.6598639455782312,0.6530612244897959,0.6462585034013606,0.6428571428571429,0.6360544217687075,0.6360544217687075,0.6326530612244898,0.6258503401360545,0.6224489795918368,0.6122448979591837,0.6020408163265306,0.5884353741496599,0.5850340136054422,0.5782312925170068,0.5714285714285714,0.564625850340136,0.5544217687074829,0.54421768707483,0.5374149659863946,0.5238095238095238,0.5204081632653061,0.5170068027210885,0.5170068027210885,0.5170068027210885,0.5170068027210885,0.5136054421768708,0.5136054421768708,0.5136054421768708,0.5136054421768708,0.5102040816326531,0.5102040816326531,0.5068027210884354,0.5068027210884354,0.5034013605442177,0.5,0.4965986394557823,0.4965986394557823,0.4931972789115646,0.4931972789115646,0.4931972789115646,0.4931972789115646,0.4897959183673469,0.4897959183673469,0.4897959183673469,0.4897959183673469,0.48639455782312924,0.48299319727891155,0.47959183673469385,0.47278911564625853,0.47278911564625853,0.47278911564625853,0.46938775510204084,0.46938775510204084,0.46938775510204084,0.46938775510204084,0.46938775510204084,0.46938775510204084,0.46938775510204084,0.46598639455782315,0.46598639455782315,0.45918367346938777,0.45918367346938777,0.4557823129251701,0.4523809523809524,0.4489795918367347,0.445578231292517,0.445578231292517,0.4421768707482993,0.4421768707482993,0.4387755102040816,0.4387755102040816,0.4387755102040816,0.4387755102040816,0.4387755102040816,0.4387755102040816,0.4387755102040816,0.4387755102040816,0.4387755102040816,0.4387755102040816,0.4387755102040816,0.4387755102040816,0.4387755102040816,0.4387755102040816,0.4387755102040816,0.4387755102040816,0.4387755102040816,0.4387755102040816,0.4387755102040816,0.4387755102040816,0.4387755102040816,0.4387755102040816,0.4387755102040816,0.4387755102040816,0.4387755102040816,0.4387755102040816,0.4387755102040816,0.4387755102040816,0.4387755102040816,0.4387755102040816,0.43537414965986393,0.43537414965986393,0.43197278911564624,0.42857142857142855,0.42517006802721086,0.4217687074829932,0.4217687074829932,0.4217687074829932,0.4217687074829932,0.4217687074829932,0.41496598639455784,0.41496598639455784,0.41156462585034015,0.41156462585034015,0.41156462585034015,0.41156462585034015,0.41156462585034015,0.41156462585034015,0.41156462585034015,0.41156462585034015,0.41156462585034015,0.41156462585034015,0.41156462585034015,0.41156462585034015,0.41156462585034015,0.41156462585034015,0.41156462585034015,0.41156462585034015,0.41836734693877553,0.43197278911564624,0.4421768707482993,0.4489795918367347,0.45918367346938777,0.47959183673469385,0.5102040816326531,0.5272108843537415,0.5340136054421769,0.54421768707483,0.5544217687074829,0.5714285714285714,0.5782312925170068,0.5884353741496599,0.5986394557823129,0.608843537414966,0.6394557823129252,0.6496598639455783,0.6700680272108843,0.6802721088435374,0.7040816326530612,0.7142857142857143,0.7278911564625851,0.7380952380952381,0.7585034013605442,0.7653061224489796,0.7721088435374149,0.7755102040816326,0.7755102040816326,0.7789115646258503,0.782312925170068,0.7857142857142857,0.7925170068027211,0.7959183673469388,0.8027210884353742,0.8129251700680272,0.8197278911564626,0.8299319727891157,0.8333333333333334,0.8401360544217688,0.8469387755102041,0.8503401360544217,0.8537414965986394,0.8571428571428571,0.8605442176870748,0.8605442176870748,0.8639455782312925,0.8639455782312925,0.8639455782312925,0.8639455782312925,0.8639455782312925,0.8673469387755102,0.8673469387755102,0.8673469387755102,0.8673469387755102,0.8673469387755102,0.8673469387755102,0.8673469387755102,0.8673469387755102,0.8673469387755102,0.8673469387755102,0.8673469387755102,0.8673469387755102,0.8673469387755102,0.8673469387755102,0.8673469387755102,0.8673469387755102,0.8673469387755102,0.8673469387755102,0.8673469387755102,0.8673469387755102,0.8673469387755102,0.8673469387755102,0.8673469387755102,0.8673469387755102,0.8673469387755102,0.8673469387755102,0.8673469387755102,0.8673469387755102,0.8673469387755102,0.8673469387755102,0.8673469387755102,0.8673469387755102,0.8673469387755102,0.8673469387755102,0.8673469387755102,0.8673469387755102,0.8673469387755102,0.8639455782312925,0.8639455782312925,0.8605442176870748,0.8605442176870748,0.8605442176870748,0.8605442176870748,0.8605442176870748,0.8571428571428571,0.8571428571428571,0.8571428571428571,0.8537414965986394,0.8537414965986394,0.8537414965986394,0.8537414965986394,0.8503401360544217,0.8469387755102041,0.8469387755102041,0.8469387755102041,0.8469387755102041,0.8435374149659864,0.8435374149659864,0.8401360544217688,0.8401360544217688,0.8367346938775511,0.8333333333333334,0.8333333333333334,0.8333333333333334,0.8299319727891157,0.8299319727891157,0.8299319727891157,0.8299319727891157,0.8299319727891157,0.8299319727891157,0.826530612244898,0.826530612244898,0.826530612244898,0.826530612244898,0.826530612244898,0.8231292517006803,0.8197278911564626,0.8163265306122449,0.8129251700680272,0.8129251700680272,0.8129251700680272,0.8095238095238095,0.8095238095238095,0.8095238095238095,0.8061224489795918,0.8061224489795918,0.8061224489795918,0.8027210884353742,0.7993197278911565,0.7959183673469388,0.7925170068027211,0.7857142857142857,0.7755102040816326,0.7721088435374149,0.7619047619047619,0.7210884353741497,0.6938775510204082,0.6700680272108843,0.6428571428571429,0.5204081632653061,0.47619047619047616,0.4421768707482993,0.40816326530612246,0.3333333333333333,0.2925170068027211,0.2653061224489796,0.22108843537414966,0.19727891156462585,0.17346938775510204,0.14625850340136054,0.09523809523809523,0.08163265306122448,0.07142857142857142,0.061224489795918366,0.05102040816326531,0.04081632653061224,0.034013605442176874,0.034013605442176874,0.030612244897959183,0.030612244897959183,0.006802721088435374,-0.01020408163265306,-0.02040816326530612,-0.030612244897959183,-0.03741496598639456,-0.04081632653061224,-0.047619047619047616,-0.047619047619047616,-0.047619047619047616,-0.047619047619047616,-0.047619047619047616,-0.04081632653061224,-0.03741496598639456,-0.030612244897959183,-0.030612244897959183,-0.027210884353741496,-0.023809523809523808,-0.017006802721088437,-0.013605442176870748,-0.01020408163265306,-0.003401360544217687,0.003401360544217687,0.003401360544217687,0.006802721088435374,0.006802721088435374,0.006802721088435374,0.006802721088435374,0.006802721088435374,0.006802721088435374,0.006802721088435374,0.006802721088435374,0.006802721088435374,0.006802721088435374,0.006802721088435374,0.006802721088435374,0.006802721088435374,0.006802721088435374,0.006802721088435374,0.006802721088435374,0.006802721088435374,0.006802721088435374,0.006802721088435374,0.006802721088435374,0.006802721088435374,0.006802721088435374,0.006802721088435374,0.006802721088435374,0.006802721088435374,0.006802721088435374,0.006802721088435374,0.006802721088435374,0.006802721088435374,0.006802721088435374,0.006802721088435374,0.006802721088435374,0.006802721088435374,0.006802721088435374,0.006802721088435374,0.006802721088435374,0.006802721088435374,0.006802721088435374,0.006802721088435374,0.006802721088435374,0.006802721088435374,0.006802721088435374,0.006802721088435374,0.006802721088435374,0.01020408163265306,0.023809523809523808,0.061224489795918366,0.0782312925170068,0.09523809523809523,0.11564625850340136,0.1360544217687075,0.2108843537414966,0.25170068027210885,0.2857142857142857,0.30612244897959184,0.3707482993197279,0.40476190476190477,0.4387755102040816,0.4897959183673469,0.5034013605442177,0.5136054421768708,0.5204081632653061,0.5238095238095238,0.5238095238095238,0.5238095238095238,0.5238095238095238,0.5238095238095238,0.5238095238095238,0.5272108843537415,0.5272108843537415,0.5272108843537415,0.5272108843537415,0.5272108843537415,0.5272108843537415,0.5272108843537415,0.5272108843537415,0.5272108843537415,0.5272108843537415,0.5272108843537415,0.5238095238095238,0.5238095238095238,0.5238095238095238,0.5238095238095238,0.5170068027210885,0.5170068027210885,0.5136054421768708,0.5136054421768708,0.5136054421768708,0.5102040816326531,0.5102040816326531,0.5034013605442177,0.5034013605442177,0.5,0.4965986394557823,0.4931972789115646,0.4931972789115646,0.4931972789115646,0.4931972789115646,0.48299319727891155,0.47959183673469385,0.47959183673469385,0.47619047619047616,0.47619047619047616,0.47278911564625853,0.47278911564625853,0.47278911564625853,0.47278911564625853,0.47278911564625853,0.46598639455782315,0.45918367346938777,0.4421768707482993,0.42857142857142855,0.41836734693877553,0.3979591836734694,0.391156462585034,0.38095238095238093,0.37755102040816324,0.3707482993197279,0.36394557823129253,0.36054421768707484,0.35714285714285715,0.35374149659863946,0.35034013605442177,0.35034013605442177,0.35034013605442177,0.35034013605442177,0.35034013605442177,0.35034013605442177,0.35034013605442177,0.35034013605442177,0.35034013605442177,0.35034013605442177,0.35034013605442177,0.3469387755102041,0.3469387755102041,0.3469387755102041,0.3401360544217687,0.336734693877551,0.3299319727891156,0.3299319727891156,0.32653061224489793,0.32653061224489793,0.32653061224489793,0.32653061224489793,0.32653061224489793,0.3197278911564626,0.3197278911564626,0.3197278911564626,0.3197278911564626,0.3197278911564626,0.3197278911564626,0.3197278911564626,0.3197278911564626,0.3197278911564626,0.3197278911564626,0.3197278911564626,0.3197278911564626,0.3197278911564626,0.3197278911564626,0.3197278911564626,0.3197278911564626,0.3197278911564626,0.3197278911564626,0.3197278911564626,0.3197278911564626,0.3197278911564626,0.3197278911564626,0.3197278911564626,0.3197278911564626,0.3197278911564626,0.3197278911564626,0.3197278911564626,0.3197278911564626,0.3197278911564626,0.3197278911564626,0.3231292517006803,0.3299319727891156,0.3299319727891156,0.3299319727891156,0.3299319727891156,0.3299319727891156,0.3299319727891156,0.3299319727891156,0.3299319727891156,0.3299319727891156,0.3299319727891156,0.3299319727891156,0.3299319727891156,0.336734693877551,0.336734693877551,0.3401360544217687,0.3435374149659864,0.35034013605442177,0.35374149659863946,0.36054421768707484,0.36394557823129253,0.37755102040816324,0.38095238095238093,0.3945578231292517,0.40476190476190477,0.41836734693877553,0.4217687074829932,0.42517006802721086,0.42857142857142855,0.42857142857142855,0.43197278911564624,0.43197278911564624,0.43537414965986393,0.43537414965986393,0.43537414965986393,0.43537414965986393,0.43537414965986393,0.43537414965986393,0.4387755102040816,0.4421768707482993,0.4489795918367347,0.46258503401360546,0.46598639455782315,0.47278911564625853,0.47959183673469385,0.48299319727891155,0.48639455782312924,0.4931972789115646,0.4965986394557823,0.4965986394557823,0.5,0.5,0.5,0.5,0.5,0.5,0.5,0.5,0.5,0.5,0.5,0.5,0.5,0.5,0.5,0.5,0.5,0.5,0.5,0.5,0.5,0.5,0.5,0.5,0.5,0.5,0.5,0.5,0.5,0.5,0.5,0.5,0.5,0.5,0.5,0.5,0.5,0.5,0.5,0.5,0.5,0.5,0.5,0.5,0.5,0.5,0.5,0.5,0.5,0.5,0.5,0.5,0.5,0.5,0.5,0.5,0.5,0.5,0.5,0.5,0.5,0.5,0.5,0.5,0.5,0.5,0.5,0.5,0.5,0.5,0.5,0.5,0.5,0.5,0.5,0.5,0.5,0.5,0.5,0.5,0.5,0.5,0.5,0.5,0.5,0.5,0.5,0.5,0.5,0.5,0.5,0.5,0.5,0.5,0.5,0.5,0.5,0.5,0.5,0.5,0.5,0.5,0.5,0.5,0.5,0.5,0.5,0.5,0.5,0.5,0.5,0.5,0.5,0.5,0.5,0.5,0.5,0.5,0.5,0.5,0.5,0.5,0.5,0.5,0.5,0.5,0.5,0.5,0.5,0.5,0.5,0.5,0.5,0.5,0.5,0.5,0.5,0.5,0.5,0.5,0.5,0.5,0.5,0.5,0.5,0.5,0.5,0.5,0.5,0.5,0.5,0.5,0.5,0.5,0.5,0.5,0.5,0.5,0.5,0.5,0.5,0.5,0.5,0.5,0.5,0.5,0.5,0.5,0.5,0.5,0.5,0.5,0.5,0.5,0.5,0.5,0.5,0.5,0.5,0.4931972789115646,0.4931972789115646,0.4897959183673469,0.48639455782312924,0.48639455782312924,0.48639455782312924,0.48299319727891155,0.48299319727891155,0.48299319727891155,0.48299319727891155,0.47619047619047616,0.47619047619047616,0.46598639455782315,0.46258503401360546,0.46258503401360546,0.46258503401360546,0.46258503401360546,0.46258503401360546,0.46258503401360546,0.46258503401360546,0.46258503401360546,0.46258503401360546,0.45918367346938777,0.4557823129251701,0.4523809523809524,0.4489795918367347,0.445578231292517,0.445578231292517,0.445578231292517,0.4387755102040816,0.4387755102040816,0.43537414965986393,0.43537414965986393,0.43537414965986393,0.43197278911564624,0.43197278911564624,0.43197278911564624,0.43197278911564624,0.43197278911564624,0.42857142857142855,0.42517006802721086,0.4217687074829932,0.4217687074829932,0.4217687074829932,0.41836734693877553,0.41496598639455784,0.41496598639455784,0.41496598639455784,0.41496598639455784,0.41496598639455784,0.41496598639455784,0.41836734693877553,0.42517006802721086,0.42517006802721086,0.43197278911564624,0.43537414965986393,0.4557823129251701,0.47278911564625853,0.4965986394557823,0.5204081632653061,0.5374149659863946,0.5884353741496599,0.6156462585034014,0.6428571428571429,0.6564625850340136,0.673469387755102,0.6836734693877551,0.6938775510204082,0.6972789115646258,0.7040816326530612,0.7074829931972789,0.7108843537414966,0.7142857142857143,0.717687074829932,0.7210884353741497,0.7244897959183674,0.7312925170068028,0.7312925170068028,0.7312925170068028,0.7312925170068028,0.7312925170068028,0.7312925170068028,0.7312925170068028,0.7380952380952381,0.7380952380952381,0.7380952380952381,0.7380952380952381,0.7414965986394558,0.7482993197278912,0.7482993197278912,0.7517006802721088,0.7585034013605442,0.7653061224489796,0.7721088435374149,0.7789115646258503,0.7925170068027211,0.7993197278911565,0.8061224489795918,0.8129251700680272,0.826530612244898,0.826530612244898,0.8299319727891157,0.8333333333333334,0.8333333333333334,0.8333333333333334,0.8333333333333334,0.8333333333333334,0.8333333333333334,0.8333333333333334,0.8333333333333334,0.8333333333333334,0.8333333333333334,0.8333333333333334,0.8333333333333334,0.8333333333333334,0.8333333333333334,0.8333333333333334,0.8333333333333334,0.8333333333333334,0.8333333333333334,0.8333333333333334,0.8333333333333334,0.8333333333333334,0.8333333333333334,0.8333333333333334,0.8333333333333334,0.8333333333333334,0.8333333333333334,0.8333333333333334,0.8333333333333334,0.8333333333333334,0.8333333333333334,0.8333333333333334,0.8333333333333334,0.8333333333333334,0.8333333333333334,0.8333333333333334,0.8299319727891157,0.826530612244898,0.8197278911564626,0.8163265306122449,0.8061224489795918,0.8027210884353742,0.7959183673469388,0.7959183673469388,0.7925170068027211,0.7925170068027211,0.7857142857142857,0.7755102040816326,0.7721088435374149,0.7619047619047619,0.7517006802721088,0.7448979591836735,0.7346938775510204,0.7312925170068028,0.7244897959183674,0.7210884353741497,0.717687074829932,0.7108843537414966,0.7074829931972789,0.7074829931972789,0.7074829931972789,0.7074829931972789,0.7040816326530612,0.6870748299319728,0.6802721088435374,0.673469387755102,0.6666666666666666,0.6564625850340136,0.6530612244897959,0.6462585034013606,0.6360544217687075,0.6326530612244898,0.6258503401360545,0.608843537414966,0.5952380952380952,0.5884353741496599,0.5816326530612245,0.5714285714285714,0.564625850340136,0.5612244897959183,0.5578231292517006,0.5544217687074829,0.5476190476190477,0.54421768707483,0.5374149659863946,0.5306122448979592,0.5238095238095238,0.5204081632653061,0.5102040816326531,0.5068027210884354,0.5034013605442177,0.5,0.4931972789115646,0.48299319727891155,0.47959183673469385,0.47619047619047616,0.47278911564625853,0.46938775510204084,0.46258503401360546,0.46258503401360546,0.4557823129251701,0.4489795918367347,0.445578231292517,0.43537414965986393,0.42857142857142855,0.42517006802721086,0.4217687074829932,0.41496598639455784,0.41156462585034015,0.40816326530612246,0.40476190476190477,0.40476190476190477,0.40476190476190477,0.4013605442176871,0.4013605442176871,0.4013605442176871,0.4013605442176871,0.4013605442176871,0.4013605442176871,0.4013605442176871,0.4013605442176871,0.4013605442176871,0.3979591836734694,0.3945578231292517,0.391156462585034,0.391156462585034,0.391156462585034,0.3877551020408163,0.3843537414965986,0.37755102040816324,0.3741496598639456,0.3707482993197279,0.36394557823129253,0.36054421768707484,0.35714285714285715,0.35374149659863946,0.35374149659863946,0.35034013605442177,0.3469387755102041,0.3469387755102041,0.3435374149659864,0.3401360544217687,0.3401360544217687,0.3401360544217687,0.3401360544217687,0.3401360544217687,0.3401360544217687,0.3401360544217687,0.3401360544217687,0.3401360544217687,0.3401360544217687,0.3401360544217687,0.3401360544217687,0.3401360544217687,0.3401360544217687,0.3401360544217687,0.3401360544217687,0.3401360544217687,0.3401360544217687,0.3401360544217687,0.3401360544217687,0.3401360544217687,0.3401360544217687,0.3401360544217687,0.3401360544217687,0.3401360544217687,0.3401360544217687,0.3401360544217687,0.336734693877551,0.336734693877551,0.336734693877551,0.336734693877551,0.336734693877551,0.336734693877551,0.336734693877551,0.336734693877551,0.336734693877551,0.336734693877551,0.336734693877551,0.336734693877551,0.336734693877551,0.336734693877551,0.336734693877551,0.336734693877551,0.336734693877551,0.336734693877551,0.336734693877551,0.336734693877551,0.336734693877551,0.336734693877551,0.336734693877551,0.3401360544217687,0.3401360544217687,0.3401360544217687,0.3435374149659864,0.3435374149659864,0.3469387755102041,0.35034013605442177,0.35034013605442177,0.35714285714285715,0.36054421768707484,0.36394557823129253,0.3707482993197279,0.40476190476190477,0.4387755102040816,0.47619047619047616,0.5136054421768708,0.5952380952380952,0.6326530612244898,0.6666666666666666,0.6870748299319728,0.7040816326530612,0.717687074829932,0.717687074829932,0.717687074829932,0.717687074829932,0.717687074829932,0.717687074829932,0.717687074829932,0.7006802721088435,0.673469387755102,0.6156462585034014,0.5884353741496599,0.5578231292517006,0.5340136054421769,0.5102040816326531,0.47278911564625853,0.43537414965986393,0.42857142857142855,0.41836734693877553,0.41836734693877553,0.41836734693877553,0.41496598639455784,0.41496598639455784,0.40816326530612246,0.4013605442176871,0.3979591836734694,0.3843537414965986,0.37755102040816324,0.35374149659863946,0.336734693877551,0.32653061224489793,0.30952380952380953,0.30612244897959184,0.29931972789115646,0.29591836734693877,0.2925170068027211,0.2891156462585034,0.2891156462585034,0.2891156462585034,0.2891156462585034,0.2891156462585034,0.2891156462585034,0.2891156462585034,0.2891156462585034,0.2891156462585034,0.2891156462585034,0.2891156462585034,0.2891156462585034,0.2891156462585034,0.2891156462585034,0.2891156462585034,0.2891156462585034,0.2891156462585034,0.2891156462585034,0.2925170068027211,0.2925170068027211,0.2925170068027211,0.29591836734693877,0.29591836734693877,0.29931972789115646,0.29931972789115646,0.29931972789115646,0.30612244897959184,0.30952380952380953,0.3129251700680272,0.3197278911564626,0.336734693877551,0.3469387755102041,0.35374149659863946,0.36394557823129253,0.3707482993197279,0.3741496598639456,0.3741496598639456,0.38095238095238093,0.3843537414965986,0.3877551020408163,0.3877551020408163,0.391156462585034,0.391156462585034,0.391156462585034,0.3945578231292517,0.3945578231292517,0.3979591836734694,0.4013605442176871,0.41156462585034015,0.41496598639455784,0.4217687074829932,0.43197278911564624,0.45918367346938777,0.47959183673469385,0.5068027210884354,0.5408163265306123,0.5714285714285714,0.6054421768707483,0.7006802721088435,0.7551020408163265,0.8537414965986394,0.9285714285714286,1.0068027210884354,1.030612244897959,1.0510204081632653,1.064625850340136,1.0816326530612246,1.153061224489796,1.183673469387755,1.2040816326530612,1.217687074829932,1.2244897959183674,1.2346938775510203,1.2380952380952381,1.2380952380952381,1.2380952380952381,1.2380952380952381,1.2380952380952381,1.2380952380952381,1.2380952380952381,1.2380952380952381,1.2380952380952381,1.2380952380952381,1.2380952380952381,1.2380952380952381,1.2312925170068028,1.217687074829932,1.2006802721088434,1.1938775510204083,1.1904761904761905,1.1904761904761905,1.1870748299319729,1.1870748299319729,1.1870748299319729,1.1870748299319729,1.1768707482993197,1.1666666666666667,1.1564625850340136,1.1496598639455782,1.1428571428571428,1.1428571428571428,1.1428571428571428,1.1428571428571428,1.1428571428571428,1.1428571428571428,1.1428571428571428,1.1428571428571428,1.1428571428571428,1.1428571428571428,1.1428571428571428,1.1428571428571428,1.1428571428571428,1.1428571428571428,1.1428571428571428,1.1428571428571428,1.1428571428571428,1.1428571428571428,1.1428571428571428,1.1428571428571428,1.1428571428571428,1.1428571428571428,1.1428571428571428,1.1428571428571428,1.1428571428571428,1.1428571428571428,1.1428571428571428,1.1428571428571428,1.1428571428571428,1.1428571428571428,1.1428571428571428,1.1428571428571428,1.1428571428571428,1.1428571428571428,1.1428571428571428,1.1428571428571428,1.1428571428571428,1.1428571428571428,1.1428571428571428,1.1428571428571428,1.1428571428571428,1.1326530612244898,1.1122448979591837,1.0748299319727892,0.9149659863945578,0.6666666666666666,0.5816326530612245,0.5272108843537415,0.4931972789115646,0.4489795918367347,0.4387755102040816,0.43197278911564624,0.42517006802721086,0.41156462585034015,0.4013605442176871,0.391156462585034,0.37755102040816324,0.36054421768707484,0.35374149659863946,0.3469387755102041,0.3435374149659864,0.3299319727891156,0.3197278911564626,0.3163265306122449,0.3163265306122449,0.30952380952380953,0.30952380952380953,0.30952380952380953,0.30952380952380953,0.30952380952380953,0.30952380952380953,0.30272108843537415,0.2891156462585034,0.282312925170068,0.2755102040816326,0.2687074829931973,0.2585034013605442,0.24829931972789115,0.24149659863945577,0.23129251700680273,0.22448979591836735,0.21768707482993196,0.21768707482993196,0.21768707482993196,0.21768707482993196,0.21768707482993196,0.21768707482993196,0.21768707482993196,0.2108843537414966,0.20408163265306123,0.19727891156462585,0.1836734693877551,0.18027210884353742,0.17687074829931973,0.17346938775510204,0.17346938775510204,0.17346938775510204,0.17346938775510204,0.17346938775510204,0.17346938775510204,0.17006802721088435,0.16666666666666666,0.16326530612244897,0.16326530612244897,0.1598639455782313,0.1598639455782313,0.1598639455782313,0.1598639455782313,0.1598639455782313,0.1598639455782313,0.1598639455782313,0.1598639455782313,0.1598639455782313,0.1598639455782313,0.1598639455782313,0.1598639455782313,0.1598639455782313,0.1598639455782313,0.1598639455782313,0.1598639455782313,0.1598639455782313,0.1598639455782313,0.1598639455782313,0.1598639455782313,0.1598639455782313,0.1598639455782313,0.1598639455782313,0.1598639455782313,0.1598639455782313,0.1598639455782313,0.1598639455782313,0.1598639455782313,0.1598639455782313,0.1598639455782313,0.1598639455782313,0.1598639455782313,0.1598639455782313,0.1598639455782313,0.1598639455782313,0.1598639455782313,0.1598639455782313,0.1598639455782313,0.1598639455782313,0.1598639455782313,0.1598639455782313,0.1598639455782313,0.1598639455782313,0.1598639455782313,0.1598639455782313,0.1598639455782313,0.1598639455782313,0.1598639455782313,0.1598639455782313,0.1598639455782313,0.1598639455782313,0.1598639455782313,0.1598639455782313,0.1598639455782313,0.1598639455782313,0.1598639455782313,0.1598639455782313,0.1598639455782313,0.1598639455782313,0.1598639455782313,0.1598639455782313,0.1598639455782313,0.1598639455782313,0.1598639455782313,0.1598639455782313,0.1598639455782313,0.1598639455782313,0.1598639455782313,0.1598639455782313,0.1598639455782313,0.1598639455782313,0.1598639455782313,0.1598639455782313,0.1598639455782313,0.1598639455782313,0.1598639455782313,0.1598639455782313,0.1598639455782313,0.1598639455782313,0.1598639455782313,0.1598639455782313,0.1598639455782313,0.1598639455782313,0.1598639455782313,0.1598639455782313,0.1598639455782313,0.1598639455782313,0.1598639455782313,0.1598639455782313,0.1598639455782313,0.1598639455782313,0.1598639455782313,0.1598639455782313,0.1598639455782313,0.1598639455782313,0.1598639455782313,0.1598639455782313,0.1598639455782313,0.1598639455782313,0.1598639455782313,0.1598639455782313,0.1598639455782313,0.1598639455782313,0.1598639455782313,0.1598639455782313,0.1598639455782313,0.1598639455782313,0.1598639455782313,0.1598639455782313,0.1598639455782313,0.1598639455782313,0.1598639455782313,0.1598639455782313,0.1598639455782313,0.1598639455782313,0.1598639455782313,0.1598639455782313,0.1598639455782313,0.1598639455782313,0.1598639455782313,0.1598639455782313,0.1598639455782313,0.1598639455782313,0.1598639455782313,0.1598639455782313,0.1598639455782313,0.1598639455782313,0.1598639455782313,0.1598639455782313,0.1598639455782313,0.1598639455782313,0.1598639455782313,0.1598639455782313,0.1598639455782313,0.1598639455782313,0.1598639455782313,0.1598639455782313,0.1598639455782313,0.1598639455782313],"y":[-3.5714285714285716,-3.5714285714285716,-3.5714285714285716,-3.5714285714285716,-3.5714285714285716,-3.5714285714285716,-3.5714285714285716,-3.5714285714285716,-3.5714285714285716,-3.5714285714285716,-3.5714285714285716,-3.5714285714285716,-3.5714285714285716,-3.5714285714285716,-3.5714285714285716,-3.5714285714285716,-3.5714285714285716,-3.5714285714285716,-3.5714285714285716,-3.5714285714285716,-3.5714285714285716,-3.5714285714285716,-3.5714285714285716,-3.5714285714285716,-3.5714285714285716,-3.5714285714285716,-3.5714285714285716,-3.5714285714285716,-3.5714285714285716,-3.5714285714285716,-3.5714285714285716,-3.5714285714285716,-3.5714285714285716,-3.5714285714285716,-3.5714285714285716,-3.5714285714285716,-3.5714285714285716,-3.5714285714285716,-3.5714285714285716,-3.5714285714285716,-3.5714285714285716,-3.5714285714285716,-3.5714285714285716,-3.5714285714285716,-3.5714285714285716,-3.5714285714285716,-3.5714285714285716,-3.5714285714285716,-3.5714285714285716,-3.5714285714285716,-3.5714285714285716,-3.5714285714285716,-3.5714285714285716,-3.5714285714285716,-3.5714285714285716,-3.5714285714285716,-3.5714285714285716,-3.5714285714285716,-3.5714285714285716,-3.5714285714285716,-3.5714285714285716,-3.5714285714285716,-3.5714285714285716,-3.5714285714285716,-3.5714285714285716,-3.5714285714285716,-3.5714285714285716,-3.5714285714285716,-3.5714285714285716,-3.5714285714285716,-3.5714285714285716,-3.5714285714285716,-3.5714285714285716,-3.5714285714285716,-3.5714285714285716,-3.5714285714285716,-3.5714285714285716,-3.5714285714285716,-3.5714285714285716,-3.5714285714285716,-3.5714285714285716,-3.5714285714285716,-3.5714285714285716,-3.5714285714285716,-3.5714285714285716,-3.5714285714285716,-3.5714285714285716,-3.5714285714285716,-3.5714285714285716,-3.5714285714285716,-3.5714285714285716,-3.5714285714285716,-3.5714285714285716,-3.5714285714285716,-3.5714285714285716,-3.5714285714285716,-3.5714285714285716,-3.5714285714285716,-3.5714285714285716,-3.5714285714285716,-3.5714285714285716,-3.5714285714285716,-3.5714285714285716,-3.5714285714285716,-3.5714285714285716,-3.5714285714285716,-3.5714285714285716,-3.5714285714285716,-3.5714285714285716,-3.5714285714285716,-3.5714285714285716,-3.5714285714285716,-3.5714285714285716,-3.5714285714285716,-3.5714285714285716,-3.5714285714285716,-3.5714285714285716,-3.5714285714285716,-3.5714285714285716,-3.5714285714285716,-3.5714285714285716,-3.5714285714285716,-3.5714285714285716,-3.5714285714285716,-3.5714285714285716,-3.5714285714285716,-3.5714285714285716,-3.5714285714285716,-3.5714285714285716,-3.5714285714285716,-3.5714285714285716,-3.5714285714285716,-3.5714285714285716,-3.5714285714285716,-3.5714285714285716,-3.5714285714285716,-3.5714285714285716,-3.5714285714285716,-3.5714285714285716,-3.5714285714285716,-3.5714285714285716,-3.5714285714285716,-3.5714285714285716,-3.5714285714285716,-3.5714285714285716,-3.5714285714285716,-3.5714285714285716,-3.5714285714285716,-3.5714285714285716,-3.5714285714285716,-3.5714285714285716,-3.5714285714285716,-3.5714285714285716,-3.5714285714285716,-3.5714285714285716,-3.5714285714285716,-3.5714285714285716,-3.5714285714285716,-3.5714285714285716,-3.5714285714285716,-3.5714285714285716,-3.5714285714285716,-3.5714285714285716,-3.5714285714285716,-3.5714285714285716,-3.5714285714285716,-3.5714285714285716,-3.5714285714285716,-3.5714285714285716,-3.5714285714285716,0.6238095238095238,0.6238095238095238,0.6142857142857143,0.6142857142857143,0.6142857142857143,0.6142857142857143,0.6142857142857143,0.6142857142857143,0.6142857142857143,0.6142857142857143,0.6142857142857143,0.6142857142857143,0.6142857142857143,0.6333333333333333,0.6428571428571429,0.6523809523809524,0.7,0.719047619047619,0.7380952380952381,0.7571428571428571,0.8428571428571429,0.8714285714285714,0.8904761904761904,0.919047619047619,0.9285714285714286,0.9571428571428572,0.9666666666666667,0.9666666666666667,0.9666666666666667,0.9666666666666667,0.9666666666666667,0.9666666666666667,0.9666666666666667,0.9666666666666667,0.9666666666666667,0.9666666666666667,0.9666666666666667,0.9666666666666667,0.9666666666666667,0.9666666666666667,0.9666666666666667,0.9666666666666667,0.9666666666666667,0.9666666666666667,0.9666666666666667,0.9666666666666667,0.9666666666666667,0.9666666666666667,0.9666666666666667,0.9761904761904762,0.9857142857142858,1.0238095238095237,1.0523809523809524,1.0714285714285714,1.0809523809523809,1.119047619047619,1.119047619047619,1.1285714285714286,1.138095238095238,1.138095238095238,1.138095238095238,1.138095238095238,1.138095238095238,1.1476190476190475,1.1476190476190475,1.1476190476190475,1.1476190476190475,1.1476190476190475,1.1476190476190475,1.1476190476190475,1.1476190476190475,1.1476190476190475,1.1476190476190475,1.1476190476190475,1.1476190476190475,1.1476190476190475,1.1476190476190475,1.1476190476190475,1.1476190476190475,1.1476190476190475,1.1476190476190475,1.1476190476190475,1.1476190476190475,1.1476190476190475,1.1476190476190475,1.1476190476190475,1.1476190476190475,1.1476190476190475,1.1476190476190475,1.1476190476190475,1.1476190476190475,1.1476190476190475,1.1476190476190475,1.1476190476190475,1.1476190476190475,1.1476190476190475,1.1476190476190475,1.1476190476190475,1.1476190476190475,1.1476190476190475,1.1476190476190475,1.1476190476190475,1.1476190476190475,1.1476190476190475,1.1476190476190475,1.1476190476190475,1.1285714285714286,1.1095238095238096,1.1095238095238096,1.1095238095238096,1.1095238095238096,1.1,1.0904761904761904,1.0904761904761904,1.0904761904761904,1.0904761904761904,1.0904761904761904,1.0904761904761904,1.0904761904761904,1.0904761904761904,1.0904761904761904,1.0904761904761904,1.0809523809523809,1.0714285714285714,1.0714285714285714,1.0714285714285714,1.0714285714285714,1.1,1.119047619047619,1.1476190476190475,1.1857142857142857,1.1857142857142857,1.1952380952380952,1.1952380952380952,1.1952380952380952,1.2047619047619047,1.2047619047619047,1.2047619047619047,1.2047619047619047,1.2047619047619047,1.2047619047619047,1.2047619047619047,1.2047619047619047,1.2047619047619047,1.2047619047619047,1.1761904761904762,1.1571428571428573,1.1476190476190475,1.1476190476190475,1.138095238095238,1.1095238095238096,1.1095238095238096,1.1,1.0904761904761904,1.0809523809523809,1.0714285714285714,1.061904761904762,1.061904761904762,1.0523809523809524,1.0523809523809524,1.0523809523809524,1.0523809523809524,1.0523809523809524,1.0523809523809524,1.0523809523809524,1.042857142857143,1.042857142857143,1.042857142857143,1.042857142857143,1.042857142857143,1.042857142857143,1.042857142857143,1.042857142857143,1.042857142857143,1.042857142857143,1.042857142857143,1.042857142857143,1.042857142857143,1.042857142857143,1.042857142857143,1.042857142857143,1.042857142857143,1.042857142857143,1.042857142857143,1.042857142857143,1.042857142857143,1.042857142857143,1.042857142857143,1.042857142857143,1.042857142857143,1.042857142857143,1.042857142857143,1.042857142857143,1.042857142857143,1.042857142857143,1.042857142857143,1.042857142857143,1.042857142857143,1.042857142857143,1.0333333333333334,0.9857142857142858,0.919047619047619,0.8523809523809524,0.7761904761904762,0.49047619047619045,0.40476190476190477,0.32857142857142857,0.28095238095238095,0.23333333333333334,0.16666666666666666,0.1380952380952381,0.10952380952380952,0.08095238095238096,0.04285714285714286,0.023809523809523808,-0.004761904761904762,-0.05238095238095238,-0.07142857142857142,-0.07142857142857142,-0.07142857142857142,-0.07142857142857142,-0.07142857142857142,-0.07142857142857142,-0.07142857142857142,-0.07142857142857142,-0.07142857142857142,-0.07142857142857142,-0.07142857142857142,-0.06190476190476191,-0.06190476190476191,-0.06190476190476191,-0.05238095238095238,-0.04285714285714286,-0.04285714285714286,-0.04285714285714286,-0.04285714285714286,-0.04285714285714286,-0.04285714285714286,-0.04285714285714286,-0.04285714285714286,-0.04285714285714286,-0.04285714285714286,-0.04285714285714286,-0.04285714285714286,-0.03333333333333333,-0.023809523809523808,-0.023809523809523808,-0.014285714285714285,-0.014285714285714285,-0.014285714285714285,-0.014285714285714285,-0.014285714285714285,-0.014285714285714285,-0.014285714285714285,-0.014285714285714285,-0.014285714285714285,-0.014285714285714285,-0.014285714285714285,-0.014285714285714285,0.023809523809523808,0.04285714285714286,0.05238095238095238,0.07142857142857142,0.07142857142857142,0.07142857142857142,0.07142857142857142,0.08095238095238096,0.09047619047619047,0.14761904761904762,0.1761904761904762,0.21428571428571427,0.28095238095238095,0.43333333333333335,0.5,0.5476190476190477,0.5857142857142857,0.6047619047619047,0.6047619047619047,0.6047619047619047,0.6047619047619047,0.6047619047619047,0.6047619047619047,0.6047619047619047,0.6047619047619047,0.6047619047619047,0.6047619047619047,0.6047619047619047,0.5952380952380952,0.5190476190476191,0.48095238095238096,0.46190476190476193,0.4523809523809524,0.4523809523809524,0.4523809523809524,0.4523809523809524,0.4523809523809524,0.4523809523809524,0.4523809523809524,0.4523809523809524,0.43333333333333335,0.43333333333333335,0.43333333333333335,0.43333333333333335,0.3761904761904762,0.36666666666666664,0.3476190476190476,0.32857142857142857,0.30952380952380953,0.24285714285714285,0.1761904761904762,0.11904761904761904,0.09047619047619047,0.08095238095238096,0.08095238095238096,0.08095238095238096,0.08095238095238096,0.08095238095238096,0.08095238095238096,0.08095238095238096,0.08095238095238096,0.08095238095238096,0.08095238095238096,0.08095238095238096,0.08095238095238096,0.08095238095238096,0.08095238095238096,0.08095238095238096,0.08095238095238096,0.08095238095238096,0.08095238095238096,0.08095238095238096,0.08095238095238096,0.08095238095238096,0.08095238095238096,0.08095238095238096,0.08095238095238096,0.08095238095238096,0.08095238095238096,0.08095238095238096,0.08095238095238096,0.08095238095238096,0.08095238095238096,0.08095238095238096,0.08095238095238096,0.08095238095238096,0.08095238095238096,0.08095238095238096,0.08095238095238096,0.08095238095238096,0.08095238095238096,0.08095238095238096,0.08095238095238096,0.08095238095238096,0.08095238095238096,0.08095238095238096,0.08095238095238096,0.08095238095238096,0.08095238095238096,0.08095238095238096,0.08095238095238096,0.08095238095238096,0.08095238095238096,0.08095238095238096,0.08095238095238096,0.08095238095238096,0.08095238095238096,0.08095238095238096,0.08095238095238096,0.08095238095238096,0.1,0.15714285714285714,0.21428571428571427,0.28095238095238095,0.319047619047619,0.43333333333333335,0.46190476190476193,0.48095238095238096,0.5,0.5285714285714286,0.5857142857142857,0.6333333333333333,0.6523809523809524,0.6714285714285714,0.680952380952381,0.7,0.7095238095238096,0.7095238095238096,0.719047619047619,0.719047619047619,0.719047619047619,0.7285714285714285,0.7380952380952381,0.7380952380952381,0.7666666666666667,0.7952380952380952,0.8238095238095238,0.8428571428571429,0.8523809523809524,0.8809523809523809,0.8809523809523809,0.9,0.9095238095238095,0.919047619047619,0.919047619047619,0.919047619047619,0.919047619047619,0.919047619047619,0.919047619047619,0.919047619047619,0.919047619047619,0.919047619047619,0.919047619047619,0.919047619047619,0.919047619047619,0.919047619047619,0.919047619047619,0.919047619047619,0.919047619047619,0.919047619047619,0.919047619047619,0.919047619047619,0.919047619047619,0.919047619047619,0.919047619047619,0.919047619047619,0.919047619047619,0.919047619047619,0.919047619047619,0.919047619047619,0.919047619047619,0.919047619047619,0.919047619047619,0.9285714285714286,0.9476190476190476,0.9571428571428572,0.9857142857142858,1.0047619047619047,1.0142857142857142,1.0238095238095237,1.042857142857143,1.0523809523809524,1.0523809523809524,1.0523809523809524,1.061904761904762,1.061904761904762,1.061904761904762,1.061904761904762,1.061904761904762,1.0714285714285714,1.0714285714285714,1.0714285714285714,1.0714285714285714,1.0809523809523809,1.0809523809523809,1.0809523809523809,1.0809523809523809,1.0809523809523809,1.0809523809523809,1.0809523809523809,1.0809523809523809,1.0809523809523809,1.0809523809523809,1.0809523809523809,1.0809523809523809,1.0809523809523809,1.0809523809523809,1.0809523809523809,1.0809523809523809,1.0809523809523809,1.0809523809523809,1.061904761904762,1.061904761904762,1.061904761904762,1.061904761904762,1.061904761904762,1.061904761904762,1.061904761904762,1.061904761904762,1.061904761904762,1.061904761904762,1.061904761904762,1.061904761904762,1.061904761904762,1.061904761904762,1.061904761904762,1.061904761904762,1.061904761904762,1.061904761904762,1.061904761904762,1.061904761904762,1.0714285714285714,1.0809523809523809,1.0809523809523809,1.0809523809523809,1.0809523809523809,1.0809523809523809,1.0809523809523809,1.0809523809523809,1.0809523809523809,1.0809523809523809,1.0523809523809524,1.042857142857143,1.0238095238095237,1.0047619047619047,0.9952380952380953,0.9857142857142858,0.9666666666666667,0.9571428571428572,0.9476190476190476,0.9380952380952381,0.919047619047619,0.9095238095238095,0.9095238095238095,0.9,0.8809523809523809,0.8714285714285714,0.861904761904762,0.8523809523809524,0.8428571428571429,0.8428571428571429,0.8238095238095238,0.8238095238095238,0.8238095238095238,0.8238095238095238,0.8238095238095238,0.8142857142857143,0.8142857142857143,0.8047619047619048,0.8047619047619048,0.7857142857142857,0.7761904761904762,0.7666666666666667,0.7571428571428571,0.7285714285714285,0.680952380952381,0.6619047619047619,0.6428571428571429,0.6333333333333333,0.6142857142857143,0.6142857142857143,0.6047619047619047,0.6047619047619047,0.6047619047619047,0.6047619047619047,0.6047619047619047,0.6047619047619047,0.5952380952380952,0.5952380952380952,0.5952380952380952,0.5952380952380952,0.5857142857142857,0.5761904761904761,0.5761904761904761,0.5571428571428572,0.5571428571428572,0.5476190476190477,0.5380952380952381,0.5190476190476191,0.5,0.5,0.5,0.5,0.5,0.5,0.5,0.5,0.5,0.5,0.5,0.5,0.5,0.5,0.5,0.5,0.5,0.5,0.5,0.5,0.49047619047619045,0.49047619047619045,0.49047619047619045,0.49047619047619045,0.49047619047619045,0.49047619047619045,0.49047619047619045,0.49047619047619045,0.49047619047619045,0.49047619047619045,0.49047619047619045,0.49047619047619045,0.49047619047619045,0.49047619047619045,0.49047619047619045,0.49047619047619045,0.49047619047619045,0.49047619047619045,0.49047619047619045,0.49047619047619045,0.49047619047619045,0.49047619047619045,0.49047619047619045,0.49047619047619045,0.49047619047619045,0.49047619047619045,0.49047619047619045,0.49047619047619045,0.49047619047619045,0.49047619047619045,0.49047619047619045,0.49047619047619045,0.49047619047619045,0.49047619047619045,0.49047619047619045,0.49047619047619045,0.49047619047619045,0.49047619047619045,0.49047619047619045,0.49047619047619045,0.49047619047619045,0.49047619047619045,0.49047619047619045,0.49047619047619045,0.49047619047619045,0.49047619047619045,0.49047619047619045,0.49047619047619045,0.49047619047619045,0.49047619047619045,0.48095238095238096,0.48095238095238096,0.48095238095238096,0.48095238095238096,0.48095238095238096,0.48095238095238096,0.48095238095238096,0.48095238095238096,0.48095238095238096,0.48095238095238096,0.48095238095238096,0.48095238095238096,0.48095238095238096,0.48095238095238096,0.48095238095238096,0.48095238095238096,0.48095238095238096,0.48095238095238096,0.48095238095238096,0.48095238095238096,0.48095238095238096,0.48095238095238096,0.48095238095238096,0.48095238095238096,0.48095238095238096,0.48095238095238096,0.48095238095238096,0.48095238095238096,0.48095238095238096,0.48095238095238096,0.48095238095238096,0.48095238095238096,0.48095238095238096,0.48095238095238096,0.48095238095238096,0.4714285714285714,0.46190476190476193,0.46190476190476193,0.46190476190476193,0.46190476190476193,0.46190476190476193,0.46190476190476193,0.4523809523809524,0.4523809523809524,0.4523809523809524,0.4523809523809524,0.4523809523809524,0.4523809523809524,0.4523809523809524,0.4523809523809524,0.4523809523809524,0.4523809523809524,0.4523809523809524,0.4523809523809524,0.4523809523809524,0.4523809523809524,0.4523809523809524,0.4523809523809524,0.44285714285714284,0.43333333333333335,0.4238095238095238,0.40476190476190477,0.38571428571428573,0.3761904761904762,0.35714285714285715,0.3380952380952381,0.28095238095238095,0.2714285714285714,0.24285714285714285,0.24285714285714285,0.22380952380952382,0.20476190476190476,0.19523809523809524,0.18571428571428572,0.1761904761904762,0.1761904761904762,0.15714285714285714,0.14761904761904762,0.1380952380952381,0.1380952380952381,0.12857142857142856,0.12857142857142856,0.12857142857142856,0.11904761904761904,0.11904761904761904,0.10952380952380952,0.10952380952380952,0.10952380952380952,0.10952380952380952,0.10952380952380952,0.10952380952380952,0.10952380952380952,0.10952380952380952,0.10952380952380952,0.10952380952380952,0.1,0.1,0.1,0.1,0.09047619047619047,0.09047619047619047,0.08095238095238096,0.08095238095238096,0.08095238095238096,0.08095238095238096,0.08095238095238096,0.08095238095238096,0.08095238095238096,0.08095238095238096,0.08095238095238096,0.08095238095238096,0.08095238095238096,0.08095238095238096,0.08095238095238096,0.08095238095238096,0.08095238095238096,0.08095238095238096,0.08095238095238096,0.08095238095238096,0.08095238095238096,0.08095238095238096,0.08095238095238096,0.08095238095238096,0.08095238095238096,0.08095238095238096,0.08095238095238096,0.08095238095238096,0.08095238095238096,0.08095238095238096,0.08095238095238096,0.08095238095238096,0.08095238095238096,0.08095238095238096,0.08095238095238096,0.08095238095238096,0.08095238095238096,0.08095238095238096,0.08095238095238096,0.08095238095238096,0.08095238095238096,0.08095238095238096,0.08095238095238096,0.08095238095238096,0.08095238095238096,0.08095238095238096,0.08095238095238096,0.08095238095238096,0.08095238095238096,0.08095238095238096,0.08095238095238096,0.08095238095238096,0.08095238095238096,0.08095238095238096,0.08095238095238096,0.08095238095238096,0.08095238095238096,0.08095238095238096,0.08095238095238096,0.08095238095238096,0.08095238095238096,0.08095238095238096,0.08095238095238096,0.08095238095238096,0.08095238095238096,0.08095238095238096,0.08095238095238096,0.08095238095238096,0.08095238095238096,0.08095238095238096,0.09047619047619047,0.09047619047619047,0.09047619047619047,0.09047619047619047,0.09047619047619047,0.09047619047619047,0.09047619047619047,0.09047619047619047,0.09047619047619047,0.09047619047619047,0.09047619047619047,0.09047619047619047,0.09047619047619047,0.1,0.1,0.1,0.1,0.1,0.1,0.1,0.10952380952380952,0.10952380952380952,0.10952380952380952,0.10952380952380952,0.10952380952380952,0.10952380952380952,0.10952380952380952,0.10952380952380952,0.10952380952380952,0.10952380952380952,0.10952380952380952,0.11904761904761904,0.11904761904761904,0.12857142857142856,0.12857142857142856,0.14761904761904762,0.15714285714285714,0.18571428571428572,0.22380952380952382,0.24285714285714285,0.2714285714285714,0.35714285714285715,0.38571428571428573,0.4142857142857143,0.44285714285714284,0.5,0.5095238095238095,0.5190476190476191,0.5285714285714286,0.5285714285714286,0.5285714285714286,0.5285714285714286,0.5285714285714286,0.5190476190476191,0.5,0.5,0.48095238095238096,0.4714285714285714,0.46190476190476193,0.46190476190476193,0.46190476190476193,0.46190476190476193,0.4142857142857143,0.3952380952380952,0.35714285714285715,0.32857142857142857,0.2904761904761905,0.2619047619047619,0.22380952380952382,0.20476190476190476,0.18571428571428572,0.14761904761904762,0.1380952380952381,0.11904761904761904,0.10952380952380952,0.09047619047619047,0.08095238095238096,0.08095238095238096,0.07142857142857142,0.06190476190476191,0.04285714285714286,0.04285714285714286,0.023809523809523808,0.014285714285714285,0.014285714285714285,0.014285714285714285,0.014285714285714285,0.014285714285714285,0.014285714285714285,0.014285714285714285,0.014285714285714285,0.014285714285714285,0.014285714285714285,0.014285714285714285,0.014285714285714285,0.014285714285714285,0.014285714285714285,0.014285714285714285,0.014285714285714285,0.014285714285714285,0.014285714285714285,0.014285714285714285,0.014285714285714285,0.014285714285714285,0.014285714285714285,0.014285714285714285,0.014285714285714285,0.014285714285714285,0.014285714285714285,0.014285714285714285,0.014285714285714285,0.014285714285714285,0.014285714285714285,0.014285714285714285,0.014285714285714285,0.014285714285714285,0.014285714285714285,0.014285714285714285,0.014285714285714285,0.014285714285714285,0.014285714285714285,0.014285714285714285,0.014285714285714285,0.014285714285714285,0.014285714285714285,0.014285714285714285,0.014285714285714285,0.014285714285714285,0.014285714285714285,0.014285714285714285,0.023809523809523808,0.07142857142857142,0.1,0.11904761904761904,0.15714285714285714,0.19523809523809524,0.2904761904761905,0.3476190476190476,0.38571428571428573,0.4238095238095238,0.5476190476190477,0.6047619047619047,0.6714285714285714,0.8047619047619048,0.861904761904762,0.9095238095238095,0.9285714285714286,0.9380952380952381,0.9476190476190476,0.9476190476190476,0.9476190476190476,0.9571428571428572,0.9571428571428572,0.9761904761904762,0.9952380952380953,0.9952380952380953,1.0047619047619047,1.0047619047619047,1.0142857142857142,1.0333333333333334,1.0523809523809524,1.0714285714285714,1.0904761904761904,1.119047619047619,1.1285714285714286,1.1285714285714286,1.138095238095238,1.138095238095238,1.1476190476190475,1.1476190476190475,1.1476190476190475,1.1476190476190475,1.1476190476190475,1.1476190476190475,1.1476190476190475,1.1476190476190475,1.1476190476190475,1.1476190476190475,1.1476190476190475,1.1476190476190475,1.1476190476190475,1.1476190476190475,1.1476190476190475,1.1476190476190475,1.1476190476190475,1.1476190476190475,1.1476190476190475,1.1476190476190475,1.1476190476190475,1.1476190476190475,1.1476190476190475,1.1476190476190475,1.1476190476190475,1.1285714285714286,1.1095238095238096,1.0714285714285714,1.042857142857143,1.0047619047619047,0.9571428571428572,0.9380952380952381,0.919047619047619,0.9,0.8809523809523809,0.8333333333333334,0.8142857142857143,0.7952380952380952,0.7761904761904762,0.7571428571428571,0.7571428571428571,0.7571428571428571,0.7571428571428571,0.7571428571428571,0.7571428571428571,0.7571428571428571,0.7571428571428571,0.7571428571428571,0.7571428571428571,0.7571428571428571,0.7571428571428571,0.7571428571428571,0.7380952380952381,0.719047619047619,0.7095238095238096,0.7,0.7,0.6904761904761905,0.6904761904761905,0.6904761904761905,0.6904761904761905,0.6904761904761905,0.680952380952381,0.680952380952381,0.6714285714285714,0.6714285714285714,0.6714285714285714,0.6714285714285714,0.6714285714285714,0.6714285714285714,0.6714285714285714,0.6714285714285714,0.6714285714285714,0.6714285714285714,0.6714285714285714,0.6714285714285714,0.6714285714285714,0.6714285714285714,0.6714285714285714,0.6714285714285714,0.6714285714285714,0.6714285714285714,0.6714285714285714,0.6714285714285714,0.6714285714285714,0.6619047619047619,0.6619047619047619,0.6619047619047619,0.6523809523809524,0.6428571428571429,0.6238095238095238,0.6047619047619047,0.5380952380952381,0.5190476190476191,0.5095238095238095,0.5,0.5,0.5,0.49047619047619045,0.49047619047619045,0.49047619047619045,0.49047619047619045,0.49047619047619045,0.49047619047619045,0.49047619047619045,0.48095238095238096,0.46190476190476193,0.4523809523809524,0.44285714285714284,0.40476190476190477,0.3952380952380952,0.36666666666666664,0.35714285714285715,0.3380952380952381,0.319047619047619,0.30952380952380953,0.3,0.2904761904761905,0.28095238095238095,0.2714285714285714,0.2714285714285714,0.2714285714285714,0.2714285714285714,0.2714285714285714,0.2714285714285714,0.2714285714285714,0.2714285714285714,0.2714285714285714,0.2714285714285714,0.2714285714285714,0.2714285714285714,0.2714285714285714,0.2714285714285714,0.2714285714285714,0.2714285714285714,0.2714285714285714,0.2714285714285714,0.2714285714285714,0.2714285714285714,0.2714285714285714,0.2714285714285714,0.2714285714285714,0.2714285714285714,0.2714285714285714,0.2714285714285714,0.2714285714285714,0.2714285714285714,0.2714285714285714,0.2714285714285714,0.2714285714285714,0.2714285714285714,0.2714285714285714,0.2714285714285714,0.2714285714285714,0.2714285714285714,0.2714285714285714,0.2714285714285714,0.2714285714285714,0.2714285714285714,0.2714285714285714,0.2714285714285714,0.2714285714285714,0.2714285714285714,0.2714285714285714,0.2714285714285714,0.2714285714285714,0.2714285714285714,0.2714285714285714,0.2714285714285714,0.2714285714285714,0.2714285714285714,0.2714285714285714,0.2714285714285714,0.2714285714285714,0.2714285714285714,0.2714285714285714,0.2714285714285714,0.2714285714285714,0.2714285714285714,0.2714285714285714,0.2714285714285714,0.2714285714285714,0.2714285714285714,0.2714285714285714,0.2714285714285714,0.2714285714285714,0.2714285714285714,0.2714285714285714,0.2714285714285714,0.2714285714285714,0.2714285714285714,0.2714285714285714,0.2714285714285714,0.2714285714285714,0.2714285714285714,0.2714285714285714,0.2714285714285714,0.2714285714285714,0.2714285714285714,0.2714285714285714,0.2714285714285714,0.2714285714285714,0.2714285714285714,0.2714285714285714,0.2714285714285714,0.2714285714285714,0.2714285714285714,0.2714285714285714,0.2714285714285714,0.2714285714285714,0.2714285714285714,0.2714285714285714,0.2714285714285714,0.2714285714285714,0.2714285714285714,0.2714285714285714,0.2714285714285714,0.2714285714285714,0.2714285714285714,0.2714285714285714,0.2714285714285714,0.2714285714285714,0.2714285714285714,0.2714285714285714,0.2714285714285714,0.2714285714285714,0.2714285714285714,0.2714285714285714,0.2714285714285714,0.2714285714285714,0.2714285714285714,0.2714285714285714,0.2714285714285714,0.2714285714285714,0.2714285714285714,0.2714285714285714,0.2714285714285714,0.2714285714285714,0.2714285714285714,0.2714285714285714,0.2714285714285714,0.2714285714285714,0.2714285714285714,0.2714285714285714,0.2714285714285714,0.2714285714285714,0.2714285714285714,0.2714285714285714,0.2714285714285714,0.2714285714285714,0.2714285714285714,0.2714285714285714,0.2714285714285714,0.2714285714285714,0.2714285714285714,0.2714285714285714,0.2714285714285714,0.2714285714285714,0.2714285714285714,0.2714285714285714,0.2714285714285714,0.2714285714285714,0.2714285714285714,0.2714285714285714,0.2714285714285714,0.2714285714285714,0.2714285714285714,0.2714285714285714,0.2714285714285714,0.2714285714285714,0.2714285714285714,0.2714285714285714,0.2714285714285714,0.2714285714285714,0.2714285714285714,0.2714285714285714,0.2714285714285714,0.2714285714285714,0.2714285714285714,0.2714285714285714,0.2714285714285714,0.2714285714285714,0.2714285714285714,0.2714285714285714,0.2714285714285714,0.2714285714285714,0.2714285714285714,0.2714285714285714,0.2714285714285714,0.2714285714285714,0.2714285714285714,0.2714285714285714,0.2714285714285714,0.2714285714285714,0.2714285714285714,0.2714285714285714,0.2714285714285714,0.2714285714285714,0.2714285714285714,0.2714285714285714,0.2714285714285714,0.2714285714285714,0.2714285714285714,0.2714285714285714,0.2714285714285714,0.2714285714285714,0.2714285714285714,0.2714285714285714,0.2714285714285714,0.2714285714285714,0.2714285714285714,0.2714285714285714,0.2714285714285714,0.2714285714285714,0.2714285714285714,0.2714285714285714,0.28095238095238095,0.28095238095238095,0.28095238095238095,0.28095238095238095,0.28095238095238095,0.28095238095238095,0.28095238095238095,0.28095238095238095,0.28095238095238095,0.28095238095238095,0.2904761904761905,0.2904761904761905,0.2904761904761905,0.2904761904761905,0.2904761904761905,0.2904761904761905,0.2904761904761905,0.2904761904761905,0.2904761904761905,0.2904761904761905,0.2904761904761905,0.2904761904761905,0.2904761904761905,0.2904761904761905,0.2904761904761905,0.2904761904761905,0.2904761904761905,0.2904761904761905,0.2904761904761905,0.2904761904761905,0.2904761904761905,0.2904761904761905,0.2904761904761905,0.2904761904761905,0.2904761904761905,0.2904761904761905,0.2904761904761905,0.2904761904761905,0.2904761904761905,0.2904761904761905,0.2904761904761905,0.2904761904761905,0.3,0.3,0.30952380952380953,0.32857142857142857,0.32857142857142857,0.3380952380952381,0.3476190476190476,0.35714285714285715,0.3952380952380952,0.4238095238095238,0.4523809523809524,0.48095238095238096,0.5,0.5285714285714286,0.5380952380952381,0.5571428571428572,0.5571428571428572,0.5666666666666667,0.5857142857142857,0.6142857142857143,0.6142857142857143,0.6142857142857143,0.6142857142857143,0.6142857142857143,0.6047619047619047,0.5857142857142857,0.5571428571428572,0.5380952380952381,0.5190476190476191,0.49047619047619045,0.4714285714285714,0.4523809523809524,0.43333333333333335,0.4238095238095238,0.3952380952380952,0.3761904761904762,0.36666666666666664,0.3476190476190476,0.3,0.2619047619047619,0.2523809523809524,0.2523809523809524,0.2523809523809524,0.2523809523809524,0.24285714285714285,0.24285714285714285,0.23333333333333334,0.23333333333333334,0.22380952380952382,0.22380952380952382,0.21428571428571427,0.20476190476190476,0.20476190476190476,0.20476190476190476,0.19523809523809524,0.19523809523809524,0.19523809523809524,0.19523809523809524,0.19523809523809524,0.19523809523809524,0.19523809523809524,0.19523809523809524,0.19523809523809524,0.19523809523809524,0.19523809523809524,0.19523809523809524,0.19523809523809524,0.19523809523809524,0.19523809523809524,0.19523809523809524,0.19523809523809524,0.19523809523809524,0.19523809523809524,0.19523809523809524,0.19523809523809524,0.19523809523809524,0.19523809523809524,0.19523809523809524,0.19523809523809524,0.19523809523809524,0.19523809523809524,0.20476190476190476,0.20476190476190476,0.20476190476190476,0.20476190476190476,0.21428571428571427,0.21428571428571427,0.21428571428571427,0.21428571428571427,0.21428571428571427,0.21428571428571427,0.21428571428571427,0.22380952380952382,0.22380952380952382,0.22380952380952382,0.22380952380952382,0.22380952380952382,0.22380952380952382,0.22380952380952382,0.22380952380952382,0.22380952380952382,0.24285714285714285,0.2523809523809524,0.2619047619047619,0.28095238095238095,0.28095238095238095,0.2904761904761905,0.2904761904761905,0.2904761904761905,0.2904761904761905,0.2904761904761905,0.3,0.3,0.30952380952380953,0.30952380952380953,0.30952380952380953,0.30952380952380953,0.30952380952380953,0.30952380952380953,0.30952380952380953,0.30952380952380953,0.319047619047619,0.319047619047619,0.319047619047619,0.319047619047619,0.319047619047619,0.319047619047619,0.32857142857142857,0.3380952380952381,0.3476190476190476,0.36666666666666664,0.38571428571428573,0.38571428571428573,0.4142857142857143,0.43333333333333335,0.4523809523809524,0.48095238095238096,0.5095238095238095,0.5190476190476191,0.5285714285714286,0.5380952380952381,0.5476190476190477,0.5571428571428572,0.5571428571428572,0.5666666666666667,0.5761904761904761,0.5761904761904761,0.5761904761904761,0.5952380952380952,0.5952380952380952,0.6142857142857143,0.6142857142857143,0.6238095238095238,0.6333333333333333,0.6333333333333333,0.6428571428571429,0.6523809523809524,0.6523809523809524,0.6523809523809524,0.6619047619047619,0.6619047619047619,0.6714285714285714,0.6714285714285714,0.6714285714285714,0.6714285714285714,0.680952380952381,0.6904761904761905,0.6904761904761905,0.7,0.7,0.7095238095238096,0.7095238095238096,0.7095238095238096,0.7095238095238096,0.7095238095238096,0.7095238095238096,0.7095238095238096,0.7095238095238096,0.7095238095238096,0.7095238095238096,0.7095238095238096,0.7095238095238096,0.7095238095238096,0.7095238095238096,0.7095238095238096,0.7095238095238096,0.7095238095238096,0.7095238095238096,0.7095238095238096,0.7095238095238096,0.7095238095238096,0.6904761904761905,0.6714285714285714,0.6523809523809524,0.6333333333333333,0.6238095238095238,0.5952380952380952,0.5761904761904761,0.5666666666666667,0.5571428571428572,0.5571428571428572,0.5285714285714286,0.5190476190476191,0.5095238095238095,0.48095238095238096,0.44285714285714284,0.38571428571428573,0.35714285714285715,0.32857142857142857,0.30952380952380953,0.2904761904761905,0.2714285714285714,0.2714285714285714,0.2714285714285714,0.2714285714285714,0.2523809523809524,0.23333333333333334,0.18571428571428572,0.18571428571428572,0.1761904761904762,0.1761904761904762,0.1761904761904762,0.1761904761904762,0.1761904761904762,0.1761904761904762,0.1761904761904762,0.1761904761904762,0.1761904761904762,0.1761904761904762,0.1761904761904762,0.1761904761904762,0.1761904761904762,0.1761904761904762,0.16666666666666666,0.16666666666666666,0.16666666666666666,0.16666666666666666,0.16666666666666666,0.16666666666666666,0.16666666666666666,0.16666666666666666,0.16666666666666666,0.16666666666666666,0.16666666666666666,0.16666666666666666,0.16666666666666666,0.16666666666666666,0.16666666666666666,0.16666666666666666,0.16666666666666666,0.16666666666666666,0.16666666666666666,0.15714285714285714,0.15714285714285714,0.15714285714285714,0.15714285714285714,0.15714285714285714,0.14761904761904762,0.14761904761904762,0.14761904761904762,0.14761904761904762,0.14761904761904762,0.14761904761904762,0.14761904761904762,0.1380952380952381,0.1380952380952381,0.1380952380952381,0.1380952380952381,0.14761904761904762,0.18571428571428572,0.23333333333333334,0.35714285714285715,0.43333333333333335,0.5095238095238095,0.5761904761904761,0.6333333333333333,0.7,0.719047619047619,0.719047619047619,0.719047619047619,0.7285714285714285,0.7380952380952381,0.7571428571428571,0.8047619047619048,0.8714285714285714,0.9571428571428572,1.0047619047619047,1.042857142857143,1.0714285714285714,1.0904761904761904,1.1095238095238096,1.138095238095238,1.138095238095238,1.1476190476190475,1.1476190476190475,1.1476190476190475,1.1476190476190475,1.1476190476190475,1.1476190476190475,1.1476190476190475,1.1476190476190475,1.1476190476190475,1.1476190476190475,1.1476190476190475,1.138095238095238,1.119047619047619,1.1,1.0904761904761904,1.0809523809523809,1.0809523809523809,1.0714285714285714,1.0714285714285714,1.0714285714285714,1.0714285714285714,1.0714285714285714,1.0714285714285714,1.061904761904762,1.061904761904762,1.061904761904762,1.061904761904762,1.061904761904762,1.0523809523809524,1.0523809523809524,1.0523809523809524,1.0523809523809524,1.0238095238095237,0.9952380952380953,0.9761904761904762,0.9476190476190476,0.9380952380952381,0.919047619047619,0.8809523809523809,0.8714285714285714,0.861904761904762,0.8523809523809524,0.8523809523809524,0.8333333333333334,0.8142857142857143,0.8047619047619048,0.7857142857142857,0.7571428571428571,0.6904761904761905,0.6523809523809524,0.6238095238095238,0.5857142857142857,0.5666666666666667,0.5571428571428572,0.5285714285714286,0.5095238095238095,0.49047619047619045,0.49047619047619045,0.48095238095238096,0.4714285714285714,0.4714285714285714,0.46190476190476193,0.46190476190476193,0.4523809523809524,0.4523809523809524,0.4523809523809524,0.43333333333333335,0.43333333333333335,0.4238095238095238,0.4142857142857143,0.38571428571428573,0.36666666666666664,0.35714285714285715,0.3380952380952381,0.32857142857142857,0.319047619047619,0.319047619047619,0.319047619047619,0.3380952380952381,0.3476190476190476,0.38571428571428573,0.38571428571428573,0.40476190476190477,0.4142857142857143,0.4238095238095238,0.4714285714285714,0.49047619047619045,0.5095238095238095,0.5190476190476191,0.5285714285714286,0.5380952380952381,0.5380952380952381,0.5476190476190477,0.5476190476190477,0.5476190476190477,0.5476190476190477,0.5476190476190477,0.5476190476190477,0.5476190476190477,0.5476190476190477,0.5476190476190477,0.5571428571428572,0.5571428571428572,0.5571428571428572,0.5571428571428572,0.5571428571428572,0.5571428571428572,0.5571428571428572,0.5571428571428572,0.5571428571428572,0.5571428571428572,0.5571428571428572,0.5571428571428572,0.5571428571428572,0.5571428571428572,0.5476190476190477,0.5380952380952381,0.5285714285714286,0.5285714285714286,0.5285714285714286,0.5285714285714286,0.5285714285714286,0.5285714285714286,0.5285714285714286,0.5285714285714286,0.5285714285714286,0.5285714285714286,0.5285714285714286,0.5285714285714286,0.5285714285714286,0.5285714285714286,0.5285714285714286,0.5285714285714286,0.5285714285714286,0.5285714285714286,0.5285714285714286,0.5285714285714286,0.5285714285714286,0.5285714285714286,0.5285714285714286,0.5285714285714286,0.5285714285714286,0.5285714285714286,0.5285714285714286,0.5285714285714286,0.5285714285714286,0.5285714285714286,0.5285714285714286,0.5285714285714286,0.5285714285714286,0.5285714285714286,0.5285714285714286,0.5285714285714286,0.5285714285714286,0.5285714285714286,0.5285714285714286,0.5285714285714286,0.5285714285714286,0.5285714285714286,0.5285714285714286,0.5,0.24285714285714285,-0.09047619047619047,-0.16666666666666666,-0.20476190476190476,-0.21428571428571427,-0.23333333333333334,-0.23333333333333334,-0.23333333333333334,-0.23333333333333334,-0.23333333333333334,-0.23333333333333334,-0.23333333333333334,-0.23333333333333334,-0.23333333333333334,-0.23333333333333334,-0.23333333333333334,-0.23333333333333334,-0.23333333333333334,-0.23333333333333334,-0.233333333333