[{"success":true,"trial_type":"fullscreen","trial_index":0,"time_elapsed":10611,"internal_node_id":"0.0-0.0","protocol_sum":"","subject_identifier":534,"subject_sum":[138,204,35,152,123,137,96,216,60,68,84,31,159,14,180,100,84,206,160,128,234,148,217,22,245,111,204,240,51,219,134,111],"subject_pair":267,"STUDY_ID":"66a3ed3c5d10d0e7d8a6b9da","PROLIFIC_PID":"66413abd57f96e210a9cfe13","SESSION_ID":"66a4778a8c8a7fc5a021a102","practice_instructions":1,"leaderboard_instructions":0,"bonus":0,"reveal_word":false,"self_rating":"5","confidence":"62"},{"view_history":"[{\"page_index\":0,\"viewing_time\":5788.799999952316}]","rt":5789,"trial_type":"instructions","trial_index":1,"time_elapsed":16401,"internal_node_id":"0.0-1.0","protocol_sum":"","subject_identifier":534,"subject_sum":[138,204,35,152,123,137,96,216,60,68,84,31,159,14,180,100,84,206,160,128,234,148,217,22,245,111,204,240,51,219,134,111],"subject_pair":267,"STUDY_ID":"66a3ed3c5d10d0e7d8a6b9da","PROLIFIC_PID":"66413abd57f96e210a9cfe13","SESSION_ID":"66a4778a8c8a7fc5a021a102","practice_instructions":1,"leaderboard_instructions":0,"bonus":0,"reveal_word":false,"self_rating":"5","confidence":"62"},{"view_history":"[{\"page_index\":0,\"viewing_time\":19481.39999985695}]","rt":19481.5,"trial_type":"instructions","trial_index":2,"time_elapsed":35884,"internal_node_id":"0.0-2.0-0.0","protocol_sum":"","subject_identifier":534,"subject_sum":[138,204,35,152,123,137,96,216,60,68,84,31,159,14,180,100,84,206,160,128,234,148,217,22,245,111,204,240,51,219,134,111],"subject_pair":267,"STUDY_ID":"66a3ed3c5d10d0e7d8a6b9da","PROLIFIC_PID":"66413abd57f96e210a9cfe13","SESSION_ID":"66a4778a8c8a7fc5a021a102","practice_instructions":1,"leaderboard_instructions":0,"bonus":0,"reveal_word":false,"self_rating":"5","confidence":"62"},{"rt":10440.299999952316,"responses":"{\"Q0\":\"... reveal the word with as <b>few letter guesses</b> as possible\"}","question_order":"[0]","trial_type":"survey-multi-choice","trial_index":3,"time_elapsed":46325,"internal_node_id":"0.0-2.0-1.0","protocol_sum":"","subject_identifier":534,"subject_sum":[138,204,35,152,123,137,96,216,60,68,84,31,159,14,180,100,84,206,160,128,234,148,217,22,245,111,204,240,51,219,134,111],"subject_pair":267,"correct":true,"test_part":"multichoice_nonpretend","STUDY_ID":"66a3ed3c5d10d0e7d8a6b9da","PROLIFIC_PID":"66413abd57f96e210a9cfe13","SESSION_ID":"66a4778a8c8a7fc5a021a102","practice_instructions":1,"leaderboard_instructions":0,"bonus":0,"reveal_word":false,"self_rating":"5","confidence":"62"},{"view_history":"[{\"page_index\":0,\"viewing_time\":1434.5999999046326}]","rt":1434.7999999523163,"trial_type":"instructions","trial_index":4,"time_elapsed":47761,"internal_node_id":"0.0-3.0","protocol_sum":"","subject_identifier":534,"subject_sum":[138,204,35,152,123,137,96,216,60,68,84,31,159,14,180,100,84,206,160,128,234,148,217,22,245,111,204,240,51,219,134,111],"subject_pair":267,"STUDY_ID":"66a3ed3c5d10d0e7d8a6b9da","PROLIFIC_PID":"66413abd57f96e210a9cfe13","SESSION_ID":"66a4778a8c8a7fc5a021a102","practice_instructions":1,"leaderboard_instructions":0,"bonus":0,"reveal_word":false,"self_rating":"5","confidence":"62"},{"word":"ZEBRA","click_log":{"letter":["","A","E","I","L","T","Z","B","R"],"t":[0,3266.800000190735,10912.600000143051,56722.60000014305,70514.80000019073,82793.80000019073,91055.80000019073,92728.60000014305,94594.20000004768],"hit":[null,1,1,0,0,0,1,1,1],"asked":["","A","AE","AEI","AEIL","AEILT","AEILTZ","AEILTZB","AEILTZBR"],"word_state":["_____","____A","_E__A","_E__A","_E__A","_E__A","ZE__A","ZEB_A","ZEBRA"]},"hover_log":{"letter":["?","?","?","?","?","?","S","S","?","?","?","?","?","?","?","?","?","?","?","?","?","?","?","?","?","?","?","?","?","?","?","?","?","?","?","?","?","?","?","?","?","?","?","?","?","?","?","?","?","?","?","?","?","?","?","?","?","?","?","?","?","?","?","?","?","?","?","?","?","?","?","?","?","?","?","?","?","?","?","?","?","?","?","?","?","?","?","?","?","?","?","?","?","?","?","?","?","?","?","?","?","?","?","?","?","?","?","?","?","?","?","?","?","?","?","?","?","?","?","?","?","?","?","?","?","?","?","?","?","?","?","?","?","?","?","?","?","?","?","?","?","?","?","?","?","?","?","?","?","?","?","?","?","T","?","L","?","C","C","C","?","B","B","?","?","?","?","?","?","?","?","?","?","?","?","?","?","?","A","A","A","A","A","A","A","A","A","A","A","A","A","A","A","A","A","?","A","A","A","A","A","A","A","A","?","?","?","?","?","?","?","?","?","?","?","?","?","?","?","?","?","?","?","?","?","?","?","?","?","?","L","L","L","L","?","?","?","?","D","D","?","?","?","E","?","?","?","?","?","?","?","?","?","?","?","?","?","?","?","?","?","?","?","?","?","?","?","?","?","?","?","?","?","E","E","E","E","E","E","E","E","E","E","E","E","E","E","E","E","E","E","E","E","E","E","E","E","E","E","E","E","E","E","E","E","E","E","E","E","E","E","E","E","E","E","E","E","E","E","E","E","E","E","E","E","E","E","E","E","E","E","E","E","E","E","E","E","E","E","E","E","E","E","E","E","E","E","E","E","E","E","E","E","E","E","E","E","E","E","E","E","E","E","E","E","E","E","E","E","E","E","E","E","E","E","E","E","E","E","E","E","E","E","E","E","E","E","E","E","E","E","E","E","E","E","?","?","?","?","?","?","?","?","?","?","?","?","?","?","?","?","?","?","?","?","?","?","?","?","?","?","?","?","?","?","?","?","?","?","?","?","?","?","?","?","?","?","?","?","?","?","?","?","?","?","?","?","?","?","?","?","?","?","?","?","?","?","?","?","?","?","?","?","?","?","?","?","?","?","?","?","?","?","?","?","?","?","?","?","?","?","?","?","?","?","?","?","?","?","?","?","?","?","?","?","?","?","?","?","?","?","?","?","?","?","?","?","?","?","?","?","?","?","?","?","?","?","?","?","?","?","?","?","?","?","?","?","?","?","?","?","?","?","?","?","?","?","?","?","?","?","?","?","?","?","?","?","?","?","?","?","?","?","?","?","?","?","?","?","?","?","?","?","?","?","?","?","?","?","?","?","?","?","?","?","?","?","?","?","?","?","?","?","?","?","?","?","?","?","?","?","?","?","?","?","?","?","?","?","?","?","?","?","?","?","?","?","?","?","?","?","?","?","?","?","?","?","?","?","?","?","?","?","?","?","?","?","?","?","?","?","?","?","?","?","E","E","E","E","E","E","E","E","E","E","E","E","E","E","E","E","E","E","E","E","E","E","E","E","E","E","E","E","E","E","?","?","?","?","?","?","?","?","?","?","?","?","?","?","?","?","?","?","?","?","?","?","?","?","?","?","?","?","?","?","?","?","?","?","?","?","?","?","?","?","?","?","?","?","?","?","F","F","?","?","?","?","?","?","?","?","?","?","?","?","?","?","?","?","?","?","?","?","?","?","?","?","?","?","?","?","?","?","?","?","?","?","?","?","?","?","?","?","?","?","?","?","?","?","?","?","?","?","?","?","?","?","?","?","?","?","?","?","?","?","?","?","?","?","?","?","?","?","?","?","?","?","?","?","?","?","?","?","?","?","?","?","?","?","?","?","?","?","?","?","?","?","?","?","?","?","?","?","?","?","?","?","?","?","?","?","?","?","?","?","?","?","?","?","?","?","?","?","?","?","?","?","?","?","?","?","?","?","?","?","?","?","?","?","?","?","?","?","?","?","?","?","?","?","?","?","?","?","?","?","?","?","?","?","?","?","?","?","?","?","?","?","?","?","?","?","?","?","?","?","?","?","?","?","?","?","?","?","?","?","?","?","?","?","?","?","?","?","?","?","?","?","?","?","?","?","?","?","?","?","?","?","?","?","?","?","?","?","?","?","?","?","?","?","?","?","?","?","?","?","?","?","?","?","?","?","?","?","?","?","?","?","?","?","?","?","?","?","?","?","?","?","?","?","?","?","?","?","?","?","?","?","?","?","?","?","?","?","?","?","?","?","?","?","?","?","?","?","?","?","?","?","?","?","?","?","?","?","?","?","?","?","?","?","?","?","?","?","?","?","?","?","?","?","?","?","?","?","?","?","?","?","?","?","?","?","?","?","?","?","?","?","?","?","?","?","?","?","?","?","?","?","?","?","?","?","?","?","?","?","?","?","?","?","?","?","?","?","?","?","?","?","?","?","?","?","?","?","?","?","?","?","?","?","?","?","?","?","?","?","?","?","?","?","?","?","?","?","?","?","?","?","?","?","?","?","?","?","?","?","?","?","?","?","?","?","?","?","?","?","?","?","?","?","?","?","?","?","?","?","?","?","?","?","?","?","?","?","?","?","?","?","?","?","?","?","?","?","?","?","?","?","?","?","?","?","?","?","?","?","?","?","?","?","?","?","?","?","?","?","?","?","?","?","?","?","?","?","?","?","?","?","?","?","?","?","?","?","?","?","?","?","?","?","?","?","?","?","?","?","?","?","?","?","?","?","?","?","?","?","?","?","?","?","?","?","?","?","?","?","?","?","?","?","?","?","?","?","?","?","?","?","?","?","?","?","?","?","?","?","?","?","?","?","?","?","?","?","?","?","?","?","?","?","?","?","?","?","?","?","?","?","?","?","?","?","?","?","?","?","?","?","?","?","?","?","?","?","?","?","?","?","?","?","?","?","?","?","?","?","?","?","?","?","?","?","?","?","?","?","?","?","?","?","?","?","?","?","?","?","?","?","?","?","?","?","?","?","?","?","?","?","?","?","?","?","?","?","?","?","?","?","?","?","?","?","?","?","?","?","?","?","?","?","?","?","?","?","?","?","?","?","?","?","?","?","?","?","?","?","?","?","?","?","?","?","?","?","?","?","?","?","?","?","?","?","?","?","?","?","?","?","?","?","?","?","?","?","?","?","?","?","?","?","?","?","?","?","?","?","?","?","?","?","?","?","?","?","?","?","?","?","?","?","?","?","?","?","?","?","?","?","?","?","?","?","?","?","?","?","?","?","?","?","?","?","?","?","?","?","?","?","?","?","?","?","?","?","?","?","?","?","?","?","?","?","?","?","?","?","?","?","?","?","?","?","?","?","?","?","?","?","?","?","?","?","?","?","?","?","?","?","?","?","?","?","?","?","?","?","?","?","?","?","?","?","?","?","?","?","?","?","?","?","?","?","?","?","?","?","?","?","?","?","?","?","?","?","?","?","?","?","?","?","?","?","?","?","?","?","?","?","?","?","?","?","?","?","?","?","?","?","?","?","?","?","?","?","?","?","?","?","?","?","?","?","?","?","?","?","?","?","?","?","?","?","?","?","?","?","?","?","?","?","?","?","?","?","?","?","?","?","?","?","?","?","?","?","?","?","?","?","?","?","?","?","?","?","?","?","?","?","?","?","?","?","?","?","?","?","?","?","?","?","?","?","?","?","?","?","?","?","?","?","?","?","?","?","?","?","?","?","?","?","?","?","?","?","?","?","?","?","?","?","?","?","?","?","?","?","?","?","?","?","?","?","?","?","?","?","?","?","?","?","?","?","?","?","?","?","?","?","?","?","?","?","?","?","?","?","?","?","?","?","?","?","?","?","?","?","?","?","?","?","?","?","?","?","?","?","?","?","?","?","?","?","?","?","?","?","?","?","?","?","?","?","?","?","?","?","?","?","?","?","?","?","?","?","?","?","?","?","?","?","?","?","?","?","?","?","?","?","?","?","?","?","?","?","?","?","?","?","?","?","?","?","?","?","?","?","?","?","?","?","?","?","?","?","?","?","?","?","?","?","?","?","?","?","?","?","?","?","?","?","?","?","?","?","?","?","?","?","?","?","?","?","?","?","?","?","?","?","?","?","?","?","?","?","?","?","?","?","?","?","?","?","?","?","?","?","?","?","?","?","?","?","?","?","?","?","?","?","?","?","?","?","?","?","?","?","?","?","?","?","?","?","?","?","?","?","?","?","?","?","?","?","?","?","?","?","?","?","?","?","?","?","?","?","?","?","?","?","?","?","?","?","?","?","?","?","?","?","?","?","?","?","?","?","?","?","?","?","?","?","?","?","?","?","?","?","?","?","?","?","?","?","?","?","?","?","?","?","?","?","?","?","?","?","?","?","?","?","?","?","?","?","?","?","?","?","?","?","?","?","?","?","?","?","?","?","?","?","?","?","?","?","?","?","?","?","?","?","?","?","?","?","?","?","?","?","?","?","?","?","?","?","?","?","?","?","?","?","?","?","?","?","?","?","?","?","?","?","?","?","?","?","?","?","?","?","?","?","?","?","?","?","?","?","?","?","?","?","?","?","?","?","?","?","?","?","?","?","?","?","?","?","?","?","?","?","?","?","?","?","?","?","?","?","?","?","?","?","?","?","?","?","?","?","?","?","?","?","?","?","?","?","?","?","?","?","?","?","?","?","?","?","?","?","?","?","?","?","?","?","?","?","?","?","?","?","?","?","?","?","?","?","?","?","?","?","?","?","?","?","?","?","?","?","?","?","?","?","?","?","?","?","?","?","?","?","?","?","?","?","?","?","?","?","?","?","?","?","?","?","?","?","?","?","?","?","?","?","?","?","?","?","?","?","?","?","?","?","?","?","?","?","?","?","?","?","?","?","?","?","?","?","?","?","?","?","?","?","?","?","?","?","?","?","?","?","?","?","?","?","?","?","?","?","?","?","?","?","?","?","?","?","?","?","?","?","?","?","?","?","?","?","?","?","?","?","?","?","?","?","?","?","?","?","?","?","?","?","?","?","?","?","?","?","?","?","?","?","?","?","?","?","?","?","?","?","?","?","?","?","?","?","?","?","?","?","?","?","?","?","?","?","?","?","?","?","?","?","?","?","?","?","?","?","?","?","?","?","?","?","?","?","?","?","?","?","?","?","?","?","?","?","?","?","?","?","?","?","?","?","?","?","?","?","?","?","?","?","?","?","?","?","?","?","?","?","?","?","?","W","?","?","N","N","?","?","?","?","?","?","?","?","?","?","?","?","?","?","?","?","?","?","?","?","?","?","?","?","N","N","N","N","N","N","N","N","N","N","N","N","N","N","N","?","?","?","?","?","?","X","?","?","?","?","?","?","?","?","?","?","?","?","?","?","?","?","?","?","?","?","?","?","?","?","?","?","?","?","?","?","?","?","?","?","?","?","?","?","?","?","?","?","?","?","?","?","?","?","?","?","X","X","X","X","X","X","X","X","?","?","?","?","?","?","?","?","?","?","?","?","?","?","?","?","O","O","O","O","O","O","O","O","O","O","?","?","?","?","?","?","G","G","G","G","G","G","G","G","G","G","G","G","G","G","G","G","G","G","G","G","?","?","H","H","H","H","H","H","H","H","H","H","H","H","?","?","?","?","?","?","?","?","?","?","?","?","?","?","?","?","?","?","?","?","?","?","?","?","?","?","?","?","?","?","?","H","H","H","H","?","G","G","?","F","F","F","F","F","F","F","F","F","F","F","F","?","?","?","?","?","?","?","?","Q","Q","Q","Q","Q","Q","Q","Q","Q","Q","Q","P","P","O","?","?","?","D","D","D","D","D","D","D","D","D","D","D","D","D","D","D","D","D","?","?","?","?","?","?","?","?","?","?","?","?","?","?","?","?","?","?","?","?","?","?","?","?","?","?","?","?","?","?","?","?","?","?","?","?","?","?","?","?","?","?","?","?","?","?","?","?","?","?","?","?","?","?","?","?","?","?","?","?","?","?","?","?","?","?","?","?","?","?","?","?","?","?","?","?","?","?","?","?","?","?","?","?","?","?","?","?","?","?","?","?","?","?","?","?","?","?","?","?","?","?","?","?","?","?","?","?","?","?","?","?","?","?","?","?","?","?","?","?","?","?","?","?","?","?","?","?","?","?","?","?","?","?","?","?","?","?","?","?","?","?","?","?","?","?","?","?","?","?","?","?","?","?","?","?","?","?","?","?","?","?","?","?","?","?","?","?","?","?","?","?","?","?","?","?","?","?","?","?","?","?","?","?","?","?","?","?","?","?","?","?","?","?","?","?","?","?","?","?","?","?","?","?","?","?","?","?","?","?","?","?","?","?","?","?","?","?","?","?","?","?","?","?","?","?","?","?","?","?","?","?","?","?","?","?","?","?","?","?","?","?","?","?","?","?","?","?","?","?","?","?","?","?","?","?","?","?","?","?","?","?","?","?","?","?","?","?","?","?","?","?","?","?","?","?","?","?","?","?","?","?","?","?","?","?","?","?","?","?","?","?","?","?","?","?","?","?","?","?","?","?","?","?","?","?","?","?","?","?","?","?","?","?","?","?","?","?","?","?","?","?","?","?","?","?","?","?","?","?","?","?","?","?","?","?","?","?","?","?","?","?","?","?","?","?","?","?","?","?","?","?","?","?","?","?","?","?","?","?","?","?","?","?","?","?","?","?","?","?","?","?","?","?","?","?","?","?","?","?","?","?","?","?","?","?","?","?","?","?","?","?","?","?","?","?","?","?","?","?","?","?","?","?","?","?","?","?","?","?","?","?","?","?","?","?","?","?","?","?","?","?","?","?","?","?","?","?","?","?","?","?","?","?","?","?","?","?","?","?","?","?","?","?","?","?","?","?","?","?","?","?","?","?","?","?","?","?","?","?","?","?","?","?","?","?","?","?","?","?","?","?","?","?","?","?","?","?","?","?","?","?","?","?","?","?","?","?","?","?","?","?","?","?","?","?","?","?","?","?","?","?","?","?","?","?","?","?","?","?","?","?","?","?","?","?","?","?","?","?","?","?","?","?","?","?","?","?","?","?","?","?","?","?","?","?","?","?","?","?","?","?","?","?","?","?","?","?","?","?","?","?","?","?","?","?","?","?","?","?","?","?","?","?","?","?","?","?","?","?","?","?","?","?","?","?","?","?","?","?","?","?","?","?","?","?","?","?","?","?","?","?","?","?","?","?","?","?","?","?","?","?","?","?","?","?","?","?","?","?","?","?","?","?","?","?","?","?","?","?","?","?","?","?","?","?","?","?","?","?","?","?","?","?","?","?","?","?","?","?","?","?","?","?","?","?","?","?","?","?","?","?","?","?","?","?","?","?","?","?","?","?","?","?","?","?","?","?","?","?","?","?","?","?","?","?","?","?","?","?","?","?","?","?","?","?","?","?","?","?","?","?","?","?","?","?","?","?","?","?","?","?","?","?","?","?","?","?","?","?","?","?","?","?","?","?","?","?","?","?","?","?","?","?","?","?","?","?","?","?","?","?","?","?","?","?","?","?","?","?","?","?","?","?","?","?","?","?","?","?","?","?","?","?","?","?","?","?","?","?","?","?","?","?","?","?","?","?","?","?","?","?","?","?","?","?","?","?","?","?","?","?","?","?","?","?","?","?","?","?","E","E","E","?","?","?","?","?","?","?","?","?","?","?","?","?","?","?","?","?","?","?","?","?","?","?","?","?","?","G","H","H","I","I","I","I","I","I","I","I","I","I","?","?","?","?","?","?","?","?","?","?","?","?","I","I","I","I","I","I","I","I","I","I","I","I","I","I","I","I","I","I","?","?","?","?","?","?","?","?","?","?","?","?","?","?","?","?","?","?","?","?","?","?","?","?","?","?","?","?","?","?","?","?","?","?","?","?","?","?","?","?","?","?","?","?","?","?","?","?","?","?","?","?","?","?","?","?","?","?","?","?","?","?","?","?","?","?","?","?","?","?","?","?","?","?","?","?","?","?","?","?","?","?","?","?","?","?","?","?","?","?","?","?","?","?","?","?","?","?","?","?","?","?","?","?","?","?","?","?","?","?","?","?","?","?","?","?","?","?","?","?","?","?","?","?","?","?","?","?","?","?","?","?","?","?","?","?","?","?","?","?","?","?","?","?","?","?","?","?","?","?","?","?","?","?","?","?","?","?","?","?","?","?","?","?","?","?","?","?","?","?","?","?","?","?","?","?","?","?","?","?","?","?","?","?","?","?","?","?","?","?","?","?","?","?","?","?","?","?","?","?","?","?","?","?","?","?","?","?","?","?","?","?","?","?","?","?","?","?","?","?","?","?","?","?","?","?","?","?","?","?","?","?","?","?","?","?","?","?","?","?","?","?","?","?","?","?","?","?","?","?","?","?","?","?","?","?","?","?","?","?","?","?","?","?","?","?","?","?","?","?","?","?","?","?","?","?","?","?","?","?","?","?","?","?","?","?","?","?","?","?","?","?","?","?","?","?","?","?","?","?","?","?","?","?","?","?","?","?","?","?","?","?","?","?","?","?","?","?","?","?","?","?","?","?","?","?","?","?","?","?","?","?","?","?","?","?","?","?","?","?","?","?","?","?","?","?","?","?","?","?","?","?","?","?","?","?","?","?","?","?","?","?","?","?","?","?","?","?","?","?","?","?","?","?","?","?","?","?","?","?","?","?","?","?","?","?","?","?","?","?","?","?","?","?","?","?","?","?","?","?","?","?","?","?","?","?","?","?","?","?","?","?","?","?","?","?","?","?","?","?","?","?","?","?","?","?","?","?","?","?","?","?","?","?","?","?","?","?","?","?","?","?","?","?","?","?","?","?","?","?","?","?","?","?","?","?","?","?","?","?","?","?","?","?","?","?","?","?","?","?","?","?","?","?","?","?","?","?","?","?","?","?","?","?","?","?","?","?","?","?","?","?","?","?","?","?","?","?","?","?","?","?","?","?","?","?","?","?","?","?","?","?","?","?","?","?","?","?","?","?","?","?","?","?","?","?","?","?","?","?","?","?","?","?","?","?","?","?","?","?","?","?","?","F","?","?","?","P","P","P","?","?","?","?","Y","Y","?","?","?","?","?","?","?","?","?","?","?","?","?","?","?","?","?","?","?","?","?","?","?","?","?","?","?","?","?","?","?","?","?","?","?","?","?","?","?","?","?","?","?","?","?","?","?","?","?","?","?","?","?","?","?","?","?","?","?","?","?","?","?","?","?","?","?","?","?","?","?","?","?","?","?","?","?","?","?","?","?","?","?","?","?","?","?","?","?","?","?","?","?","?","?","?","?","?","?","?","?","?","?","?","?","?","?","?","?","?","?","?","?","?","?","?","?","?","?","?","?","?","?","?","?","?","?","?","?","?","?","?","?","?","?","?","?","?","?","?","?","?","?","?","?","?","?","?","?","?","?","?","?","?","?","?","?","?","?","?","?","?","?","?","?","?","?","?","?","?","?","?","?","?","?","?","?","?","?","?","?","?","?","?","?","?","?","?","?","?","?","?","?","?","?","?","?","?","?","?","?","Y","Y","Y","Y","Y","Y","Y","Y","Y","?","?","?","?","?","?","?","?","?","?","?","?","V","V","V","?","?","?","?","?","?","?","?","?","?","?","?","?","?","?","?","?","?","L","L","L","L","L","L","L","L","L","L","L","L","L","L","L","L","L","L","L","L","L","L","L","L","L","L","L","?","?","?","?","?","V","V","V","V","V","V","V","V","V","V","V","V","V","V","V","V","V","V","V","V","V","V","V","V","V","V","V","V","V","V","V","V","V","V","V","V","V","V","V","V","V","V","V","V","V","V","V","?","?","?","?","?","?","?","?","?","?","?","?","?","?","?","?","?","?","?","?","?","?","?","?","?","?","?","?","?","?","?","?","?","?","?","?","?","?","?","?","?","?","?","?","?","?","?","?","?","?","?","?","?","?","?","?","?","?","?","?","?","?","?","?","?","?","?","?","?","?","?","?","?","?","?","?","?","?","?","?","?","?","?","?","?","?","?","?","?","?","?","?","?","?","?","?","?","?","?","?","?","?","?","?","?","?","?","?","?","?","?","?","?","?","?","?","?","?","?","?","?","?","?","?","?","?","?","?","?","?","?","?","?","?","?","?","?","?","?","?","?","?","?","?","?","?","?","?","?","?","?","?","?","?","?","?","?","?","?","?","?","?","?","?","?","?","?","?","?","?","?","?","?","?","?","?","?","?","?","?","?","?","?","?","?","?","?","?","?","?","?","?","?","?","?","?","?","?","?","?","?","?","?","?","?","?","?","?","?","?","?","?","?","?","?","?","?","?","?","?","?","?","?","?","?","?","?","?","Y","Y","?","P","P","P","P","P","P","P","P","P","P","P","P","P","P","?","?","?","?","?","?","?","?","?","?","?","?","?","?","?","?","?","?","?","?","?","?","?","?","?","?","?","?","?","?","?","?","?","?","?","?","?","?","?","?","?","?","?","?","?","?","?","?","?","?","?","?","?","?","?","?","?","?","?","?","?","?","?","?","?","?","?","?","?","?","?","?","?","?","?","?","?","?","?","?","?","?","?","?","?","?","?","?","?","?","?","?","?","?","?","?","?","?","?","?","?","?","?","?","?","?","?","?","?","?","?","?","?","?","?","?","?","?","?","?","?","?","?","?","?","?","?","?","?","?","?","?","?","?","?","?","?","?","?","?","?","?","?","?","?","?","?","?","?","?","?","?","?","?","?","?","?","?","?","?","?","?","?","?","?","?","?","?","?","?","?","?","?","?","?","?","?","?","?","?","?","?","?","?","?","?","?","?","?","?","?","?","?","?","?","?","?","?","?","?","?","?","?","?","?","?","?","?","?","?","?","?","?","?","?","?","?","?","?","?","?","?","?","?","?","?","?","?","?","?","?","?","?","?","?","?","?","?","?","?","?","?","?","?","?","?","?","?","?","?","?","?","?","?","?","?","?","?","?","?","?","?","?","?","?","?","?","?","?","?","?","?","?","?","?","?","?","?","?","?","?","?","O","O","O","O","?","F","F","?","?","?","?","?","?","?","?","?","E","E","E","E","E","?","?","?","?","O","?","?","?","?","?","?","?","?","?","?","?","?","?","O","O","O","O","O","?","?","?","?","?","?","?","?","?","?","?","?","?","?","?","?","?","?","?","?","?","?","?","?","?","?","?","?","?","?","?","?","?","?","?","?","?","?","?","?","?","?","?","D","D","D","D","?","?","?","C","C","C","C","C","C","C","C","C","C","?","?","?","?","?","?","L","L","L","L","?","?","?","?","?","?","?","?","?","?","?","?","?","?","?","?","?","?","?","?","T","T","T","T","T","T","T","T","T","T","T","T","T","T","T","T","T","T","T","T","T","T","T","T","T","T","T","T","T","T","T","T","T","T","T","T","T","T","T","T","T","T","T","T","T","T","T","T","T","T","T","T","T","?","?","?","?","?","?","?","?","?","?","?","?","?","?","?","?","?","?","?","?","?","?","?","?","?","?","?","?","?","?","?","?","?","?","?","?","?","?","?","?","?","?","?","?","?","?","?","?","?","?","?","?","?","?","?","?","?","?","?","?","?","?","?","?","?","?","?","?","?","?","?","?","?","?","?","?","?","?","?","?","?","?","?","?","?","?","?","?","?","?","?","?","?","?","?","?","?","?","?","?","?","?","?","?","?","?","?","?","?","?","?","?","?","?","?","?","?","?","?","?","?","?","?","?","?","?","?","?","?","?","?","?","?","?","?","?","?","?","?","?","?","?","?","?","?","?","?","?","?","?","?","?","?","?","?","?","?","?","?","?","?","?","?","?","?","?","?","?","?","?","?","?","?","?","?","?","?","?","?","?","?","?","?","?","?","?","?","?","?","?","?","?","?","?","?","?","?","?","?","?","?","?","?","?","?","?","?","?","?","?","?","?","?","?","?","?","?","?","?","?","?","?","?","?","?","?","?","?","?","?","?","?","?","?","?","?","?","?","?","?","?","?","W","W","?","?","?","O","O","O","O","O","O","O","O","O","O","O","O","O","?","?","?","?","?","?","?","?","?","?","?","?","?","?","?","?","P","P","P","P","P","P","P","P","P","P","P","P","P","P","P","P","P","?","?","?","?","X","X","X","?","W","W","W","W","W","W","W","W","W","?","?","?","V","V","V","V","V","V","V","V","V","?","?","?","?","?","?","?","?","?","?","?","?","L","L","L","L","L","L","L","L","L","L","L","L","L","L","L","L","L","?","?","?","?","?","?","?","?","?","?","?","?","?","?","?","?","?","?","?","?","?","?","?","?","?","?","?","?","?","?","?","?","?","?","?","?","?","?","?","?","?","?","?","?","?","?","?","?","?","?","?","?","?","?","?","?","?","?","?","?","?","?","?","?","?","?","?","?","?","?","?","?","?","?","?","?","?","?","?","?","?","?","?","Z","Z","Z","Z","Z","Z","Z","Z","Z","Z","Z","Z","Z","Z","Z","Z","Z","Z","Z","Z","Z","Z","Z","Z","Z","Z","Z","Z","Z","Z","Z","Z","Z","Z","Z","Z","Z","Z","Z","Z","Z","Z","Z","Z","Z","Z","Z","Z","Z","Z","Z","Z","Z","Z","Z","Z","Z","Z","Z","Z","Z","Z","Z","Z","Z","?","?","Y","Y","Y","Y","?","X","X","X","?","?","W","W","W","?","?","?","?","?","?","?","?","?","?","?","?","?","?","?","D","D","D","D","?","C","C","C","C","C","?","?","B","B","B","B","B","B","B","B","B","B","B","B","B","B","B","B","B","B","B","B","B","B","B","B","B","B","B","B","B","B","B","B","B","B","B","B","B","B","B","B","B","?","?","?","?","?","C","C","C","C","C","C","C","C","?","?","?","D","D","D","D","D","D","D","D","D","D","D","D","D","D","D","D","D","D","D","?","E","E","E","E","F","F","F","F","F","?","?","?","G","G","G","G","G","G","G","G","G","G","G","?","?","?","?","?","?","?","?","?","?","?","?","?","?","?","R","R","R","R","R","R","R","R","R","R","R","R","R","R","R","R","R","R","R","R","R","R","R","R","R","R","R","R","R","R","R","R","R","R","R","R","R","R","R","R","R","R","R","R","R","R","R","R","R","R","R","R","R","R","R","R","R","R","R","R","R","R","R","R","R","R","R","R","R","R","R","R","R","R","R","R","R","R","?","?","?","?","?","?","?","?","?","?","?","?","?","?","?","?","?","?","?","?","?","?","?","?","?","?","?","?","?","?","?","?","?","?","?","?","?","?","?","?","?","?","?","?","?","?","?","?","?","?","?","?","?","?","?","?","?"],"t":[29,41,57,73,90,106,124,140,157,173,190,206,223,240,256,273,290,307,323,340,357,373,390,407,423,440,456,473,490,506,523,540,557,573,590,607,623,640,657,673,690,707,723,740,757,773,790,807,823,840,856,873,890,907,923,940,957,973,990,1007,1023,1040,1057,1073,1090,1107,1124,1140,1157,1174,1190,1207,1224,1241,1258,1274,1291,1307,1324,1340,1357,1374,1390,1407,1424,1441,1457,1474,1491,1507,1524,1541,1557,1574,1591,1607,1624,1641,1657,1674,1691,1707,1724,1741,1757,1774,1791,1807,1824,1841,1857,1874,1891,1908,1924,1941,1958,1974,1991,2008,2025,2041,2058,2074,2091,2108,2124,2141,2158,2177,2192,2209,2225,2242,2258,2275,2292,2308,2325,2341,2358,2375,2391,2408,2424,2441,2458,2474,2491,2508,2525,2541,2558,2575,2591,2608,2625,2642,2658,2675,2692,2709,2725,2742,2758,2775,2792,2808,2825,2842,2858,2875,2892,2908,2925,2942,2958,2975,2993,3008,3025,3042,3058,3075,3092,3109,3125,3142,3158,3175,3192,3208,3225,3242,3259,3276,3293,3309,3326,3343,3359,3376,3392,3409,3426,3442,3459,3476,3492,3509,3526,3543,3559,3576,3593,3609,3626,3642,3659,3676,3693,3709,3726,3743,3759,3776,3793,3809,3826,3842,3859,3876,3893,3909,3926,3943,3959,3976,3993,4009,4026,4043,4059,4077,4093,4109,4126,4143,4159,4176,4193,4210,4226,4243,4259,4276,4293,4309,4326,4343,4359,4376,4393,4410,4426,4443,4460,4476,4493,4509,4526,4543,4559,4576,4593,4610,4626,4643,4660,4676,4693,4710,4726,4743,4760,4776,4793,4810,4826,4843,4860,4877,4893,4910,4927,4943,4960,4977,4993,5010,5026,5043,5060,5077,5093,5110,5127,5143,5160,5177,5194,5210,5227,5244,5262,5277,5294,5310,5327,5344,5360,5377,5393,5410,5427,5444,5460,5477,5494,5510,5527,5544,5560,5577,5594,5610,5627,5644,5660,5677,5694,5711,5727,5744,5760,5777,5794,5811,5827,5844,5861,5878,5894,5911,5927,5944,5961,5977,5994,6011,6027,6044,6061,6078,6094,6111,6128,6144,6161,6177,6194,6211,6228,6244,6261,6277,6295,6311,6328,6344,6361,6378,6394,6411,6428,6444,6461,6478,6494,6511,6528,6545,6561,6578,6595,6611,6628,6645,6661,6678,6695,6712,6728,6745,6762,6778,6795,6812,6828,6845,6861,6878,6895,6911,6928,6945,6962,6978,6995,7012,7029,7045,7062,7078,7095,7112,7128,7145,7162,7178,7195,7212,7229,7245,7262,7278,7295,7312,7328,7345,7362,7378,7395,7412,7429,7445,7462,7479,7495,7512,7529,7545,7562,7579,7595,7612,7629,7645,7662,7679,7696,7712,7729,7745,7762,7779,7796,7812,7829,7846,7862,7879,7896,7912,7929,7946,7962,7979,7996,8012,8029,8046,8063,8079,8096,8113,8129,8146,8163,8179,8196,8213,8229,8246,8263,8279,8296,8313,8329,8346,8363,8379,8396,8413,8429,8446,8463,8479,8496,8513,8530,8546,8563,8580,8596,8613,8629,8646,8663,8680,8697,8713,8730,8746,8763,8780,8797,8813,8830,8847,8863,8880,8897,8913,8930,8947,8963,8980,8996,9013,9030,9047,9063,9080,9096,9113,9130,9147,9163,9180,9197,9213,9230,9247,9265,9280,9297,9313,9330,9347,9364,9380,9397,9414,9430,9447,9463,9480,9497,9513,9530,9547,9564,9580,9597,9614,9630,9647,9664,9680,9697,9714,9730,9747,9764,9780,9797,9814,9830,9847,9864,9881,9897,9914,9931,9947,9964,9981,9997,10014,10031,10047,10064,10081,10097,10114,10131,10147,10164,10181,10198,10214,10231,10247,10264,10281,10297,10314,10331,10348,10364,10381,10397,10414,10431,10448,10464,10481,10498,10515,10531,10548,10564,10581,10598,10615,10631,10648,10665,10681,10698,10715,10731,10748,10764,10781,10798,10815,10831,10848,10865,10881,10898,10915,10932,10948,10965,10982,10999,11015,11032,11049,11065,11082,11098,11115,11132,11149,11165,11182,11199,11215,11232,11248,11265,11282,11298,11315,11332,11349,11365,11382,11398,11415,11432,11449,11465,11482,11499,11515,11532,11549,11565,11582,11599,11615,11632,11649,11665,11682,11699,11716,11732,11749,11766,11782,11799,11815,11832,11849,11866,11883,11899,11916,11932,11949,11966,11983,11999,12016,12033,12049,12066,12082,12099,12116,12132,12149,12166,12183,12199,12216,12233,12249,12266,12282,12299,12316,12333,12349,12366,12383,12399,12416,12433,12449,12466,12483,12500,12516,12533,12550,12566,12583,12599,12616,12633,12649,12666,12683,12700,12716,12733,12750,12766,12783,12799,12816,12833,12850,12866,12883,12900,12916,12933,12950,12966,12983,13000,13016,13033,13050,13067,13083,13100,13117,13133,13150,13167,13183,13200,13217,13233,13250,13267,13283,13300,13317,13333,13350,13367,13383,13400,13417,13434,13450,13467,13483,13500,13517,13534,13550,13567,13583,13600,13617,13634,13650,13667,13683,13700,13717,13734,13750,13767,13784,13800,13817,13834,13851,13867,13884,13900,13917,13934,13950,13967,13984,14001,14017,14034,14051,14067,14084,14101,14118,14134,14151,14167,14184,14201,14218,14234,14251,14267,14284,14301,14318,14334,14351,14367,14384,14401,14417,14434,14451,14468,14484,14501,14517,14534,14551,14567,14584,14601,14618,14634,14651,14668,14684,14701,14718,14734,14751,14768,14785,14801,14818,14834,14851,14868,14884,14901,14918,14935,14951,14968,14985,15001,15018,15035,15051,15068,15085,15101,15118,15135,15151,15168,15185,15201,15218,15235,15251,15268,15285,15302,15318,15335,15351,15368,15385,15402,15418,15435,15452,15468,15485,15502,15519,15535,15552,15568,15585,15602,15618,15635,15652,15668,15685,15702,15719,15735,15752,15768,15785,15802,15819,15835,15852,15868,15885,15902,15919,15935,15952,15969,15985,16002,16019,16035,16052,16069,16086,16102,16119,16135,16152,16169,16185,16202,16219,16236,16252,16269,16286,16302,16319,16336,16352,16369,16386,16402,16419,16436,16452,16469,16486,16503,16520,16536,16553,16569,16586,16603,16619,16636,16653,16669,16686,16703,16720,16736,16753,16769,16786,16803,16819,16836,16853,16869,16886,16903,16919,16936,16953,16969,16986,17003,17019,17036,17053,17070,17086,17103,17120,17136,17153,17170,17186,17203,17220,17237,17253,17270,17286,17303,17320,17336,17353,17370,17386,17403,17420,17437,17453,17470,17487,17503,17520,17537,17553,17570,17587,17603,17620,17637,17653,17670,17687,17703,17720,17737,17753,17770,17787,17803,17820,17837,17854,17870,17887,17904,17920,17937,17954,17970,17987,18004,18020,18037,18054,18070,18087,18104,18120,18137,18154,18171,18187,18204,18221,18237,18254,18271,18287,18304,18321,18337,18354,18371,18387,18404,18421,18437,18454,18471,18487,18504,18521,18538,18554,18571,18587,18604,18621,18637,18654,18671,18688,18704,18721,18738,18754,18771,18788,18804,18821,18838,18854,18871,18888,18904,18921,18938,18954,18971,18988,19004,19021,19038,19054,19071,19088,19105,19121,19138,19154,19171,19188,19205,19221,19238,19255,19271,19288,19305,19321,19338,19355,19371,19388,19405,19421,19438,19455,19471,19488,19505,19521,19538,19555,19572,19589,19605,19622,19638,19655,19672,19688,19705,19722,19738,19755,19772,19789,19805,19822,19838,19855,19872,19889,19905,19922,19939,19955,19972,19989,20005,20022,20039,20055,20072,20089,20105,20122,20139,20155,20172,20189,20206,20222,20239,20255,20272,20289,20305,20322,20339,20355,20372,20389,20406,20423,20439,20456,20472,20489,20506,20523,20539,20556,20573,20589,20606,20623,20639,20656,20672,20689,20706,20723,20739,20756,20773,20789,20806,20823,20839,20856,20873,20889,20906,20923,20939,20956,20973,20989,21006,21023,21040,21056,21073,21090,21106,21123,21140,21156,21173,21190,21206,21223,21240,21256,21273,21290,21306,21323,21340,21356,21373,21390,21406,21423,21440,21456,21473,21490,21507,21523,21540,21557,21573,21590,21606,21623,21640,21657,21674,21691,21707,21724,21740,21757,21773,21790,21807,21823,21840,21857,21874,21890,21907,21924,21941,21957,21974,21991,22007,22024,22040,22057,22074,22090,22107,22124,22140,22157,22174,22190,22207,22224,22240,22257,22274,22290,22307,22324,22340,22357,22374,22390,22407,22424,22441,22457,22474,22490,22507,22524,22541,22557,22574,22591,22607,22624,22641,22657,22674,22691,22708,22724,22741,22757,22774,22791,22808,22824,22841,22857,22874,22891,22908,22924,22941,22958,22974,22991,23008,23024,23041,23058,23074,23091,23108,23124,23141,23158,23174,23191,23208,23225,23241,23258,23274,23291,23308,23324,23341,23358,23375,23391,23408,23425,23441,23458,23475,23491,23508,23525,23541,23558,23575,23591,23608,23625,23641,23658,23675,23692,23708,23725,23742,23758,23775,23791,23808,23825,23842,23859,23875,23892,23909,23925,23942,23958,23975,23992,24009,24025,24042,24059,24075,24092,24109,24125,24142,24159,24175,24192,24209,24225,24242,24259,24275,24292,24309,24325,24342,24359,24375,24392,24409,24425,24442,24459,24476,24492,24509,24526,24542,24559,24576,24592,24609,24626,24642,24659,24676,24692,24709,24726,24742,24759,24776,24792,24809,24826,24843,24859,24876,24892,24909,24926,24942,24959,24976,24993,25009,25026,25043,25059,25076,25093,25109,25126,25143,25159,25176,25193,25210,25226,25243,25260,25276,25293,25310,25326,25343,25360,25376,25393,25410,25426,25443,25460,25476,25493,25510,25526,25543,25560,25576,25593,25610,25627,25643,25660,25676,25693,25710,25727,25743,25760,25777,25793,25810,25827,25843,25860,25876,25893,25910,25927,25943,25960,25977,25994,26010,26027,26043,26060,26077,26093,26110,26127,26143,26160,26177,26194,26210,26227,26244,26260,26277,26294,26310,26327,26344,26360,26377,26394,26410,26427,26444,26460,26477,26494,26510,26527,26544,26561,26577,26594,26610,26627,26644,26661,26677,26694,26711,26727,26744,26761,26777,26794,26811,26827,26844,26861,26877,26894,26911,26928,26944,26962,26978,26995,27012,27028,27045,27061,27078,27094,27111,27128,27144,27161,27178,27194,27211,27228,27244,27261,27278,27295,27311,27328,27344,27361,27378,27395,27411,27428,27445,27461,27478,27495,27511,27528,27545,27561,27578,27595,27611,27628,27645,27661,27678,27695,27712,27728,27745,27761,27778,27795,27812,27828,27845,27862,27878,27895,27912,27928,27945,27962,27978,27995,28012,28028,28045,28062,28078,28095,28112,28128,28145,28162,28178,28195,28212,28229,28245,28262,28279,28295,28312,28329,28345,28362,28379,28395,28412,28429,28446,28462,28479,28495,28512,28529,28545,28562,28579,28595,28612,28629,28645,28662,28679,28696,28712,28729,28746,28762,28779,28796,28812,28829,28846,28862,28879,28896,28912,28929,28946,28962,28979,28996,29013,29029,29046,29062,29079,29096,29113,29129,29146,29163,29179,29196,29213,29229,29246,29263,29279,29296,29313,29330,29346,29363,29379,29396,29413,29429,29446,29463,29479,29496,29513,29530,29546,29563,29580,29596,29613,29629,29647,29663,29680,29697,29713,29730,29746,29763,29780,29796,29813,29830,29847,29863,29880,29897,29913,29930,29946,29963,29980,29997,30013,30030,30047,30063,30080,30097,30113,30130,30147,30163,30180,30197,30214,30230,30247,30264,30280,30297,30314,30330,30347,30364,30380,30397,30414,30430,30447,30464,30480,30497,30514,30530,30547,30564,30581,30597,30614,30630,30647,30664,30681,30698,30714,30731,30747,30764,30781,30797,30814,30831,30847,30864,30881,30897,30914,30931,30947,30964,30981,30999,31015,31031,31048,31065,31082,31098,31115,31131,31148,31164,31181,31198,31215,31231,31248,31265,31281,31298,31315,31331,31348,31365,31381,31398,31414,31431,31448,31465,31481,31498,31515,31531,31548,31565,31581,31598,31615,31632,31648,31665,31682,31698,31715,31732,31748,31765,31781,31798,31815,31832,31848,31865,31882,31898,31915,31931,31948,31965,31982,31998,32015,32032,32048,32065,32082,32098,32115,32132,32148,32165,32182,32198,32215,32232,32248,32265,32282,32299,32316,32332,32349,32365,32382,32399,32416,32432,32449,32466,32482,32499,32516,32532,32549,32565,32582,32599,32616,32632,32649,32666,32682,32699,32716,32732,32749,32766,32782,32799,32816,32832,32849,32866,32882,32899,32916,32932,32949,32966,32982,32999,33016,33032,33049,33066,33082,33099,33116,33133,33149,33166,33183,33199,33216,33233,33249,33266,33283,33299,33316,33333,33350,33366,33383,33399,33416,33433,33449,33466,33483,33500,33516,33533,33550,33566,33583,33600,33616,33633,33650,33667,33683,33700,33716,33733,33750,33766,33783,33800,33816,33833,33850,33867,33883,33900,33917,33933,33950,33967,33983,34000,34017,34033,34050,34067,34083,34100,34117,34133,34150,34167,34183,34200,34217,34233,34250,34267,34283,34300,34317,34334,34350,34367,34384,34400,34417,34434,34450,34467,34484,34500,34517,34534,34550,34567,34584,34600,34617,34634,34650,34667,34684,34701,34717,34734,34751,34767,34784,34801,34817,34834,34851,34867,34884,34901,34917,34934,34951,34967,34985,35001,35018,35034,35051,35067,35084,35101,35118,35134,35151,35168,35184,35201,35217,35234,35251,35268,35284,35301,35318,35334,35351,35368,35384,35401,35418,35434,35451,35468,35485,35501,35518,35535,35551,35568,35585,35601,35618,35635,35651,35668,35685,35701,35718,35734,35751,35768,35785,35801,35818,35835,35851,35868,35885,35902,35918,35935,35952,35968,35985,36002,36018,36035,36052,36068,36085,36102,36118,36135,36152,36168,36185,36202,36218,36235,36252,36268,36285,36302,36319,36335,36352,36369,36385,36402,36419,36435,36452,36469,36485,36502,36519,36535,36552,36569,36585,36602,36619,36635,36652,36669,36686,36702,36719,36736,36752,36769,36786,36802,36819,36836,36852,36869,36886,36902,36919,36936,36952,36969,36986,37003,37019,37036,37052,37069,37086,37102,37119,37136,37153,37169,37186,37203,37219,37236,37253,37269,37287,37303,37319,37336,37353,37369,37386,37403,37419,37436,37453,37469,37486,37503,37519,37536,37553,37570,37586,37603,37619,37636,37653,37670,37686,37703,37720,37736,37753,37769,37786,37803,37820,37837,37853,37870,37886,37903,37920,37937,37953,37970,37987,38004,38020,38037,38053,38070,38087,38103,38120,38137,38153,38170,38187,38203,38220,38237,38253,38270,38287,38303,38320,38337,38354,38370,38387,38404,38420,38437,38454,38470,38487,38504,38520,38537,38554,38570,38587,38604,38620,38637,38654,38670,38687,38704,38721,38737,38754,38771,38787,38804,38820,38837,38854,38871,38887,38904,38920,38937,38954,38971,38987,39004,39021,39038,39054,39071,39088,39104,39121,39138,39154,39171,39187,39204,39221,39237,39254,39271,39288,39305,39321,39338,39354,39371,39388,39404,39421,39438,39455,39471,39488,39505,39521,39538,39555,39571,39588,39605,39621,39638,39655,39671,39688,39705,39721,39738,39755,39771,39788,39805,39822,39838,39855,39872,39888,39905,39922,39938,39955,39971,39988,40005,40021,40038,40055,40072,40088,40105,40121,40138,40155,40172,40188,40205,40222,40238,40255,40272,40288,40305,40322,40339,40355,40372,40388,40405,40422,40438,40455,40472,40489,40505,40522,40538,40555,40572,40589,40605,40622,40639,40655,40672,40689,40705,40722,40739,40756,40772,40789,40805,40822,40839,40856,40872,40889,40906,40922,40939,40956,40972,40989,41006,41022,41039,41056,41072,41089,41105,41122,41139,41156,41172,41189,41206,41222,41239,41256,41272,41289,41306,41323,41339,41356,41373,41389,41406,41423,41439,41456,41473,41489,41506,41523,41539,41556,41573,41589,41606,41623,41639,41656,41673,41689,41706,41723,41740,41756,41773,41789,41806,41823,41840,41856,41873,41890,41906,41923,41940,41956,41973,41990,42009,42023,42040,42057,42073,42090,42107,42123,42140,42156,42173,42190,42207,42223,42240,42257,42273,42290,42307,42323,42340,42357,42374,42390,42407,42423,42440,42457,42473,42490,42507,42524,42540,42557,42573,42590,42607,42624,42640,42657,42674,42690,42707,42724,42740,42757,42773,42790,42807,42824,42840,42857,42874,42891,42907,42924,42940,42957,42974,42991,43008,43024,43041,43057,43074,43091,43107,43124,43140,43157,43174,43191,43207,43224,43241,43257,43274,43291,43308,43324,43341,43358,43374,43391,43408,43424,43441,43458,43474,43491,43508,43524,43541,43558,43574,43591,43608,43624,43641,43658,43674,43691,43708,43725,43741,43758,43774,43791,43808,43825,43841,43858,43875,43891,43908,43925,43941,43958,43974,43992,44008,44025,44041,44058,44075,44091,44108,44124,44141,44158,44175,44191,44208,44225,44241,44258,44275,44291,44308,44325,44342,44358,44375,44392,44408,44425,44442,44458,44475,44492,44508,44525,44542,44559,44575,44592,44608,44625,44642,44658,44675,44692,44708,44725,44742,44759,44775,44792,44809,44825,44842,44859,44875,44892,44909,44925,44942,44959,44975,44992,45009,45025,45042,45059,45076,45092,45109,45126,45142,45159,45175,45192,45209,45226,45242,45259,45276,45294,45309,45326,45342,45359,45376,45392,45409,45426,45442,45459,45476,45492,45509,45526,45543,45561,45576,45593,45610,45626,45643,45660,45676,45693,45710,45726,45743,45759,45776,45793,45809,45826,45843,45860,45876,45893,45909,45926,45943,45959,45976,45993,46010,46026,46043,46060,46076,46093,46110,46126,46143,46160,46176,46193,46210,46227,46243,46260,46277,46293,46310,46326,46343,46360,46376,46393,46410,46427,46443,46460,46477,46493,46510,46527,46543,46560,46577,46593,46610,46627,46643,46660,46677,46694,46710,46727,46744,46760,46777,46793,46810,46827,46844,46860,46877,46894,46910,46927,46944,46960,46977,46994,47010,47027,47044,47060,47077,47094,47111,47127,47144,47161,47177,47194,47210,47227,47244,47261,47277,47294,47311,47327,47344,47361,47377,47394,47411,47427,47444,47461,47477,47494,47511,47527,47544,47561,47577,47594,47611,47628,47644,47661,47677,47694,47711,47728,47744,47761,47778,47794,47811,47828,47845,47861,47878,47894,47911,47928,47944,47961,47978,47995,48011,48028,48044,48061,48078,48094,48111,48128,48145,48161,48178,48195,48211,48228,48245,48261,48278,48295,48311,48328,48345,48361,48378,48395,48411,48428,48445,48462,48478,48495,48512,48528,48545,48562,48578,48595,48612,48628,48645,48662,48678,48695,48712,48729,48745,48762,48778,48795,48812,48828,48845,48862,48879,48895,48912,48929,48945,48962,48979,48995,49012,49029,49045,49062,49079,49095,49112,49129,49146,49162,49179,49196,49212,49229,49245,49262,49279,49297,49312,49329,49346,49362,49379,49395,49412,49429,49446,49462,49479,49496,49512,49529,49546,49562,49579,49596,49612,49629,49646,49662,49679,49696,49713,49729,49746,49763,49779,49796,49813,49829,49846,49863,49879,49896,49913,49929,49946,49963,49979,49996,50013,50029,50046,50063,50079,50096,50113,50129,50146,50163,50180,50196,50213,50230,50246,50263,50280,50296,50313,50330,50346,50363,50380,50396,50413,50430,50446,50463,50480,50496,50513,50530,50546,50563,50580,50597,50613,50630,50647,50663,50680,50697,50713,50730,50747,50763,50780,50797,50813,50830,50847,50863,50880,50897,50913,50930,50947,50963,50980,50997,51014,51030,51047,51064,51080,51097,51114,51130,51147,51164,51180,51197,51214,51230,51247,51264,51280,51297,51314,51330,51347,51364,51381,51397,51414,51430,51447,51464,51481,51497,51514,51531,51547,51564,51581,51597,51614,51631,51647,51664,51681,51697,51714,51731,51747,51764,51781,51797,51814,51831,51848,51864,51881,51898,51914,51931,51948,51964,51981,51998,52014,52031,52048,52064,52081,52098,52115,52131,52148,52164,52181,52198,52215,52231,52248,52265,52281,52298,52315,52331,52348,52365,52381,52398,52415,52431,52448,52465,52481,52498,52515,52532,52548,52565,52581,52598,52615,52632,52648,52665,52681,52698,52715,52732,52748,52765,52782,52798,52815,52832,52848,52865,52882,52898,52915,52932,52949,52965,52982,52998,53015,53032,53049,53065,53082,53099,53115,53132,53149,53165,53182,53199,53216,53232,53249,53265,53282,53301,53315,53332,53349,53366,53382,53399,53415,53432,53449,53466,53482,53499,53516,53532,53549,53566,53582,53599,53616,53632,53649,53666,53682,53699,53716,53733,53749,53766,53782,53799,53816,53832,53849,53866,53882,53899,53916,53933,53949,53966,53983,53999,54016,54033,54049,54066,54083,54099,54116,54133,54150,54166,54183,54200,54216,54233,54249,54266,54283,54299,54316,54333,54350,54366,54383,54400,54416,54433,54450,54466,54483,54500,54516,54533,54550,54566,54583,54600,54616,54633,54650,54667,54683,54700,54717,54733,54750,54767,54783,54800,54817,54833,54850,54867,54883,54900,54917,54933,54950,54967,54983,55000,55017,55033,55050,55067,55084,55100,55117,55134,55150,55167,55184,55200,55217,55234,55250,55267,55284,55300,55317,55334,55351,55367,55384,55400,55417,55434,55450,55467,55484,55501,55517,55534,55550,55567,55584,55601,55617,55634,55651,55668,55684,55701,55717,55734,55751,55767,55784,55801,55818,55834,55851,55868,55884,55901,55918,55934,55951,55968,55984,56001,56018,56034,56051,56068,56084,56101,56118,56134,56151,56168,56185,56201,56218,56235,56251,56268,56285,56301,56318,56335,56351,56368,56385,56401,56418,56435,56451,56468,56485,56501,56518,56535,56552,56568,56585,56602,56618,56635,56652,56668,56685,56701,56718,56736,56752,56769,56785,56802,56819,56835,56852,56869,56885,56902,56919,56935,56952,56969,56985,57002,57019,57035,57052,57069,57085,57102,57119,57135,57152,57168,57185,57202,57219,57235,57252,57269,57285,57302,57319,57335,57352,57369,57385,57402,57419,57435,57452,57469,57486,57502,57519,57535,57552,57569,57586,57602,57619,57636,57652,57669,57686,57702,57719,57736,57752,57769,57786,57802,57819,57836,57852,57869,57886,57902,57919,57936,57953,57969,57986,58003,58019,58036,58052,58069,58086,58103,58119,58136,58153,58169,58186,58203,58220,58236,58253,58269,58286,58303,58320,58336,58353,58370,58386,58403,58420,58436,58453,58470,58487,58503,58520,58536,58553,58570,58586,58603,58620,58636,58653,58670,58687,58703,58720,58737,58753,58770,58787,58803,58820,58837,58853,58870,58887,58903,58920,58937,58953,58970,58987,59003,59020,59037,59054,59070,59087,59104,59120,59137,59153,59170,59187,59204,59220,59237,59254,59270,59287,59304,59320,59337,59354,59370,59387,59404,59420,59437,59454,59470,59487,59504,59520,59537,59554,59571,59587,59604,59621,59637,59654,59671,59687,59704,59721,59737,59754,59771,59787,59804,59821,59837,59854,59871,59888,59904,59921,59937,59954,59971,59988,60004,60021,60038,60054,60071,60087,60104,60121,60138,60154,60171,60188,60204,60221,60238,60254,60271,60288,60305,60321,60338,60354,60371,60388,60404,60421,60438,60455,60471,60488,60505,60521,60538,60554,60571,60588,60605,60621,60638,60655,60671,60688,60705,60721,60738,60755,60771,60788,60805,60821,60838,60855,60871,60888,60905,60922,60938,60955,60972,60989,61005,61022,61038,61055,61072,61088,61105,61122,61138,61155,61172,61188,61205,61222,61238,61255,61272,61288,61305,61322,61338,61355,61372,61389,61405,61422,61439,61455,61472,61489,61505,61522,61539,61555,61572,61589,61605,61622,61639,61656,61672,61689,61706,61722,61739,61756,61772,61789,61806,61822,61839,61855,61872,61889,61906,61923,61939,61956,61972,61989,62006,62023,62039,62056,62072,62089,62106,62122,62139,62156,62172,62189,62206,62223,62239,62256,62273,62289,62306,62323,62339,62356,62373,62389,62406,62423,62439,62456,62473,62489,62506,62523,62539,62556,62573,62590,62606,62623,62640,62656,62673,62690,62706,62723,62740,62757,62773,62789,62806,62823,62840,62856,62873,62890,62907,62923,62940,62957,62973,62990,63007,63023,63040,63057,63073,63090,63107,63123,63140,63157,63173,63190,63207,63223,63240,63257,63273,63290,63307,63323,63340,63357,63373,63390,63407,63424,63440,63457,63473,63490,63507,63524,63540,63557,63574,63590,63607,63624,63640,63657,63674,63690,63707,63724,63741,63757,63774,63791,63807,63824,63841,63857,63874,63891,63907,63924,63941,63957,63974,63991,64007,64024,64041,64058,64074,64091,64107,64124,64141,64157,64174,64191,64208,64224,64241,64258,64274,64291,64307,64324,64341,64358,64374,64391,64408,64424,64441,64458,64474,64491,64508,64524,64541,64558,64574,64591,64608,64624,64641,64658,64675,64691,64708,64725,64741,64758,64775,64791,64808,64825,64841,64858,64875,64891,64908,64925,64941,64958,64975,64992,65008,65025,65042,65058,65075,65092,65108,65125,65142,65158,65175,65192,65208,65225,65242,65258,65275,65292,65308,65325,65342,65358,65375,65392,65408,65425,65442,65459,65475,65492,65509,65525,65542,65559,65575,65592,65609,65625,65642,65659,65675,65692,65709,65726,65742,65759,65776,65792,65809,65826,65842,65859,65876,65892,65909,65926,65942,65959,65976,65992,66009,66026,66042,66059,66076,66093,66109,66126,66143,66159,66176,66193,66209,66226,66243,66259,66276,66293,66309,66326,66343,66359,66376,66393,66409,66426,66443,66459,66476,66493,66510,66526,66543,66559,66576,66593,66610,66626,66643,66660,66676,66693,66710,66726,66743,66760,66776,66793,66810,66827,66843,66860,66877,66893,66910,66927,66943,66960,66977,66993,67010,67027,67043,67060,67077,67093,67110,67127,67143,67160,67177,67193,67210,67227,67243,67260,67277,67293,67310,67327,67343,67360,67377,67393,67410,67427,67444,67460,67477,67493,67510,67527,67544,67560,67577,67594,67610,67627,67644,67661,67677,67694,67710,67727,67744,67760,67777,67794,67810,67827,67844,67861,67877,67894,67911,67929,67944,67961,67978,67994,68011,68028,68044,68061,68078,68094,68111,68127,68144,68161,68178,68194,68211,68227,68244,68261,68278,68294,68311,68328,68345,68361,68377,68394,68411,68428,68444,68461,68478,68494,68511,68528,68544,68561,68578,68595,68611,68628,68645,68661,68678,68695,68711,68728,68745,68761,68778,68795,68811,68828,68844,68861,68878,68895,68911,68928,68945,68962,68978,68995,69011,69028,69045,69061,69078,69095,69112,69128,69145,69162,69178,69195,69212,69229,69245,69262,69278,69295,69312,69329,69345,69362,69379,69395,69412,69429,69445,69462,69479,69495,69512,69529,69546,69562,69579,69595,69612,69629,69646,69662,69679,69695,69712,69729,69745,69762,69779,69796,69812,69829,69846,69862,69879,69895,69912,69929,69946,69962,69979,69996,70013,70029,70046,70062,70080,70096,70112,70129,70146,70162,70179,70196,70213,70229,70246,70263,70279,70296,70312,70329,70346,70362,70379,70396,70413,70429,70446,70463,70479,70496,70513,70530,70546,70563,70580,70597,70613,70630,70646,70663,70680,70696,70713,70730,70747,70763,70780,70796,70813,70830,70846,70863,70880,70896,70913,70930,70947,70963,70980,70997,71013,71030,71046,71063,71080,71097,71113,71130,71146,71163,71180,71197,71213,71230,71247,71263,71280,71297,71313,71330,71347,71363,71380,71397,71413,71430,71447,71464,71480,71497,71514,71530,71547,71564,71580,71597,71614,71630,71647,71664,71681,71697,71714,71730,71747,71764,71780,71797,71814,71830,71847,71864,71880,71897,71914,71931,71947,71964,71981,71997,72014,72030,72047,72064,72081,72097,72114,72131,72147,72164,72181,72197,72214,72231,72247,72264,72281,72297,72314,72331,72348,72364,72381,72398,72414,72431,72448,72464,72481,72498,72514,72532,72548,72565,72581,72598,72614,72631,72648,72664,72681,72698,72715,72732,72748,72764,72782,72798,72815,72831,72848,72865,72881,72898,72915,72931,72948,72965,72982,72998,73015,73031,73048,73065,73081,73098,73115,73131,73148,73165,73182,73198,73215,73231,73248,73265,73282,73298,73316,73332,73348,73365,73382,73398,73415,73432,73448,73465,73482,73498,73515,73532,73548,73565,73582,73598,73615,73632,73649,73665,73682,73699,73715,73732,73749,73765,73782,73799,73815,73832,73849,73865,73882,73899,73915,73932,73949,73965,73982,73999,74015,74032,74049,74065,74082,74099,74116,74132,74149,74165,74182,74199,74216,74232,74249,74266,74282,74299,74316,74332,74349,74366,74383,74399,74416,74432,74449,74466,74483,74499,74516,74533,74549,74566,74583,74599,74616,74633,74649,74666,74683,74699,74716,74733,74749,74766,74783,74799,74816,74833,74849,74866,74883,74900,74916,74933,74950,74966,74983,75000,75016,75033,75050,75066,75083,75100,75116,75133,75150,75166,75183,75200,75216,75233,75250,75267,75283,75300,75317,75333,75350,75367,75383,75400,75417,75433,75450,75467,75484,75500,75517,75533,75550,75567,75584,75600,75617,75633,75650,75667,75684,75700,75717,75734,75750,75767,75784,75800,75817,75834,75850,75867,75884,75900,75917,75934,75951,75967,75984,76000,76017,76034,76051,76067,76084,76100,76117,76134,76150,76167,76184,76201,76217,76234,76251,76267,76284,76301,76318,76334,76351,76367,76384,76401,76417,76434,76451,76467,76484,76501,76518,76534,76551,76568,76584,76601,76618,76634,76651,76668,76684,76701,76718,76734,76751,76768,76784,76801,76818,76834,76851,76868,76884,76901,76918,76934,76951,76968,76984,77001,77018,77035,77051,77068,77085,77101,77118,77135,77151,77168,77185,77201,77218,77235,77251,77268,77285,77301,77320,77335,77352,77368,77385,77401,77418,77435,77452,77468,77485,77502,77518,77535,77552,77568,77585,77602,77618,77635,77652,77668,77685,77702,77718,77735,77752,77769,77785,77802,77819,77835,77852,77869,77885,77902,77919,77935,77952,77969,77985,78002,78019,78035,78052,78069,78085,78102,78119,78135,78152,78169,78186,78202,78219,78236,78252,78269,78286,78302,78319,78336,78352,78369,78386,78402,78419,78436,78452,78469,78486,78502,78519,78536,78552,78569,78586,78602,78619,78636,78653,78669,78686,78703,78719,78736,78753,78769,78786,78803,78819,78836,78852,78869,78886,78903,78919,78936,78953,78970,78986,79003,79019,79036,79053,79069,79086,79103,79120,79136,79153,79170,79186,79203,79220,79236,79253,79270,79286,79303,79320,79336,79353,79370,79387,79403,79420,79436,79453,79470,79487,79503,79520,79537,79553,79570,79587,79603,79620,79639,79654,79671,79687,79704,79721,79737,79754,79771,79787,79804,79820,79837,79854,79870,79887,79904,79920,79937,79954,79970,79987,80004,80020,80037,80054,80070,80087,80104,80120,80137,80154,80171,80187,80204,80221,80237,80254,80271,80287,80304,80321,80337,80354,80371,80387,80404,80421,80437,80454,80471,80487,80504,80521,80537,80554,80571,80588,80604,80621,80638,80654,80671,80688,80704,80721,80738,80754,80771,80788,80804,80821,80838,80855,80871,80888,80904,80921,80938,80955,80971,80988,81005,81021,81038,81054,81071,81088,81105,81121,81138,81155,81171,81188,81205,81221,81238,81255,81271,81288,81305,81323,81338,81355,81372,81388,81405,81422,81438,81455,81472,81488,81505,81522,81538,81555,81572,81588,81605,81622,81638,81655,81672,81688,81705,81722,81739,81755,81772,81788,81805,81822,81838,81855,81872,81889,81905,81922,81939,81955,81972,81989,82005,82022,82039,82055,82072,82089,82105,82122,82139,82155,82172,82189,82206,82222,82239,82255,82272,82289,82305,82322,82339,82356,82372,82389,82406,82422,82439,82456,82472,82489,82506,82522,82539,82556,82572,82589,82606,82622,82639,82656,82673,82689,82706,82723,82739,82756,82773,82789,82806,82823,82839,82856,82873,82890,82906,82923,82940,82956,82973,82990,83006,83023,83040,83056,83073,83090,83106,83123,83140,83156,83173,83190,83206,83223,83240,83256,83273,83290,83306,83323,83340,83356,83373,83390,83406,83423,83440,83457,83473,83490,83506,83523,83540,83557,83573,83590,83607,83623,83640,83657,83673,83690,83707,83723,83740,83757,83773,83790,83807,83823,83840,83857,83874,83890,83907,83923,83940,83957,83973,83990,84007,84024,84040,84057,84074,84090,84107,84124,84140,84157,84174,84190,84207,84224,84241,84257,84274,84291,84307,84324,84340,84357,84374,84390,84407,84424,84441,84457,84474,84491,84507,84524,84541,84557,84574,84591,84607,84624,84641,84658,84674,84691,84707,84724,84741,84757,84774,84791,84808,84824,84841,84858,84874,84891,84908,84924,84941,84958,84974,84991,85008,85024,85041,85058,85075,85091,85108,85125,85141,85158,85174,85191,85208,85224,85241,85258,85275,85291,85308,85326,85341,85358,85375,85391,85408,85425,85442,85458,85475,85491,85508,85525,85541,85558,85575,85591,85608,85625,85641,85658,85675,85692,85708,85725,85742,85758,85775,85792,85808,85825,85842,85858,85875,85892,85908,85925,85942,85958,85975,85992,86008,86025,86042,86059,86075,86092,86109,86125,86142,86159,86175,86192,86209,86225,86242,86259,86275,86292,86309,86325,86342,86359,86375,86392,86409,86425,86442,86459,86475,86492,86509,86526,86542,86559,86576,86592,86609,86625,86642,86659,86676,86693,86709,86726,86742,86759,86776,86792,86809,86826,86842,86859,86876,86892,86909,86926,86943,86959,86976,86993,87009,87026,87043,87059,87076,87093,87109,87126,87143,87159,87176,87193,87210,87226,87243,87259,87276,87293,87310,87326,87343,87359,87376,87393,87410,87426,87443,87460,87476,87493,87510,87526,87543,87560,87576,87593,87610,87626,87643,87660,87676,87693,87710,87727,87743,87760,87777,87793,87810,87827,87843,87860,87877,87893,87910,87927,87943,87960,87977,87994,88010,88027,88044,88060,88077,88094,88110,88127,88143,88160,88177,88194,88210,88227,88244,88260,88277,88294,88310,88327,88344,88361,88377,88394,88411,88427,88444,88461,88477,88494,88511,88527,88544,88561,88577,88594,88611,88627,88644,88661,88677,88694,88711,88728,88744,88761,88777,88794,88811,88827,88844,88861,88878,88894,88911,88927,88944,88961,88977,88994,89011,89028,89044,89061,89078,89094,89111,89128,89144,89161,89178,89195,89212,89228,89245,89261,89278,89294,89311,89330,89345,89361,89378,89395,89411,89428,89445,89461,89478,89495,89511,89528,89544,89561,89578,89595,89611,89628,89645,89661,89678,89695,89712,89728,89745,89762,89778,89795,89812,89828,89845,89861,89878,89895,89912,89928,89945,89962,89978,89995,90012,90028,90045,90062,90078,90095,90112,90128,90145,90162,90179,90195,90212,90229,90245,90262,90279,90295,90312,90328,90345,90362,90379,90395,90412,90429,90446,90462,90479,90496,90513,90529,90546,90562,90579,90596,90612,90629,90646,90662,90679,90696,90713,90729,90746,90762,90779,90796,90812,90829,90846,90863,90879,90896,90912,90929,90946,90962,90979,90996,91012,91029,91046,91063,91080,91096,91115,91129,91146,91163,91179,91196,91213,91229,91246,91263,91279,91296,91313,91330,91346,91363,91380,91396,91413,91430,91446,91463,91480,91496,91513,91530,91546,91563,91580,91596,91613,91630,91647,91663,91680,91696,91714,91730,91747,91763,91780,91797,91813,91830,91847,91863,91880,91897,91913,91930,91947,91963,91980,91997,92013,92030,92047,92063,92080,92097,92114,92130,92147,92164,92180,92197,92214,92230,92247,92264,92280,92297,92314,92330,92347,92364,92381,92397,92415,92431,92447,92464,92480,92497,92514,92530,92547,92564,92581,92597,92614,92631,92647,92664,92681,92697,92714,92731,92748,92764,92781,92797,92814,92831,92848,92864,92881,92898,92914,92931,92948,92964,92981,92998,93014,93031,93047,93064,93081,93098,93114,93131,93148,93165,93181,93198,93215,93231,93248,93265,93281,93298,93314,93333,93348,93365,93381,93398,93415,93431,93448,93465,93481,93498,93515,93531,93548,93565,93581,93598,93615,93631,93648,93665,93682,93698,93715,93732,93748,93765,93782,93798,93815,93832,93848,93865,93882,93898,93915,93932,93948,93965,93982,93998,94015,94032,94048,94065,94082,94098,94115,94132,94148,94165,94182,94199,94215,94232,94249,94265,94282,94299,94316,94332,94349,94366,94382,94399,94415,94432,94449,94466,94482,94499,94515,94532,94549,94565,94582,94600,94616,94632,94649,94666,94682,94699,94716,94733,94750,94766,94782,94799,94816,94832,94849,94866,94883,94899,94916,94933,94949,94966,94983,94999,95016,95033,95049,95066,95083,95099,95116,95133,95149,95166,95182,95199,95216,95233,95249,95266,95283,95299,95316,95333,95350,95366,95383,95399,95416,95433,95449,95466,95483,95500,95516,95533,95550,95566,95583,95599,95616,95633,95650,95667,95683,95700,95717,95733,95750,95767,95783,95800,95816,95833,95850,95867,95883,95900,95917,95933,95950,95967,95983,96000,96017,96036,96050,96067,96084,96100,96117,96133,96150,96167,96183,96200,96217,96234,96250,96267,96284,96300,96317,96334,96350,96367,96384,96400,96417,96434,96450,96467,96484,96500,96517,96534,96550,96567,96584,96602],"hit":[null],"x":[0.05782312925170068,0.05782312925170068,0.05442176870748299,0.05442176870748299,0.05442176870748299,0.05442176870748299,0.05442176870748299,0.05442176870748299,0.05782312925170068,0.05782312925170068,0.05782312925170068,0.061224489795918366,0.07482993197278912,0.1054421768707483,0.14965986394557823,0.1836734693877551,0.23129251700680273,0.24489795918367346,0.282312925170068,0.30272108843537415,0.3129251700680272,0.32653061224489793,0.3333333333333333,0.336734693877551,0.336734693877551,0.336734693877551,0.336734693877551,0.336734693877551,0.3401360544217687,0.3435374149659864,0.35034013605442177,0.35374149659863946,0.35374149659863946,0.35374149659863946,0.35374149659863946,0.35374149659863946,0.35374149659863946,0.35374149659863946,0.35374149659863946,0.35374149659863946,0.35374149659863946,0.35374149659863946,0.35374149659863946,0.35374149659863946,0.35374149659863946,0.35374149659863946,0.35374149659863946,0.35374149659863946,0.35374149659863946,0.35374149659863946,0.35374149659863946,0.35714285714285715,0.36054421768707484,0.36394557823129253,0.3673469387755102,0.3673469387755102,0.3673469387755102,0.3673469387755102,0.3673469387755102,0.3673469387755102,0.3673469387755102,0.3673469387755102,0.3673469387755102,0.36394557823129253,0.35714285714285715,0.35374149659863946,0.3435374149659864,0.3401360544217687,0.3401360544217687,0.3401360544217687,0.3401360544217687,0.3401360544217687,0.3401360544217687,0.3401360544217687,0.3401360544217687,0.3401360544217687,0.3435374149659864,0.35034013605442177,0.36054421768707484,0.3673469387755102,0.3741496598639456,0.38095238095238093,0.3945578231292517,0.4013605442176871,0.40816326530612246,0.41156462585034015,0.41836734693877553,0.4217687074829932,0.42517006802721086,0.42857142857142855,0.43197278911564624,0.43197278911564624,0.43197278911564624,0.43197278911564624,0.43197278911564624,0.43197278911564624,0.43197278911564624,0.43197278911564624,0.43197278911564624,0.43537414965986393,0.43537414965986393,0.43537414965986393,0.43537414965986393,0.43537414965986393,0.43197278911564624,0.42517006802721086,0.41156462585034015,0.3945578231292517,0.38095238095238093,0.36054421768707484,0.3469387755102041,0.29931972789115646,0.24489795918367346,0.17687074829931973,0.10884353741496598,0.06802721088435375,0.006802721088435374,-0.05442176870748299,-0.09523809523809523,-0.14965986394557823,-0.17687074829931973,-0.19727891156462585,-0.20068027210884354,-0.20068027210884354,-0.1870748299319728,-0.16326530612244897,-0.1292517006802721,-0.10204081632653061,-0.07142857142857142,-0.047619047619047616,-0.034013605442176874,-0.017006802721088437,-0.013605442176870748,0,0.01020408163265306,0.017006802721088437,0.027210884353741496,0.030612244897959183,0.03741496598639456,0.04081632653061224,0.04081632653061224,0.04081632653061224,0.04081632653061224,0.04081632653061224,0.04081632653061224,0.04081632653061224,0.04081632653061224,0.04081632653061224,0.04081632653061224,0.05442176870748299,0.0782312925170068,0.11224489795918367,0.14285714285714285,0.1870748299319728,0.22108843537414966,0.24489795918367346,0.2585034013605442,0.2619047619047619,0.2619047619047619,0.23469387755102042,0.20748299319727892,0.18027210884353742,0.1598639455782313,0.15306122448979592,0.1360544217687075,0.1326530612244898,0.12244897959183673,0.12244897959183673,0.10884353741496598,0.09863945578231292,0.08503401360544217,0.06802721088435375,0.05442176870748299,0.047619047619047616,0.04421768707482993,0.04421768707482993,0.04081632653061224,0.04081632653061224,0.04081632653061224,0.04081632653061224,0.03741496598639456,0.034013605442176874,0.027210884353741496,0.023809523809523808,0.017006802721088437,0.013605442176870748,0.013605442176870748,0.013605442176870748,0.013605442176870748,0.013605442176870748,0.013605442176870748,0.013605442176870748,0.00816334834715136,0.00816334834715136,0.00816334834715136,-1.4557823129251701,0.006802721088435374,0.006802721088435374,0.006802721088435374,0.006802721088435374,0.01020408163265306,0.017006802721088437,0.034013605442176874,0.04421768707482993,0.05102040816326531,0.05782312925170068,0.06802721088435375,0.08163265306122448,0.08843537414965986,0.10204081632653061,0.11224489795918367,0.12585034013605442,0.14285714285714285,0.15306122448979592,0.16666666666666666,0.17687074829931973,0.1870748299319728,0.19047619047619047,0.19387755102040816,0.19727891156462585,0.20068027210884354,0.20408163265306123,0.20748299319727892,0.21428571428571427,0.21768707482993196,0.21768707482993196,0.22108843537414966,0.22789115646258504,0.23129251700680273,0.23469387755102042,0.24149659863945577,0.24829931972789115,0.2585034013605442,0.272108843537415,0.29931972789115646,0.3333333333333333,0.35714285714285715,0.3945578231292517,0.4217687074829932,0.46258503401360546,0.48299319727891155,0.5034013605442177,0.5170068027210885,0.5272108843537415,0.5374149659863946,0.54421768707483,0.54421768707483,0.5476190476190477,0.5510204081632653,0.5510204081632653,0.5510204081632653,0.5510204081632653,0.5510204081632653,0.5510204081632653,0.5510204081632653,0.5510204081632653,0.5510204081632653,0.5510204081632653,0.5510204081632653,0.5510204081632653,0.5510204081632653,0.5510204081632653,0.5510204081632653,0.5510204081632653,0.5510204081632653,0.5510204081632653,0.5510204081632653,0.5510204081632653,0.5510204081632653,0.5510204081632653,0.5510204081632653,0.5510204081632653,0.5510204081632653,0.5510204081632653,0.5510204081632653,0.5544217687074829,0.5578231292517006,0.5578231292517006,0.5612244897959183,0.5612244897959183,0.564625850340136,0.5680272108843537,0.5714285714285714,0.5714285714285714,0.5714285714285714,0.5714285714285714,0.5714285714285714,0.5714285714285714,0.5714285714285714,0.5748299319727891,0.5748299319727891,0.5748299319727891,0.5748299319727891,0.5748299319727891,0.5748299319727891,0.5748299319727891,0.5748299319727891,0.5748299319727891,0.5748299319727891,0.5748299319727891,0.5748299319727891,0.5748299319727891,0.5748299319727891,0.5748299319727891,0.5748299319727891,0.5748299319727891,0.5748299319727891,0.5748299319727891,0.5748299319727891,0.5748299319727891,0.5748299319727891,0.5748299319727891,0.5748299319727891,0.5748299319727891,0.5748299319727891,0.5748299319727891,0.5748299319727891,0.5748299319727891,0.5748299319727891,0.5748299319727891,0.5748299319727891,0.5748299319727891,0.5748299319727891,0.5748299319727891,0.5748299319727891,0.5748299319727891,0.5748299319727891,0.5748299319727891,0.5748299319727891,0.5748299319727891,0.5748299319727891,0.5748299319727891,0.5748299319727891,0.5748299319727891,0.5748299319727891,0.5748299319727891,0.5748299319727891,0.5748299319727891,0.5748299319727891,0.5748299319727891,0.5748299319727891,0.5748299319727891,0.5748299319727891,0.5748299319727891,0.5748299319727891,0.5748299319727891,0.5748299319727891,0.5748299319727891,0.5748299319727891,0.5748299319727891,0.5748299319727891,0.5748299319727891,0.5748299319727891,0.5748299319727891,0.5748299319727891,0.5748299319727891,0.5748299319727891,0.5748299319727891,0.5748299319727891,0.5748299319727891,0.5748299319727891,0.5748299319727891,0.5748299319727891,0.5748299319727891,0.5748299319727891,0.5748299319727891,0.5748299319727891,0.5748299319727891,0.5748299319727891,0.5748299319727891,0.5748299319727891,0.5748299319727891,0.5748299319727891,0.5748299319727891,0.5748299319727891,0.5748299319727891,0.5748299319727891,0.5748299319727891,0.5748299319727891,0.5748299319727891,0.5748299319727891,0.5748299319727891,0.5748299319727891,0.5748299319727891,0.5748299319727891,0.5748299319727891,0.5748299319727891,0.5748299319727891,0.5748299319727891,0.5748299319727891,0.5748299319727891,0.5748299319727891,0.5714285714285714,0.5612244897959183,0.5510204081632653,0.5272108843537415,0.5,0.4557823129251701,0.40816326530612246,0.3741496598639456,0.3333333333333333,0.3129251700680272,0.30272108843537415,0.29931972789115646,0.29591836734693877,0.2925170068027211,0.2925170068027211,0.2925170068027211,0.2925170068027211,0.2925170068027211,0.2925170068027211,0.2925170068027211,0.2925170068027211,0.2925170068027211,0.2925170068027211,0.2891156462585034,0.2891156462585034,0.2891156462585034,0.2891156462585034,0.2891156462585034,0.29931972789115646,0.3163265306122449,0.35374149659863946,0.3877551020408163,0.40816326530612246,0.43197278911564624,0.4387755102040816,0.4421768707482993,0.4421768707482993,0.4421768707482993,0.4421768707482993,0.4421768707482993,0.4421768707482993,0.4421768707482993,0.4421768707482993,0.4421768707482993,0.4387755102040816,0.4387755102040816,0.4387755102040816,0.4387755102040816,0.4387755102040816,0.4387755102040816,0.4387755102040816,0.4421768707482993,0.4489795918367347,0.46258503401360546,0.47619047619047616,0.5,0.5204081632653061,0.5340136054421769,0.54421768707483,0.54421768707483,0.54421768707483,0.54421768707483,0.54421768707483,0.54421768707483,0.54421768707483,0.54421768707483,0.5476190476190477,0.5476190476190477,0.5510204081632653,0.5510204081632653,0.5544217687074829,0.5544217687074829,0.5578231292517006,0.5578231292517006,0.5578231292517006,0.5612244897959183,0.564625850340136,0.5680272108843537,0.5714285714285714,0.5748299319727891,0.5816326530612245,0.5952380952380952,0.608843537414966,0.6326530612244898,0.6598639455782312,0.6768707482993197,0.6972789115646258,0.7108843537414966,0.7244897959183674,0.7346938775510204,0.7414965986394558,0.7482993197278912,0.7551020408163265,0.7619047619047619,0.7619047619047619,0.7653061224489796,0.7653061224489796,0.7653061224489796,0.7653061224489796,0.7653061224489796,0.7653061224489796,0.7653061224489796,0.7653061224489796,0.7653061224489796,0.7653061224489796,0.7653061224489796,0.7653061224489796,0.7653061224489796,0.7653061224489796,0.7653061224489796,0.7653061224489796,0.7755102040816326,0.7857142857142857,0.8061224489795918,0.8299319727891157,0.8503401360544217,0.8707482993197279,0.8843537414965986,0.8945578231292517,0.8979591836734694,0.8979591836734694,0.8979591836734694,0.8979591836734694,0.8979591836734694,0.8979591836734694,0.8979591836734694,0.8979591836734694,0.8979591836734694,0.8979591836734694,0.8945578231292517,0.8945578231292517,0.8945578231292517,0.891156462585034,0.891156462585034,0.891156462585034,0.891156462585034,0.891156462585034,0.8877551020408163,0.8877551020408163,0.8877551020408163,0.8843537414965986,0.8843537414965986,0.8843537414965986,0.8843537414965986,0.8843537414965986,0.8843537414965986,0.8843537414965986,0.8843537414965986,0.8843537414965986,0.8843537414965986,0.8843537414965986,0.8843537414965986,0.8843537414965986,0.8843537414965986,0.8843537414965986,0.8843537414965986,0.8843537414965986,0.8843537414965986,0.8843537414965986,0.8843537414965986,0.8843537414965986,0.8843537414965986,0.8843537414965986,0.8843537414965986,0.8843537414965986,0.8843537414965986,0.8843537414965986,0.8843537414965986,0.8843537414965986,0.8843537414965986,0.8843537414965986,0.8843537414965986,0.8843537414965986,0.8843537414965986,0.8843537414965986,0.8843537414965986,0.8843537414965986,0.8843537414965986,0.8843537414965986,0.8843537414965986,0.8843537414965986,0.8843537414965986,0.8843537414965986,0.8843537414965986,0.8843537414965986,0.8843537414965986,0.8843537414965986,0.8843537414965986,0.8843537414965986,0.8843537414965986,0.8843537414965986,0.8843537414965986,0.8843537414965986,0.8843537414965986,0.8843537414965986,0.8843537414965986,0.8843537414965986,0.8843537414965986,0.8843537414965986,0.8843537414965986,0.8843537414965986,0.8843537414965986,0.8843537414965986,0.8843537414965986,0.8843537414965986,0.8843537414965986,0.8843537414965986,0.8843537414965986,0.8843537414965986,0.8843537414965986,0.8843537414965986,0.8843537414965986,0.8843537414965986,0.8843537414965986,0.8843537414965986,0.8843537414965986,0.8843537414965986,0.8843537414965986,0.8843537414965986,0.8843537414965986,0.8843537414965986,0.8843537414965986,0.8843537414965986,0.8843537414965986,0.8843537414965986,0.8843537414965986,0.8843537414965986,0.8843537414965986,0.8843537414965986,0.8843537414965986,0.8843537414965986,0.8843537414965986,0.8843537414965986,0.8843537414965986,0.8741496598639455,0.8639455782312925,0.8435374149659864,0.8061224489795918,0.7755102040816326,0.7346938775510204,0.6904761904761905,0.6598639455782312,0.6258503401360545,0.6054421768707483,0.5918367346938775,0.5850340136054422,0.5782312925170068,0.5782312925170068,0.5748299319727891,0.5714285714285714,0.5714285714285714,0.5714285714285714,0.5714285714285714,0.5714285714285714,0.5714285714285714,0.5714285714285714,0.5714285714285714,0.5714285714285714,0.5714285714285714,0.5714285714285714,0.5714285714285714,0.5714285714285714,0.5714285714285714,0.5714285714285714,0.5714285714285714,0.5748299319727891,0.5782312925170068,0.5850340136054422,0.5918367346938775,0.5986394557823129,0.6054421768707483,0.6122448979591837,0.6156462585034014,0.6224489795918368,0.6258503401360545,0.6326530612244898,0.6360544217687075,0.6394557823129252,0.6394557823129252,0.6428571428571429,0.6496598639455783,0.6530612244897959,0.6530612244897959,0.6530612244897959,0.6564625850340136,0.6598639455782312,0.6598639455782312,0.6632653061224489,0.6632653061224489,0.6632653061224489,0.6632653061224489,0.6632653061224489,0.6666666666666666,0.6666666666666666,0.6666666666666666,0.6666666666666666,0.6666666666666666,0.6666666666666666,0.6666666666666666,0.6666666666666666,0.6666666666666666,0.6666666666666666,0.6666666666666666,0.6666666666666666,0.6700680272108843,0.6700680272108843,0.6700680272108843,0.673469387755102,0.673469387755102,0.673469387755102,0.673469387755102,0.673469387755102,0.673469387755102,0.673469387755102,0.673469387755102,0.673469387755102,0.673469387755102,0.6666666666666666,0.6666666666666666,0.6598639455782312,0.6564625850340136,0.6564625850340136,0.6462585034013606,0.6394557823129252,0.6394557823129252,0.6394557823129252,0.6394557823129252,0.6394557823129252,0.6394557823129252,0.6394557823129252,0.6462585034013606,0.6496598639455783,0.6530612244897959,0.6564625850340136,0.6666666666666666,0.6700680272108843,0.6802721088435374,0.6870748299319728,0.7040816326530612,0.7210884353741497,0.7414965986394558,0.7551020408163265,0.7755102040816326,0.7891156462585034,0.8027210884353742,0.8061224489795918,0.8061224489795918,0.8129251700680272,0.8129251700680272,0.8129251700680272,0.8129251700680272,0.8129251700680272,0.8129251700680272,0.8129251700680272,0.8129251700680272,0.8129251700680272,0.8129251700680272,0.8129251700680272,0.8129251700680272,0.8129251700680272,0.8129251700680272,0.8129251700680272,0.8129251700680272,0.8129251700680272,0.8129251700680272,0.8129251700680272,0.8129251700680272,0.8129251700680272,0.8129251700680272,0.8129251700680272,0.8129251700680272,0.8129251700680272,0.8129251700680272,0.8129251700680272,0.8129251700680272,0.8129251700680272,0.8129251700680272,0.8129251700680272,0.8129251700680272,0.8129251700680272,0.8129251700680272,0.8129251700680272,0.8129251700680272,0.8129251700680272,0.8129251700680272,0.8129251700680272,0.8129251700680272,0.8129251700680272,0.8129251700680272,0.8129251700680272,0.8129251700680272,0.8129251700680272,0.8129251700680272,0.8129251700680272,0.8129251700680272,0.8129251700680272,0.8129251700680272,0.8129251700680272,0.8129251700680272,0.8129251700680272,0.8129251700680272,0.8129251700680272,0.8129251700680272,0.4387755102040816,0.4387755102040816,0.4387755102040816,0.43197278911564624,0.42857142857142855,0.42857142857142855,0.42857142857142855,0.42857142857142855,0.42857142857142855,0.43537414965986393,0.4557823129251701,0.47278911564625853,0.4897959183673469,0.5034013605442177,0.5170068027210885,0.5340136054421769,0.5510204081632653,0.5850340136054422,0.673469387755102,0.673469387755102,0.673469387755102,0.673469387755102,0.673469387755102,0.673469387755102,0.673469387755102,0.673469387755102,0.673469387755102,0.673469387755102,0.673469387755102,0.673469387755102,0.673469387755102,0.673469387755102,0.673469387755102,0.673469387755102,0.673469387755102,0.673469387755102,0.673469387755102,0.673469387755102,0.673469387755102,0.673469387755102,0.673469387755102,0.673469387755102,0.673469387755102,0.673469387755102,0.673469387755102,0.673469387755102,0.673469387755102,0.673469387755102,0.673469387755102,0.673469387755102,0.673469387755102,0.673469387755102,0.673469387755102,0.673469387755102,0.673469387755102,0.673469387755102,0.673469387755102,0.673469387755102,0.673469387755102,0.673469387755102,0.673469387755102,0.673469387755102,0.673469387755102,0.673469387755102,0.673469387755102,0.673469387755102,0.673469387755102,0.673469387755102,0.673469387755102,0.673469387755102,0.673469387755102,0.673469387755102,0.673469387755102,0.673469387755102,0.673469387755102,0.673469387755102,0.673469387755102,0.673469387755102,0.673469387755102,0.673469387755102,0.673469387755102,0.673469387755102,0.673469387755102,0.673469387755102,0.673469387755102,0.673469387755102,0.673469387755102,0.673469387755102,0.673469387755102,0.673469387755102,0.673469387755102,0.673469387755102,0.673469387755102,0.673469387755102,0.673469387755102,0.673469387755102,0.673469387755102,0.673469387755102,0.673469387755102,0.673469387755102,0.673469387755102,0.673469387755102,0.673469387755102,0.673469387755102,0.673469387755102,0.673469387755102,0.673469387755102,0.673469387755102,0.673469387755102,0.673469387755102,0.673469387755102,0.673469387755102,0.673469387755102,0.673469387755102,0.673469387755102,0.673469387755102,0.673469387755102,0.673469387755102,0.673469387755102,0.673469387755102,0.673469387755102,0.673469387755102,0.673469387755102,0.673469387755102,0.673469387755102,0.673469387755102,0.673469387755102,0.673469387755102,0.673469387755102,0.673469387755102,0.673469387755102,0.673469387755102,0.673469387755102,0.673469387755102,0.673469387755102,0.673469387755102,0.673469387755102,0.673469387755102,0.673469387755102,0.673469387755102,0.673469387755102,0.673469387755102,0.673469387755102,0.673469387755102,0.673469387755102,0.673469387755102,0.673469387755102,0.673469387755102,0.673469387755102,0.673469387755102,0.673469387755102,0.673469387755102,0.673469387755102,0.673469387755102,0.673469387755102,0.673469387755102,0.673469387755102,0.673469387755102,0.673469387755102,0.673469387755102,0.673469387755102,0.673469387755102,0.673469387755102,0.673469387755102,0.673469387755102,0.673469387755102,0.673469387755102,0.673469387755102,0.673469387755102,0.673469387755102,0.673469387755102,0.673469387755102,0.673469387755102,0.673469387755102,0.673469387755102,0.673469387755102,0.673469387755102,0.673469387755102,0.673469387755102,0.673469387755102,0.673469387755102,0.673469387755102,0.673469387755102,0.673469387755102,0.673469387755102,0.673469387755102,0.673469387755102,0.673469387755102,0.673469387755102,0.673469387755102,0.673469387755102,0.673469387755102,0.673469387755102,0.673469387755102,0.673469387755102,0.673469387755102,0.673469387755102,0.673469387755102,0.673469387755102,0.673469387755102,0.673469387755102,0.673469387755102,0.673469387755102,0.673469387755102,0.673469387755102,0.673469387755102,0.673469387755102,0.673469387755102,0.673469387755102,0.673469387755102,0.673469387755102,0.673469387755102,0.673469387755102,0.673469387755102,0.673469387755102,0.673469387755102,0.673469387755102,0.673469387755102,0.673469387755102,0.673469387755102,0.673469387755102,0.673469387755102,0.673469387755102,0.673469387755102,0.673469387755102,0.673469387755102,0.673469387755102,0.673469387755102,0.673469387755102,0.673469387755102,0.673469387755102,0.673469387755102,0.673469387755102,0.673469387755102,0.673469387755102,0.673469387755102,0.673469387755102,0.673469387755102,0.673469387755102,0.673469387755102,0.673469387755102,0.673469387755102,0.673469387755102,0.673469387755102,0.673469387755102,0.673469387755102,0.673469387755102,0.673469387755102,0.673469387755102,0.673469387755102,0.673469387755102,0.673469387755102,0.673469387755102,0.673469387755102,0.673469387755102,0.673469387755102,0.673469387755102,0.673469387755102,0.673469387755102,0.673469387755102,0.673469387755102,0.673469387755102,0.673469387755102,0.673469387755102,0.673469387755102,0.673469387755102,0.673469387755102,0.673469387755102,0.673469387755102,0.673469387755102,0.673469387755102,0.673469387755102,0.673469387755102,0.673469387755102,0.673469387755102,0.673469387755102,0.673469387755102,0.673469387755102,0.673469387755102,0.673469387755102,0.673469387755102,0.673469387755102,0.673469387755102,0.673469387755102,0.673469387755102,0.673469387755102,0.673469387755102,0.673469387755102,0.673469387755102,0.673469387755102,0.673469387755102,0.673469387755102,0.673469387755102,0.673469387755102,0.673469387755102,0.673469387755102,0.673469387755102,0.673469387755102,0.673469387755102,0.673469387755102,0.673469387755102,0.673469387755102,0.673469387755102,0.673469387755102,0.673469387755102,0.673469387755102,0.673469387755102,0.673469387755102,0.673469387755102,0.673469387755102,0.673469387755102,0.673469387755102,0.673469387755102,0.673469387755102,0.673469387755102,0.673469387755102,0.673469387755102,0.673469387755102,0.673469387755102,0.673469387755102,0.673469387755102,0.673469387755102,0.673469387755102,0.673469387755102,0.673469387755102,0.673469387755102,0.673469387755102,0.673469387755102,0.673469387755102,0.673469387755102,0.673469387755102,0.673469387755102,0.673469387755102,0.673469387755102,0.673469387755102,0.673469387755102,0.673469387755102,0.673469387755102,0.673469387755102,0.673469387755102,0.673469387755102,0.673469387755102,0.673469387755102,0.673469387755102,0.673469387755102,0.673469387755102,0.673469387755102,0.673469387755102,0.673469387755102,0.673469387755102,0.673469387755102,0.673469387755102,0.673469387755102,0.673469387755102,0.673469387755102,0.673469387755102,0.673469387755102,0.673469387755102,0.673469387755102,0.673469387755102,0.673469387755102,0.673469387755102,0.673469387755102,0.673469387755102,0.673469387755102,0.673469387755102,0.673469387755102,0.673469387755102,0.673469387755102,0.673469387755102,0.673469387755102,0.673469387755102,0.673469387755102,0.673469387755102,0.673469387755102,0.673469387755102,0.673469387755102,0.673469387755102,0.673469387755102,0.673469387755102,0.673469387755102,0.673469387755102,0.673469387755102,0.673469387755102,0.673469387755102,0.673469387755102,0.673469387755102,0.673469387755102,0.673469387755102,0.673469387755102,0.673469387755102,0.673469387755102,0.673469387755102,0.673469387755102,0.673469387755102,0.673469387755102,0.673469387755102,0.673469387755102,0.673469387755102,0.673469387755102,0.673469387755102,0.673469387755102,0.673469387755102,0.673469387755102,0.673469387755102,0.673469387755102,0.673469387755102,0.673469387755102,0.673469387755102,0.673469387755102,0.673469387755102,0.673469387755102,0.673469387755102,0.673469387755102,0.673469387755102,0.673469387755102,0.673469387755102,0.673469387755102,0.673469387755102,0.673469387755102,0.673469387755102,0.673469387755102,0.673469387755102,0.673469387755102,0.673469387755102,0.673469387755102,0.673469387755102,0.673469387755102,0.673469387755102,0.673469387755102,0.673469387755102,0.673469387755102,0.673469387755102,0.673469387755102,0.673469387755102,0.673469387755102,0.673469387755102,0.673469387755102,0.673469387755102,0.673469387755102,0.673469387755102,0.673469387755102,0.673469387755102,0.673469387755102,0.673469387755102,0.673469387755102,0.673469387755102,0.673469387755102,0.673469387755102,0.673469387755102,0.673469387755102,0.673469387755102,0.673469387755102,0.673469387755102,0.673469387755102,0.673469387755102,0.673469387755102,0.673469387755102,0.673469387755102,0.673469387755102,0.673469387755102,0.673469387755102,0.673469387755102,0.673469387755102,0.673469387755102,0.673469387755102,0.673469387755102,0.673469387755102,0.673469387755102,0.673469387755102,0.673469387755102,0.673469387755102,0.673469387755102,0.673469387755102,0.673469387755102,0.673469387755102,0.673469387755102,0.673469387755102,0.673469387755102,0.673469387755102,0.673469387755102,0.673469387755102,0.673469387755102,0.673469387755102,0.673469387755102,0.673469387755102,0.673469387755102,0.673469387755102,0.673469387755102,0.673469387755102,0.673469387755102,0.673469387755102,0.673469387755102,0.673469387755102,0.673469387755102,0.673469387755102,0.673469387755102,0.673469387755102,0.673469387755102,0.673469387755102,0.673469387755102,0.673469387755102,0.673469387755102,0.673469387755102,0.673469387755102,0.673469387755102,0.673469387755102,0.673469387755102,0.673469387755102,0.673469387755102,0.673469387755102,0.673469387755102,0.673469387755102,0.673469387755102,0.673469387755102,0.673469387755102,0.673469387755102,0.673469387755102,0.673469387755102,0.673469387755102,0.673469387755102,0.673469387755102,0.673469387755102,0.673469387755102,0.673469387755102,0.673469387755102,0.673469387755102,0.673469387755102,0.673469387755102,0.673469387755102,0.673469387755102,0.673469387755102,0.673469387755102,0.673469387755102,0.673469387755102,0.673469387755102,0.673469387755102,0.673469387755102,0.673469387755102,0.673469387755102,0.673469387755102,0.673469387755102,0.673469387755102,0.673469387755102,0.673469387755102,0.673469387755102,0.673469387755102,0.673469387755102,0.673469387755102,0.673469387755102,0.673469387755102,0.673469387755102,0.673469387755102,0.673469387755102,0.673469387755102,0.673469387755102,0.673469387755102,0.673469387755102,0.673469387755102,0.673469387755102,0.673469387755102,0.673469387755102,0.673469387755102,0.673469387755102,0.673469387755102,0.673469387755102,0.673469387755102,0.673469387755102,0.673469387755102,0.673469387755102,0.673469387755102,0.673469387755102,0.673469387755102,0.673469387755102,0.673469387755102,0.673469387755102,0.673469387755102,0.673469387755102,0.673469387755102,0.673469387755102,0.673469387755102,0.673469387755102,0.673469387755102,0.673469387755102,0.673469387755102,0.673469387755102,0.673469387755102,0.673469387755102,0.673469387755102,0.673469387755102,0.673469387755102,0.673469387755102,0.673469387755102,0.673469387755102,0.673469387755102,0.673469387755102,0.673469387755102,0.673469387755102,0.673469387755102,0.673469387755102,0.673469387755102,0.673469387755102,0.673469387755102,0.673469387755102,0.673469387755102,0.673469387755102,0.673469387755102,0.673469387755102,0.673469387755102,0.673469387755102,0.673469387755102,0.673469387755102,0.673469387755102,0.673469387755102,0.673469387755102,0.673469387755102,0.673469387755102,0.673469387755102,0.673469387755102,0.673469387755102,0.673469387755102,0.673469387755102,0.673469387755102,0.673469387755102,0.673469387755102,0.673469387755102,0.673469387755102,0.673469387755102,0.673469387755102,0.673469387755102,0.673469387755102,0.673469387755102,0.673469387755102,0.673469387755102,0.673469387755102,0.673469387755102,0.673469387755102,0.673469387755102,0.673469387755102,0.673469387755102,0.673469387755102,0.673469387755102,0.673469387755102,0.673469387755102,0.673469387755102,0.673469387755102,0.673469387755102,0.673469387755102,0.673469387755102,0.673469387755102,0.673469387755102,0.673469387755102,0.673469387755102,0.673469387755102,0.673469387755102,0.673469387755102,0.673469387755102,0.673469387755102,0.673469387755102,0.673469387755102,0.673469387755102,0.673469387755102,0.673469387755102,0.673469387755102,0.673469387755102,0.673469387755102,0.673469387755102,0.673469387755102,0.673469387755102,0.673469387755102,0.673469387755102,0.673469387755102,0.673469387755102,0.673469387755102,0.673469387755102,0.673469387755102,0.673469387755102,0.673469387755102,0.673469387755102,0.673469387755102,0.673469387755102,0.673469387755102,0.673469387755102,0.673469387755102,0.673469387755102,0.673469387755102,0.673469387755102,0.673469387755102,0.673469387755102,0.673469387755102,0.673469387755102,0.673469387755102,0.673469387755102,0.673469387755102,0.673469387755102,0.673469387755102,0.673469387755102,0.673469387755102,0.673469387755102,0.673469387755102,0.673469387755102,0.673469387755102,0.673469387755102,0.673469387755102,0.673469387755102,0.673469387755102,0.673469387755102,0.673469387755102,0.673469387755102,0.673469387755102,0.673469387755102,0.673469387755102,0.673469387755102,0.673469387755102,0.673469387755102,0.673469387755102,0.673469387755102,0.673469387755102,0.673469387755102,0.673469387755102,0.673469387755102,0.673469387755102,0.673469387755102,0.673469387755102,0.673469387755102,0.673469387755102,0.673469387755102,0.673469387755102,0.673469387755102,0.673469387755102,0.673469387755102,0.673469387755102,0.673469387755102,0.673469387755102,0.673469387755102,0.673469387755102,0.673469387755102,0.673469387755102,0.673469387755102,0.673469387755102,0.673469387755102,0.673469387755102,0.673469387755102,0.673469387755102,0.673469387755102,0.673469387755102,0.673469387755102,0.673469387755102,0.673469387755102,0.673469387755102,0.673469387755102,0.673469387755102,0.673469387755102,0.673469387755102,0.673469387755102,0.673469387755102,0.673469387755102,0.673469387755102,0.673469387755102,0.673469387755102,0.673469387755102,0.673469387755102,0.673469387755102,0.673469387755102,0.673469387755102,0.673469387755102,0.673469387755102,0.673469387755102,0.673469387755102,0.673469387755102,0.673469387755102,0.673469387755102,0.673469387755102,0.673469387755102,0.673469387755102,0.673469387755102,0.673469387755102,0.673469387755102,0.673469387755102,0.673469387755102,0.673469387755102,0.673469387755102,0.673469387755102,0.673469387755102,0.673469387755102,0.673469387755102,0.673469387755102,0.673469387755102,0.673469387755102,0.673469387755102,0.673469387755102,0.673469387755102,0.673469387755102,0.673469387755102,0.673469387755102,0.673469387755102,0.673469387755102,0.673469387755102,0.673469387755102,0.673469387755102,0.673469387755102,0.673469387755102,0.673469387755102,0.673469387755102,0.673469387755102,0.673469387755102,0.673469387755102,0.673469387755102,0.673469387755102,0.673469387755102,0.673469387755102,0.673469387755102,0.673469387755102,0.673469387755102,0.673469387755102,0.673469387755102,0.673469387755102,0.673469387755102,0.673469387755102,0.673469387755102,0.673469387755102,0.673469387755102,0.673469387755102,0.673469387755102,0.673469387755102,0.673469387755102,0.673469387755102,0.673469387755102,0.673469387755102,0.673469387755102,0.673469387755102,0.673469387755102,0.673469387755102,0.673469387755102,0.673469387755102,0.673469387755102,0.673469387755102,0.673469387755102,0.673469387755102,0.673469387755102,0.673469387755102,0.673469387755102,0.673469387755102,0.673469387755102,0.673469387755102,0.673469387755102,0.673469387755102,0.673469387755102,0.673469387755102,0.673469387755102,0.673469387755102,0.673469387755102,0.673469387755102,0.673469387755102,0.673469387755102,0.673469387755102,0.673469387755102,0.673469387755102,0.673469387755102,0.673469387755102,0.673469387755102,0.673469387755102,0.673469387755102,0.673469387755102,0.673469387755102,0.673469387755102,0.673469387755102,0.673469387755102,0.673469387755102,0.673469387755102,0.673469387755102,0.673469387755102,0.673469387755102,0.673469387755102,0.673469387755102,0.673469387755102,0.673469387755102,0.673469387755102,0.673469387755102,0.673469387755102,0.673469387755102,0.673469387755102,0.673469387755102,0.673469387755102,0.673469387755102,0.673469387755102,0.673469387755102,0.673469387755102,0.673469387755102,0.673469387755102,0.673469387755102,0.673469387755102,0.673469387755102,0.673469387755102,0.673469387755102,0.673469387755102,0.673469387755102,0.673469387755102,0.673469387755102,0.673469387755102,0.673469387755102,0.673469387755102,0.673469387755102,0.673469387755102,0.673469387755102,0.673469387755102,0.673469387755102,0.673469387755102,0.673469387755102,0.673469387755102,0.673469387755102,0.673469387755102,0.673469387755102,0.673469387755102,0.673469387755102,0.673469387755102,0.673469387755102,0.673469387755102,0.673469387755102,0.673469387755102,0.673469387755102,0.673469387755102,0.673469387755102,0.673469387755102,0.673469387755102,0.673469387755102,0.673469387755102,0.673469387755102,0.673469387755102,0.673469387755102,0.673469387755102,0.673469387755102,0.673469387755102,0.673469387755102,0.673469387755102,0.673469387755102,0.673469387755102,0.673469387755102,0.673469387755102,0.673469387755102,0.673469387755102,0.673469387755102,0.673469387755102,0.673469387755102,0.673469387755102,0.673469387755102,0.673469387755102,0.673469387755102,0.673469387755102,0.673469387755102,0.673469387755102,0.673469387755102,0.673469387755102,0.673469387755102,0.673469387755102,0.673469387755102,0.673469387755102,0.673469387755102,0.673469387755102,0.673469387755102,0.673469387755102,0.673469387755102,0.673469387755102,0.673469387755102,0.673469387755102,0.673469387755102,0.673469387755102,0.673469387755102,0.673469387755102,0.673469387755102,0.673469387755102,0.673469387755102,0.673469387755102,0.673469387755102,0.673469387755102,0.673469387755102,0.673469387755102,0.673469387755102,0.673469387755102,0.673469387755102,0.673469387755102,0.673469387755102,0.673469387755102,0.673469387755102,0.673469387755102,0.673469387755102,0.673469387755102,0.673469387755102,0.673469387755102,0.673469387755102,0.673469387755102,0.673469387755102,0.673469387755102,0.673469387755102,0.673469387755102,0.673469387755102,0.673469387755102,0.673469387755102,0.673469387755102,0.673469387755102,0.673469387755102,0.673469387755102,0.673469387755102,0.673469387755102,0.673469387755102,0.673469387755102,0.673469387755102,0.673469387755102,0.673469387755102,0.673469387755102,0.673469387755102,0.673469387755102,0.673469387755102,0.673469387755102,0.673469387755102,0.673469387755102,0.673469387755102,0.673469387755102,0.673469387755102,0.673469387755102,0.673469387755102,0.673469387755102,0.673469387755102,0.673469387755102,0.673469387755102,0.673469387755102,0.673469387755102,0.673469387755102,0.673469387755102,0.673469387755102,0.673469387755102,0.673469387755102,0.673469387755102,0.673469387755102,0.673469387755102,0.673469387755102,0.673469387755102,0.673469387755102,0.673469387755102,0.673469387755102,0.673469387755102,0.673469387755102,0.673469387755102,0.673469387755102,0.673469387755102,0.673469387755102,0.673469387755102,0.673469387755102,0.673469387755102,0.673469387755102,0.673469387755102,0.673469387755102,0.673469387755102,0.673469387755102,0.673469387755102,0.673469387755102,0.673469387755102,0.673469387755102,0.673469387755102,0.673469387755102,0.673469387755102,0.673469387755102,0.6666666666666666,0.6666666666666666,0.6666666666666666,0.6666666666666666,0.6666666666666666,0.6666666666666666,0.6666666666666666,0.6666666666666666,0.6666666666666666,0.6700680272108843,0.673469387755102,0.673469387755102,0.673469387755102,0.673469387755102,0.673469387755102,0.6768707482993197,0.6768707482993197,0.6768707482993197,0.6768707482993197,0.6768707482993197,0.6768707482993197,0.6768707482993197,0.6700680272108843,0.6700680272108843,0.6700680272108843,0.6700680272108843,0.6700680272108843,0.6700680272108843,0.6700680272108843,0.6700680272108843,0.6768707482993197,0.6802721088435374,0.6870748299319728,0.6904761904761905,0.6938775510204082,0.7074829931972789,0.7142857142857143,0.7278911564625851,0.7346938775510204,0.7482993197278912,0.7585034013605442,0.7619047619047619,0.7653061224489796,0.7687074829931972,0.7687074829931972,0.7687074829931972,0.7721088435374149,0.7721088435374149,0.7721088435374149,0.7755102040816326,0.7755102040816326,0.7755102040816326,0.7755102040816326,0.7755102040816326,0.7755102040816326,0.7755102040816326,0.7789115646258503,0.7789115646258503,0.7789115646258503,0.7789115646258503,0.7789115646258503,0.7789115646258503,0.782312925170068,0.782312925170068,0.782312925170068,0.782312925170068,0.782312925170068,0.782312925170068,0.782312925170068,0.782312925170068,0.782312925170068,0.7857142857142857,0.7857142857142857,0.7857142857142857,0.7857142857142857,0.7857142857142857,0.7857142857142857,0.7857142857142857,0.7857142857142857,0.7857142857142857,0.7857142857142857,0.7857142857142857,0.7857142857142857,0.7857142857142857,0.7857142857142857,0.7891156462585034,0.7891156462585034,0.7891156462585034,0.7891156462585034,0.7891156462585034,0.7891156462585034,0.7891156462585034,0.7891156462585034,0.7891156462585034,0.7891156462585034,0.7891156462585034,0.7891156462585034,0.7891156462585034,0.7891156462585034,0.7891156462585034,0.7891156462585034,0.7891156462585034,0.7891156462585034,0.7891156462585034,0.7891156462585034,0.7891156462585034,0.7891156462585034,0.7891156462585034,0.7891156462585034,0.7891156462585034,0.7891156462585034,0.7891156462585034,0.7891156462585034,0.7891156462585034,0.7925170068027211,0.7925170068027211,0.7925170068027211,0.7925170068027211,0.7925170068027211,0.7925170068027211,0.7925170068027211,0.7925170068027211,0.7925170068027211,0.7925170068027211,0.7925170068027211,0.7925170068027211,0.7925170068027211,0.7959183673469388,0.7959183673469388,0.7959183673469388,0.7959183673469388,0.7959183673469388,0.7959183673469388,0.7959183673469388,0.7959183673469388,0.7959183673469388,0.7959183673469388,0.7959183673469388,0.7959183673469388,0.7959183673469388,0.7959183673469388,0.7959183673469388,0.7959183673469388,0.7959183673469388,0.7959183673469388,0.7993197278911565,0.7993197278911565,0.7993197278911565,0.7993197278911565,0.7993197278911565,0.7993197278911565,0.7993197278911565,0.7993197278911565,0.7993197278911565,0.7993197278911565,0.7993197278911565,0.7993197278911565,0.7993197278911565,0.7993197278911565,0.7993197278911565,0.8027210884353742,0.8027210884353742,0.8027210884353742,0.8027210884353742,0.8027210884353742,0.8027210884353742,0.8027210884353742,0.8027210884353742,0.8027210884353742,0.8027210884353742,0.8027210884353742,0.8027210884353742,0.8027210884353742,0.8027210884353742,0.8027210884353742,0.8027210884353742,0.8027210884353742,0.8027210884353742,0.8027210884353742,0.8027210884353742,0.8027210884353742,0.8027210884353742,0.8027210884353742,0.8027210884353742,0.8027210884353742,0.8027210884353742,0.8027210884353742,0.8027210884353742,0.8027210884353742,0.8027210884353742,0.8027210884353742,0.8027210884353742,0.8027210884353742,0.8061224489795918,0.8061224489795918,0.8061224489795918,0.8061224489795918,0.8061224489795918,0.8061224489795918,0.8061224489795918,0.8061224489795918,0.8061224489795918,0.8061224489795918,0.8061224489795918,0.8061224489795918,0.8061224489795918,0.8061224489795918,0.8061224489795918,0.8061224489795918,0.8061224489795918,0.8061224489795918,0.8061224489795918,0.8061224489795918,0.8061224489795918,0.8061224489795918,0.8061224489795918,0.8061224489795918,0.8061224489795918,0.8061224489795918,0.8061224489795918,0.8061224489795918,0.8061224489795918,0.8061224489795918,0.8061224489795918,0.8061224489795918,0.8061224489795918,0.8061224489795918,0.8061224489795918,0.8061224489795918,0.8061224489795918,0.8061224489795918,0.8061224489795918,0.8061224489795918,0.8061224489795918,0.8061224489795918,0.8061224489795918,0.8061224489795918,0.8061224489795918,0.8061224489795918,0.8061224489795918,0.8061224489795918,0.8061224489795918,0.8061224489795918,0.8061224489795918,0.8061224489795918,0.8061224489795918,0.8061224489795918,0.8061224489795918,0.8061224489795918,0.8061224489795918,0.806