[{"success":true,"trial_type":"fullscreen","trial_index":0,"time_elapsed":8941,"internal_node_id":"0.0-0.0","protocol_sum":"","subject_identifier":420,"subject_sum":[210,157,83,112,29,60,133,158,41,225,185,0,40,238,193,202,142,47,41,67,145,152,182,224,54,198,9,81,251,69,138,161],"subject_pair":210,"STUDY_ID":"66a22c0758a3d5c9d26873c6","PROLIFIC_PID":"6685abbd83e060274844e7f2","SESSION_ID":"66a2a9b44218fe2b5824215d","practice_instructions":1,"leaderboard_instructions":0,"bonus":0,"reveal_word":false,"self_rating":"6","confidence":"51"},{"view_history":"[{\"page_index\":0,\"viewing_time\":3228.8000000715256}]","rt":3231.3000000715256,"trial_type":"instructions","trial_index":1,"time_elapsed":12176,"internal_node_id":"0.0-1.0","protocol_sum":"","subject_identifier":420,"subject_sum":[210,157,83,112,29,60,133,158,41,225,185,0,40,238,193,202,142,47,41,67,145,152,182,224,54,198,9,81,251,69,138,161],"subject_pair":210,"STUDY_ID":"66a22c0758a3d5c9d26873c6","PROLIFIC_PID":"6685abbd83e060274844e7f2","SESSION_ID":"66a2a9b44218fe2b5824215d","practice_instructions":1,"leaderboard_instructions":0,"bonus":0,"reveal_word":false,"self_rating":"6","confidence":"51"},{"view_history":"[{\"page_index\":0,\"viewing_time\":3463.100000023842}]","rt":3464.4000000953674,"trial_type":"instructions","trial_index":2,"time_elapsed":15643,"internal_node_id":"0.0-2.0-0.0","protocol_sum":"","subject_identifier":420,"subject_sum":[210,157,83,112,29,60,133,158,41,225,185,0,40,238,193,202,142,47,41,67,145,152,182,224,54,198,9,81,251,69,138,161],"subject_pair":210,"STUDY_ID":"66a22c0758a3d5c9d26873c6","PROLIFIC_PID":"6685abbd83e060274844e7f2","SESSION_ID":"66a2a9b44218fe2b5824215d","practice_instructions":1,"leaderboard_instructions":0,"bonus":0,"reveal_word":false,"self_rating":"6","confidence":"51"},{"rt":7333.199999928474,"responses":"{\"Q0\":\"... reveal the word with as <b>few letter guesses</b> as possible\"}","question_order":"[0]","trial_type":"survey-multi-choice","trial_index":3,"time_elapsed":22983,"internal_node_id":"0.0-2.0-1.0","protocol_sum":"","subject_identifier":420,"subject_sum":[210,157,83,112,29,60,133,158,41,225,185,0,40,238,193,202,142,47,41,67,145,152,182,224,54,198,9,81,251,69,138,161],"subject_pair":210,"correct":true,"test_part":"multichoice_nonpretend","STUDY_ID":"66a22c0758a3d5c9d26873c6","PROLIFIC_PID":"6685abbd83e060274844e7f2","SESSION_ID":"66a2a9b44218fe2b5824215d","practice_instructions":1,"leaderboard_instructions":0,"bonus":0,"reveal_word":false,"self_rating":"6","confidence":"51"},{"view_history":"[{\"page_index\":0,\"viewing_time\":2680.399999976158}]","rt":2680.899999976158,"trial_type":"instructions","trial_index":4,"time_elapsed":25666,"internal_node_id":"0.0-3.0","protocol_sum":"","subject_identifier":420,"subject_sum":[210,157,83,112,29,60,133,158,41,225,185,0,40,238,193,202,142,47,41,67,145,152,182,224,54,198,9,81,251,69,138,161],"subject_pair":210,"STUDY_ID":"66a22c0758a3d5c9d26873c6","PROLIFIC_PID":"6685abbd83e060274844e7f2","SESSION_ID":"66a2a9b44218fe2b5824215d","practice_instructions":1,"leaderboard_instructions":0,"bonus":0,"reveal_word":false,"self_rating":"6","confidence":"51"},{"word":"ZEBRA","click_log":{"letter":["","N","A","B","E","W","L","F","O","X","Y","P","C","J","K","T","S","U","V","M","D","H","Q","Z","R"],"t":[0,5704.899999976158,8798.300000071526,11112.800000071526,13034.100000023842,21450.700000047684,24395.600000023842,36610.300000071526,37488.700000047684,40185.39999997616,43099.200000047684,47680.39999997616,56137.89999997616,63436.39999997616,65192.800000071526,67002.5,68655.20000004768,71052.70000004768,72931.60000002384,76899.60000002384,79670.20000004768,82829.20000004768,94515.60000002384,96917.30000007153,103467.60000002384],"hit":[null,0,1,1,1,0,0,0,0,0,0,0,0,0,0,0,0,0,0,0,0,0,0,1,1],"asked":["","N","NA","NAB","NABE","NABEW","NABEWL","NABEWLF","NABEWLFO","NABEWLFOX","NABEWLFOXY","NABEWLFOXYP","NABEWLFOXYPC","NABEWLFOXYPCJ","NABEWLFOXYPCJK","NABEWLFOXYPCJKT","NABEWLFOXYPCJKTS","NABEWLFOXYPCJKTSU","NABEWLFOXYPCJKTSUV","NABEWLFOXYPCJKTSUVM","NABEWLFOXYPCJKTSUVMD","NABEWLFOXYPCJKTSUVMDH","NABEWLFOXYPCJKTSUVMDHQ","NABEWLFOXYPCJKTSUVMDHQZ","NABEWLFOXYPCJKTSUVMDHQZR"],"word_state":["_____","_____","____A","__B_A","_EB_A","_EB_A","_EB_A","_EB_A","_EB_A","_EB_A","_EB_A","_EB_A","_EB_A","_EB_A","_EB_A","_EB_A","_EB_A","_EB_A","_EB_A","_EB_A","_EB_A","_EB_A","_EB_A","ZEB_A","ZEBRA"]},"hover_log":{"letter":["?","?","?","?","?","?","?","?","?","?","?","?","?","?","?","?","?","?","?","?","?","?","?","?","?","?","?","?","?","?","?","?","?","?","?","?","?","?","?","?","?","?","?","?","?","?","?","?","?","?","?","?","?","?","?","?","?","?","?","?","?","?","?","?","?","?","?","?","?","?","?","?","?","?","?","?","?","?","?","?","?","?","?","?","?","?","?","?","?","?","?","?","?","?","?","?","?","?","?","?","?","?","?","?","?","?","?","?","?","?","?","?","?","?","?","?","?","?","?","B","B","B","B","?","?","C","C","?","?","?","?","?","?","?","?","?","?","?","?","?","?","?","?","?","?","?","?","?","?","?","?","?","?","?","?","?","?","?","?","?","?","?","?","?","?","?","?","?","?","?","?","?","?","?","?","?","?","?","?","?","?","?","?","?","?","?","?","?","?","?","?","?","?","?","?","?","?","?","?","?","?","?","?","?","?","?","?","?","?","?","?","?","?","?","?","?","?","?","?","?","?","?","?","?","?","?","?","?","?","?","?","?","N","N","N","N","N","N","N","N","N","N","N","N","N","N","N","N","N","N","N","N","N","N","N","N","N","N","N","N","N","N","N","N","N","N","N","N","N","N","N","N","O","?","?","?","?","?","?","?","?","?","?","?","?","?","?","?","?","?","?","?","?","?","?","?","?","?","?","?","?","?","?","?","?","?","?","?","?","?","?","?","?","?","?","?","?","?","?","?","?","?","?","?","?","?","?","?","?","?","?","?","?","?","?","?","?","?","?","?","?","?","?","?","?","?","?","?","?","?","?","?","?","?","?","?","?","?","?","?","?","?","?","B","B","B","B","B","B","B","B","B","B","B","B","B","B","?","?","A","A","A","A","A","A","A","A","A","A","A","A","A","A","A","A","A","A","A","A","A","A","A","A","A","A","A","A","A","A","A","A","A","A","A","A","A","A","A","A","A","A","A","A","A","A","A","A","A","A","A","A","A","A","A","A","A","A","A","A","A","A","A","A","A","A","A","A","A","A","A","A","A","A","A","A","A","A","A","A","A","A","A","A","A","A","A","A","A","A","A","A","A","A","A","A","A","A","A","A","A","A","A","A","A","A","A","A","A","A","A","A","?","?","?","?","B","B","B","B","B","B","B","B","B","B","B","B","B","B","B","B","B","B","B","B","B","B","B","B","B","B","B","B","B","B","B","B","B","B","B","B","B","B","B","B","B","B","B","B","B","B","B","B","B","B","B","B","B","B","B","B","B","B","B","B","B","B","B","B","B","B","B","B","B","B","B","B","B","B","B","?","C","C","C","?","?","?","D","D","?","E","E","E","E","E","E","E","E","E","E","E","E","E","E","E","E","E","E","E","E","E","E","E","E","E","E","E","E","E","E","E","E","E","E","E","E","E","E","E","E","E","E","E","E","E","E","E","E","E","E","E","E","E","E","E","E","E","E","E","E","E","E","E","E","E","E","E","E","E","E","E","E","E","E","E","E","E","E","E","E","E","E","E","E","E","E","E","E","E","E","E","E","E","E","E","E","E","E","E","E","E","E","E","E","E","E","E","E","E","E","E","E","E","E","E","E","E","E","E","E","E","E","E","E","E","E","E","E","E","E","E","E","E","E","E","E","E","E","E","E","E","E","E","E","E","E","E","E","E","E","E","E","E","E","E","E","E","E","E","E","E","E","E","E","E","E","E","E","E","E","E","E","E","E","E","E","E","E","E","E","E","E","E","E","E","E","E","E","E","E","E","E","E","E","E","E","E","E","E","E","E","E","E","E","E","E","E","E","E","E","E","E","E","E","E","E","E","E","E","E","E","E","E","E","E","E","E","E","E","E","E","E","E","E","E","E","E","E","E","E","E","E","E","E","E","E","E","E","E","E","E","E","E","E","E","E","E","E","E","E","E","E","E","E","E","E","E","E","E","E","E","E","E","E","E","E","E","E","E","E","E","E","E","E","E","E","E","E","E","E","E","E","E","E","E","E","E","E","E","E","E","E","E","E","E","E","E","E","E","E","E","E","E","E","E","E","E","E","E","E","E","E","E","E","E","E","E","E","E","E","E","E","E","E","E","E","E","E","E","E","E","E","E","E","E","E","E","E","E","E","E","E","E","E","E","E","E","E","E","E","E","E","E","E","E","?","?","?","?","?","?","?","M","M","M","M","M","M","?","?","?","V","V","V","V","V","V","V","V","V","V","V","V","V","V","?","?","?","W","W","W","W","W","W","W","W","W","W","W","W","W","W","W","W","W","W","W","W","W","W","W","W","W","W","W","W","W","W","W","W","W","W","W","W","W","W","W","W","W","W","W","W","W","W","W","W","W","W","W","W","W","W","W","W","W","W","W","W","W","W","W","W","W","W","W","W","W","W","W","W","W","W","W","W","W","W","W","W","W","W","W","W","W","W","W","W","W","W","W","W","W","W","W","W","W","W","W","W","W","W","W","W","W","W","W","W","W","W","W","W","W","W","W","W","W","W","W","W","W","W","W","?","?","?","?","?","?","?","?","M","M","M","?","?","?","?","L","L","L","L","L","L","L","L","L","L","L","L","L","L","L","L","L","L","L","L","L","L","L","L","L","L","L","L","L","L","L","L","L","L","L","L","L","L","L","L","L","L","L","L","L","L","L","L","L","L","L","L","L","L","L","L","L","L","L","L","L","L","L","L","L","L","L","L","L","L","L","L","L","L","L","L","L","L","L","L","L","L","L","L","L","L","L","L","L","L","L","L","L","L","L","L","L","L","L","L","L","L","L","L","?","?","K","K","K","K","K","K","K","K","K","K","K","K","?","?","?","?","?","?","?","?","K","K","K","L","L","L","L","L","L","M","M","M","M","M","M","M","M","?","N","N","N","N","N","N","N","N","N","N","N","N","N","?","?","?","?","?","?","?","?","M","M","M","M","M","M","M","M","M","M","M","M","M","M","M","M","M","M","M","M","M","M","M","M","M","?","?","?","E","D","D","L","K","?","?","?","?","?","B","?","?","D","D","D","?","?","L","?","?","?","?","?","A","A","?","?","?","?","?","?","C","C","?","J","?","?","?","?","?","?","?","?","?","?","?","?","?","?","A","A","?","?","?","?","?","?","?","?","?","?","?","?","?","?","?","?","?","?","?","?","?","?","K","K","K","?","L","L","L","L","L","L","?","B","B","B","?","?","?","?","B","B","B","B","?","?","?","C","C","C","C","C","?","?","?","K","K","K","K","K","K","K","K","K","K","K","K","?","L","?","?","?","?","?","?","?","?","?","?","?","?","?","?","?","?","L","L","L","C","C","D","?","?","?","?","?","?","?","?","?","?","?","?","?","?","?","?","?","?","?","?","?","?","?","?","?","?","?","?","?","?","?","?","?","?","?","?","?","?","?","?","?","?","?","?","?","?","?","?","?","?","?","?","?","?","?","?","?","?","?","?","?","?","?","?","?","?","?","?","?","?","?","?","?","?","?","?","?","?","?","?","?","?","?","?","?","?","?","?","?","?","?","?","?","?","?","?","?","?","?","?","?","?","?","?","?","?","?","?","?","?","?","?","?","?","?","?","?","?","?","?","?","?","?","?","?","?","?","?","?","?","?","?","?","?","?","?","?","?","?","?","?","?","?","?","?","?","?","?","?","?","?","?","?","?","?","?","?","?","?","?","?","?","?","?","?","?","?","?","?","?","?","?","?","?","?","?","?","?","?","?","?","?","?","?","?","E","E","E","E","E","E","E","E","E","E","E","E","E","E","E","E","E","E","E","E","E","E","E","E","E","E","E","E","E","E","E","E","E","E","E","E","E","E","E","E","E","E","E","E","E","E","E","E","E","E","E","E","E","E","E","?","?","?","?","?","?","?","?","?","F","F","F","F","F","F","F","F","F","F","F","F","F","F","F","F","F","F","F","F","F","F","F","F","F","F","F","F","F","F","F","F","F","F","F","F","F","F","F","F","F","F","F","F","F","F","?","?","O","O","O","O","O","O","O","O","O","O","O","O","O","O","O","O","O","O","O","O","O","O","O","O","O","O","O","O","O","O","O","O","O","O","O","O","O","O","O","O","O","O","O","O","O","O","O","O","O","O","O","O","O","O","O","O","O","O","O","O","O","O","O","O","O","O","O","O","O","O","O","O","O","O","O","O","O","O","O","O","O","O","O","O","O","O","O","O","O","O","O","O","O","O","O","O","O","O","O","O","O","O","O","O","O","O","O","O","O","O","O","O","O","O","O","O","O","O","O","O","O","O","O","O","O","O","?","?","?","X","X","X","X","X","X","X","X","X","X","X","X","X","X","X","X","X","X","X","X","X","X","X","X","X","X","X","X","X","X","X","X","X","X","X","X","X","X","X","X","X","X","X","X","X","X","X","X","X","X","X","X","X","X","X","X","X","X","X","X","X","X","X","X","X","X","X","X","X","X","X","X","X","X","X","X","X","X","X","X","X","X","X","X","X","X","X","X","X","X","X","X","X","X","X","X","X","X","X","X","X","X","X","X","X","X","X","X","X","X","X","X","X","X","X","X","X","X","X","X","X","X","X","X","X","X","X","X","X","X","X","X","X","X","X","X","X","Y","Y","Y","Y","Y","Y","Y","Y","Y","Y","Y","Y","Y","Y","Y","Y","Y","Y","Y","Y","Y","Y","Y","Y","Y","Y","Y","Y","Y","Y","Y","Y","Y","Y","Y","Y","Y","Y","Y","Y","Y","Y","Y","Y","Y","Y","Y","Y","Y","Y","Y","Y","Y","Y","Y","Y","Y","Y","Y","Y","Y","Y","Y","Y","Y","Y","Y","Y","Y","Y","Y","Y","Y","Y","Y","Y","Y","Y","Y","Y","Y","Y","Y","Y","Y","Y","Y","Y","Y","Y","Y","Y","Y","Y","Y","Y","Y","Y","Y","Y","Y","Y","Y","Y","Y","Y","Y","Y","Y","Y","Y","?","?","?","?","?","?","?","?","?","?","?","?","?","?","?","?","?","?","?","?","?","?","?","?","?","?","?","?","?","?","?","?","?","?","?","?","?","?","P","P","P","P","P","P","P","P","P","P","P","P","P","P","P","P","P","P","P","P","P","P","P","P","P","P","P","P","P","P","P","P","P","P","P","P","P","P","P","P","P","P","P","P","P","P","P","P","P","P","P","P","P","P","P","P","P","P","P","P","P","P","P","P","P","P","P","P","P","P","P","P","P","P","P","P","P","P","P","P","P","P","P","P","P","P","P","P","P","P","P","P","P","P","P","P","P","P","P","P","P","P","P","P","P","P","P","?","?","O","O","O","O","O","O","O","O","O","O","O","O","O","O","O","O","O","O","O","O","O","O","O","O","O","O","O","O","O","O","O","O","O","O","O","O","O","O","O","O","O","O","O","O","O","O","O","O","O","O","O","O","O","O","O","O","O","O","O","O","O","O","O","O","O","O","O","O","O","O","O","O","O","O","O","O","O","O","O","O","O","O","O","O","O","O","O","O","O","O","O","O","O","O","O","O","O","O","O","O","O","O","O","O","O","O","O","O","O","O","O","O","O","O","O","O","?","?","?","?","?","F","F","F","F","F","F","F","F","F","F","F","F","F","F","F","F","F","F","F","F","F","F","F","F","F","F","F","F","F","F","F","F","F","F","F","F","F","F","F","F","F","F","F","F","F","F","F","F","F","F","F","F","F","F","F","F","F","F","F","F","F","F","F","F","F","F","F","F","F","F","F","F","F","F","F","F","F","F","F","F","F","F","F","F","F","F","F","F","F","F","F","F","F","F","F","F","F","F","F","F","F","F","F","F","F","F","F","F","F","F","F","F","F","F","F","F","F","F","F","F","F","F","F","F","F","F","F","F","F","F","F","F","F","F","F","F","F","F","F","F","F","F","F","F","F","F","F","F","F","F","F","F","F","F","F","F","F","F","F","F","F","F","F","F","F","F","F","F","F","F","F","F","F","F","F","F","F","F","F","F","F","F","F","F","F","F","F","F","F","F","F","F","F","F","F","F","F","F","F","F","F","F","F","F","F","F","F","F","F","F","F","F","F","F","F","F","F","F","F","F","E","E","?","?","?","L","L","L","L","L","L","?","?","?","?","?","?","?","?","?","?","C","C","C","C","C","C","C","C","C","C","C","C","C","C","C","C","C","C","C","C","C","C","C","C","C","C","C","C","C","C","C","C","C","C","C","C","C","C","C","C","C","C","C","C","C","C","C","C","C","C","?","?","?","?","?","?","?","?","?","?","?","?","?","?","?","?","?","?","?","?","?","?","?","?","?","?","?","?","?","?","?","F","F","F","F","F","F","F","F","F","F","?","?","?","?","?","?","?","?","?","?","?","?","?","?","?","?","?","?","?","?","?","?","?","?","?","?","?","?","?","?","?","?","?","?","?","?","?","?","?","?","?","?","?","?","?","?","?","?","?","?","?","?","?","?","?","?","?","?","?","?","?","?","?","?","?","?","?","?","?","?","?","?","?","?","?","?","?","?","?","?","?","?","?","?","?","?","?","?","?","?","?","?","?","?","?","?","?","?","?","?","?","?","?","?","?","?","?","?","?","?","?","?","?","?","?","?","?","?","?","?","?","?","?","?","?","?","?","?","?","?","?","?","?","?","?","?","?","?","?","?","?","?","?","?","?","?","?","?","?","?","?","?","?","?","?","?","?","?","?","?","?","?","?","?","?","?","?","?","?","?","?","?","?","?","?","F","F","F","F","?","E","E","E","E","D","D","D","D","?","?","?","?","?","?","?","?","?","?","?","?","?","?","?","?","K","K","K","K","K","?","?","?","?","?","J","J","J","J","J","J","J","J","J","J","J","J","J","J","J","J","J","J","J","J","J","J","J","J","J","J","J","J","J","J","J","J","J","J","J","J","J","J","J","J","J","J","J","J","J","J","J","J","J","J","J","J","J","J","J","J","J","J","J","J","J","J","J","J","J","J","J","J","J","J","J","J","J","J","J","J","J","J","J","J","J","J","J","J","J","J","J","J","J","J","J","J","J","J","J","J","J","J","J","J","J","J","J","J","J","J","J","J","J","J","J","J","J","J","J","J","J","J","J","J","?","K","K","K","K","K","K","K","K","K","K","K","K","K","K","K","K","K","K","K","K","K","K","K","K","K","K","K","K","K","K","K","K","K","K","K","K","K","K","K","K","K","K","K","K","K","K","K","K","K","K","K","K","K","K","K","K","K","K","K","K","K","K","K","K","K","K","K","K","K","K","K","K","K","K","K","K","K","K","K","K","K","K","K","K","K","K","K","K","K","?","?","?","?","?","?","?","T","T","T","T","T","T","T","T","T","T","T","T","T","T","T","T","T","T","T","T","T","T","T","T","T","T","T","T","T","T","T","T","T","T","T","T","T","T","T","T","T","T","T","T","T","T","T","T","T","T","T","T","T","T","T","T","T","T","T","T","T","T","T","T","T","T","T","T","T","T","T","T","T","T","T","T","T","T","?","?","?","?","?","S","S","S","S","S","S","S","S","S","S","S","S","S","S","S","S","S","S","S","S","S","S","S","S","S","S","S","S","S","S","S","S","S","S","S","S","S","S","S","S","S","S","S","S","S","S","S","S","S","S","S","S","S","S","S","S","S","S","S","S","S","S","S","S","S","S","S","S","S","S","S","S","S","S","S","S","S","S","T","T","T","T","T","T","T","T","?","?","?","?","?","?","?","?","?","?","?","?","?","?","?","?","?","?","?","?","?","?","?","?","?","?","?","?","?","?","U","U","U","U","U","U","U","U","U","U","U","U","U","U","U","U","U","U","U","U","U","U","U","U","U","U","U","U","U","U","U","U","U","U","U","U","U","U","U","U","U","U","U","U","U","U","U","U","U","U","U","U","U","U","U","U","U","U","U","U","U","U","U","U","U","U","U","U","U","U","U","U","U","U","U","U","U","U","U","U","U","U","U","U","U","U","U","U","U","U","U","U","U","U","U","U","U","U","V","V","V","V","V","V","V","V","V","V","V","V","V","V","V","V","V","V","V","V","V","V","V","V","V","V","V","V","V","V","V","V","V","V","V","V","V","V","V","V","V","V","V","V","V","V","V","V","V","V","V","V","V","V","V","V","V","V","V","V","V","V","V","V","V","V","V","V","V","V","V","V","V","V","V","V","V","V","V","V","V","V","V","V","V","V","V","V","V","V","V","V","V","V","V","V","V","V","V","V","V","V","V","V","V","V","V","V","V","V","V","V","V","V","V","V","V","V","V","V","V","V","V","V","V","V","V","V","V","V","V","V","V","V","V","V","V","V","V","V","V","V","V","V","V","V","V","V","V","V","V","V","V","V","V","V","V","V","V","V","V","V","V","V","V","V","V","V","V","V","V","V","V","V","V","V","?","?","?","?","?","?","?","M","M","M","M","M","M","M","M","M","M","M","M","M","M","M","M","M","M","M","M","M","M","M","M","M","M","M","M","M","M","M","M","M","M","M","M","M","M","M","M","M","M","M","M","M","M","M","M","M","M","M","M","M","M","M","M","M","M","M","M","M","M","M","M","M","M","M","M","M","M","M","M","M","M","M","M","M","M","M","M","M","M","M","M","M","M","M","M","M","M","M","M","M","M","M","M","M","M","M","M","M","M","M","M","M","M","M","M","M","M","M","M","M","M","M","M","M","M","M","M","M","M","M","M","M","M","M","M","?","?","?","?","?","?","?","?","D","D","D","D","D","D","D","D","D","D","D","D","D","D","D","D","D","D","D","D","D","D","D","D","D","D","D","D","D","D","D","D","D","D","D","D","D","D","D","D","D","D","D","D","D","D","D","D","D","D","D","D","D","D","D","D","D","D","D","D","D","D","D","D","D","D","D","D","D","D","D","D","D","D","D","D","D","D","D","D","D","D","D","D","D","D","D","D","D","D","D","D","D","D","D","D","D","D","D","D","D","D","D","D","D","D","D","D","D","D","D","D","D","D","D","D","D","D","?","?","?","E","E","?","?","F","F","?","?","?","?","?","?","?","?","?","?","?","?","?","G","G","G","G","G","G","G","G","G","G","G","G","G","G","G","G","G","G","?","H","H","H","H","H","H","H","H","H","H","H","H","H","H","H","H","H","H","H","H","H","H","H","H","H","H","H","H","H","H","H","H","H","H","H","H","H","H","H","H","H","H","H","H","H","H","H","H","H","H","H","H","H","H","H","H","H","H","H","H","H","H","H","H","H","H","H","H","H","H","H","H","H","H","H","H","H","H","H","H","H","H","H","H","H","H","H","H","H","H","H","H","H","H","H","?","G","G","G","G","G","G","?","?","?","?","?","F","F","F","F","F","F","F","F","F","F","F","F","F","F","F","F","F","F","F","F","F","F","F","F","F","F","F","F","F","F","F","F","F","F","F","F","F","F","F","F","F","F","F","F","F","F","F","F","F","F","F","F","F","F","F","F","F","F","F","F","F","F","F","F","F","F","F","F","F","F","F","F","F","F","F","F","F","F","F","F","F","F","F","F","F","F","F","F","F","F","F","F","F","F","F","F","F","F","F","F","F","F","F","F","F","F","F","F","F","F","F","F","F","F","F","F","F","F","F","F","F","F","F","F","F","F","F","F","F","F","F","F","F","F","F","F","F","F","F","F","F","F","F","F","F","F","F","F","F","F","F","?","?","?","?","?","G","G","G","G","G","G","G","G","G","G","G","G","G","G","G","G","G","G","G","G","G","G","G","G","G","G","G","G","G","G","G","G","G","G","G","G","G","G","G","G","G","G","G","G","G","G","G","G","G","G","G","G","G","G","G","G","G","G","G","G","G","G","G","G","G","G","G","G","G","G","G","G","G","G","G","G","G","G","G","G","G","G","G","G","G","G","G","G","G","G","G","G","G","G","G","G","G","G","G","G","G","G","G","G","G","G","G","G","G","G","G","G","G","G","G","G","G","G","G","G","G","G","G","G","G","G","G","G","?","?","O","O","?","?","?","?","?","?","?","?","?","?","?","?","?","?","?","?","?","?","?","?","?","?","H","H","H","H","H","H","H","H","H","H","H","H","H","H","H","H","H","H","H","H","H","H","H","H","H","H","H","H","H","H","H","H","H","H","H","H","H","H","H","H","H","H","H","H","H","H","H","H","H","H","H","H","H","H","H","H","H","H","H","H","H","H","H","H","H","H","H","H","H","H","H","H","H","H","H","H","H","H","H","H","H","H","H","H","H","H","H","H","H","H","H","H","H","H","H","H","H","H","H","H","H","H","H","H","H","H","H","H","H","H","H","H","H","H","H","H","H","H","H","H","H","H","H","H","H","H","H","H","H","H","H","H","H","H","H","H","H","H","H","?","?","?","?","?","Q","Q","Q","Q","Q","Q","Q","Q","Q","Q","Q","Q","Q","Q","Q","Q","Q","Q","Q","Q","Q","Q","Q","Q","Q","Q","Q","Q","Q","Q","Q","Q","Q","Q","Q","Q","Q","Q","Q","Q","Q","Q","Q","Q","Q","Q","Q","Q","Q","Q","Q","Q","Q","Q","Q","Q","Q","Q","Q","Q","Q","Q","Q","Q","Q","Q","Q","Q","Q","Q","Q","Q","Q","Q","Q","Q","Q","Q","Q","Q","Q","Q","Q","Q","Q","Q","Q","Q","Q","Q","Q","Q","Q","Q","Q","Q","Q","Q","Q","Q","Q","Q","Q","Q","Q","Q","Q","Q","Q","Q","Q","Q","Q","Q","Q","Q","Q","Q","Q","?","?","?","?","?","?","Z","Z","Z","Z","Z","Z","Z","Z","Z","Z","Z","Z","Z","Z","Z","Z","Z","Z","Z","Z","Z","Z","Z","Z","Z","Z","Z","Z","Z","Z","Z","Z","Z","Z","Z","Z","Z","Z","Z","Z","Z","Z","Z","Z","Z","Z","Z","Z","Z","Z","Z","Z","Z","Z","Z","Z","Z","Z","Z","Z","Z","Z","Z","Z","Z","Z","Z","Z","Z","Z","Z","Z","Z","Z","Z","Z","Z","Z","Z","Z","Z","Z","Z","Z","Z","Z","Z","Z","Z","Z","Z","Z","Z","Z","Z","Z","Z","Z","Z","Z","Z","Z","Z","Z","Z","Z","Z","Z","Z","Z","Z","Z","Z","Z","Z","Z","Z","Z","Z","Z","Z","Z","Z","Z","Z","Z","Z","Z","Z","Z","Z","Z","Z","Z","Z","Z","Z","Z","Z","Z","Z","Z","Z","Z","Z","Z","Z","Z","Z","Z","Z","Z","Z","Z","Z","Z","Z","Z","Z","Z","Z","Z","Z","Z","Z","Z","Z","Z","Z","Z","Z","Z","Z","Z","Z","Z","Z","Z","Z","Z","Z","Z","Z","Z","Z","Z","Z","Z","Z","Z","Z","?","?","?","?","?","?","?","?","?","?","?","?","?","?","?","?","?","?","?","?","?","?","?","?","?","?","?","?","?","?","?","?","?","?","?","?","?","?","?","?","?","?","?","?","?","?","?","?","?","?","?","?","?","?","?","?","?","?","?","?","?","?","?","?","?","?","?","?","?","?","?","?","?","?","?","?","?","?","?","?","?","?","?","?","?","?","?","?","?","?","?","?","?","?","?","?","?","?","?","?","?","?","?","?","?","?","?","?","?","?","?","?","?","?","?","?","?","?","?","?","?","R","R","R","R","R","R","R","R","R","R","R","R","R","R","R","R","R","R","R","R","R","R","R","R","R","R","R","R","R","R","R","R","R","R","R","R","R","R","R","R","R","R","R","R","R","R","R","R","R","R","R","R","R","R","R","R","R","R","R","R","R","R","R","R","R","R","R","R","R","R","R","R","R","R","R","R","R","R","R","R","R","R","R","R","R","R","R","R","R","R","R","R","R","R","R","R","R","R","R","R","R","R","R","R","R","R","R","R","R","R","R","R","R","R","R","R","R","R","R","R","R","R","R","R","R","R","R","R","R","R","R","R","R","R","R","R"],"t":[50,78,131,150,168,195,211,235,257,278,288,299,313,332,345,362,378,394,416,430,447,463,475,493,521,531,547,562,581,594,608,639,662,695,718,745,759,772,784,799,813,829,868,884,901,914,931,995,1006,1035,1050,1065,1124,1153,1177,1199,1214,1236,1246,1263,1306,1321,1332,1350,1365,1382,1398,1451,1465,1480,1501,1515,1534,1597,1607,1634,1652,1666,1718,1731,1748,1766,1782,1798,1854,1881,1895,1906,1929,1947,1999,2015,2034,2047,2061,2079,2092,2135,2149,2165,2182,2196,2213,2271,2284,2300,2314,2335,2383,2399,2422,2431,2455,2468,2514,2522,2552,2566,2584,2638,2648,2663,2680,2698,2710,2750,2765,2783,2800,2817,2867,2879,2897,2911,2931,2948,2995,3017,3033,3046,3064,3114,3133,3147,3164,3180,3198,3245,3257,3283,3295,3338,3366,3377,3395,3418,3427,3481,3495,3513,3531,3547,3562,3601,3612,3632,3647,3665,3728,3737,3764,3778,3796,3814,3826,3870,3898,3912,3929,3944,3982,4001,4017,4032,4050,4062,4110,4130,4148,4161,4181,4193,4231,4254,4267,4291,4304,4315,4328,4368,4381,4397,4414,4431,4483,4495,4515,4533,4547,4562,4612,4634,4648,4662,4678,4728,4749,4767,4779,4841,4855,4867,4884,4898,4911,4930,4943,4979,4999,5015,5030,5088,5103,5130,5144,5161,5211,5229,5244,5260,5280,5292,5328,5347,5362,5379,5396,5412,5468,5481,5495,5516,5531,5545,5560,5599,5615,5631,5649,5697,5726,5737,5762,5778,5790,5798,5818,5864,5884,5899,5920,5950,5967,6013,6030,6049,6064,6085,6099,6147,6164,6183,6201,6217,6231,6246,6263,6319,6330,6348,6364,6384,6398,6413,6460,6479,6495,6512,6528,6545,6563,6577,6595,6632,6647,6664,6681,6696,6715,6728,6779,6793,6815,6832,6852,6863,6876,6919,6932,6947,6965,6979,7001,7013,7031,7084,7096,7115,7131,7146,7197,7214,7232,7248,7342,7353,7366,7378,7395,7415,7427,7443,7460,7482,7497,7514,7529,7547,7562,7605,7619,7630,7650,7681,7699,7748,7761,7781,7796,7812,7856,7879,7895,7912,7930,7942,7974,7997,8012,8029,8047,8060,8096,8112,8133,8148,8162,8182,8197,8215,8260,8283,8311,8326,8348,8358,8375,8392,8410,8430,8446,8463,8478,8496,8542,8562,8583,8594,8611,8661,8680,8698,8711,8728,8773,8795,8813,8829,8842,8874,8894,8911,8927,8944,8959,8997,9008,9029,9047,9064,9078,9093,9133,9148,9164,9181,9198,9217,9235,9249,9321,9347,9365,9383,9397,9417,9431,9448,9460,9512,9528,9549,9563,9579,9600,9612,9625,9641,9651,9663,9681,9694,9733,9745,9766,9782,9799,9815,9833,9880,9898,9919,9933,9945,9973,9995,10041,10061,10079,10095,10113,10127,10144,10158,10192,10211,10230,10247,10261,10278,10317,10351,10378,10399,10412,10424,10436,10451,10466,10479,10496,10528,10551,10567,10581,10599,10614,10678,10700,10719,10734,10746,10762,10777,10816,10833,10846,10864,10879,10903,10915,10932,10950,11002,11029,11045,11063,11079,11130,11150,11166,11183,11196,11256,11266,11285,11296,11316,11334,11348,11360,11399,11416,11433,11449,11464,11483,11497,11515,11568,11579,11598,11620,11636,11648,11666,11681,11733,11750,11764,11782,11797,11812,11831,11879,11887,11915,11935,11955,11965,11981,11997,12012,12049,12067,12083,12100,12117,12135,12148,12166,12224,12236,12249,12266,12284,12300,12319,12330,12380,12398,12417,12430,12448,12466,12480,12530,12548,12565,12582,12595,12612,12627,12645,12659,12689,12715,12732,12749,12766,12781,12828,12848,12863,12880,12894,12913,12928,12984,12999,13015,13032,13049,13063,13119,13136,13163,13173,13196,13218,13230,13318,13331,13344,13366,13382,13398,13415,13434,13449,13467,13480,13497,13514,13535,13551,13566,13583,13601,13618,13633,13650,13721,13733,13749,13769,13788,13815,13832,13849,13863,13878,13907,13930,13948,13965,13981,13999,14014,14032,14047,14094,14114,14156,14180,14195,14211,14226,14245,14261,14282,14297,14312,14339,14351,14363,14379,14394,14414,14431,14448,14465,14480,14528,14549,14567,14584,14595,14643,14664,14682,14705,14720,14761,14777,14801,14812,14828,14870,14895,14911,14929,14942,14975,14994,15014,15027,15045,15059,15098,15114,15131,15148,15165,15215,15233,15247,15267,15281,15330,15341,15363,15378,15395,15410,15439,15469,15482,15501,15512,15550,15566,15579,15602,15631,15640,15665,15685,15729,15750,15766,15782,15797,15813,15861,15883,15896,15913,15931,15980,15997,16016,16029,16047,16094,16110,16127,16144,16163,16176,16211,16247,16260,16281,16292,16311,16331,16346,16367,16380,16396,16448,16464,16479,16495,16511,16560,16577,16595,16610,16625,16654,16679,16694,16711,16725,16754,16779,16794,16811,16825,16851,16862,16879,16894,16913,16927,16969,16996,17009,17028,17041,17067,17081,17094,17111,17154,17165,17181,17195,17211,17253,17261,17283,17294,17311,17351,17377,17393,17409,17425,17450,17464,17479,17494,17512,17552,17578,17596,17611,17624,17650,17661,17678,17694,17728,17747,17763,17802,17832,17851,17859,17895,17911,17928,17946,17961,18000,18013,18031,18046,18085,18111,18126,18144,18158,18183,18196,18212,18234,18250,18288,18310,18329,18346,18358,18380,18394,18420,18444,18470,18479,18523,18548,18564,18579,18596,18609,18648,18669,18684,18702,18717,18765,18780,18798,18811,18830,18871,18889,18916,18928,18947,18961,18977,19012,19032,19046,19062,19079,19095,19145,19167,19181,19197,19213,19261,19282,19297,19312,19337,19349,19400,19425,19447,19461,19480,19528,19544,19566,19578,19595,19639,19662,19679,19695,19709,19747,19762,19790,19800,19814,19839,19857,19899,19916,19932,19947,19965,19983,20035,20058,20080,20097,20158,20181,20199,20211,20228,20243,20285,20298,20325,20344,20365,20379,20415,20431,20449,20465,20482,20530,20546,20565,20583,20600,20612,20662,20678,20698,20711,20732,20745,20760,20779,20811,20829,20846,20862,20878,20893,20933,20947,20963,20982,20999,21015,21033,21080,21099,21116,21130,21148,21165,21188,21198,21242,21266,21282,21299,21352,21366,21386,21400,21418,21437,21446,21460,21497,21514,21531,21548,21566,21615,21630,21646,21667,21685,21733,21748,21764,21778,21800,21814,21830,21880,21896,21915,21931,21947,21966,21978,22026,22038,22062,22082,22100,22114,22129,22183,22194,22215,22230,22250,22264,22281,22321,22346,22369,22381,22394,22411,22431,22443,22461,22475,22513,22532,22548,22570,22585,22597,22614,22628,22665,22680,22699,22713,22732,22745,22764,22813,22829,22851,22862,22878,22922,22945,22962,22980,22996,23045,23063,23082,23096,23135,23162,23177,23194,23212,23225,23250,23279,23293,23311,23325,23350,23366,23378,23396,23416,23432,23470,23495,23513,23529,23544,23569,23582,23598,23611,23630,23676,23682,23698,23713,23728,23747,23759,23787,23812,23831,23849,23904,23929,23949,23959,23978,23994,24012,24025,24061,24080,24096,24113,24156,24178,24197,24210,24226,24243,24275,24296,24310,24329,24343,24358,24388,24411,24424,24444,24460,24480,24494,24531,24546,24561,24584,24605,24615,24640,24650,24667,24680,24692,24731,24749,24764,24781,24799,24814,24832,24846,24860,24907,24924,24935,24950,24967,24983,24998,25017,25033,25055,25074,25122,25148,25165,25180,25199,25222,25237,25247,25263,25306,25334,25348,25365,25381,25397,25452,25465,25480,25501,25512,25534,25547,25599,25614,25629,25646,25663,25681,25725,25744,25761,25777,25794,25809,25846,25864,25878,25897,25911,25926,25959,25978,25994,26013,26027,26067,26080,26100,26112,26128,26147,26162,26208,26229,26244,26261,26282,26295,26333,26345,26366,26378,26396,26416,26432,26446,26496,26513,26529,26545,26563,26576,26621,26635,26654,26667,26681,26699,26716,26744,26767,26784,26795,26810,26847,26860,26884,26900,26917,26935,26949,26968,26982,27038,27051,27067,27086,27100,27116,27129,27174,27196,27217,27234,27249,27265,27316,27331,27350,27366,27384,27398,27417,27431,27450,27504,27533,27548,27563,27581,27593,27643,27651,27682,27699,27713,27727,27743,27780,27798,27816,27835,27849,27866,27881,27930,27945,27965,27988,28002,28010,28051,28066,28084,28096,28146,28165,28181,28200,28215,28233,28249,28265,28279,28330,28339,28366,28378,28402,28414,28432,28448,28498,28515,28534,28548,28578,28588,28607,28616,28648,28662,28679,28696,28713,28730,28749,28796,28805,28829,28850,28898,28914,28933,28949,28962,29016,29033,29048,29066,29079,29133,29154,29171,29196,29215,29231,29242,29252,29266,29279,29294,29323,29336,29350,29366,29382,29398,29456,29485,29501,29519,29533,29551,29608,29632,29651,29665,29681,29699,29713,29761,29772,29798,29815,29833,29844,29859,29908,29932,29945,29962,29976,29993,30017,30031,30046,30062,30080,30131,30147,30166,30180,30198,30212,30231,30275,30295,30319,30342,30357,30376,30402,30413,30432,30445,30463,30482,30497,30546,30566,30583,30598,30617,30670,30693,30712,30728,30736,30761,30778,30792,30834,30850,30868,30882,30898,30918,30931,30978,30994,31011,31027,31048,31062,31082,31092,31128,31144,31161,31178,31194,31209,31242,31261,31279,31293,31311,31325,31361,31378,31395,31411,31443,31462,31479,31496,31510,31527,31542,31573,31594,31612,31630,31645,31678,31697,31711,31730,31745,31792,31814,31827,31852,31861,31902,31914,31929,31948,31963,32021,32034,32055,32077,32103,32122,32134,32160,32180,32197,32210,32227,32244,32261,32293,32311,32330,32346,32360,32396,32426,32438,32446,32467,32480,32499,32521,32533,32550,32565,32579,32598,32650,32659,32685,32697,32716,32766,32782,32798,32817,32832,32848,32897,32914,32935,32948,32966,33010,33033,33049,33062,33078,33108,33129,33148,33162,33175,33208,33228,33248,33263,33275,33309,33331,33349,33367,33380,33418,33428,33446,33461,33480,33544,33557,33567,33579,33594,33612,33627,33642,33682,33694,33716,33730,33744,33759,33800,33811,33830,33846,33862,33909,33932,33949,33962,33981,34029,34048,34063,34079,34125,34147,34162,34178,34197,34210,34243,34265,34280,34294,34314,34352,34379,34393,34413,34427,34442,34470,34499,34520,34529,34543,34580,34594,34604,34629,34646,34661,34697,34714,34734,34748,34762,34811,34830,34845,34862,34877,34907,34928,34947,34960,34977,34992,35026,35047,35066,35078,35092,35127,35144,35161,35177,35192,35219,35247,35262,35276,35302,35329,35345,35358,35393,35400,35414,35429,35445,35462,35479,35508,35531,35546,35592,35616,35628,35643,35664,35676,35705,35728,35744,35760,35775,35803,35814,35831,35847,35864,35907,35927,35945,35960,35975,36003,36029,36044,36060,36076,36106,36142,36161,36192,36200,36213,36230,36244,36277,36289,36316,36331,36346,36362,36378,36418,36432,36447,36468,36480,36497,36554,36567,36582,36616,36632,36643,36682,36702,36716,36732,36749,36765,36827,36843,36854,36883,36899,36911,36956,36964,36982,37000,37017,37034,37048,37064,37078,37114,37131,37146,37166,37180,37205,37222,37259,37280,37298,37314,37334,37345,37362,37403,37428,37447,37461,37477,37494,37509,37550,37572,37585,37598,37615,37629,37643,37660,37680,37696,37718,37729,37748,37759,37799,37814,37830,37847,37867,37878,37898,37910,37950,37966,37978,37997,38017,38029,38081,38098,38114,38132,38149,38162,38180,38218,38228,38247,38262,38282,38295,38337,38362,38381,38397,38437,38473,38491,38512,38526,38534,38546,38564,38578,38601,38616,38632,38650,38664,38682,38730,38746,38765,38783,38834,38850,38863,38917,38927,38962,38982,38998,39013,39030,39076,39100,39113,39128,39144,39161,39193,39213,39230,39249,39295,39311,39331,39348,39360,39376,39407,39431,39448,39461,39480,39493,39531,39545,39564,39581,39592,39630,39647,39667,39680,39697,39746,39762,39782,39797,39812,39853,39863,39880,39895,39912,39956,39978,39993,40013,40025,40053,40068,40095,40112,40125,40153,40183,40195,40213,40227,40242,40280,40301,40316,40328,40336,40362,40379,40413,40436,40448,40463,40488,40498,40542,40564,40575,40601,40623,40650,40663,40696,40714,40728,40764,40782,40801,40817,40832,40852,40867,40924,40950,40964,40980,40995,41015,41032,41045,41085,41100,41117,41132,41149,41165,41219,41245,41255,41284,41296,41312,41326,41364,41382,41399,41415,41432,41481,41497,41513,41530,41545,41592,41611,41632,41645,41660,41691,41713,41728,41744,41763,41775,41814,41831,41847,41866,41880,41930,41961,41971,41997,42013,42026,42064,42085,42100,42115,42130,42180,42216,42227,42248,42263,42283,42298,42337,42351,42368,42386,42398,42455,42471,42502,42523,42550,42567,42578,42610,42621,42649,42673,42684,42696,42716,42727,42746,42774,42784,42799,42816,42831,42889,42913,42932,42947,42966,43018,43031,43051,43066,43080,43135,43149,43166,43181,43195,43246,43266,43280,43297,43348,43364,43383,43395,43411,43433,43477,43498,43517,43531,43548,43562,43579,43592,43625,43648,43664,43678,43699,43711,43728,43742,43782,43797,43814,43828,43848,43864,43880,43926,43944,43964,43977,43995,44009,44046,44065,44079,44096,44141,44165,44181,44196,44211,44242,44261,44281,44298,44319,44363,44379,44407,44419,44426,44468,44480,44501,44516,44530,44582,44601,44617,44638,44655,44663,44710,44730,44748,44766,44779,44818,44834,44850,44866,44884,44896,44944,44966,44980,44994,45014,45063,45079,45100,45113,45132,45147,45197,45216,45233,45250,45266,45283,45331,45348,45371,45394,45408,45437,45449,45465,45478,45497,45542,45561,45577,45593,45610,45625,45653,45678,45694,45712,45725,45761,45782,45795,45814,45830,45846,45860,45899,45913,45931,45945,45961,46010,46027,46044,46070,46085,46094,46127,46147,46162,46178,46194,46209,46245,46270,46294,46310,46326,46349,46364,46379,46395,46435,46448,46461,46480,46495,46534,46545,46564,46579,46597,46636,46649,46666,46682,46697,46741,46761,46778,46793,46822,46844,46861,46877,46894,46913,46925,46955,46979,46994,47010,47025,47052,47077,47093,47112,47125,47153,47162,47181,47199,47210,47247,47276,47301,47330,47350,47370,47381,47395,47411,47429,47449,47464,47484,47500,47515,47530,47585,47614,47629,47642,47677,47688,47712,47731,47745,47778,47800,47817,47833,47851,47905,47929,47948,47965,47987,48001,48012,48044,48066,48083,48098,48116,48132,48149,48166,48178,48221,48233,48249,48267,48284,48300,48317,48336,48396,48407,48419,48431,48451,48468,48482,48496,48512,48561,48584,48598,48621,48646,48659,48691,48714,48728,48746,48762,48776,48812,48829,48845,48861,48877,48892,48919,48944,48961,48978,48992,49026,49046,49063,49081,49104,49115,49126,49156,49179,49195,49212,49229,49274,49294,49311,49330,49343,49358,49388,49414,49433,49460,49475,49493,49511,49531,49543,49560,49577,49600,49615,49631,49645,49661,49703,49732,49743,49760,49789,49819,49842,49854,49868,49881,49895,49924,49935,49983,50000,50015,50032,50080,50099,50116,50132,50145,50196,50214,50231,50248,50263,50300,50318,50338,50350,50366,50384,50442,50453,50463,50480,50498,50511,50526,50566,50582,50598,50613,50629,50644,50658,50689,50717,50744,50758,50786,50798,50812,50832,50873,50894,50910,50926,50942,50967,50995,51012,51025,51103,51131,51143,51160,51177,51205,51214,51229,51244,51267,51282,51295,51312,51328,51345,51371,51401,51414,51457,51478,51496,51510,51529,51542,51580,51598,51615,51629,51647,51665,51712,51728,51745,51761,51777,51792,51826,51846,51864,51877,51895,51910,51943,51964,51977,51995,52012,52025,52059,52081,52098,52110,52128,52144,52159,52190,52214,52231,52243,52261,52275,52302,52332,52345,52359,52393,52410,52429,52443,52458,52483,52496,52514,52530,52552,52606,52628,52644,52662,52675,52711,52727,52747,52765,52776,52813,52831,52846,52867,52887,52926,52946,52962,52982,52997,53044,53064,53081,53095,53111,53154,53177,53193,53214,53225,53255,53280,53293,53310,53328,53390,53404,53452,53470,53496,53512,53530,53547,53565,53582,53604,53622,53635,53673,53686,53699,53715,53735,53749,53767,53783,53795,53814,53853,53884,53900,53917,53932,53948,53966,53979,54027,54058,54070,54083,54100,54123,54134,54149,54164,54218,54235,54257,54270,54285,54300,54319,54376,54389,54402,54424,54444,54456,54471,54485,54504,54564,54611,54625,54641,54653,54665,54716,54733,54754,54773,54784,54802,54857,54872,54884,54901,54919,54930,54950,55010,55022,55038,55053,55069,55087,55102,55119,55177,55190,55201,55219,55235,55253,55266,55318,55335,55348,55368,55385,55399,55415,55467,55485,55515,55527,55538,55560,55572,55584,55638,55651,55669,55684,55701,55716,55736,55749,55766,55810,55835,55849,55865,55881,55936,55962,55978,55995,56010,56044,56057,56080,56098,56111,56132,56145,56186,56200,56218,56233,56249,56266,56317,56334,56350,56366,56382,56400,56416,56433,56485,56500,56529,56543,56553,56580,56596,56610,56642,56661,56672,56683,56722,56733,56772,56811,56823,56835,56847,56864,56904,56924,56945,56960,56971,56994,57012,57038,57063,57088,57109,57124,57148,57174,57191,57210,57228,57238,57264,57294,57305,57335,57352,57365,57384,57399,57420,57432,57444,57490,57516,57534,57546,57564,57577,57613,57630,57651,57668,57683,57734,57768,57782,57795,57830,57847,57866,57881,57898,57915,57929,57978,58004,58019,58040,58052,58068,58082,58100,58114,58132,58148,58182,58197,58215,58230,58284,58297,58316,58335,58348,58404,58421,58431,58449,58467,58481,58498,58510,58554,58587,58600,58612,58633,58648,58697,58713,58731,58747,58762,58776,58816,58828,58834,58847,58866,58879,58893,58930,58948,58980,58989,59010,59051,59064,59085,59098,59117,59161,59178,59199,59216,59238,59284,59311,59336,59352,59369,59384,59468,59488,59505,59517,59535,59549,59563,59581,59594,59614,59628,59647,59665,59682,59699,59713,59732,59746,59760,59799,59814,59842,59864,59928,59946,59967,59981,59997,60039,60065,60083,60099,60115,60170,60182,60199,60214,60230,60248,60299,60313,60333,60351,60362,60381,60433,60448,60468,60480,60500,60514,60573,60585,60601,60615,60631,60644,60662,60688,60725,60737,60750,60762,60781,60793,60833,60847,60865,60881,60896,60910,60949,60965,60982,60997,61012,61064,61083,61099,61116,61168,61179,61197,61215,61230,61283,61298,61316,61332,61380,61406,61420,61434,61450,61468,61531,61559,61571,61582,61601,61616,61629,61666,61683,61698,61713,61730,61780,61799,61819,61837,61902,61915,61931,61947,61966,62016,62032,62051,62065,62081,62099,62150,62162,62182,62197,62212,62230,62280,62295,62316,62332,62349,62364,62380,62427,62444,62466,62480,62495,62509,62544,62562,62579,62594,62611,62648,62664,62678,62697,62711,62750,62763,62779,62795,62814,62852,62865,62880,62894,62911,62951,62962,62979,62998,63036,63062,63077,63093,63109,63145,63163,63179,63194,63212,63227,63242,63268,63296,63310,63327,63343,63358,63389,63412,63427,63455,63477,63484,63521,63546,63563,63599,63617,63634,63647,63665,63678,63697,63736,63764,63778,63794,63813,63826,63851,63878,63894,63912,63927,63942,63967,63995,64012,64028,64043,64071,64096,64112,64130,64145,64159,64185,64211,64228,64245,64262,64277,64301,64330,64345,64361,64375,64403,64428,64445,64468,64480,64497,64510,64547,64561,64579,64594,64611,64628,64646,64658,64689,64711,64729,64744,64761,64778,64792,64842,64867,64879,64884,64913,64927,64942,64975,64994,65011,65027,65044,65059,65092,65113,65128,65144,65158,65186,65211,65239,65259,65277,65297,65314,65330,65342,65372,65394,65412,65428,65445,65461,65485,65513,65527,65546,65559,65598,65613,65639,65650,65674,65693,65712,65734,65752,65762,65803,65829,65848,65864,65882,65899,65911,65952,65964,65979,65998,66016,66029,66050,66101,66126,66137,66149,66168,66182,66195,66215,66227,66268,66283,66300,66317,66336,66349,66367,66384,66398,66416,66465,66474,66499,66512,66532,66546,66561,66611,66630,66644,66664,66678,66694,66712,66726,66757,66769,66796,66810,66847,66864,66887,66898,66912,66927,66953,66977,66993,67011,67025,67053,67078,67094,67110,67137,67161,67179,67197,67220,67228,67268,67282,67304,67320,67333,67346,67366,67382,67433,67449,67466,67482,67500,67518,67533,67548,67610,67632,67648,67665,67681,67697,67715,67732,67748,67759,67798,67814,67833,67848,67866,67882,67898,67943,67968,67982,67998,68014,68029,68046,68070,68083,68094,68127,68147,68165,68182,68198,68213,68259,68279,68294,68312,68328,68346,68362,68376,68408,68428,68444,68463,68476,68528,68545,68566,68580,68597,68613,68646,68660,68678,68695,68711,68727,68743,68776,68798,68814,68828,68847,68861,68879,68893,68927,68949,68963,68979,68996,69011,69028,69042,69069,69094,69110,69130,69143,69162,69175,69204,69229,69244,69261,69279,69293,69319,69331,69346,69362,69379,69395,69437,69462,69480,69496,69510,69528,69544,69601,69612,69630,69646,69663,69679,69696,69714,69726,69763,69780,69795,69814,69828,69845,69860,69892,69910,69926,69945,69960,69975,70009,70019,70045,70063,70079,70092,70131,70148,70165,70178,70224,70244,70261,70297,70312,70329,70347,70363,70379,70441,70452,70467,70482,70495,70514,70527,70565,70580,70599,70613,70630,70646,70661,70697,70713,70733,70746,70763,70781,70796,70837,70866,70880,70894,70945,70961,70977,70994,71009,71038,71071,71102,71112,71131,71145,71161,71192,71216,71232,71247,71266,71282,71298,71322,71336,71404,71429,71449,71467,71480,71506,71514,71533,71547,71576,71594,71605,71634,71649,71667,71681,71700,71716,71732,71750,71763,71821,71832,71850,71866,71888,71904,71920,71932,71948,71964,71981,71995,72042,72066,72082,72099,72114,72134,72149,72167,72221,72249,72264,72281,72300,72312,72329,72343,72385,72396,72418,72431,72448,72510,72527,72544,72561,72577,72593,72611,72632,72647,72661,72678,72694,72710,72742,72764,72778,72793,72810,72827,72858,72878,72894,72910,72926,72958,72981,72992,73011,73023,73049,73062,73076,73112,73129,73147,73172,73185,73198,73213,73230,73247,73260,73286,73315,73336,73348,73366,73382,73395,73448,73468,73481,73500,73516,73535,73559,73576,73622,73645,73663,73682,73695,73714,73729,73743,73788,73812,73827,73848,73863,73877,73898,73909,73961,73978,73994,74010,74028,74044,74060,74077,74094,74113,74133,74144,74162,74177,74193,74208,74232,74248,74261,74279,74295,74334,74357,74368,74381,74395,74411,74426,74456,74481,74498,74512,74528,74574,74594,74612,74628,74643,74661,74688,74712,74727,74745,74759,74787,74811,74827,74844,74858,74882,74896,74918,74942,74968,74980,74995,75013,75040,75051,75071,75098,75113,75130,75168,75194,75210,75228,75242,75266,75279,75295,75313,75332,75371,75381,75394,75412,75428,75469,75494,75510,75527,75542,75568,75597,75610,75630,75641,75664,75679,75695,75717,75740,75751,75783,75798,75812,75830,75871,75897,75914,75929,75968,75979,75995,76014,76051,76078,76096,76112,76125,76150,76170,76193,76209,76233,76261,76280,76293,76310,76327,76354,76377,76393,76410,76425,76449,76464,76480,76497,76532,76546,76563,76593,76599,76639,76661,76679,76696,76710,76753,76779,76795,76815,76831,76869,76880,76898,76913,76930,76970,76994,77013,77027,77042,77069,77100,77127,77139,77163,77179,77194,77211,77226,77244,77262,77281,77297,77312,77331,77346,77363,77378,77411,77430,77444,77463,77479,77494,77514,77526,77563,77583,77605,77621,77646,77664,77680,77693,77731,77748,77765,77782,77799,77816,77835,77885,77898,77917,77932,77950,77973,77988,78001,78020,78043,78054,78086,78100,78117,78128,78174,78198,78215,78229,78245,78261,78280,78293,78338,78363,78387,78402,78414,78426,78461,78483,78495,78511,78531,78577,78594,78615,78631,78643,78676,78694,78715,78729,78746,78762,78797,78814,78831,78849,78901,78915,78934,78950,78999,79026,79045,79061,79070,79085,79098,79114,79130,79146,79204,79233,79246,79265,79283,79297,79313,79367,79381,79399,79414,79431,79448,79500,79516,79533,79547,79561,79581,79625,79644,79661,79678,79695,79710,79741,79763,79779,79796,79811,79850,79865,79882,79899,79915,79933,79955,79978,79996,80032,80048,80064,80079,80096,80117,80135,80182,80196,80215,80231,80246,80264,80313,80332,80347,80363,80380,80394,80448,80455,80481,80495,80515,80531,80552,80567,80576,80610,80628,80649,80665,80682,80695,80714,80761,80777,80798,80812,80828,80848,80863,80876,80909,80928,80948,80961,80981,80997,81012,81026,81066,81081,81096,81118,81142,81184,81194,81212,81233,81248,81264,81279,81312,81329,81348,81364,81378,81393,81424,81445,81463,81478,81494,81509,81536,81564,81580,81593,81608,81637,81663,81677,81695,81709,81737,81765,81783,81800,81811,81826,81852,81864,81879,81897,81916,81960,81978,81994,82011,82027,82042,82069,82079,82097,82112,82155,82179,82195,82211,82225,82251,82278,82297,82309,82336,82348,82364,82378,82396,82432,82446,82462,82477,82511,82542,82556,82574,82585,82595,82611,82628,82642,82676,82697,82714,82729,82747,82801,82815,82827,82838,82863,82878,82894,82909,82940,82962,82980,82995,83009,83046,83063,83078,83095,83111,83126,83158,83171,83195,83210,83229,83244,83261,83290,83312,83329,83345,83372,83417,83445,83464,83479,83494,83514,83527,83545,83559,83579,83601,83615,83632,83655,83666,83679,83698,83711,83726,83761,83780,83801,83813,83869,83881,83896,83914,83931,83989,84002,84018,84033,84047,84097,84114,84129,84145,84164,84182,84226,84259,84283,84298,84311,84328,84363,84379,84395,84411,84426,84459,84472,84495,84514,84527,84562,84581,84597,84612,84627,84642,84690,84713,84728,84744,84760,84790,84818,84832,84845,84861,84880,84894,84931,84948,84964,84979,84995,85011,85026,85061,85081,85098,85114,85135,85148,85185,85200,85225,85244,85259,85290,85313,85331,85344,85360,85375,85406,85428,85446,85461,85475,85505,85528,85547,85560,85575,85605,85631,85646,85660,85675,85702,85729,85746,85761,85775,85802,85827,85846,85861,85877,85892,85915,85930,85947,85962,85985,86036,86046,86063,86080,86095,86109,86140,86163,86180,86195,86233,86246,86263,86278,86294,86341,86365,86377,86393,86408,86436,86462,86477,86493,86510,86536,86561,86577,86592,86634,86652,86662,86678,86694,86710,86726,86754,86780,86797,86814,86833,86865,86880,86895,86913,86930,86944,86988,87013,87027,87044,87061,87085,87113,87127,87145,87159,87183,87197,87212,87228,87247,87285,87312,87328,87346,87360,87389,87413,87426,87444,87458,87485,87514,87529,87544,87571,87594,87611,87625,87653,87677,87694,87710,87725,87754,87780,87793,87810,87827,87856,87880,87894,87908,87936,87963,87977,87994,88009,88031,88046,88062,88077,88111,88137,88161,88180,88189,88210,88225,88252,88277,88295,88310,88326,88352,88363,88379,88395,88435,88444,88464,88478,88503,88536,88562,88577,88593,88608,88635,88647,88668,88695,88710,88726,88750,88781,88795,88812,88826,88852,88877,88894,88910,88926,88952,88978,88994,89011,89025,89048,89065,89079,89096,89112,89166,89187,89209,89219,89249,89264,89276,89310,89331,89348,89360,89379,89393,89429,89448,89465,89478,89499,89549,89566,89582,89598,89612,89669,89698,89712,89729,89748,89797,89812,89833,89848,89865,89881,89928,89945,89962,89980,89997,90010,90044,90064,90082,90096,90113,90160,90171,90195,90211,90231,90243,90286,90302,90315,90345,90360,90367,90377,90417,90432,90448,90470,90533,90545,90567,90579,90628,90645,90666,90679,90697,90753,90766,90782,90799,90812,90831,90878,90899,90916,90931,90947,90991,91022,91041,91057,91077,91089,91111,91149,91164,91181,91198,91212,91229,91246,91262,91297,91312,91333,91345,91361,91413,91429,91444,91461,91477,91492,91522,91546,91562,91578,91593,91628,91646,91663,91677,91694,91712,91726,91757,91782,91795,91812,91830,91842,91879,91894,91911,91927,91943,91959,92001,92015,92030,92047,92096,92111,92132,92144,92160,92177,92207,92222,92244,92260,92278,92301,92313,92330,92344,92361,92398,92411,92430,92447,92462,92503,92529,92543,92560,92575,92600,92613,92628,92644,92665,92700,92727,92744,92760,92775,92803,92828,92843,92860,92878,92905,92928,92943,92960,92975,93004,93031,93055,93086,93096,93113,93129,93152,93165,93182,93199,93211,93255,93278,93295,93311,93327,93343,93371,93397,93411,93430,93445,93482,93497,93511,93537,93552,93601,93616,93633,93645,93662,93717,93731,93747,93761,93780,93830,93838,93861,93878,93894,93909,93941,93962,93978,93994,94009,94035,94046,94064,94079,94094,94139,94161,94177,94193,94209,94233,94244,94261,94280,94294,94344,94361,94378,94396,94412,94425,94452,94470,94494,94512,94527,94542,94567,94596,94612,94625,94651,94680,94693,94710,94725,94751,94764,94780,94807,94815,94854,94882,94895,94914,94931,94972,94995,95013,95030,95044,95063,95093,95114,95130,95147,95164,95179,95194,95209,95238,95249,95265,95281,95296,95311,95350,95363,95380,95409,95432,95449,95455,95496,95514,95529,95544,95563,95609,95628,95646,95660,95677,95692,95718,95728,95746,95760,95777,95817,95844,95860,95877,95892,95917,95930,95946,95962,95980,96037,96069,96081,96097,96115,96127,96165,96183,96210,96238,96250,96263,96310,96329,96346,96366,96379,96397,96412,96450,96467,96479,96497,96518,96570,96579,96598,96614,96628,96647,96698,96712,96730,96744,96762,96776,96810,96832,96845,96862,96878,96894,96939,96962,96978,96994,97013,97027,97071,97095,97115,97132,97146,97160,97195,97211,97228,97245,97261,97276,97306,97332,97347,97365,97377,97392,97420,97444,97461,97477,97492,97530,97537,97564,97578,97594,97609,97640,97662,97679,97695,97710,97755,97779,97794,97810,97827,97842,97860,97890,97900,97914,97927,97943,97961,97980,97997,98012,98029,98076,98098,98115,98129,98182,98195,98220,98244,98259,98281,98296,98314,98330,98371,98397,98411,98428,98442,98467,98479,98496,98514,98528,98570,98595,98614,98628,98642,98672,98696,98711,98727,98742,98779,98797,98813,98828,98842,98870,98895,98910,98928,98943,98969,98998,99011,99028,99043,99068,99094,99110,99127,99142,99167,99180,99196,99212,99264,99284,99307,99314,99333,99347,99361,99376,99395,99411,99429,99449,99461,99477,99492,99524,99549,99562,99580,99622,99644,99661,99679,99695,99709,99735,99761,99777,99793,99809,99832,99844,99861,99877,99894,99934,99946,99961,99977,99995,100034,100046,100062,100080,100095,100146,100166,100180,100198,100213,100228,100243,100279,100296,100315,100328,100345,100362,100396,100416,100431,100446,100464,100486,100527,100547,100566,100579,100597,100613,100649,100675,100696,100711,100750,100767,100779,100801,100814,100831,100846,100894,100914,100930,100948,100962,100978,101011,101029,101046,101063,101080,101093,101137,101164,101178,101194,101208,101236,101262,101277,101297,101309,101336,101346,101362,101379,101394,101436,101461,101477,101495,101509,101538,101561,101578,101594,101616,101626,101656,101688,101701,101714,101732,101744,101759,101782,101799,101816,101829,101847,101896,101916,101938,101952,101964,101982,102031,102048,102088,102101,102131,102168,102183,102203,102217,102232,102294,102303,102317,102345,102354,102382,102395,102432,102448,102465,102481,102498,102554,102578,102594,102612,102626,102645,102664,102680,102695,102710,102725,102754,102777,102794,102810,102827,102851,102863,102879,102897,102943,102962,102989,103012,103023,103043,103077,103097,103116,103128,103143,103182,103195,103217,103229,103249,103315,103331,103350,103367,103382,103430,103448,103465,103493,103503,103535,103548,103569,103594,103611,103637,103663,103678,103694,103713,103726,103755,103781,103797,103811,103825,103850,103863,103878,103896,103912,103954,103966,103982,103997,104014,104056,104078,104096,104109,104138,104161,104178,104197,104211,104226,104249,104264,104283,104295,104312,104376,104400,104419,104432,104443,104463,104481,104493,104533,104549,104567,104579,104628,104645,104662,104678,104693,104727,104745,104762,104780,104794,104828,104847,104861,104878,104893,104927,104944,104961,104977,104995,105009,105040,105062,105079,105095,105109,105139,105161,105177,105196,105209,105240,105264,105279,105292,105318,105348,105362,105378,105394,105413,105443,105453,105484],"hit":[null],"x":[-2.0408163265306123,-2.0408163265306123,-2.0408163265306123,-2.0408163265306123,-2.0408163265306123,-2.0408163265306123,-2.0408163265306123,-2.0408163265306123,-2.0408163265306123,-2.0408163265306123,-2.0408163265306123,-2.0408163265306123,-2.0408163265306123,-2.0408163265306123,-2.0408163265306123,-2.0408163265306123,-2.0408163265306123,-2.0408163265306123,-2.0408163265306123,-2.0408163265306123,-2.0408163265306123,-2.0408163265306123,-2.0408163265306123,-2.0408163265306123,-2.0408163265306123,-2.0408163265306123,-2.0408163265306123,-2.0408163265306123,-2.0408163265306123,-2.0408163265306123,-2.0408163265306123,-2.0408163265306123,-2.0408163265306123,-2.0408163265306123,-2.0408163265306123,-2.0408163265306123,-2.0408163265306123,-2.0408163265306123,-2.0408163265306123,-2.0408163265306123,-2.0408163265306123,-2.0408163265306123,-2.0408163265306123,-2.0408163265306123,-2.0408163265306123,-2.0408163265306123,-2.0408163265306123,-2.0408163265306123,-2.0408163265306123,-2.0408163265306123,-2.0408163265306123,-2.0408163265306123,-2.0408163265306123,-2.0408163265306123,-2.0408163265306123,-2.0408163265306123,-2.0408163265306123,-2.0408163265306123,-2.0408163265306123,-2.0408163265306123,-2.0408163265306123,-2.0408163265306123,-2.0408163265306123,-2.0408163265306123,-2.0408163265306123,-2.0408163265306123,-2.0408163265306123,-2.0408163265306123,-2.0408163265306123,-2.0408163265306123,-2.0408163265306123,-2.0408163265306123,-2.0408163265306123,-2.0408163265306123,-2.0408163265306123,-2.0408163265306123,-2.0408163265306123,-2.0408163265306123,-2.0408163265306123,-2.0408163265306123,-2.0408163265306123,-2.0408163265306123,-2.0408163265306123,-2.0408163265306123,-2.0408163265306123,-2.0408163265306123,-2.0408163265306123,-2.0408163265306123,-2.0408163265306123,-2.0408163265306123,-2.0408163265306123,-2.0408163265306123,-2.0408163265306123,-2.0408163265306123,-2.0408163265306123,-2.0408163265306123,-2.0408163265306123,-2.0408163265306123,-2.0408163265306123,-2.0408163265306123,-2.0408163265306123,-2.0408163265306123,-2.0408163265306123,-2.0408163265306123,-2.0408163265306123,-2.0408163265306123,-2.0408163265306123,-2.0408163265306123,-2.0408163265306123,-2.0408163265306123,-0.8860544217687075,-0.5527210884353742,-0.5527210884353742,-0.3826530612244898,-0.20238095238095238,-0.1717687074829932,-0.13095238095238096,-0.10374149659863946,-0.06972789115646258,0.11394557823129252,0.14795918367346939,0.17517006802721088,0.17517006802721088,0.2193877551020408,0.2193877551020408,0.2942176870748299,0.31802721088435376,0.358843537414966,0.358843537414966,0.3826530612244898,0.3826530612244898,0.3826530612244898,0.3826530612244898,0.3826530612244898,0.3826530612244898,0.3826530612244898,0.3826530612244898,0.3826530612244898,0.3826530612244898,0.3826530612244898,0.3826530612244898,0.3826530612244898,0.3826530612244898,0.3826530612244898,0.3826530612244898,0.3826530612244898,0.3826530612244898,0.3826530612244898,0.3826530612244898,0.3826530612244898,0.3826530612244898,0.3826530612244898,0.3826530612244898,0.3826530612244898,0.15136054421768708,0.15136054421768708,0.0935374149659864,-0.08673469387755102,-0.11394557823129252,-0.18537414965986396,-0.21598639455782312,-0.21598639455782312,-0.2602040816326531,-0.28401360544217685,-0.28741496598639454,-0.28741496598639454,-0.28741496598639454,-0.2976190476190476,-0.3010204081632653,-0.3010204081632653,-0.3010204081632653,-0.3010204081632653,-0.3010204081632653,-0.3010204081632653,-0.3010204081632653,-0.3010204081632653,-0.3010204081632653,-0.3010204081632653,-0.3010204081632653,-0.3010204081632653,-0.3010204081632653,-0.3010204081632653,-0.3010204081632653,-0.3010204081632653,-0.3010204081632653,-0.3010204081632653,-0.3010204081632653,-0.3010204081632653,-0.3010204081632653,-0.3010204081632653,-0.3010204081632653,-0.3010204081632653,-0.3010204081632653,-0.3010204081632653,-0.3010204081632653,-0.3010204081632653,-0.3010204081632653,-0.3010204081632653,-0.3010204081632653,-0.3010204081632653,-0.3010204081632653,-0.3010204081632653,-0.3010204081632653,-0.3010204081632653,-0.3010204081632653,-0.3010204081632653,-0.3010204081632653,-0.2942176870748299,-0.28741496598639454,-0.27380952380952384,-0.23299319727891157,-0.2193877551020408,-0.2193877551020408,-0.2193877551020408,-0.2193877551020408,-0.2193877551020408,-0.2193877551020408,-0.2193877551020408,-0.2193877551020408,-0.2193877551020408,-0.2193877551020408,-0.2193877551020408,-0.2193877551020408,-0.2193877551020408,-0.2193877551020408,-0.2193877551020408,-0.2193877551020408,-0.2193877551020408,-0.2193877551020408,-0.2193877551020408,-0.2193877551020408,-0.2193877551020408,0.5969387755102041,0.5969387755102041,0.5969387755102041,0.5969387755102041,0.5969387755102041,0.5969387755102041,0.5969387755102041,0.5969387755102041,0.5969387755102041,0.5969387755102041,0.5969387755102041,0.5969387755102041,0.5969387755102041,0.5969387755102041,0.5969387755102041,0.5969387755102041,0.5969387755102041,0.5969387755102041,0.5969387755102041,0.5969387755102041,0.5969387755102041,0.5969387755102041,0.5969387755102041,0.5969387755102041,0.5969387755102041,0.5969387755102041,0.5969387755102041,0.5969387755102041,0.5969387755102041,0.5969387755102041,0.5969387755102041,0.5969387755102041,0.5969387755102041,0.5969387755102041,0.5969387755102041,0.5969387755102041,0.5969387755102041,0.5969387755102041,0.5969387755102041,0.5969387755102041,0.7227891156462585,0.8792517006802721,0.9030612244897959,0.9132653061224489,0.9472789115646258,0.9506802721088435,0.9642857142857143,0.9642857142857143,0.9642857142857143,0.9642857142857143,0.9642857142857143,0.9642857142857143,0.9642857142857143,0.9642857142857143,0.9642857142857143,0.9642857142857143,0.9642857142857143,0.9642857142857143,0.9642857142857143,0.9642857142857143,0.9642857142857143,0.9642857142857143,0.9642857142857143,0.9642857142857143,0.9642857142857143,0.9642857142857143,0.9642857142857143,0.9642857142857143,0.9642857142857143,0.9642857142857143,0.9642857142857143,0.9642857142857143,0.9642857142857143,0.9642857142857143,0.9642857142857143,0.9642857142857143,0.9642857142857143,0.9642857142857143,0.9642857142857143,0.9642857142857143,0.9642857142857143,0.9642857142857143,0.9642857142857143,0.9642857142857143,0.9642857142857143,0.9642857142857143,0.9642857142857143,0.9642857142857143,0.9642857142857143,0.9642857142857143,0.9642857142857143,0.9642857142857143,0.9642857142857143,0.9642857142857143,0.9642857142857143,0.9642857142857143,0.9642857142857143,0.9642857142857143,0.9642857142857143,0.9642857142857143,0.9642857142857143,0.9642857142857143,0.9642857142857143,0.9642857142857143,0.9642857142857143,0.9642857142857143,0.9642857142857143,0.9642857142857143,0.9642857142857143,0.9642857142857143,0.9642857142857143,0.9642857142857143,0.9642857142857143,0.9642857142857143,0.9642857142857143,0.9642857142857143,0.9642857142857143,0.9132653061224489,0.6683673469387755,0.6105442176870748,0.6105442176870748,0.6105442176870748,0.27380952380952384,0.23299319727891157,0.23299319727891157,0.23299319727891157,0.23299319727891157,0.23299319727891157,0.23299319727891157,0.23299319727891157,0.2193877551020408,0.18877551020408162,0.18877551020408162,0.18877551020408162,0.18537414965986396,0.1649659863945578,0.16156462585034015,0.16156462585034015,0.15136054421768708,0.14795918367346939,0.141156462585034,0.13435374149659865,0.11394557823129252,0.10714285714285714,0.08673469387755102,0.06972789115646258,0.06292517006802721,0.04251700680272109,0.008503401360544218,0.0017006802721088435,-0.015306122448979591,-0.022108843537414966,-0.03231292517006803,-0.03231292517006803,-0.03231292517006803,-0.03231292517006803,-0.03231292517006803,-0.03231292517006803,-0.03231292517006803,-0.03231292517006803,-0.03231292517006803,-0.03231292517006803,-0.03231292517006803,-0.03231292517006803,-0.03231292517006803,-0.03231292517006803,-0.03231292517006803,-0.03231292517006803,-0.03231292517006803,-0.03231292517006803,-0.03231292517006803,-0.03231292517006803,-0.03231292517006803,-0.03231292517006803,-0.03231292517006803,-0.03231292517006803,-0.03231292517006803,-0.03231292517006803,-0.03231292517006803,-0.03231292517006803,-0.03231292517006803,-0.03231292517006803,-0.03231292517006803,-0.03231292517006803,-0.03231292517006803,-0.03231292517006803,-0.03231292517006803,-0.03231292517006803,-0.03231292517006803,-0.03231292517006803,-0.03231292517006803,-0.03231292517006803,-0.03231292517006803,-0.03231292517006803,-0.03231292517006803,-0.03231292517006803,-0.03231292517006803,-0.03231292517006803,-0.03231292517006803,-0.03231292517006803,-0.03231292517006803,-0.03231292517006803,-0.03231292517006803,-0.03231292517006803,-0.03231292517006803,-0.03231292517006803,-0.03231292517006803,-0.03231292517006803,-0.03231292517006803,-0.03231292517006803,-0.03231292517006803,-0.03231292517006803,-0.03231292517006803,-0.03231292517006803,-0.03231292517006803,-0.03231292517006803,-0.03231292517006803,-0.03231292517006803,-0.03231292517006803,-0.03231292517006803,-0.03231292517006803,-0.03231292517006803,-0.03231292517006803,-0.03231292517006803,-0.03231292517006803,-0.03231292517006803,-0.03231292517006803,-0.03231292517006803,-0.03231292517006803,-0.03231292517006803,-0.03231292517006803,-0.03231292517006803,-0.03231292517006803,-0.03231292517006803,-0.03231292517006803,-0.03231292517006803,-0.03231292517006803,-0.03231292517006803,-0.03231292517006803,-0.03231292517006803,-0.03231292517006803,-0.03231292517006803,-0.03231292517006803,-0.03231292517006803,-0.03231292517006803,-0.03231292517006803,-0.03231292517006803,-0.03231292517006803,-0.02891156462585034,-0.02891156462585034,-0.022108843537414966,0.0017006802721088435,0.0017006802721088435,0.008503401360544218,0.025510204081632654,0.0391156462585034,0.0391156462585034,0.05272108843537415,0.05272108843537415,0.0663265306122449,0.06972789115646258,0.07993197278911565,0.07993197278911565,0.09013605442176871,0.0935374149659864,0.10714285714285714,0.10714285714285714,0.10714285714285714,0.10714285714285714,0.10714285714285714,0.10714285714285714,0.10714285714285714,0.10714285714285714,0.10714285714285714,0.10714285714285714,0.10714285714285714,0.10714285714285714,0.10714285714285714,0.10714285714285714,0.10714285714285714,0.10714285714285714,0.10714285714285714,0.10714285714285714,0.10714285714285714,0.10714285714285714,0.10714285714285714,0.10714285714285714,0.10714285714285714,0.10714285714285714,0.10714285714285714,0.10714285714285714,0.10714285714285714,0.10714285714285714,0.10714285714285714,0.10714285714285714,0.10714285714285714,0.10714285714285714,0.10714285714285714,0.10714285714285714,0.10714285714285714,0.10714285714285714,0.10714285714285714,0.10714285714285714,0.10714285714285714,0.10714285714285714,0.10714285714285714,0.10714285714285714,0.10714285714285714,0.10714285714285714,0.10714285714285714,0.10714285714285714,0.10714285714285714,0.10714285714285714,0.10714285714285714,0.10714285714285714,0.10714285714285714,0.10714285714285714,0.10714285714285714,0.10714285714285714,0.10714285714285714,0.10714285714285714,0.10714285714285714,0.10714285714285714,0.10714285714285714,0.10714285714285714,0.10714285714285714,0.10714285714285714,0.10714285714285714,0.10714285714285714,0.10714285714285714,0.10714285714285714,0.10714285714285714,0.10714285714285714,0.10714285714285714,0.10714285714285714,0.10714285714285714,0.15136054421768708,0.15136054421768708,0.2227891156462585,0.304421768707483,0.31802721088435376,0.33843537414965985,0.34523809523809523,0.358843537414966,0.358843537414966,0.4064625850340136,0.4200680272108844,0.5051020408163265,0.5289115646258503,0.5425170068027211,0.5527210884353742,0.5561224489795918,0.5561224489795918,0.5629251700680272,0.5629251700680272,0.5629251700680272,0.5629251700680272,0.5629251700680272,0.5629251700680272,0.5629251700680272,0.5629251700680272,0.5629251700680272,0.5629251700680272,0.5629251700680272,0.5629251700680272,0.5629251700680272,0.5629251700680272,0.5629251700680272,0.5629251700680272,0.5629251700680272,0.5629251700680272,0.5629251700680272,0.5629251700680272,0.5629251700680272,0.5629251700680272,0.5629251700680272,0.5629251700680272,0.5629251700680272,0.5629251700680272,0.5629251700680272,0.5629251700680272,0.5629251700680272,0.5629251700680272,0.5629251700680272,0.5629251700680272,0.5629251700680272,0.5629251700680272,0.5629251700680272,0.5629251700680272,0.5629251700680272,0.5629251700680272,0.5629251700680272,0.5629251700680272,0.5629251700680272,0.5629251700680272,0.5629251700680272,0.5629251700680272,0.5629251700680272,0.5629251700680272,0.5629251700680272,0.5629251700680272,0.5629251700680272,0.5629251700680272,0.5629251700680272,0.5629251700680272,0.5629251700680272,0.5629251700680272,0.5629251700680272,0.5629251700680272,0.5629251700680272,0.5629251700680272,0.5629251700680272,0.5629251700680272,0.5629251700680272,0.5629251700680272,0.5629251700680272,0.5629251700680272,0.5629251700680272,0.5629251700680272,0.5629251700680272,0.5629251700680272,0.5629251700680272,0.5629251700680272,0.5629251700680272,0.5629251700680272,0.5629251700680272,0.5629251700680272,0.5629251700680272,0.5629251700680272,0.5629251700680272,0.5629251700680272,0.5629251700680272,0.5629251700680272,0.5629251700680272,0.5629251700680272,0.5629251700680272,0.5629251700680272,0.5629251700680272,0.5629251700680272,0.5629251700680272,0.5629251700680272,0.5629251700680272,0.5629251700680272,0.5629251700680272,0.5629251700680272,0.5629251700680272,0.5629251700680272,0.5629251700680272,0.5629251700680272,0.5629251700680272,0.5629251700680272,0.5629251700680272,0.5629251700680272,0.5629251700680272,0.5629251700680272,0.5629251700680272,0.5629251700680272,0.5629251700680272,0.5629251700680272,0.5629251700680272,0.5629251700680272,0.5629251700680272,0.5629251700680272,0.5629251700680272,0.5629251700680272,0.5629251700680272,0.5629251700680272,0.5629251700680272,0.5629251700680272,0.5629251700680272,0.5629251700680272,0.5629251700680272,0.5629251700680272,0.5629251700680272,0.5629251700680272,0.5629251700680272,0.5629251700680272,0.5629251700680272,0.5629251700680272,0.5629251700680272,0.5629251700680272,0.5629251700680272,0.5629251700680272,0.5629251700680272,0.5629251700680272,0.5629251700680272,0.5629251700680272,0.5629251700680272,0.5629251700680272,0.5629251700680272,0.5629251700680272,0.5629251700680272,0.5629251700680272,0.5629251700680272,0.5629251700680272,0.5629251700680272,0.5629251700680272,0.5629251700680272,0.5629251700680272,0.5629251700680272,0.5629251700680272,0.5629251700680272,0.5629251700680272,0.5629251700680272,0.5629251700680272,0.5629251700680272,0.5629251700680272,0.5629251700680272,0.5629251700680272,0.5629251700680272,0.5629251700680272,0.5629251700680272,0.5629251700680272,0.5629251700680272,0.5629251700680272,0.5629251700680272,0.5629251700680272,0.5629251700680272,0.5629251700680272,0.5629251700680272,0.5629251700680272,0.5629251700680272,0.5629251700680272,0.5629251700680272,0.5629251700680272,0.5629251700680272,0.5629251700680272,0.5629251700680272,0.5629251700680272,0.5629251700680272,0.5629251700680272,0.5629251700680272,0.5629251700680272,0.5629251700680272,0.5629251700680272,0.5629251700680272,0.5629251700680272,0.5629251700680272,0.5629251700680272,0.5629251700680272,0.5629251700680272,0.5629251700680272,0.5629251700680272,0.5629251700680272,0.5629251700680272,0.5629251700680272,0.5629251700680272,0.5629251700680272,0.5629251700680272,0.5629251700680272,0.5629251700680272,0.5629251700680272,0.5629251700680272,0.5629251700680272,0.5629251700680272,0.5629251700680272,0.5629251700680272,0.5629251700680272,0.5629251700680272,0.5629251700680272,0.5629251700680272,0.5629251700680272,0.5629251700680272,0.5629251700680272,0.5629251700680272,0.5629251700680272,0.5629251700680272,0.5629251700680272,0.5629251700680272,0.5629251700680272,0.5629251700680272,0.5629251700680272,0.5629251700680272,0.5629251700680272,0.5629251700680272,0.5629251700680272,0.5629251700680272,0.5629251700680272,0.5629251700680272,0.5629251700680272,0.5629251700680272,0.5629251700680272,0.5629251700680272,0.5629251700680272,0.5629251700680272,0.5629251700680272,0.5629251700680272,0.5629251700680272,0.5629251700680272,0.5629251700680272,0.5629251700680272,0.5629251700680272,0.5629251700680272,0.5629251700680272,0.5629251700680272,0.5629251700680272,0.5629251700680272,0.5629251700680272,0.5629251700680272,0.5629251700680272,0.5629251700680272,0.5629251700680272,0.5629251700680272,0.5629251700680272,0.5629251700680272,0.5629251700680272,0.5629251700680272,0.5629251700680272,0.5629251700680272,0.5629251700680272,0.5629251700680272,0.5629251700680272,0.5629251700680272,0.5629251700680272,0.5629251700680272,0.5629251700680272,0.5629251700680272,0.5629251700680272,0.5629251700680272,0.5629251700680272,0.5629251700680272,0.5629251700680272,0.5629251700680272,0.5629251700680272,0.5629251700680272,0.5629251700680272,0.5629251700680272,0.5629251700680272,0.5629251700680272,0.5629251700680272,0.5629251700680272,0.5629251700680272,0.5629251700680272,0.5629251700680272,0.5629251700680272,0.5629251700680272,0.5629251700680272,0.5629251700680272,0.5629251700680272,0.5629251700680272,0.5629251700680272,0.5629251700680272,0.5629251700680272,0.5629251700680272,0.5629251700680272,0.5629251700680272,0.5629251700680272,0.5629251700680272,0.5629251700680272,0.5629251700680272,0.5629251700680272,0.5629251700680272,0.5629251700680272,0.5629251700680272,0.5629251700680272,0.5629251700680272,0.5629251700680272,0.5629251700680272,0.5629251700680272,0.5629251700680272,0.5629251700680272,0.5629251700680272,0.5629251700680272,0.5629251700680272,0.5629251700680272,0.5629251700680272,0.5629251700680272,0.5629251700680272,0.5629251700680272,0.5629251700680272,0.5629251700680272,0.5629251700680272,0.5629251700680272,0.5629251700680272,0.5629251700680272,0.5629251700680272,0.5629251700680272,0.5629251700680272,0.5629251700680272,0.5629251700680272,0.5629251700680272,0.5629251700680272,0.5629251700680272,0.5629251700680272,0.5629251700680272,0.5629251700680272,0.5629251700680272,0.5629251700680272,0.5629251700680272,0.5629251700680272,0.5629251700680272,0.5629251700680272,0.5629251700680272,0.5629251700680272,0.5629251700680272,0.5629251700680272,0.5629251700680272,0.5629251700680272,0.5629251700680272,0.5629251700680272,0.5629251700680272,0.5629251700680272,0.5629251700680272,0.5629251700680272,0.5629251700680272,0.5629251700680272,0.5629251700680272,0.5629251700680272,0.5629251700680272,0.5629251700680272,0.5629251700680272,0.5629251700680272,0.5425170068027211,0.5289115646258503,0.5255102040816326,0.5221088435374149,0.5153061224489796,0.5153061224489796,0.4914965986394558,0.4880952380952381,0.4812925170068027,0.4744897959183674,0.4574829931972789,0.45408163265306123,0.45408163265306123,0.45408163265306123,0.44727891156462585,0.44387755102040816,0.44047619047619047,0.4370748299319728,0.4370748299319728,0.4370748299319728,0.4370748299319728,0.4370748299319728,0.4370748299319728,0.44727891156462585,0.4574829931972789,0.467687074829932,0.4744897959183674,0.477891156462585,0.477891156462585,0.4812925170068027,0.4812925170068027,0.4914965986394558,0.4914965986394558,0.49829931972789115,0.5153061224489796,0.5289115646258503,0.5289115646258503,0.5527210884353742,0.5561224489795918,0.5663265306122449,0.5663265306122449,0.5697278911564626,0.5697278911564626,0.5697278911564626,0.5697278911564626,0.5697278911564626,0.5697278911564626,0.5697278911564626,0.5697278911564626,0.5697278911564626,0.5697278911564626,0.5697278911564626,0.5697278911564626,0.5697278911564626,0.5697278911564626,0.5697278911564626,0.5697278911564626,0.5697278911564626,0.5697278911564626,0.5697278911564626,0.5697278911564626,0.5697278911564626,0.5697278911564626,0.5697278911564626,0.5697278911564626,0.5697278911564626,0.5697278911564626,0.5697278911564626,0.5697278911564626,0.5697278911564626,0.5697278911564626,0.5697278911564626,0.5697278911564626,0.5697278911564626,0.5697278911564626,0.5697278911564626,0.5697278911564626,0.5697278911564626,0.5697278911564626,0.5697278911564626,0.5697278911564626,0.5697278911564626,0.5697278911564626,0.5697278911564626,0.5697278911564626,0.5697278911564626,0.5697278911564626,0.5697278911564626,0.5697278911564626,0.5697278911564626,0.5697278911564626,0.5697278911564626,0.5697278911564626,0.5697278911564626,0.5697278911564626,0.5697278911564626,0.5697278911564626,0.5697278911564626,0.5697278911564626,0.5697278911564626,0.5697278911564626,0.5697278911564626,0.5697278911564626,0.5697278911564626,0.5697278911564626,0.5697278911564626,0.5697278911564626,0.5697278911564626,0.5697278911564626,0.5697278911564626,0.5697278911564626,0.5697278911564626,0.5697278911564626,0.5697278911564626,0.5697278911564626,0.5697278911564626,0.5697278911564626,0.5697278911564626,0.5697278911564626,0.5697278911564626,0.5697278911564626,0.5697278911564626,0.5697278911564626,0.5697278911564626,0.5697278911564626,0.5697278911564626,0.5697278911564626,0.5697278911564626,0.5697278911564626,0.5697278911564626,0.5697278911564626,0.5697278911564626,0.5697278911564626,0.5697278911564626,0.5697278911564626,0.5697278911564626,0.5697278911564626,0.5697278911564626,0.5697278911564626,0.5697278911564626,0.5697278911564626,0.5697278911564626,0.5697278911564626,0.5697278911564626,0.5697278911564626,0.5697278911564626,0.5697278911564626,0.5697278911564626,0.5697278911564626,0.5697278911564626,0.5697278911564626,0.5697278911564626,0.5697278911564626,0.5561224489795918,0.5459183673469388,0.5425170068027211,0.5425170068027211,0.5289115646258503,0.5051020408163265,0.5017006802721088,0.4914965986394558,0.4880952380952381,0.4744897959183674,0.467687074829932,0.467687074829932,0.44387755102040816,0.4166666666666667,0.39625850340136054,0.3554421768707483,0.34523809523809523,0.33843537414965985,0.33163265306122447,0.32482993197278914,0.31802721088435376,0.3112244897959184,0.304421768707483,0.2942176870748299,0.28061224489795916,0.27040816326530615,0.2568027210884354,0.2568027210884354,0.2568027210884354,0.2568027210884354,0.2568027210884354,0.2568027210884354,0.2568027210884354,0.2568027210884354,0.2568027210884354,0.2568027210884354,0.2568027210884354,0.2568027210884354,0.2568027210884354,0.2568027210884354,0.2568027210884354,0.2568027210884354,0.2568027210884354,0.2568027210884354,0.2568027210884354,0.2568027210884354,0.2568027210884354,0.2568027210884354,0.2568027210884354,0.2568027210884354,0.2568027210884354,0.2568027210884354,0.2568027210884354,0.2568027210884354,0.2568027210884354,0.2568027210884354,0.2568027210884354,0.2568027210884354,0.2568027210884354,0.2568027210884354,0.2568027210884354,0.2568027210884354,0.2568027210884354,0.2568027210884354,0.2568027210884354,0.2568027210884354,0.2568027210884354,0.2568027210884354,0.2568027210884354,0.2568027210884354,0.2568027210884354,0.2568027210884354,0.2568027210884354,0.2568027210884354,0.2568027210884354,0.2568027210884354,0.2568027210884354,0.2568027210884354,0.2568027210884354,0.2568027210884354,0.2568027210884354,0.2568027210884354,0.2568027210884354,0.2568027210884354,0.2568027210884354,0.2568027210884354,0.2568027210884354,0.2568027210884354,0.2568027210884354,0.2568027210884354,0.2568027210884354,0.2568027210884354,0.2568027210884354,0.2568027210884354,0.2568027210884354,0.2568027210884354,0.2568027210884354,0.2568027210884354,0.2568027210884354,0.2568027210884354,0.2568027210884354,0.2568027210884354,0.2568027210884354,0.2568027210884354,0.2568027210884354,0.2568027210884354,0.2568027210884354,0.2568027210884354,0.2568027210884354,0.2568027210884354,0.2568027210884354,0.2568027210884354,0.2568027210884354,0.2568027210884354,0.2568027210884354,0.2568027210884354,0.2568027210884354,0.2568027210884354,0.2568027210884354,0.2568027210884354,0.2568027210884354,0.2568027210884354,0.22959183673469388,0.2193877551020408,0.21258503401360543,0.18877551020408162,0.18537414965986396,0.16156462585034015,0.141156462585034,0.13095238095238096,0.12414965986394558,0.12414965986394558,0.11734693877551021,0.10714285714285714,0.10374149659863946,0.0935374149659864,0.09013605442176871,0.07993197278911565,0.07993197278911565,0.0663265306122449,0.06292517006802721,0.06292517006802721,0.06292517006802721,0.06292517006802721,0.07993197278911565,0.09013605442176871,0.12074829931972789,0.12074829931972789,0.26360544217687076,0.28401360544217685,0.304421768707483,0.3112244897959184,0.31802721088435376,0.33163265306122447,0.3826530612244898,0.39285714285714285,0.413265306122449,0.4166666666666667,0.4200680272108844,0.44047619047619047,0.4574829931972789,0.4574829931972789,0.5017006802721088,0.5289115646258503,0.5289115646258503,0.5425170068027211,0.5459183673469388,0.5493197278911565,0.5493197278911565,0.5493197278911565,0.5493197278911565,0.5493197278911565,0.5697278911564626,0.5697278911564626,0.5731292517006803,0.5731292517006803,0.5731292517006803,0.5731292517006803,0.5731292517006803,0.5561224489795918,0.5425170068027211,0.477891156462585,0.477891156462585,0.45068027210884354,0.4268707482993197,0.4200680272108844,0.4200680272108844,0.4200680272108844,0.4200680272108844,0.4200680272108844,0.4200680272108844,0.4200680272108844,0.4200680272108844,0.4200680272108844,0.4200680272108844,0.4200680272108844,0.4200680272108844,0.4200680272108844,0.4200680272108844,0.4200680272108844,0.4200680272108844,0.4200680272108844,0.4200680272108844,0.4200680272108844,0.4200680272108844,0.4200680272108844,0.4200680272108844,0.4200680272108844,0.4200680272108844,0.5493197278911565,0.5663265306122449,0.5663265306122449,0.5289115646258503,0.4574829931972789,0.4574829931972789,0.2602040816326531,0.12414965986394558,0.10714285714285714,0.08673469387755102,0.07993197278911565,0.07993197278911565,0.07993197278911565,0.141156462585034,0.3078231292517007,0.3792517006802721,0.4064625850340136,0.4302721088435374,0.4302721088435374,0.4302721088435374,0.358843537414966,0.27040816326530615,0.20238095238095238,0.0391156462585034,-0.05612244897959184,-0.08333333333333333,-0.08333333333333333,-0.022108843537414966,-0.0017006802721088435,0.025510204081632654,0.0935374149659864,0.13095238095238096,0.14795918367346939,0.23299319727891157,0.23299319727891157,0.2465986394557823,0.2465986394557823,0.20918367346938777,-0.01870748299319728,-0.28061224489795916,-0.28061224489795916,-0.45068027210884354,-0.45408163265306123,-0.4574829931972789,-0.4200680272108844,-0.4200680272108844,-0.34183673469387754,-0.2942176870748299,-0.17857142857142858,-0.11054421768707483,-0.11054421768707483,-0.06972789115646258,-0.06292517006802721,-0.02891156462585034,-0.022108843537414966,-0.022108843537414966,-0.16156462585034015,-0.23299319727891157,-0.304421768707483,-0.37244897959183676,-0.413265306122449,-0.413265306122449,-0.36904761904761907,-0.32482993197278914,-0.28741496598639454,-0.11394557823129252,-0.09013605442176871,-0.02891156462585034,0.0017006802721088435,0.01870748299319728,0.06292517006802721,0.06292517006802721,0.0663265306122449,0.0663265306122449,0.0663265306122449,0.07653061224489796,0.07653061224489796,0.0935374149659864,0.16156462585034015,0.17857142857142858,0.20918367346938777,0.27380952380952384,0.27380952380952384,0.28741496598639454,0.2942176870748299,0.2942176870748299,0.2942176870748299,0.20238095238095238,0.141156462585034,0.12074829931972789,0.11054421768707483,0.10714285714285714,0.10374149659863946,0.10374149659863946,0.10374149659863946,0.11734693877551021,0.13435374149659865,0.14795918367346939,0.17517006802721088,0.18877551020408162,0.2193877551020408,0.2193877551020408,0.23639455782312926,0.23979591836734693,0.25,0.25,0.2568027210884354,0.24319727891156462,0.2227891156462585,0.1989795918367347,0.18877551020408162,0.17857142857142858,0.16156462585034015,0.1377551020408163,0.1377551020408163,0.12414965986394558,0.12074829931972789,0.12074829931972789,0.12414965986394558,0.12414965986394558,0.15476190476190477,0.17517006802721088,0.21258503401360543,0.2602040816326531,0.304421768707483,0.304421768707483,0.304421768707483,0.304421768707483,0.304421768707483,0.304421768707483,0.304421768707483,0.304421768707483,0.304421768707483,0.304421768707483,0.304421768707483,0.304421768707483,0.304421768707483,0.304421768707483,0.304421768707483,0.304421768707483,0.28401360544217685,0.2602040816326531,0.2465986394557823,0.2976190476190476,0.2976190476190476,0.45068027210884354,0.5051020408163265,0.5051020408163265,0.5051020408163265,0.5051020408163265,0.5051020408163265,0.5051020408163265,0.5051020408163265,0.5051020408163265,0.5051020408163265,0.5051020408163265,0.5051020408163265,0.5051020408163265,0.5051020408163265,0.5051020408163265,0.5051020408163265,0.5051020408163265,0.5051020408163265,0.5051020408163265,0.5051020408163265,0.5051020408163265,0.5051020408163265,0.5051020408163265,0.5051020408163265,0.5051020408163265,0.5051020408163265,0.5051020408163265,0.5051020408163265,0.5051020408163265,0.5051020408163265,0.5051020408163265,0.5051020408163265,0.5051020408163265,0.5051020408163265,0.5051020408163265,0.5051020408163265,0.5051020408163265,0.5051020408163265,0.5051020408163265,0.5051020408163265,0.5051020408163265,0.5051020408163265,0.5051020408163265,0.5051020408163265,0.5051020408163265,0.5051020408163265,0.5051020408163265,0.5051020408163265,0.5051020408163265,0.5051020408163265,0.5051020408163265,0.5051020408163265,0.5051020408163265,0.5051020408163265,0.5051020408163265,0.5051020408163265,0.5051020408163265,0.5051020408163265,0.5051020408163265,0.5051020408163265,0.5051020408163265,0.5051020408163265,0.5051020408163265,0.5051020408163265,0.5051020408163265,0.5051020408163265,0.5051020408163265,0.31802721088435376,0.2976190476190476,0.2568027210884354,0.2465986394557823,0.2465986394557823,0.2465986394557823,0.2465986394557823,0.2465986394557823,0.2465986394557823,0.2465986394557823,0.2465986394557823,0.2465986394557823,0.2465986394557823,0.2465986394557823,0.2465986394557823,0.2465986394557823,0.2465986394557823,0.2465986394557823,0.2465986394557823,0.2465986394557823,0.2465986394557823,0.2465986394557823,0.2465986394557823,0.2465986394557823,0.2465986394557823,0.2465986394557823,0.2465986394557823,0.2465986394557823,0.2465986394557823,0.2465986394557823,0.2465986394557823,0.2465986394557823,0.2465986394557823,0.2465986394557823,0.2465986394557823,0.2465986394557823,0.2465986394557823,0.2465986394557823,0.2465986394557823,0.2465986394557823,0.2465986394557823,0.2465986394557823,0.2465986394557823,0.2465986394557823,0.2465986394557823,0.2465986394557823,0.2465986394557823,0.2465986394557823,0.2465986394557823,0.2465986394557823,0.2465986394557823,0.2465986394557823,0.2465986394557823,0.2465986394557823,0.2465986394557823,0.2465986394557823,0.2465986394557823,0.2465986394557823,0.2465986394557823,0.2465986394557823,0.2465986394557823,0.2465986394557823,0.2465986394557823,0.2465986394557823,0.2465986394557823,0.2465986394557823,0.2465986394557823,0.2465986394557823,0.2465986394557823,0.2465986394557823,0.2465986394557823,0.2465986394557823,0.2465986394557823,0.2465986394557823,0.2465986394557823,0.2465986394557823,0.2465986394557823,0.2465986394557823,0.2465986394557823,0.2465986394557823,0.2465986394557823,0.2465986394557823,0.2465986394557823,0.2465986394557823,0.2465986394557823,0.2465986394557823,0.2465986394557823,0.2465986394557823,0.2465986394557823,0.2465986394557823,0.2465986394557823,0.2465986394557823,0.2465986394557823,0.2465986394557823,0.0663265306122449,0.12755102040816327,0.1717687074829932,0.26360544217687076,0.3656462585034014,0.45408163265306123,0.5051020408163265,0.5969387755102041,0.6003401360544217,0.6139455782312925,0.6207482993197279,0.6207482993197279,0.6207482993197279,0.6207482993197279,0.6207482993197279,0.6105442176870748,0.5833333333333334,0.5697278911564626,0.5697278911564626,0.5697278911564626,0.5697278911564626,0.5697278911564626,0.5697278911564626,0.5731292517006803,0.5731292517006803,0.5833333333333334,0.5867346938775511,0.5867346938775511,0.5867346938775511,0.5901360544217688,0.5901360544217688,0.5901360544217688,0.5901360544217688,0.5901360544217688,0.5901360544217688,0.5901360544217688,0.5527210884353742,0.5289115646258503,0.5221088435374149,0.5221088435374149,0.5153061224489796,0.5153061224489796,0.5153061224489796,0.5153061224489796,0.5153061224489796,0.5153061224489796,0.5153061224489796,0.5153061224489796,0.5153061224489796,0.5255102040816326,0.5255102040816326,0.5357142857142857,0.5357142857142857,0.5493197278911565,0.5493197278911565,0.5561224489795918,0.5561224489795918,0.5629251700680272,0.5697278911564626,0.5697278911564626,0.5697278911564626,0.5697278911564626,0.5697278911564626,0.5697278911564626,0.5697278911564626,0.5697278911564626,0.5697278911564626,0.5697278911564626,0.5697278911564626,0.5697278911564626,0.5731292517006803,0.576530612244898,0.576530612244898,0.5833333333333334,0.5867346938775511,0.5867346938775511,0.5969387755102041,0.6105442176870748,0.6207482993197279,0.6241496598639455,0.6377551020408163,0.6377551020408163,0.6445578231292517,0.6513605442176871,0.6547619047619048,0.6547619047619048,0.6547619047619048,0.6547619047619048,0.6547619047619048,0.6751700680272109,0.6819727891156463,0.685374149659864,0.685374149659864,0.685374149659864,0.685374149659864,0.685374149659864,0.685374149659864,0.685374149659864,0.685374149659864,0.685374149659864,0.685374149659864,0.685374149659864,0.685374149659864,0.685374149659864,0.685374149659864,0.685374149659864,0.685374149659864,0.685374149659864,0.685374149659864,0.685374149659864,0.685374149659864,0.685374149659864,0.685374149659864,0.685374149659864,0.685374149659864,0.685374149659864,0.685374149659864,0.685374149659864,0.685374149659864,0.685374149659864,0.685374149659864,0.685374149659864,0.685374149659864,0.685374149659864,0.685374149659864,0.685374149659864,0.685374149659864,0.685374149659864,0.685374149659864,0.685374149659864,0.685374149659864,0.685374149659864,0.685374149659864,0.685374149659864,0.685374149659864,0.6921768707482994,0.6921768707482994,0.6921768707482994,0.6921768707482994,0.6921768707482994,0.6921768707482994,0.6921768707482994,0.6921768707482994,0.6921768707482994,0.6921768707482994,0.6921768707482994,0.6921768707482994,0.6921768707482994,0.6921768707482994,0.6921768707482994,0.6921768707482994,0.6921768707482994,0.6921768707482994,0.6921768707482994,0.6921768707482994,0.6921768707482994,0.6921768707482994,0.6921768707482994,0.6921768707482994,0.6921768707482994,0.6921768707482994,0.6921768707482994,0.6921768707482994,0.6921768707482994,0.6921768707482994,0.6921768707482994,0.6921768707482994,0.6921768707482994,0.6921768707482994,0.6921768707482994,0.6921768707482994,0.6921768707482994,0.6921768707482994,0.6921768707482994,0.6921768707482994,0.6921768707482994,0.6921768707482994,0.6921768707482994,0.6921768707482994,0.6921768707482994,0.6921768707482994,0.6921768707482994,0.6921768707482994,0.6921768707482994,0.6921768707482994,0.6921768707482994,0.6921768707482994,0.6921768707482994,0.6921768707482994,0.6921768707482994,0.6921768707482994,0.6921768707482994,0.6921768707482994,0.6921768707482994,0.6921768707482994,0.6921768707482994,0.6921768707482994,0.6921768707482994,0.6921768707482994,0.6921768707482994,0.6921768707482994,0.6921768707482994,0.6921768707482994,0.6921768707482994,0.6921768707482994,0.6921768707482994,0.6921768707482994,0.6921768707482994,0.6921768707482994,0.6921768707482994,0.6921768707482994,0.6921768707482994,0.6921768707482994,0.6921768707482994,0.6921768707482994,0.6921768707482994,0.6921768707482994,0.6921768707482994,0.6921768707482994,0.6921768707482994,0.6921768707482994,0.6921768707482994,0.6921768707482994,0.6921768707482994,0.6921768707482994,0.6921768707482994,0.6921768707482994,0.6921768707482994,0.6921768707482994,0.6921768707482994,0.6921768707482994,0.6921768707482994,0.6921768707482994,0.6921768707482994,0.6921768707482994,0.6921768707482994,0.6921768707482994,0.6921768707482994,0.6921768707482994,0.6921768707482994,0.6921768707482994,0.6921768707482994,0.6921768707482994,0.6921768707482994,0.6921768707482994,0.6921768707482994,0.6921768707482994,0.6921768707482994,0.6921768707482994,0.6921768707482994,0.6921768707482994,0.6921768707482994,0.6921768707482994,0.6921768707482994,0.6921768707482994,0.6921768707482994,0.6921768707482994,0.6921768707482994,0.6921768707482994,0.6921768707482994,0.6921768707482994,0.6921768707482994,0.6955782312925171,0.6955782312925171,0.6955782312925171,0.6955782312925171,0.6921768707482994,0.685374149659864,0.685374149659864,0.685374149659864,0.685374149659864,0.685374149659864,0.685374149659864,0.685374149659864,0.685374149659864,0.685374149659864,0.685374149659864,0.685374149659864,0.685374149659864,0.685374149659864,0.685374149659864,0.685374149659864,0.685374149659864,0.685374149659864,0.685374149659864,0.685374149659864,0.685374149659864,0.685374149659864,0.685374149659864,0.685374149659864,0.685374149659864,0.685374149659864,0.685374149659864,0.685374149659864,0.685374149659864,0.685374149659864,0.685374149659864,0.685374149659864,0.685374149659864,0.685374149659864,0.685374149659864,0.685374149659864,0.685374149659864,0.685374149659864,0.685374149659864,0.685374149659864,0.685374149659864,0.685374149659864,0.685374149659864,0.685374149659864,0.685374149659864,0.685374149659864,0.685374149659864,0.685374149659864,0.685374149659864,0.685374149659864,0.685374149659864,0.685374149659864,0.685374149659864,0.685374149659864,0.685374149659864,0.685374149659864,0.685374149659864,0.685374149659864,0.685374149659864,0.685374149659864,0.685374149659864,0.685374149659864,0.685374149659864,0.685374149659864,0.685374149659864,0.685374149659864,0.685374149659864,0.685374149659864,0.685374149659864,0.685374149659864,0.685374149659864,0.685374149659864,0.685374149659864,0.685374149659864,0.685374149659864,0.685374149659864,0.685374149659864,0.685374149659864,0.685374149659864,0.685374149659864,0.685374149659864,0.685374149659864,0.685374149659864,0.685374149659864,0.685374149659864,0.685374149659864,0.685374149659864,0.685374149659864,0.685374149659864,0.685374149659864,0.685374149659864,0.685374149659864,0.685374149659864,0.685374149659864,0.685374149659864,0.685374149659864,0.685374149659864,0.685374149659864,0.685374149659864,0.685374149659864,0.685374149659864,0.685374149659864,0.685374149659864,0.685374149659864,0.685374149659864,0.685374149659864,0.685374149659864,0.685374149659864,0.685374149659864,0.685374149659864,0.685374149659864,0.685374149659864,0.685374149659864,0.685374149659864,0.685374149659864,0.685374149659864,0.685374149659864,0.685374149659864,0.685374149659864,0.685374149659864,0.685374149659864,0.685374149659864,0.685374149659864,0.685374149659864,0.685374149659864,0.685374149659864,0.685374149659864,0.685374149659864,0.6955782312925171,0.7295918367346939,0.7329931972789115,0.7431972789115646,0.7465986394557823,0.7534013605442177,0.7568027210884354,0.7704081632653061,0.7704081632653061,0.8010204081632653,0.8078231292517006,0.8078231292517006,0.8078231292517006,0.814625850340136,0.814625850340136,0.8180272108843537,0.8180272108843537,0.8180272108843537,0.8180272108843537,0.8180272108843537,0.8180272108843537,0.8180272108843537,0.8180272108843537,0.8180272108843537,0.8180272108843537,0.8180272108843537,0.8180272108843537,0.8180272108843537,0.8180272108843537,0.8180272108843537,0.8180272108843537,0.8180272108843537,0.8180272108843537,0.8180272108843537,0.8180272108843537,0.8180272108843537,0.8180272108843537,0.8180272108843537,0.8180272108843537,0.8180272108843537,0.8180272108843537,0.8180272108843537,0.8180272108843537,0.8180272108843537,0.8180272108843537,0.8180272108843537,0.8180272108843537,0.8180272108843537,0.8180272108843537,0.8180272108843537,0.8180272108843537,0.8180272108843537,0.8180272108843537,0.8180272108843537,0.8180272108843537,0.8180272108843537,0.8180272108843537,0.8180272108843537,0.8180272108843537,0.8180272108843537,0.8180272108843537,0.8180272108843537,0.8180272108843537,0.8180272108843537,0.8180272108843537,0.8180272108843537,0.8180272108843537,0.8180272108843537,0.8180272108843537,0.8180272108843537,0.8180272108843537,0.8180272108843537,0.8180272108843537,0.8180272108843537,0.8180272108843537,0.8180272108843537,0.8180272108843537,0.8180272108843537,0.8180272108843537,0.8180272108843537,0.8180272108843537,0.8180272108843537,0.8180272108843537,0.8180272108843537,0.8180272108843537,0.8180272108843537,0.8180272108843537,0.8180272108843537,0.8180272108843537,0.8180272108843537,0.8180272108843537,0.8180272108843537,0.8180272108843537,0.8180272108843537,0.8180272108843537,0.8180272108843537,0.8180272108843537,0.8180272108843537,0.8180272108843537,0.8180272108843537,0.8180272108843537,0.8180272108843537,0.8180272108843537,0.8180272108843537,0.8180272108843537,0.8180272108843537,0.8180272108843537,0.8180272108843537,0.8180272108843537,0.8180272108843537,0.8180272108843537,0.8180272108843537,0.8180272108843537,0.8180272108843537,0.8180272108843537,0.8180272108843537,0.8180272108843537,0.8180272108843537,0.8180272108843537,0.814625850340136,0.8078231292517006,0.8078231292517006,0.8078231292517006,0.8078231292517006,0.8044217687074829,0.8010204081632653,0.8010204081632653,0.8010204081632653,0.8010204081632653,0.8010204081632653,0.79421768707483,0.79421768707483,0.79421768707483,0.79421768707483,0.79421768707483,0.79421768707483,0.79421768707483,0.79421768707483,0.79421768707483,0.79421768707483,0.79421768707483,0.79421768707483,0.79421768707483,0.79421768707483,0.79421768707483,0.79421768707483,0.79421768707483,0.79421768707483,0.79421768707483,0.79421768707483,0.79421768707483,0.79421768707483,0.79421768707483,0.79421768707483,0.79421768707483,0.79421768707483,0.79421768707483,0.79421768707483,0.8010204081632653,0.8010204081632653,0.8010204081632653,0.8010204081632653,0.8010204081632653,0.8010204081632653,0.8010204081632653,0.8010204081632653,0.8010204081632653,0.8010204081632653,0.8010204081632653,0.8010204081632653,0.8010204081632653,0.8010204081632653,0.8010204081632653,0.8010204081632653,0.8010204081632653,0.8010204081632653,0.8010204081632653,0.8010204081632653,0.8010204081632653,0.8010204081632653,0.8010204081632653,0.8010204081632653,0.8010204081632653,0.8010204081632653,0.8010204081632653,0.8010204081632653,0.8010204081632653,0.8010204081632653,0.8010204081632653,0.8010204081632653,0.8010204081632653,0.8010204081632653,0.8010204081632653,0.8010204081632653,0.8010204081632653,0.8010204081632653,0.8010204081632653,0.8010204081632653,0.8010204081632653,0.8010204081632653,0.8010204081632653,0.8010204081632653,0.8010204081632653,0.8010204081632653,0.8010204081632653,0.8010204081632653,0.8010204081632653,0.8010204081632653,0.8010204081632653,0.8010204081632653,0.8010204081632653,0.8010204081632653,0.8010204081632653,0.8010204081632653,0.8010204081632653,0.8010204081632653,0.8010204081632653,0.8010204081632653,0.8010204081632653,0.8010204081632653,0.8010204081632653,0.8010204081632653,0.8010204081632653,0.8010204081632653,0.8010204081632653,0.8010204081632653,0.8010204081632653,0.8010204081632653,0.8010204081632653,0.8010204081632653,0.8010204081632653,0.8010204081632653,0.8010204081632653,0.8010204081632653,0.8010204081632653,0.8010204081632653,0.8010204081632653,0.8010204081632653,0.8010204081632653,0.8010204081632653,0.8010204081632653,0.8010204081632653,0.8010204081632653,0.8010204081632653,0.8010204081632653,0.8010204081632653,0.8010204081632653,0.8010204081632653,0.8010204081632653,0.8010204081632653,0.8010204081632653,0.8010204081632653,0.8010204081632653,0.8010204081632653,0.8010204081632653,0.8010204081632653,0.8010204081632653,0.8010204081632653,0.8010204081632653,0.8010204081632653,0.8010204081632653,0.8010204081632653,0.8010204081632653,0.8010204081632653,0.8010204081632653,0.79421768707483,0.7738095238095238,0.7602040816326531,0.7534013605442177,0.7534013605442177,0.7534013605442177,0.7465986394557823,0.7465986394557823,0.7465986394557823,0.7465986394557823,0.7465986394557823,0.7465986394557823,0.7465986394557823,0.7465986394557823,0.7465986394557823,0.7465986394557823,0.7465986394557823,0.7465986394557823,0.7465986394557823,0.7465986394557823,0.7465986394557823,0.7465986394557823,0.7465986394557823,0.7465986394557823,0.7465986394557823,0.7465986394557823,0.7465986394557823,0.7465986394557823,0.7465986394557823,0.7465986394557823,0.7465986394557823,0.7465986394557823,0.7465986394557823,0.7465986394557823,0.7465986394557823,0.7465986394557823,0.7465986394557823,0.7465986394557823,0.7465986394557823,0.7465986394557823,0.7465986394557823,0.7465986394557823,0.7465986394557823,0.7465986394557823,0.7465986394557823,0.7465986394557823,0.7465986394557823,0.7465986394557823,0.7465986394557823,0.7465986394557823,0.7465986394557823,0.7465986394557823,0.7465986394557823,0.7465986394557823,0.7465986394557823,0.7465986394557823,0.7465986394557823,0.7465986394557823,0.7465986394557823,0.7465986394557823,0.7465986394557823,0.7465986394557823,0.7465986394557823,0.7465986394557823,0.7465986394557823,0.7465986394557823,0.7465986394557823,0.7465986394557823,0.7465986394557823,0.7465986394557823,0.7465986394557823,0.7465986394557823,0.7465986394557823,0.7465986394557823,0.7465986394557823,0.7465986394557823,0.7465986394557823,0.7465986394557823,0.7465986394557823,0.7465986394557823,0.7465986394557823,0.7465986394557823,0.7465986394557823,0.746598639455