[{"success":true,"trial_type":"fullscreen","trial_index":0,"time_elapsed":3706,"internal_node_id":"0.0-0.0","protocol_sum":"","subject_identifier":114,"subject_sum":[200,55,100,156,206,67,242,114,145,56,231,44,195,21,32,112,87,172,130,89,154,89,190,114,118,90,71,127,34,209,74,84],"subject_pair":57,"STUDY_ID":"669a702db1122fc5150a13ce","PROLIFIC_PID":"65ad465b1c79ea32da32e582","SESSION_ID":"669ac448db735766227ae2c5","practice_instructions":1,"leaderboard_instructions":2,"bonus":0,"reveal_word":false,"self_rating":"4","confidence":"71"},{"view_history":"[{\"page_index\":0,\"viewing_time\":6345.5999999940395}]","rt":6346.399999976158,"trial_type":"instructions","trial_index":1,"time_elapsed":10054,"internal_node_id":"0.0-1.0","protocol_sum":"","subject_identifier":114,"subject_sum":[200,55,100,156,206,67,242,114,145,56,231,44,195,21,32,112,87,172,130,89,154,89,190,114,118,90,71,127,34,209,74,84],"subject_pair":57,"STUDY_ID":"669a702db1122fc5150a13ce","PROLIFIC_PID":"65ad465b1c79ea32da32e582","SESSION_ID":"669ac448db735766227ae2c5","practice_instructions":1,"leaderboard_instructions":2,"bonus":0,"reveal_word":false,"self_rating":"4","confidence":"71"},{"view_history":"[{\"page_index\":0,\"viewing_time\":27597.90000000596}]","rt":27598.5,"trial_type":"instructions","trial_index":2,"time_elapsed":37653,"internal_node_id":"0.0-2.0-0.0","protocol_sum":"","subject_identifier":114,"subject_sum":[200,55,100,156,206,67,242,114,145,56,231,44,195,21,32,112,87,172,130,89,154,89,190,114,118,90,71,127,34,209,74,84],"subject_pair":57,"STUDY_ID":"669a702db1122fc5150a13ce","PROLIFIC_PID":"65ad465b1c79ea32da32e582","SESSION_ID":"669ac448db735766227ae2c5","practice_instructions":1,"leaderboard_instructions":2,"bonus":0,"reveal_word":false,"self_rating":"4","confidence":"71"},{"rt":7092,"responses":"{\"Q0\":\"... reveal the word with as <b>few letter guesses</b> as possible\"}","question_order":"[0]","trial_type":"survey-multi-choice","trial_index":3,"time_elapsed":44748,"internal_node_id":"0.0-2.0-1.0","protocol_sum":"","subject_identifier":114,"subject_sum":[200,55,100,156,206,67,242,114,145,56,231,44,195,21,32,112,87,172,130,89,154,89,190,114,118,90,71,127,34,209,74,84],"subject_pair":57,"correct":true,"test_part":"multichoice_nonpretend","STUDY_ID":"669a702db1122fc5150a13ce","PROLIFIC_PID":"65ad465b1c79ea32da32e582","SESSION_ID":"669ac448db735766227ae2c5","practice_instructions":1,"leaderboard_instructions":2,"bonus":0,"reveal_word":false,"self_rating":"4","confidence":"71"},{"view_history":"[{\"page_index\":0,\"viewing_time\":13495.90000000596}]","rt":13496.200000017881,"trial_type":"instructions","trial_index":4,"time_elapsed":58246,"internal_node_id":"0.0-3.0","protocol_sum":"","subject_identifier":114,"subject_sum":[200,55,100,156,206,67,242,114,145,56,231,44,195,21,32,112,87,172,130,89,154,89,190,114,118,90,71,127,34,209,74,84],"subject_pair":57,"STUDY_ID":"669a702db1122fc5150a13ce","PROLIFIC_PID":"65ad465b1c79ea32da32e582","SESSION_ID":"669ac448db735766227ae2c5","practice_instructions":1,"leaderboard_instructions":2,"bonus":0,"reveal_word":false,"self_rating":"4","confidence":"71"},{"word":"ZEBRA","click_log":{"letter":["","T","I","G","E","R","Z","B","A"],"t":[0,128678.30000001192,131141.20000001788,133578.60000002384,135092.30000001192,138098.40000000596,150992.30000001192,152835.40000000596,154068],"hit":[null,0,0,0,1,1,1,1,1],"asked":["","T","TI","TIG","TIGE","TIGER","TIGERZ","TIGERZB","TIGERZBA"],"word_state":["_____","_____","_____","_____","_E___","_E_R_","ZE_R_","ZEBR_","ZEBRA"]},"hover_log":{"letter":["?","?","?","?","?","?","?","?","?","?","?","?","?","?","?","?","?","?","?","?","?","?","?","?","?","?","?","?","?","?","?","?","?","?","?","?","?","?","?","?","?","?","?","?","?","?","?","?","?","?","?","?","?","?","?","?","?","?","?","?","?","?","?","?","?","?","?","?","?","?","?","?","?","?","?","?","?","?","?","?","?","?","?","?","?","?","?","?","?","?","?","?","?","?","?","?","?","?","?","?","?","?","?","?","?","?","?","?","?","?","?","?","?","?","?","?","?","?","?","?","?","?","?","?","?","?","?","?","?","?","?","C","C","C","C","C","C","C","C","C","C","?","?","?","?","?","?","?","?","?","?","?","?","?","?","?","?","?","?","?","?","?","?","?","?","?","?","?","?","C","C","C","C","C","C","C","C","C","C","C","?","?","?","?","?","?","?","?","?","?","?","?","?","?","?","?","?","?","?","C","C","C","C","C","C","C","C","C","C","C","C","C","C","?","?","?","?","?","B","B","B","B","B","B","B","B","B","?","A","A","A","A","A","A","A","A","A","A","A","A","A","A","A","A","A","A","A","A","A","A","A","A","A","?","?","?","?","?","?","?","?","?","?","?","?","?","?","?","J","J","J","J","J","J","J","J","J","J","J","J","J","J","J","J","J","?","?","?","?","?","?","?","?","?","?","?","?","?","?","?","?","?","?","?","?","K","K","K","K","K","K","K","K","K","K","K","K","K","K","K","K","K","K","K","K","K","?","?","?","?","?","?","?","S","S","?","?","?","?","?","?","?","?","?","?","?","?","?","?","?","?","?","?","?","?","?","?","?","?","?","?","?","?","?","?","?","?","?","?","?","?","?","?","?","?","?","?","?","?","?","?","?","?","?","?","?","?","?","?","?","?","?","?","?","?","?","?","?","?","?","?","?","?","?","?","?","?","?","?","?","?","?","?","?","?","?","?","?","?","?","?","?","?","?","?","?","?","?","?","?","?","?","?","?","?","?","?","?","?","?","?","?","?","?","?","?","?","?","?","?","?","?","?","?","?","?","?","?","?","?","?","?","?","?","?","?","?","?","?","?","?","?","?","?","?","?","?","?","?","?","?","?","?","?","?","?","?","?","?","?","?","?","?","?","?","?","?","?","?","?","?","?","?","?","?","?","?","?","?","?","?","?","?","?","?","?","?","?","?","?","?","?","?","?","?","?","?","?","?","?","?","?","?","?","?","?","?","?","?","?","?","?","?","?","?","?","?","?","?","?","?","?","?","?","?","?","?","?","?","?","?","?","?","?","?","?","?","?","?","?","?","?","?","?","?","?","?","?","?","?","?","?","?","?","?","?","?","?","?","?","?","?","?","?","?","?","?","?","?","?","?","?","?","?","?","?","?","?","?","?","?","?","?","?","?","?","?","?","?","?","?","?","?","?","?","?","?","?","?","?","?","?","?","?","?","?","?","?","?","?","?","?","?","?","?","?","?","?","?","?","?","?","?","?","?","?","?","?","?","?","?","?","?","?","?","?","?","?","?","?","?","?","?","?","?","?","?","?","?","?","?","?","?","?","?","?","?","?","?","?","?","?","?","?","?","?","?","?","?","?","?","?","?","?","?","?","?","?","?","?","?","?","?","?","?","?","?","?","?","?","?","?","?","?","?","?","?","?","?","?","?","?","?","?","?","?","?","?","?","?","?","?","?","?","?","?","?","?","?","?","?","?","?","?","?","?","?","?","?","?","?","?","?","?","?","?","?","?","?","?","?","?","?","?","?","?","?","?","?","?","?","?","?","?","?","?","?","?","?","?","?","?","?","?","?","?","?","?","?","?","?","?","?","?","?","?","?","?","?","?","?","?","?","?","?","?","?","?","?","?","?","?","?","?","?","?","?","?","?","?","?","?","?","?","?","?","?","?","?","?","?","?","?","?","?","?","?","?","?","?","?","?","?","?","?","?","?","?","?","?","?","?","?","?","?","?","?","?","?","?","?","?","?","?","?","?","?","?","?","?","?","?","?","?","?","?","?","?","?","?","?","?","?","?","?","?","?","?","?","?","?","?","?","?","?","?","?","?","?","?","?","?","?","?","?","?","?","?","?","?","?","?","?","?","?","?","?","?","?","?","?","?","?","?","?","?","?","?","?","?","?","?","?","?","?","?","?","?","?","?","?","?","?","?","?","?","?","?","?","?","?","?","?","?","?","?","?","?","?","?","?","?","?","?","?","?","?","?","?","?","?","?","?","?","?","?","?","?","?","?","?","?","?","?","?","?","?","?","?","?","?","?","?","?","?","?","?","?","?","?","?","?","?","?","?","?","?","?","?","?","?","?","?","?","?","?","?","?","?","?","?","?","?","?","?","?","?","?","?","?","?","?","?","?","?","?","?","?","?","?","?","?","?","?","?","?","?","?","?","?","?","?","?","?","?","?","?","?","?","?","?","?","?","?","?","?","?","?","?","?","?","?","?","?","?","?","?","?","?","?","?","?","?","?","?","?","?","?","?","?","?","?","?","?","?","?","?","?","?","?","?","?","?","?","?","?","?","?","?","?","?","?","?","?","?","?","?","?","?","?","?","?","?","?","?","?","?","?","?","?","?","?","?","?","?","?","?","?","?","?","?","?","?","?","?","?","?","?","?","?","?","?","?","?","?","?","?","?","?","?","?","?","?","?","?","?","?","?","?","?","?","?","?","?","?","?","?","?","?","?","?","?","?","?","?","?","?","?","?","?","?","?","?","?","?","?","?","?","?","?","?","?","?","?","?","?","?","?","?","?","?","?","?","?","?","?","?","?","?","?","?","?","?","?","?","?","?","?","?","?","?","?","?","?","?","?","?","?","?","?","?","?","?","?","?","?","?","?","?","?","?","?","?","?","?","?","?","?","?","?","?","?","?","?","?","?","?","?","?","?","?","?","?","?","?","?","?","?","?","?","?","?","?","?","?","?","?","?","?","?","?","?","?","?","?","?","?","?","?","?","?","?","?","?","?","?","?","?","?","?","?","?","?","?","?","?","?","?","?","?","?","?","?","?","?","?","?","?","?","?","?","?","?","?","?","?","?","?","?","?","?","?","?","?","?","?","?","?","?","?","?","?","?","?","?","?","?","?","?","?","?","?","?","?","?","?","?","?","?","?","?","?","?","?","?","?","?","?","?","?","?","?","?","?","?","?","?","?","?","?","?","?","?","?","?","?","?","?","?","?","?","?","?","?","?","?","?","?","?","?","?","?","?","?","?","?","?","?","?","?","?","?","?","?","?","?","?","?","?","?","?","?","?","?","?","?","?","?","?","?","?","?","?","?","?","?","?","?","?","?","?","?","?","?","?","?","?","?","?","?","?","?","?","?","?","?","?","?","?","?","?","?","?","?","?","?","?","?","?","?","?","?","?","?","?","?","?","?","?","?","?","?","?","?","?","?","?","?","?","?","?","?","?","?","?","?","?","?","?","?","?","?","?","?","?","?","?","?","?","?","?","?","?","?","?","?","?","?","?","?","?","?","?","?","?","?","?","?","?","?","?","?","?","?","?","?","?","?","?","?","?","?","?","?","?","?","?","?","?","?","?","?","?","?","?","?","?","?","?","?","?","?","?","?","?","?","?","?","?","?","?","?","?","?","?","?","?","?","?","?","?","?","?","?","?","?","?","?","?","?","?","?","?","?","?","?","?","?","?","?","?","?","?","?","?","?","?","?","?","?","?","?","?","?","?","?","?","?","?","?","?","?","?","?","?","?","?","?","?","?","?","?","?","?","?","?","?","?","?","?","?","?","?","?","?","?","?","?","?","?","?","?","?","?","?","?","?","?","?","?","?","?","?","?","?","?","?","?","?","?","?","?","?","?","?","?","?","?","?","?","?","?","?","?","?","?","?","?","?","?","?","?","?","?","?","?","?","?","?","?","?","?","?","?","?","?","?","?","?","?","?","?","?","?","?","?","?","?","?","?","?","?","?","?","?","?","?","?","?","?","?","?","?","?","?","?","?","?","?","?","?","?","?","?","?","?","?","?","?","?","?","?","?","?","?","?","?","?","?","?","?","?","?","?","?","?","?","?","?","?","?","?","?","?","?","?","?","?","?","?","?","?","?","?","?","?","?","?","?","?","?","?","?","?","?","?","?","?","?","?","?","?","?","?","?","?","?","?","?","?","?","?","?","?","?","?","?","?","?","?","?","?","?","?","?","?","?","?","?","?","?","?","?","?","?","?","?","?","?","?","?","?","?","?","?","?","?","?","?","?","?","?","?","?","?","?","?","?","?","?","?","?","?","?","?","?","?","?","?","?","?","?","?","?","?","?","?","?","?","?","?","?","?","?","?","?","?","?","?","?","?","?","?","?","?","?","?","?","?","?","?","?","?","?","?","?","?","?","?","?","?","?","?","?","?","?","?","?","?","?","?","?","?","?","?","?","?","?","?","?","?","?","?","?","?","?","?","?","?","?","?","?","?","?","?","?","?","?","?","?","?","?","?","?","?","?","?","?","?","?","?","?","?","?","?","?","?","?","?","?","?","?","?","?","?","?","?","?","?","?","?","?","?","?","?","?","?","?","?","?","?","?","?","?","?","?","?","?","?","?","?","?","?","?","?","?","?","?","?","?","?","?","?","?","?","?","?","?","?","?","?","?","?","?","?","?","?","?","?","?","?","?","?","?","?","?","?","?","?","?","?","?","?","?","?","?","?","?","?","?","?","?","?","?","?","?","?","?","?","?","?","?","?","?","?","?","?","?","?","?","?","?","?","?","?","?","?","?","?","?","?","?","?","?","?","?","?","?","?","?","?","?","?","?","?","?","?","?","?","?","?","?","?","?","?","?","?","?","?","?","?","?","?","?","?","?","?","?","?","?","?","?","?","?","?","?","?","?","?","?","?","?","?","?","?","?","?","?","?","?","?","?","?","?","?","?","?","?","?","?","?","?","?","?","?","?","?","?","?","?","?","?","?","?","?","?","?","?","?","?","?","?","?","?","?","?","?","?","?","?","?","?","?","?","?","?","?","?","?","?","?","?","?","?","?","?","?","?","?","?","?","?","?","?","?","?","?","?","?","?","?","?","?","?","?","?","?","?","?","?","?","?","?","?","?","?","?","?","?","?","?","?","?","?","?","?","?","?","?","?","?","?","?","?","?","?","?","?","?","?","?","?","?","?","?","?","?","?","?","?","?","?","?","?","?","?","?","?","?","?","?","?","?","?","?","?","?","?","?","?","?","?","?","?","?","?","?","?","?","?","?","?","?","?","?","?","?","?","?","?","?","?","?","?","?","?","?","?","?","?","?","?","?","?","?","?","?","?","?","?","?","?","?","?","?","?","?","?","?","?","?","?","?","?","?","?","?","?","?","?","?","?","?","?","?","?","?","?","?","?","?","?","?","?","?","?","?","?","?","?","?","?","?","?","?","?","?","?","?","?","?","?","?","?","?","?","?","?","?","?","?","?","?","?","?","?","?","?","?","?","?","?","?","?","?","?","?","?","?","?","?","?","?","?","?","?","?","?","?","?","?","?","?","?","?","?","?","?","?","?","?","?","?","?","?","?","?","?","?","?","?","?","?","?","?","?","?","?","?","?","?","?","?","?","?","?","?","?","?","?","?","?","?","?","?","?","?","?","?","?","?","?","?","?","?","?","?","?","?","?","?","?","?","?","?","?","?","?","?","?","?","?","?","?","?","?","?","?","?","?","?","?","?","?","?","?","?","?","?","?","?","?","?","?","?","?","?","?","?","?","?","?","?","?","?","?","?","?","?","?","?","?","?","?","?","?","?","?","?","?","?","?","?","?","?","?","?","?","?","?","?","?","?","?","?","?","?","?","?","?","?","?","?","?","?","?","?","?","?","?","?","?","?","?","?","?","?","?","?","?","?","?","?","?","?","?","?","?","?","?","?","?","?","?","?","?","?","?","?","?","?","?","?","?","?","?","?","?","?","?","?","?","?","?","?","?","?","?","?","?","?","?","?","?","?","?","?","?","?","?","?","?","?","?","?","?","?","?","?","?","?","?","?","?","?","?","?","?","?","?","?","?","?","?","?","?","?","?","?","?","?","?","?","?","?","?","?","?","?","?","?","?","?","?","?","?","?","?","?","?","?","?","?","?","?","?","?","?","?","?","?","?","?","?","?","?","?","?","?","?","?","?","?","?","?","?","?","?","?","?","?","?","?","?","?","?","?","?","?","?","?","?","?","?","?","?","?","?","?","?","?","?","?","?","?","?","?","?","?","?","?","?","?","?","?","?","?","?","?","?","?","?","?","?","?","?","?","?","?","?","?","?","?","?","?","?","?","?","?","?","?","?","?","?","?","?","?","?","?","?","?","?","?","?","?","?","?","?","?","?","?","?","?","?","?","?","?","?","?","?","?","?","?","?","?","?","?","?","?","?","?","?","?","?","?","?","?","?","?","?","?","?","?","?","?","?","?","?","?","?","?","?","?","?","?","?","?","?","?","?","?","?","?","?","?","?","?","?","?","?","?","?","?","?","?","?","?","?","?","?","?","?","?","?","?","?","?","?","?","?","?","?","?","?","?","?","?","?","?","?","?","?","?","?","?","?","?","?","?","?","?","?","?","?","?","?","?","?","?","?","?","?","?","?","?","?","?","?","?","?","?","?","?","?","?","?","?","?","?","?","?","?","?","?","?","?","?","?","?","?","?","?","?","?","?","?","?","?","?","?","?","?","?","?","?","?","?","?","?","?","?","?","?","?","?","?","?","?","?","?","?","?","?","?","?","?","?","?","?","?","?","?","?","?","?","?","?","?","?","?","?","?","?","?","?","?","?","?","?","?","?","?","?","?","?","?","?","?","?","?","?","?","?","?","?","?","?","?","?","?","?","?","?","?","?","?","?","?","?","?","?","?","?","?","?","?","?","?","?","?","?","?","?","?","?","?","?","?","?","?","?","?","?","?","?","?","?","?","?","?","?","?","?","?","?","?","?","?","?","?","?","?","?","?","?","?","?","?","?","?","?","?","?","?","?","?","?","?","?","?","?","?","?","?","?","?","?","?","?","?","?","?","?","?","?","?","?","?","?","?","?","?","?","?","?","?","?","?","?","?","?","?","?","?","?","?","?","?","?","?","?","?","?","?","?","?","?","?","?","?","?","?","?","?","?","?","?","?","?","?","?","?","?","?","?","?","?","?","?","?","?","?","?","?","?","?","?","?","?","?","?","?","?","?","?","?","?","?","?","?","?","?","?","?","?","?","?","?","?","?","?","?","?","?","?","?","?","?","?","?","?","?","?","?","?","?","?","?","?","?","?","?","?","?","?","?","?","?","?","?","?","?","?","?","?","?","?","?","?","?","?","?","?","?","?","?","?","?","?","?","?","?","?","?","?","?","?","?","?","?","?","?","?","?","?","?","?","?","?","?","?","?","?","?","?","?","?","?","?","?","?","?","?","?","?","?","?","?","?","?","?","?","?","?","?","?","?","?","?","?","?","?","?","?","?","?","?","?","?","?","?","?","?","?","?","?","?","?","?","?","?","?","?","?","?","?","?","?","?","?","?","?","?","?","?","?","?","?","?","?","?","?","?","?","?","?","?","?","?","?","?","?","?","?","?","?","?","?","?","?","?","?","?","?","?","?","?","?","?","?","?","?","?","?","?","?","?","?","?","?","?","?","?","?","?","?","?","?","?","?","?","?","?","?","?","?","?","?","?","?","?","?","?","?","?","?","?","?","?","?","?","?","?","?","?","?","?","?","?","?","?","?","?","?","?","?","?","?","?","?","?","?","?","?","?","?","?","?","?","?","?","?","?","?","?","?","?","?","?","?","?","?","?","?","?","?","?","?","?","?","?","?","?","?","?","?","?","?","?","?","?","?","?","?","?","?","?","?","?","?","?","?","?","?","?","?","?","?","?","?","?","?","?","?","?","?","?","?","?","?","?","?","?","?","?","?","?","?","?","?","?","?","?","?","?","?","?","?","?","?","?","?","?","?","?","?","?","?","?","?","?","?","?","?","?","?","?","?","?","?","?","?","?","?","?","?","?","?","?","?","?","?","?","?","?","?","?","?","?","?","?","?","?","?","?","?","?","?","?","?","?","?","?","?","?","?","?","?","?","?","?","?","?","?","?","?","?","?","?","?","?","?","?","?","?","?","?","?","?","?","?","?","?","?","?","?","?","?","?","?","?","?","?","?","?","?","?","?","?","?","?","?","?","?","?","?","?","?","?","?","?","?","?","?","?","?","?","?","?","?","?","?","?","?","?","?","?","?","?","?","?","?","?","?","?","?","?","?","?","?","?","?","?","?","?","?","?","?","?","?","?","?","?","?","?","?","?","?","?","?","?","?","?","?","?","?","?","?","?","?","?","?","?","?","?","?","?","?","?","?","?","?","?","?","?","?","?","?","?","?","?","?","?","?","?","?","?","?","?","?","?","?","?","?","?","?","?","?","?","?","?","?","?","?","?","?","?","?","?","?","?","?","?","?","?","?","?","?","?","?","?","?","?","?","?","?","?","?","?","?","?","?","?","?","?","?","?","?","?","?","?","?","?","?","?","?","?","?","?","?","?","?","?","?","?","?","?","?","?","?","?","?","?","?","?","?","?","?","?","?","?","?","?","?","?","?","?","?","?","?","?","?","?","?","?","?","?","?","?","?","?","?","?","?","?","?","?","?","?","?","?","?","?","?","?","?","?","?","?","?","?","?","?","?","?","?","?","?","?","?","?","?","?","?","?","?","?","?","?","?","?","?","?","?","?","?","?","?","?","?","?","?","?","?","?","?","?","?","?","?","?","?","?","?","?","?","?","?","?","?","?","?","?","?","?","?","?","?","?","?","?","?","?","?","?","?","?","?","?","?","?","?","?","?","?","?","?","?","?","?","?","?","?","?","?","?","?","?","?","?","?","?","?","?","?","?","?","?","?","?","?","?","?","?","?","?","?","?","?","?","?","?","?","?","?","?","?","?","?","?","?","?","?","?","?","?","?","H","H","?","?","?","?","?","?","?","?","?","?","?","?","P","P","?","?","?","?","?","?","?","?","?","?","?","?","?","?","?","?","?","?","P","P","P","P","P","P","P","P","P","P","P","P","P","P","P","P","P","P","P","P","P","P","P","P","P","P","P","P","P","P","P","P","P","P","P","P","P","P","P","P","P","P","P","P","P","P","P","P","P","P","P","P","P","P","P","P","P","P","P","P","P","P","P","P","P","P","P","P","P","P","P","P","P","P","P","P","P","P","P","P","P","P","P","P","P","P","P","P","P","P","P","P","P","P","P","P","P","P","P","P","P","P","P","P","P","P","P","P","P","P","P","P","P","P","P","P","P","P","P","P","P","P","P","P","P","P","P","P","P","P","P","P","P","P","P","P","P","P","P","P","P","P","P","P","P","P","P","P","P","P","P","P","P","P","P","P","P","P","P","P","P","P","P","P","P","P","P","P","P","P","P","P","P","P","P","P","P","P","P","P","P","P","P","P","P","P","P","P","P","P","P","P","P","P","P","P","P","P","P","P","P","P","P","P","P","P","P","P","P","P","P","P","P","P","P","P","P","P","P","P","P","P","P","P","P","P","P","P","P","P","P","P","P","P","P","P","P","P","P","P","P","P","P","P","P","P","P","P","P","P","P","P","P","P","P","P","P","P","P","P","P","P","P","P","P","P","P","P","P","P","P","P","P","P","P","P","P","P","P","P","P","P","P","P","P","P","P","P","P","P","P","P","P","P","P","P","P","P","P","P","P","P","P","P","P","P","P","P","P","P","P","P","P","P","P","P","P","P","P","P","P","P","P","P","P","P","P","P","P","P","P","P","P","P","P","P","P","P","P","P","P","P","P","P","P","P","P","P","P","P","P","P","P","P","P","P","P","P","P","P","P","P","P","P","P","P","P","P","P","P","P","P","P","P","P","P","P","P","P","P","P","P","P","P","P","P","P","P","P","P","P","P","P","P","P","P","P","P","P","P","P","P","P","P","P","P","P","P","P","P","P","P","P","P","P","P","P","P","P","P","P","P","P","P","P","P","P","P","P","P","P","P","P","P","P","P","P","P","P","P","P","P","P","P","P","P","P","P","P","P","P","P","P","P","P","P","P","P","P","P","P","P","P","P","P","P","P","P","P","P","P","P","P","P","P","P","P","P","P","P","P","P","P","P","P","P","P","P","P","P","P","P","P","P","P","P","P","P","P","P","P","P","P","P","P","P","P","P","P","P","P","P","P","P","P","P","P","P","P","P","P","P","P","P","P","P","P","P","P","P","P","P","P","P","P","P","P","P","P","P","P","P","P","P","P","P","P","P","P","P","P","P","P","P","P","P","P","P","P","P","P","P","P","P","P","P","P","P","P","P","P","P","P","P","P","P","P","P","P","P","P","P","P","P","P","P","P","P","P","P","P","P","P","P","P","P","P","P","P","P","P","P","P","P","P","P","P","P","P","P","P","P","P","P","P","P","P","P","P","P","P","P","P","P","P","P","P","P","P","P","P","P","P","P","P","P","P","P","P","P","P","P","P","P","P","P","P","P","P","P","P","P","P","P","P","P","P","P","P","P","P","P","P","P","P","P","P","P","P","P","P","P","P","P","P","P","P","P","P","P","P","P","P","P","P","P","P","P","P","P","P","P","P","P","P","P","P","P","P","P","P","P","P","P","P","P","P","P","P","P","P","P","P","P","P","P","P","P","P","P","P","P","P","P","P","P","P","P","P","P","P","P","P","P","P","P","P","P","P","P","P","P","P","P","P","P","P","P","P","P","P","P","P","P","P","P","P","P","P","P","P","P","P","P","P","P","P","P","P","P","P","P","P","P","P","P","P","P","P","P","P","P","P","P","P","P","P","P","P","P","P","P","P","P","P","P","P","P","P","P","P","P","P","P","P","P","P","P","P","P","P","P","P","P","P","P","P","P","P","P","P","P","P","P","P","P","P","P","P","P","P","P","P","P","P","P","P","P","P","P","P","P","P","P","P","P","P","P","P","P","P","P","P","P","P","P","P","P","P","P","P","P","P","P","P","P","P","P","P","P","P","P","P","P","P","P","P","P","P","P","P","P","P","P","P","P","P","P","P","P","P","P","P","P","P","P","P","P","P","P","P","P","P","P","P","P","P","P","P","P","P","P","P","P","P","P","P","P","P","P","P","P","P","P","P","P","P","P","P","P","P","P","P","P","P","P","P","P","P","P","P","P","P","P","P","P","P","P","P","P","P","P","P","P","P","P","P","P","P","P","P","P","P","P","P","P","P","P","P","P","P","P","P","P","P","P","P","P","P","P","P","P","P","P","P","P","P","P","P","P","P","P","P","P","P","P","P","P","P","P","P","P","P","P","P","P","P","P","P","P","P","P","P","P","P","P","P","P","P","P","P","P","P","P","P","P","P","P","P","P","P","P","P","P","P","P","P","P","P","P","P","P","P","P","P","P","P","P","P","P","P","P","P","P","P","P","P","P","P","P","P","P","P","P","P","P","P","P","P","P","P","P","P","P","P","P","P","P","P","P","P","P","P","P","P","P","P","P","P","P","P","P","P","P","P","P","P","P","P","P","P","P","P","P","P","P","P","P","P","P","P","P","P","P","P","P","P","P","P","P","P","P","P","P","P","P","P","P","P","P","P","P","P","P","P","P","P","P","P","P","P","P","P","P","P","P","P","P","P","P","P","P","P","P","P","P","P","P","P","P","P","P","P","P","P","P","P","P","P","P","P","P","P","P","P","P","P","P","P","P","P","P","P","P","P","P","P","P","P","P","P","P","P","P","P","P","P","P","P","P","P","P","P","P","P","P","P","P","P","P","P","P","P","P","P","P","P","P","P","P","P","P","P","P","P","P","P","P","P","P","P","P","P","P","P","P","P","P","P","P","P","P","P","P","P","P","P","P","P","P","P","P","P","P","P","P","P","P","P","P","P","P","P","P","P","P","P","P","P","P","P","P","P","P","P","P","P","P","P","P","P","P","P","P","P","P","P","P","P","P","P","P","P","P","P","P","P","P","P","P","P","P","P","P","P","P","P","P","P","P","P","P","P","P","P","P","P","P","P","P","P","P","P","P","P","P","P","P","P","P","P","P","P","P","P","P","P","P","P","P","P","P","P","P","P","P","P","P","P","P","P","P","P","P","P","P","P","P","P","P","P","P","P","P","P","P","P","P","P","P","P","P","P","P","P","P","P","P","P","P","P","P","P","P","P","P","P","P","P","P","P","P","P","P","P","P","P","P","P","P","P","P","P","P","P","P","P","P","P","P","P","P","P","P","P","P","P","P","P","P","P","P","P","P","P","P","P","P","P","P","P","P","P","P","P","P","P","P","P","P","P","P","P","P","P","P","P","P","P","P","P","P","P","P","P","P","P","P","P","P","P","P","P","P","P","P","P","P","P","P","P","P","P","P","P","P","P","P","P","P","P","P","P","P","P","P","P","P","P","P","P","P","P","P","P","P","P","P","P","P","P","P","P","P","P","P","P","P","P","P","P","P","P","P","P","P","P","P","P","P","P","P","P","P","P","P","P","P","P","P","P","P","P","P","P","P","P","P","P","P","P","P","P","P","P","P","P","P","P","P","P","P","P","P","P","P","P","P","P","P","P","P","P","P","P","P","P","P","P","P","P","P","P","P","P","P","P","P","P","P","P","P","P","P","P","P","P","P","P","P","P","P","P","P","P","P","P","P","P","P","P","P","P","P","P","P","P","P","P","P","P","P","P","P","P","P","P","P","P","P","P","P","P","P","P","P","P","P","P","P","P","P","P","P","P","P","P","P","P","P","P","P","P","P","P","P","P","P","P","P","P","P","P","P","P","P","P","P","P","P","P","P","P","P","P","P","P","P","P","P","P","P","P","P","P","P","P","P","P","P","P","P","P","P","P","P","P","P","P","P","P","P","P","P","P","P","P","P","P","P","P","P","P","P","P","P","P","P","P","P","P","P","P","P","P","P","P","P","P","P","P","P","P","P","P","P","P","P","P","P","P","P","P","P","P","P","P","P","P","P","P","P","P","P","P","P","P","P","P","P","P","P","P","P","P","P","P","P","P","P","P","P","P","P","P","P","P","P","P","P","P","P","P","P","P","P","P","P","P","P","P","P","P","P","P","P","P","P","P","P","P","P","P","P","P","P","P","P","P","P","P","P","P","P","P","P","P","P","P","P","P","P","P","P","P","P","P","P","P","P","P","P","P","P","P","P","P","P","P","P","P","P","P","P","P","P","P","P","P","P","P","P","P","P","P","P","P","P","P","P","P","P","P","P","P","P","P","P","P","P","P","P","P","P","P","P","P","P","P","P","P","P","P","P","P","P","P","P","P","P","P","P","P","P","P","P","P","P","P","P","P","P","P","P","P","P","P","P","P","P","P","P","P","P","P","P","P","P","P","P","P","P","P","P","P","P","P","P","P","P","P","P","P","P","P","P","P","P","P","P","P","P","P","P","P","P","P","P","P","P","P","P","P","P","P","P","P","P","P","P","P","P","P","P","P","P","P","P","P","P","P","P","P","P","P","P","P","P","P","P","P","P","P","P","P","P","P","P","P","P","P","P","P","P","P","P","P","P","P","P","P","P","P","P","P","P","P","P","P","P","P","P","P","P","P","P","P","P","P","P","P","P","P","P","P","P","P","P","P","P","P","P","P","P","P","P","P","P","P","P","P","P","P","P","P","P","P","P","P","P","P","P","P","P","P","P","P","P","P","P","P","P","P","P","P","P","P","P","P","P","P","P","P","P","P","P","P","P","P","P","P","P","P","P","P","P","P","P","P","P","P","P","P","P","P","P","P","P","P","P","P","P","P","P","P","P","P","P","P","P","P","P","P","P","P","P","P","P","P","P","P","P","P","P","P","P","P","P","P","P","P","P","P","P","P","P","P","P","P","P","P","P","P","P","P","P","P","P","P","P","P","P","P","P","P","P","P","P","P","P","P","P","P","P","P","P","P","P","P","P","P","P","P","P","P","P","P","P","P","P","P","P","P","P","P","P","P","P","P","P","P","P","P","P","P","P","P","P","P","P","P","P","P","P","P","P","P","P","P","P","P","P","P","P","P","P","P","P","P","P","P","P","P","P","P","P","P","P","P","P","P","P","P","P","P","P","P","P","P","P","P","P","P","P","P","P","P","P","P","P","P","P","P","P","P","P","P","P","P","P","P","P","P","P","P","P","P","P","P","P","P","P","P","P","P","P","P","P","P","P","P","P","P","P","P","P","P","P","P","P","P","P","P","P","P","P","P","P","P","P","P","P","P","P","P","P","P","P","P","P","P","P","P","P","P","P","P","P","P","P","P","P","P","P","P","P","P","P","P","P","P","P","P","P","P","P","P","P","P","P","P","P","P","P","P","P","P","P","P","P","P","P","P","P","P","P","P","P","P","P","P","P","P","P","P","P","P","P","P","P","P","P","P","P","P","P","P","P","P","P","P","P","P","P","P","P","P","P","P","P","P","P","P","P","P","P","P","P","P","P","P","P","P","P","P","P","P","P","P","P","P","P","P","P","P","P","P","P","P","P","P","P","P","P","P","P","P","P","P","P","P","P","P","P","P","P","P","P","P","P","P","P","P","P","P","P","P","P","P","P","P","P","P","P","P","P","P","P","P","P","P","P","P","P","P","P","P","P","P","P","P","P","P","P","P","P","P","P","P","P","P","P","P","P","P","P","P","P","P","P","P","P","P","P","P","P","P","P","P","P","P","P","P","P","P","P","P","P","P","P","P","P","P","P","P","P","P","P","P","P","P","P","P","P","P","P","P","P","P","P","P","P","P","P","P","P","P","P","P","P","P","P","P","P","P","P","P","P","P","P","P","P","P","P","P","P","P","P","P","P","P","P","P","P","P","P","P","P","P","P","P","P","P","P","P","P","P","P","P","P","P","P","P","P","P","P","P","P","P","P","P","P","P","P","P","P","P","P","P","P","P","P","P","P","P","P","P","P","P","P","P","P","P","P","P","P","P","P","P","P","P","P","P","P","P","P","P","P","P","P","P","P","P","P","P","P","P","P","P","P","P","P","P","P","P","P","P","P","P","P","P","P","P","P","P","P","P","P","P","P","P","P","P","P","P","P","P","P","P","P","P","P","P","P","P","P","P","P","P","P","P","P","P","P","P","P","P","P","P","P","P","P","P","P","P","P","P","P","P","P","P","P","P","P","P","P","P","P","P","P","P","P","P","P","P","P","P","P","P","P","P","P","P","P","P","P","P","P","P","P","P","P","P","P","P","P","P","P","P","P","P","P","P","P","P","P","P","P","P","P","P","P","P","P","P","P","P","P","P","P","P","P","P","P","P","P","P","P","P","P","P","P","P","P","P","P","P","P","P","P","P","P","P","P","P","P","P","P","P","P","P","P","P","P","P","P","P","P","P","P","P","P","P","P","P","P","P","P","P","P","P","P","P","P","P","P","P","P","P","P","P","P","P","P","P","P","P","P","P","P","P","P","P","P","P","P","P","P","P","P","P","P","P","P","P","P","P","P","P","P","P","P","P","P","P","P","P","P","P","P","P","P","P","P","P","P","P","P","P","P","P","P","P","P","P","P","P","P","P","P","P","P","P","P","P","P","P","P","P","P","P","P","P","P","P","P","P","P","P","P","P","P","P","P","P","P","P","P","P","P","P","P","P","P","P","P","P","P","P","P","P","P","P","P","P","P","P","P","P","P","P","P","P","P","P","P","P","P","P","P","P","P","P","P","P","P","P","P","P","P","P","P","P","P","P","P","P","P","P","P","P","P","P","P","P","P","P","P","P","P","P","P","P","P","P","P","P","P","P","P","P","P","P","P","P","P","P","P","P","P","P","P","P","P","P","P","P","P","P","P","P","P","P","P","P","P","P","P","P","P","P","P","P","P","P","P","P","P","P","P","P","P","P","P","P","P","P","P","P","P","P","P","P","P","P","P","P","P","P","P","P","P","P","P","P","P","P","P","P","P","P","P","P","P","P","P","P","P","P","P","P","P","P","P","P","P","P","P","P","P","P","P","P","P","P","P","P","P","P","P","P","P","P","P","P","P","P","P","P","P","P","P","P","P","P","P","P","P","P","P","P","P","P","P","P","P","P","P","P","P","P","P","P","P","P","P","P","P","P","P","P","P","P","P","P","P","P","P","P","P","P","P","P","P","P","P","P","P","P","P","P","P","P","P","P","P","P","P","P","P","P","P","P","P","P","P","P","P","P","P","P","P","P","P","P","P","P","P","P","P","P","P","P","P","P","P","P","P","P","P","P","P","P","P","P","P","P","P","P","P","P","P","P","P","P","P","P","P","P","P","P","P","P","P","P","P","P","P","P","P","P","P","P","P","P","P","P","P","P","P","P","P","P","P","P","P","P","P","P","P","P","P","P","P","P","P","P","P","P","P","P","P","P","P","P","P","P","P","P","P","P","P","P","P","P","P","P","P","P","P","P","P","P","P","P","P","P","P","P","P","P","P","P","P","P","P","P","P","P","P","P","P","P","P","P","P","P","P","P","P","P","P","P","P","P","P","P","P","P","P","P","P","P","P","P","P","P","P","P","P","P","P","P","P","P","P","P","P","P","P","P","P","P","P","P","P","P","P","P","P","P","P","P","P","P","P","P","P","P","P","P","P","P","P","P","P","P","P","P","P","P","P","P","P","P","P","P","P","P","P","P","P","P","P","P","P","P","P","P","P","P","P","P","P","P","P","P","P","P","P","P","P","P","P","P","P","P","P","P","P","P","P","P","P","P","P","P","P","P","P","P","P","P","P","P","P","P","P","P","P","P","P","P","P","P","P","P","P","P","P","P","P","P","P","P","P","P","P","P","P","P","P","P","P","P","P","P","P","P","P","P","P","P","P","P","P","P","P","P","P","P","P","P","P","P","P","P","P","P","P","P","P","P","P","P","P","P","P","P","P","P","P","P","P","P","P","P","P","P","P","P","P","P","P","P","P","P","P","P","P","P","P","P","P","P","P","P","P","P","P","P","P","P","P","P","P","P","P","P","P","P","P","P","P","P","P","P","P","P","P","P","P","P","P","P","P","P","P","P","P","?","O","?","?","?","?","?","?","?","?","?","?","?","?","?","?","?","?","?","?","?","?","?","?","?","?","G","G","G","G","G","G","G","G","G","G","G","G","G","G","G","G","?","?","?","?","?","?","?","?","?","?","?","X","X","?","W","?","?","?","?","?","?","?","?","?","?","?","?","?","?","?","?","?","?","?","?","U","U","U","U","U","U","U","U","U","U","U","U","U","U","U","U","U","U","U","U","U","U","?","?","?","?","?","?","?","?","?","?","?","?","?","?","?","?","?","?","?","?","?","?","?","?","?","?","?","?","?","?","?","?","?","?","?","?","?","?","?","?","?","?","?","?","?","?","?","?","?","?","?","?","?","?","?","?","?","T","T","T","T","T","T","T","T","T","T","T","T","T","T","T","T","T","T","T","T","T","T","T","T","T","T","T","T","T","T","T","T","T","T","T","T","T","T","T","T","T","T","T","T","T","T","T","T","T","T","T","T","T","T","T","T","T","T","T","T","T","T","T","T","T","T","T","T","T","T","T","T","T","T","T","T","T","T","T","T","T","T","T","T","T","T","T","T","T","T","T","T","T","T","T","T","T","T","T","T","T","T","T","T","T","T","T","T","T","T","T","T","T","T","T","T","T","T","T","T","T","T","T","T","T","T","T","T","T","T","T","T","T","T","T","T","T","T","T","T","T","T","T","T","T","T","T","T","T","T","T","T","T","T","T","T","T","T","T","T","T","T","T","T","T","T","T","T","T","T","T","T","T","T","T","T","T","T","T","T","T","T","I","I","I","I","I","I","I","I","I","I","I","I","I","I","I","I","I","I","I","I","I","I","I","I","I","I","I","I","I","I","I","I","I","I","I","I","I","I","I","I","I","I","I","I","I","I","I","I","I","I","I","I","I","I","I","I","I","I","I","I","I","I","I","I","I","I","I","I","I","I","I","I","I","I","I","I","I","I","I","I","I","I","I","I","I","I","I","I","I","I","I","I","I","I","I","I","I","I","I","I","I","I","I","I","I","I","I","I","I","I","I","I","I","I","I","I","I","I","I","I","I","I","I","I","I","I","I","I","I","I","I","I","I","I","I","I","I","I","I","I","I","I","I","I","I","G","G","G","G","G","G","G","G","G","G","G","G","G","G","G","G","G","G","G","G","G","G","G","G","G","G","G","G","G","G","G","G","G","G","G","G","G","G","G","G","G","G","G","G","G","G","G","G","G","G","G","G","G","G","G","G","G","G","G","G","G","G","G","G","G","G","G","G","G","G","G","G","G","G","G","G","G","G","G","G","G","G","G","G","G","G","G","G","G","E","E","E","E","E","E","E","E","E","E","E","E","E","E","E","E","E","E","E","E","E","E","E","E","E","E","E","E","E","E","E","E","E","E","E","E","E","E","E","E","E","E","E","E","E","E","E","E","E","E","E","E","E","E","E","E","E","E","E","E","E","E","E","E","E","E","E","E","E","E","E","E","E","E","E","E","E","E","E","E","E","E","E","E","E","E","E","E","E","E","E","E","E","E","E","E","E","E","E","E","E","E","E","E","E","E","E","E","E","E","E","E","E","E","E","E","E","E","E","E","E","E","E","E","E","E","E","E","E","E","E","E","E","E","E","E","E","E","E","E","E","E","E","E","E","E","E","E","E","E","E","E","E","E","E","E","E","E","E","E","E","E","E","E","E","E","E","E","E","E","E","E","E","E","E","E","E","E","E","E","E","E","E","E","R","R","R","R","R","R","R","R","R","R","R","R","R","R","R","R","R","R","R","R","R","R","R","R","R","R","R","R","R","R","R","R","R","R","R","R","R","R","R","R","R","R","R","R","R","R","R","R","R","R","R","R","R","R","R","R","R","R","R","R","R","R","R","R","R","R","R","R","R","R","T","T","T","T","T","T","T","T","T","T","T","T","T","T","T","T","T","T","T","T","T","T","T","T","T","T","T","T","T","T","T","T","T","T","T","T","T","T","T","T","T","T","T","T","T","T","T","T","T","T","T","T","T","T","T","T","T","T","T","T","T","T","T","T","T","T","T","T","T","T","T","T","T","T","T","T","T","T","T","T","T","T","T","T","T","T","T","T","T","T","T","T","T","T","T","T","T","T","T","T","T","T","T","T","T","T","T","T","T","T","T","T","T","T","T","T","T","T","T","T","T","T","T","T","T","T","T","T","T","T","T","T","T","T","T","T","T","T","T","T","T","T","T","T","T","T","T","T","T","T","T","T","T","T","T","T","T","T","T","T","T","T","T","T","T","T","T","T","T","T","T","T","T","T","T","T","T","T","T","T","T","T","T","T","T","T","T","T","T","T","T","T","T","T","T","T","T","T","T","T","T","T","T","T","T","T","T","T","T","T","T","T","T","T","T","T","T","T","T","T","T","T","T","T","T","T","T","T","T","T","T","T","T","T","T","T","T","T","T","T","T","T","T","T","T","T","T","T","T","T","T","T","T","T","T","T","T","T","T","T","T","T","T","T","T","T","T","T","T","T","T","T","T","T","T","T","T","T","T","T","T","T","T","T","T","T","T","T","T","T","T","T","T","T","T","T","T","T","T","T","T","T","T","T","T","T","T","T","T","T","T","T","T","T","T","T","T","T","T","T","T","T","T","T","T","T","T","T","T","T","T","T","T","T","T","T","T","T","T","T","T","T","T","T","T","T","T","T","T","T","T","T","T","T","T","T","T","T","T","T","T","T","T","T","T","T","T","T","T","T","T","T","T","T","T","T","T","T","T","T","T","T","T","T","T","T","T","T","T","T","T","T","T","T","T","T","T","T","T","T","T","T","T","T","T","T","T","T","T","T","T","T","T","T","T","T","T","T","T","T","T","T","T","T","T","T","T","T","T","T","T","T","T","T","T","T","T","T","T","T","T","T","T","T","T","T","T","T","T","T","T","T","T","T","T","T","T","T","T","T","T","T","T","T","T","T","T","T","T","T","T","T","T","T","T","T","T","T","T","T","T","T","T","T","T","T","T","T","T","T","T","T","T","T","T","T","T","T","T","T","T","T","T","T","T","T","T","T","T","T","T","T","T","T","T","T","T","T","T","T","T","T","T","T","T","T","T","T","T","T","T","T","T","T","T","T","T","T","T","T","T","T","T","T","T","T","T","T","T","T","T","T","T","T","T","T","T","T","T","T","T","T","T","T","T","T","T","T","T","T","T","T","T","T","T","T","T","T","T","T","T","T","T","T","T","T","T","T","T","T","T","T","T","T","T","T","T","T","T","T","T","T","T","T","T","T","T","T","T","T","T","T","T","T","T","T","T","T","T","T","T","T","T","T","T","T","T","T","T","T","T","T","T","T","T","T","T","T","T","T","T","T","T","T","T","T","T","T","T","T","T","T","T","T","T","T","T","T","T","T","T","T","T","T","T","T","T","T","T","T","T","T","T","T","T","T","T","T","T","T","T","T","T","T","T","T","T","T","T","T","T","T","T","T","T","T","T","T","T","Z","Z","Z","Z","Z","Z","Z","Z","Z","Z","Z","Z","Z","Z","Z","Z","Z","Z","Z","Z","Z","Z","Z","Z","Z","Z","Z","Z","Z","Z","Z","Z","Z","Z","Z","Z","Z","Z","Z","Z","Z","Z","Z","Z","Z","Z","Z","Z","Z","Z","Z","Z","Z","Z","Z","Z","Z","Z","Z","Z","Z","Z","Z","Z","Z","Z","Z","Z","Z","Z","Z","Z","Z","Z","Z","Z","Z","Z","Z","Z","Z","Z","Z","Z","Z","Z","Z","Z","Z","Z","Z","Z","Z","Z","Z","Z","Z","Z","Z","Z","Z","Z","Z","Z","Z","Z","Z","Z","Z","Z","B","B","B","B","B","B","B","B","B","B","B","B","B","B","B","B","B","B","B","B","B","B","B","B","B","B","B","B","B","B","B","B","B","B","B","B","B","B","B","B","B","B","B","B","B","B","B","B","B","B","B","B","B","B","B","B","B","B","B","B","B","B","B","B","B","B","B","B","B","B","B","A","A","A","A","A","A","A","A","A","A","A","A","A","A","A","A","A","A","A","A","A","A","A","A","A","A","A","A","A","A","A","A","A","A","A","A","A","A","A","A","A","A","A","A","A","A","A","A","A","A","A","A","A","A","A","A","A","A","A","A","A","A","A","A","A","A","A","A","A","A","A","A","A","A","A","A","A","A","A","A","A","A","A","A","A","A","A","A","A","A","A","A","A","A","A","A","A","A","A","A","A","A","A","A","A","A","A","A","A","A","A","A","A","A","A","A","A","A","A","A","A","A","A","A","A","A","A","A"],"t":[55,77,96,109,126,143,163,178,198,213,228,244,260,277,294,311,328,344,361,377,394,410,427,468,475,490,507,524,541,558,575,591,607,624,641,657,674,692,708,724,742,758,774,791,808,824,841,858,875,892,907,924,942,959,974,995,1008,1025,1041,1057,1074,1090,1109,1124,1141,1158,1175,1191,1206,1224,1240,1258,1274,1292,1308,1324,1341,1357,1375,1391,1407,1425,1442,1458,1476,1492,1509,1524,1542,1558,1575,1593,1608,1625,1642,1659,1676,1693,1709,1725,1747,1763,1780,1796,1813,1835,1851,1867,1881,1899,1912,1929,1945,1961,1978,2000,2013,2030,2046,2063,2079,2096,2111,2126,2143,2160,2177,2193,2211,2226,2243,2265,2278,2295,2312,2327,2344,2359,2375,2393,2410,2427,2446,2459,2476,2492,2509,2524,2542,2559,2575,2592,2610,2626,2643,2661,2676,2692,2709,2725,2743,2759,2774,2790,2807,2825,2846,2862,2880,2896,2913,2930,2946,2962,2979,2998,3017,3035,3054,3071,3086,3095,3113,3127,3143,3159,3178,3198,3218,3232,3246,3264,3285,3299,3317,3338,3355,3370,3395,3410,3429,3446,3463,3479,3498,3514,3529,3546,3563,3579,3596,3612,3629,3647,3661,3677,3692,3711,3727,3744,3760,3776,3793,3812,3828,3843,3860,3876,3894,3911,3926,3942,3958,3976,3993,4009,4025,4044,4058,4075,4091,4109,4126,4143,4161,4176,4192,4210,4226,4243,4260,4276,4292,4310,4325,4342,4358,4374,4391,4409,4425,4442,4464,4479,4495,4512,4529,4546,4562,4579,4595,4612,4631,4647,4663,4680,4695,4713,4727,4742,4760,4777,4793,4809,4826,4843,4861,4876,4892,4908,4926,4944,4961,4979,4998,5017,5035,5051,5066,5085,5103,5114,5129,5141,5158,5175,5192,5209,5224,5241,5258,5274,5291,5308,5326,5343,5360,5377,5394,5410,5429,5445,5460,5477,5498,5515,5532,5551,5566,5582,5600,5617,5632,5645,5658,5674,5691,5709,5727,5744,5760,5777,5795,5812,5828,5844,5862,5878,5895,5912,5926,5942,5958,5976,5994,6009,6025,6043,6060,6076,6093,6112,6124,6142,6160,6178,6195,6211,6228,6245,6260,6275,6293,6310,6326,6342,6360,6375,6394,6411,6428,6443,6461,6478,6493,6510,6526,6543,6560,6578,6595,6612,6629,6646,6664,6680,6697,6714,6730,6746,6761,6775,6793,6811,6825,6845,6861,6879,6894,6911,6929,6945,6961,6977,6998,7013,7029,7045,7061,7076,7096,7112,7128,7144,7160,7178,7193,7211,7227,7243,7262,7278,7295,7312,7330,7345,7362,7378,7394,7411,7426,7443,7461,7477,7495,7512,7529,7547,7567,7580,7594,7611,7625,7641,7657,7674,7694,7712,7729,7747,7762,7778,7793,7809,7826,7842,7859,7877,7893,7910,7927,7944,7959,7977,7994,8010,8027,8044,8059,8077,8093,8110,8127,8145,8159,8177,8193,8211,8227,8243,8260,8276,8294,8309,8326,8343,8359,8376,8393,8411,8426,8443,8460,8477,8492,8509,8527,8543,8560,8576,8594,8610,8627,8644,8659,8676,8694,8709,8726,8744,8759,8777,8794,8809,8827,8842,8860,8876,8894,8909,8927,8943,8959,8976,8996,9011,9029,9043,9063,9091,9110,9126,9143,9159,9176,9191,9210,9227,9243,9259,9275,9293,9310,9327,9344,9359,9376,9394,9410,9427,9444,9459,9476,9494,9510,9527,9544,9559,9577,9594,9610,9626,9644,9660,9677,9693,9710,9726,9744,9761,9777,9794,9810,9826,9844,9859,9877,9893,9911,9926,9944,9961,9977,9996,10013,10029,10045,10060,10076,10093,10110,10126,10146,10161,10176,10194,10209,10226,10243,10260,10278,10294,10311,10326,10343,10360,10377,10393,10410,10427,10444,10459,10476,10494,10510,10527,10545,10564,10576,10593,10610,10627,10643,10660,10677,10694,10710,10727,10743,10758,10775,10793,10810,10827,10844,10861,10877,10893,10910,10927,10943,10961,10977,10996,11011,11026,11044,11060,11076,11094,11110,11127,11144,11160,11176,11194,11211,11228,11243,11261,11277,11294,11310,11327,11344,11360,11377,11394,11410,11428,11444,11461,11477,11495,11510,11527,11544,11561,11577,11594,11610,11627,11644,11661,11678,11694,11710,11727,11743,11761,11778,11794,11812,11826,11843,11861,11877,11895,11910,11927,11944,11960,11977,11997,12011,12027,12045,12063,12075,12093,12111,12127,12143,12160,12178,12195,12210,12229,12243,12260,12277,12293,12309,12325,12343,12361,12377,12395,12411,12428,12444,12461,12478,12493,12511,12527,12543,12561,12578,12594,12611,12627,12643,12660,12677,12694,12710,12727,12744,12761,12778,12794,12810,12829,12844,12861,12878,12894,12911,12927,12944,12961,12978,12997,13011,13027,13045,13061,13077,13093,13112,13127,13145,13162,13179,13196,13212,13227,13245,13260,13277,13295,13310,13328,13344,13361,13377,13394,13412,13428,13444,13462,13477,13496,13515,13526,13545,13560,13577,13594,13612,13628,13645,13661,13678,13693,13711,13727,13745,13760,13777,13795,13811,13828,13844,13860,13876,13892,13909,13926,13944,13961,13978,13998,14013,14029,14044,14060,14077,14095,14110,14127,14143,14162,14177,14195,14212,14228,14245,14260,14279,14295,14310,14328,14344,14360,14378,14394,14412,14428,14444,14462,14477,14495,14512,14528,14544,14562,14577,14594,14612,14627,14645,14660,14678,14694,14711,14728,14744,14760,14777,14795,14812,14828,14844,14862,14878,14895,14911,14927,14944,14961,14979,15002,15014,15027,15044,15061,15077,15094,15111,15128,15145,15161,15177,15194,15212,15227,15244,15262,15278,15294,15312,15328,15345,15361,15378,15395,15410,15427,15443,15460,15477,15493,15511,15528,15545,15561,15578,15595,15612,15627,15644,15662,15677,15694,15711,15727,15746,15763,15778,15795,15811,15829,15844,15860,15877,15895,15912,15927,15944,15962,15977,15996,16011,16028,16045,16062,16078,16096,16112,16129,16144,16162,16179,16194,16212,16228,16245,16262,16277,16294,16312,16329,16345,16361,16378,16395,16411,16430,16447,16461,16478,16495,16511,16531,16545,16562,16577,16595,16612,16629,16645,16662,16678,16695,16712,16728,16744,16762,16778,16795,16812,16828,16845,16861,16879,16896,16912,16928,16945,16962,16978,16995,17010,17027,17043,17061,17077,17097,17111,17127,17145,17162,17178,17195,17211,17229,17246,17261,17279,17294,17312,17329,17345,17362,17378,17395,17411,17429,17444,17462,17479,17496,17512,17527,17547,17561,17579,17594,17611,17628,17644,17661,17678,17695,17712,17728,17746,17761,17778,17795,17811,17828,17845,17861,17880,17899,17911,17928,17945,17962,17979,17998,18012,18028,18046,18061,18078,18096,18113,18128,18144,18162,18179,18196,18211,18230,18246,18262,18278,18295,18311,18329,18344,18362,18379,18396,18413,18428,18445,18461,18479,18495,18512,18529,18546,18563,18577,18595,18610,18627,18645,18661,18677,18695,18712,18729,18745,18762,18778,18796,18812,18828,18845,18861,18881,18898,18915,18931,18946,18962,18980,18997,19012,19028,19044,19061,19079,19096,19111,19128,19145,19163,19178,19196,19213,19230,19246,19261,19281,19296,19312,19329,19346,19361,19380,19399,19411,19428,19445,19463,19479,19495,19513,19528,19546,19562,19579,19596,19613,19629,19646,19663,19679,19695,19712,19728,19746,19763,19779,19797,19812,19829,19845,19862,19878,19896,19913,19929,19945,19961,19979,19998,20012,20030,20046,20063,20078,20096,20112,20130,20144,20162,20177,20194,20210,20227,20245,20262,20278,20295,20312,20329,20346,20363,20378,20396,20413,20428,20445,20462,20480,20495,20512,20529,20545,20562,20578,20596,20612,20629,20646,20663,20680,20695,20712,20730,20745,20762,20779,20795,20813,20830,20847,20864,20879,20895,20912,20930,20946,20962,20980,20998,21013,21029,21047,21063,21080,21096,21113,21128,21145,21163,21178,21195,21213,21230,21246,21262,21278,21295,21313,21330,21345,21363,21380,21397,21413,21430,21445,21463,21480,21495,21513,21528,21545,21563,21580,21595,21612,21629,21647,21663,21680,21696,21712,21728,21744,21761,21778,21795,21812,21829,21846,21862,21879,21895,21913,21930,21946,21962,21980,21997,22013,22029,22046,22062,22080,22096,22112,22131,22145,22162,22179,22197,22213,22229,22246,22262,22279,22295,22313,22331,22347,22362,22378,22396,22413,22429,22447,22462,22480,22496,22513,22529,22546,22563,22579,22597,22612,22629,22645,22662,22680,22697,22713,22729,22747,22762,22780,22796,22813,22830,22845,22863,22879,22897,22913,22930,22947,22962,22980,23001,23014,23029,23047,23064,23079,23097,23114,23130,23147,23162,23180,23196,23213,23230,23245,23264,23279,23296,23311,23328,23344,23361,23379,23395,23413,23430,23446,23463,23480,23496,23514,23531,23547,23563,23580,23595,23613,23629,23647,23664,23679,23696,23714,23731,23746,23763,23780,23797,23814,23844,23863,23881,23898,23913,23929,23947,23964,23979,23999,24013,24030,24050,24065,24080,24096,24113,24131,24146,24163,24180,24196,24213,24231,24247,24264,24280,24297,24313,24331,24347,24363,24379,24397,24413,24430,24447,24464,24479,24497,24514,24530,24547,24564,24581,24596,24614,24631,24646,24663,24679,24696,24714,24731,24748,24764,24780,24796,24813,24831,24846,24863,24878,24895,24912,24930,24946,24964,24981,24999,25013,25031,25047,25063,25081,25098,25113,25130,25147,25163,25180,25197,25213,25231,25247,25277,25296,25314,25332,25347,25363,25381,25396,25414,25433,25448,25465,25479,25497,25514,25531,25547,25563,25581,25596,25614,25631,25648,25664,25681,25697,25715,25730,25747,25764,25781,25796,25814,25829,25847,25863,25881,25897,25913,25931,25947,25964,25979,25999,26014,26030,26047,26064,26081,26097,26113,26131,26149,26164,26180,26198,26213,26231,26248,26263,26281,26298,26314,26331,26347,26365,26380,26398,26415,26430,26446,26462,26479,26497,26513,26529,26547,26564,26582,26597,26614,26630,26648,26663,26681,26699,26714,26731,26749,26764,26781,26796,26814,26831,26847,26863,26881,26896,26914,26931,26948,26963,26982,27000,27015,27031,27047,27063,27081,27097,27114,27130,27148,27163,27181,27196,27214,27231,27247,27264,27282,27297,27314,27330,27347,27363,27381,27396,27414,27431,27448,27463,27481,27497,27513,27531,27546,27564,27580,27598,27613,27630,27646,27663,27678,27695,27711,27729,27746,27762,27779,27795,27811,27827,27844,27861,27878,27894,27912,27929,27944,27961,27979,27995,28011,28028,28046,28062,28079,28095,28111,28128,28145,28162,28179,28195,28211,28229,28245,28262,28279,28295,28312,28328,28345,28362,28378,28395,28411,28428,28444,28462,28478,28494,28512,28528,28545,28562,28578,28595,28612,28628,28645,28662,28679,28695,28712,28729,28746,28762,28778,28795,28811,28829,28845,28862,28879,28895,28912,28929,28946,28962,28978,28995,29012,29029,29045,29061,29078,29096,29112,29129,29146,29163,29179,29195,29212,29229,29245,29262,29278,29296,29311,29328,29345,29362,29378,29394,29412,29429,29445,29462,29479,29496,29513,29529,29546,29562,29578,29594,29611,29629,29645,29662,29679,29695,29713,29729,29745,29762,29778,29795,29813,29829,29845,29861,29879,29897,29913,29928,29945,29961,29979,29995,30012,30029,30045,30061,30079,30095,30113,30130,30146,30163,30179,30195,30213,30229,30246,30262,30279,30296,30313,30328,30346,30362,30379,30396,30413,30430,30446,30463,30479,30496,30512,30529,30545,30561,30578,30596,30613,30629,30646,30661,30679,30695,30712,30728,30746,30762,30779,30795,30812,30829,30846,30863,30879,30896,30912,30930,30946,30963,30980,30995,31012,31029,31046,31063,31079,31095,31113,31131,31146,31162,31179,31196,31213,31229,31246,31262,31280,31296,31313,31329,31346,31363,31380,31396,31413,31429,31445,31463,31479,31496,31512,31530,31546,31563,31580,31596,31613,31630,31646,31663,31680,31696,31713,31730,31746,31762,31780,31796,31813,31830,31846,31863,31880,31897,31913,31930,31946,31963,31981,31998,32012,32029,32047,32063,32080,32097,32113,32130,32147,32163,32180,32196,32213,32230,32247,32263,32280,32297,32313,32330,32347,32363,32380,32397,32413,32430,32447,32462,32480,32497,32514,32531,32547,32564,32580,32599,32618,32630,32646,32663,32679,32697,32713,32730,32747,32764,32781,32797,32813,32830,32847,32864,32880,32896,32913,32931,32947,32964,32982,32997,33014,33030,33048,33064,33081,33097,33114,33131,33147,33164,33181,33198,33214,33231,33247,33264,33281,33297,33314,33331,33348,33364,33381,33397,33414,33431,33447,33464,33481,33497,33514,33532,33548,33564,33582,33598,33615,33631,33647,33665,33682,33698,33714,33731,33748,33764,33781,33798,33815,33831,33848,33864,33882,33898,33914,33931,33948,33965,33982,34000,34015,34031,34047,34065,34081,34099,34116,34132,34148,34165,34181,34197,34213,34230,34247,34263,34281,34298,34315,34332,34347,34365,34381,34398,34414,34432,34447,34465,34482,34498,34515,34531,34548,34564,34582,34598,34615,34631,34648,34665,34681,34698,34714,34732,34749,34765,34782,34797,34814,34832,34849,34865,34883,34899,34915,34931,34949,34964,34982,35000,35015,35033,35050,35064,35082,35098,35114,35131,35148,35166,35182,35199,35215,35232,35248,35265,35282,35299,35316,35332,35348,35365,35382,35399,35415,35432,35449,35466,35482,35499,35515,35532,35550,35567,35585,35597,35615,35631,35648,35665,35681,35699,35716,35732,35747,35764,35781,35798,35815,35832,35848,35865,35882,35898,35914,35932,35949,35965,35984,36000,36015,36032,36049,36066,36082,36099,36116,36133,36148,36166,36184,36200,36216,36234,36249,36266,36282,36299,36317,36332,36349,36366,36383,36398,36416,36433,36449,36466,36483,36499,36516,36533,36549,36565,36583,36601,36616,36632,36650,36666,36682,36698,36715,36733,36750,36766,36783,36799,36817,36833,36849,36866,36883,36900,36916,36932,36950,36966,36984,37000,37016,37033,37049,37065,37084,37103,37115,37132,37149,37166,37183,37199,37215,37232,37250,37266,37282,37299,37316,37331,37348,37364,37382,37399,37415,37433,37448,37465,37483,37499,37515,37533,37549,37566,37582,37600,37618,37632,37650,37666,37682,37699,37716,37732,37750,37766,37783,37799,37816,37834,37849,37867,37883,37899,37916,37933,37950,37966,37985,38001,38016,38034,38048,38066,38082,38100,38117,38132,38150,38166,38182,38201,38216,38233,38250,38266,38285,38299,38316,38332,38351,38366,38383,38400,38417,38433,38449,38466,38483,38499,38516,38533,38549,38581,38591,38616,38633,38650,38667,38684,38699,38718,38733,38750,38767,38783,38799,38816,38834,38850,38866,38884,38899,38915,38931,38949,38966,38983,39002,39017,39034,39050,39066,39082,39099,39116,39133,39150,39167,39183,39200,39216,39233,39250,39266,39284,39300,39317,39332,39350,39367,39384,39401,39417,39434,39450,39467,39484,39501,39516,39533,39550,39566,39584,39600,39616,39634,39649,39666,39684,39700,39717,39734,39749,39766,39783,39800,39816,39833,39850,39866,39883,39901,39916,39933,39950,39967,39983,40000,40016,40035,40054,40066,40083,40100,40116,40133,40150,40167,40183,40199,40216,40233,40249,40267,40284,40299,40315,40334,40350,40366,40384,40401,40418,40434,40450,40466,40482,40499,40515,40533,40549,40565,40583,40600,40616,40633,40651,40667,40683,40700,40717,40733,40751,40766,40784,40801,40818,40833,40850,40867,40884,40900,40917,40933,40951,40966,40985,41002,41017,41034,41050,41067,41083,41100,41117,41133,41151,41166,41184,41199,41216,41233,41251,41267,41283,41301,41316,41334,41351,41367,41383,41401,41417,41433,41451,41467,41484,41504,41522,41536,41549,41567,41583,41601,41617,41633,41651,41668,41683,41701,41718,41734,41751,41768,41784,41800,41817,41833,41851,41866,41884,41901,41916,41934,41950,41966,41986,42000,42017,42033,42049,42065,42082,42099,42116,42133,42151,42168,42184,42200,42216,42234,42251,42267,42285,42300,42317,42334,42350,42366,42384,42400,42418,42434,42451,42467,42483,42501,42517,42533,42551,42568,42583,42601,42617,42633,42651,42667,42683,42701,42718,42735,42751,42768,42784,42801,42817,42834,42850,42867,42884,42901,42917,42933,42952,42968,42989,43002,43017,43033,43050,43068,43085,43100,43117,43134,43152,43167,43184,43201,43217,43235,43251,43267,43284,43301,43316,43333,43352,43368,43385,43401,43418,43434,43451,43467,43483,43501,43517,43534,43552,43568,43583,43599,43616,43632,43651,43668,43684,43700,43718,43735,43751,43767,43785,43801,43817,43835,43850,43867,43885,43901,43918,43935,43950,43968,43986,44001,44017,44035,44050,44069,44085,44103,44117,44134,44151,44167,44185,44201,44218,44234,44252,44268,44285,44300,44317,44335,44351,44368,44385,44400,44417,44435,44451,44469,44489,44502,44517,44533,44550,44569,44584,44601,44617,44634,44652,44667,44684,44702,44719,44734,44751,44768,44784,44802,44818,44834,44852,44868,44885,44902,44919,44934,44952,44968,44986,45001,45018,45035,45051,45069,45086,45101,45117,45134,45150,45167,45182,45200,45217,45233,45251,45268,45284,45304,45320,45337,45351,45367,45385,45402,45417,45434,45451,45468,45484,45502,45518,45534,45552,45567,45584,45602,45617,45634,45651,45668,45684,45702,45718,45736,45752,45769,45786,45801,45818,45835,45850,45869,45885,45901,45919,45936,45954,45967,45986,46001,46018,46035,46052,46068,46085,46102,46119,46135,46151,46169,46184,46202,46218,46237,46252,46267,46284,46303,46318,46335,46351,46368,46385,46401,46419,46434,46452,46468,46485,46502,46519,46535,46552,46569,46584,46602,46619,46635,46652,46667,46684,46702,46717,46734,46750,46767,46783,46801,46818,46835,46852,46868,46886,46901,46919,46935,46951,46967,46987,47001,47018,47035,47052,47069,47086,47102,47118,47136,47151,47168,47185,47201,47219,47235,47252,47268,47285,47301,47319,47335,47351,47368,47386,47402,47418,47437,47456,47468,47484,47501,47517,47535,47552,47569,47584,47602,47619,47636,47652,47668,47684,47702,47718,47734,47753,47769,47784,47803,47818,47834,47852,47868,47885,47902,47919,47935,47952,47969,47985,48002,48019,48034,48052,48070,48086,48102,48119,48135,48152,48168,48185,48201,48218,48234,48252,48269,48286,48302,48317,48334,48351,48368,48385,48402,48418,48436,48452,48469,48486,48502,48518,48535,48552,48569,48586,48602,48618,48636,48651,48669,48688,48702,48719,48736,48751,48768,48786,48803,48819,48835,48853,48869,48886,48903,48922,48934,48952,48969,48989,49002,49018,49035,49052,49069,49085,49103,49118,49135,49153,49168,49186,49203,49218,49236,49253,49269,49285,49302,49319,49336,49352,49368,49385,49402,49419,49435,49452,49468,49486,49502,49519,49535,49552,49570,49586,49602,49619,49635,49652,49668,49686,49702,49719,49736,49753,49768,49785,49803,49819,49836,49852,49868,49884,49900,49918,49935,49951,49969,49987,50002,50019,50036,50052,50069,50085,50102,50119,50136,50153,50170,50186,50202,50219,50236,50252,50268,50286,50303,50319,50336,50352,50370,50388,50402,50418,50435,50453,50468,50485,50503,50518,50535,50553,50570,50585,50602,50619,50636,50653,50668,50686,50703,50720,50736,50753,50769,50786,50803,50818,50835,50853,50868,50886,50902,50920,50936,50953,50968,50989,51002,51019,51035,51053,51071,51086,51103,51120,51136,51153,51169,51186,51202,51220,51235,51252,51270,51287,51303,51319,51335,51353,51370,51386,51404,51418,51434,51450,51468,51484,51502,51518,51536,51553,51570,51586,51603,51619,51637,51653,51670,51686,51702,51719,51735,51753,51769,51787,51803,51820,51838,51855,51869,51885,51903,51918,51936,51954,51969,51989,52002,52020,52036,52052,52069,52087,52103,52120,52137,52153,52170,52187,52202,52219,52236,52253,52269,52287,52303,52320,52337,52353,52369,52386,52403,52419,52436,52453,52469,52486,52502,52520,52536,52553,52570,52587,52603,52620,52635,52653,52670,52686,52703,52720,52737,52752,52769,52785,52804,52819,52837,52852,52869,52887,52902,52920,52936,52954,52970,52985,53002,53018,53035,53052,53069,53086,53103,53120,53135,53153,53169,53185,53204,53221,53237,53253,53271,53286,53304,53326,53337,53353,53370,53387,53403,53420,53436,53453,53469,53488,53504,53520,53536,53553,53569,53586,53604,53619,53636,53653,53670,53686,53704,53721,53737,53753,53770,53787,53804,53820,53836,53852,53870,53886,53903,53919,53936,53953,53970,53989,54005,54021,54037,54052,54069,54087,54104,54121,54136,54154,54170,54188,54203,54220,54237,54255,54272,54287,54303,54320,54337,54353,54369,54386,54403,54421,54436,54454,54470,54487,54503,54523,54539,54556,54570,54585,54601,54619,54636,54652,54669,54687,54703,54721,54737,54754,54769,54788,54804,54821,54836,54853,54870,54888,54903,54919,54936,54954,54971,54987,55008,55020,55037,55053,55072,55086,55104,55120,55139,55153,55171,55187,55203,55221,55236,55253,55271,55286,55304,55321,55337,55354,55369,55387,55404,55420,55437,55453,55471,55486,55503,55520,55537,55553,55571,55587,55603,55619,55636,55654,55670,55687,55703,55720,55737,55753,55770,55787,55803,55820,55837,55854,55870,55886,55904,55920,55937,55954,55971,55990,56004,56022,56039,56055,56071,56088,56104,56121,56135,56152,56168,56186,56201,56219,56236,56253,56270,56287,56303,56321,56340,56353,56371,56387,56404,56421,56437,56453,56470,56486,56503,56520,56538,56554,56570,56587,56603,56621,56639,56653,56671,56687,56704,56721,56737,56754,56770,56788,56805,56820,56838,56853,56871,56888,56904,56921,56938,56954,56970,56990,57005,57020,57036,57054,57072,57087,57104,57120,57137,57154,57170,57188,57204,57220,57238,57253,57270,57288,57304,57321,57337,57354,57370,57388,57406,57420,57438,57455,57470,57486,57504,57521,57538,57554,57571,57587,57604,57620,57637,57653,57671,57689,57703,57720,57736,57752,57769,57786,57804,57821,57837,57854,57871,57887,57903,57921,57938,57954,57971,57991,58006,58020,58038,58054,58071,58087,58104,58120,58137,58154,58170,58187,58206,58221,58238,58255,58271,58288,58304,58323,58337,58354,58371,58387,58404,58420,58437,58454,58470,58487,58505,58521,58537,58554,58571,58588,58604,58621,58638,58653,58671,58687,58705,58721,58738,58754,58771,58788,58804,58821,58838,58854,58871,58887,58903,58921,58939,58954,58971,58990,59005,59020,59040,59054,59072,59088,59105,59122,59137,59154,59171,59187,59204,59221,59238,59254,59270,59287,59310,59321,59336,59353,59370,59386,59404,59420,59437,59454,59471,59487,59503,59520,59537,59556,59572,59588,59604,59622,59637,59655,59671,59687,59705,59721,59738,59755,59770,59788,59805,59820,59839,59854,59870,59887,59904,59922,59938,59954,59970,59989,60006,60021,60038,60055,60071,60089,60106,60121,60138,60154,60172,60187,60205,60221,60238,60255,60271,60287,60304,60322,60338,60354,60371,60388,60405,60422,60437,60455,60471,60488,60504,60521,60537,60555,60572,60589,60604,60622,60639,60654,60671,60688,60705,60722,60739,60756,60775,60789,60804,60821,60837,60854,60870,60886,60903,60920,60937,60954,60971,60990,61005,61022,61038,61054,61070,61087,61103,61120,61137,61153,61170,61187,61203,61219,61236,61253,61269,61286,61302,61319,61336,61352,61369,61387,61403,61420,61437,61452,61470,61486,61503,61519,61536,61552,61570,61586,61602,61619,61636,61653,61671,61687,61703,61720,61737,61753,61770,61787,61803,61820,61837,61853,61869,61887,61903,61920,61935,61952,61969,61987,62003,62020,62035,62052,62069,62085,62102,62119,62136,62153,62169,62186,62204,62220,62237,62254,62270,62286,62303,62320,62336,62353,62369,62387,62403,62420,62437,62453,62469,62486,62502,62519,62536,62552,62569,62586,62602,62619,62636,62653,62669,62687,62703,62720,62737,62753,62769,62785,62802,62819,62836,62852,62869,62886,62902,62920,62936,62952,62970,62987,63004,63020,63037,63053,63069,63087,63103,63119,63136,63152,63169,63187,63204,63219,63237,63252,63271,63287,63303,63320,63337,63354,63370,63386,63404,63420,63437,63454,63470,63487,63503,63519,63537,63554,63570,63586,63603,63619,63637,63653,63669,63686,63703,63722,63737,63754,63769,63786,63803,63819,63835,63852,63869,63886,63903,63919,63936,63953,63970,63987,64003,64019,64036,64052,64069,64086,64104,64120,64137,64153,64169,64187,64202,64220,64237,64252,64270,64287,64303,64319,64337,64354,64369,64387,64404,64419,64437,64454,64470,64487,64504,64521,64537,64553,64569,64587,64603,64619,64638,64654,64670,64686,64704,64719,64736,64753,64770,64786,64803,64820,64837,64853,64870,64886,64903,64920,64937,64953,64970,64987,65004,65020,65037,65053,65070,65087,65104,65120,65137,65153,65170,65189,65203,65220,65237,65254,65270,65287,65303,65320,65337,65353,65370,65388,65404,65420,65437,65454,65470,65487,65503,65520,65537,65554,65570,65587,65604,65621,65637,65654,65671,65687,65704,65721,65737,65754,65771,65787,65803,65821,65837,65854,65870,65887,65903,65921,65938,65953,65972,65989,66004,66021,66038,66054,66072,66088,66104,66128,66140,66155,66171,66188,66204,66222,66238,66254,66271,66288,66306,66322,66338,66355,66371,66388,66406,66422,66439,66455,66471,66489,66504,66521,66538,66555,66572,66589,66605,66622,66638,66656,66674,66688,66705,66722,66738,66754,66771,66787,66804,66822,66838,66855,66871,66887,66904,66921,66938,66954,66972,66989,67005,67022,67039,67055,67070,67087,67104,67120,67138,67155,67172,67188,67205,67222,67239,67255,67272,67288,67306,67321,67338,67355,67372,67388,67405,67422,67439,67455,67472,67488,67505,67522,67538,67555,67572,67588,67605,67622,67638,67656,67672,67689,67705,67722,67738,67755,67772,67788,67805,67821,67839,67855,67873,67889,67905,67922,67939,67955,67972,67990,68006,68023,68039,68057,68072,68089,68106,68124,68139,68155,68171,68189,68205,68222,68239,68255,68272,68288,68306,68323,68341,68356,68372,68389,68406,68423,68438,68456,68473,68488,68505,68522,68538,68555,68573,68590,68606,68622,68638,68655,68672,68689,68706,68722,68739,68756,68773,68789,68806,68823,68839,68855,68873,68889,68906,68923,68940,68957,68972,68992,69006,69022,69039,69055,69073,69091,69107,69123,69139,69156,69172,69190,69206,69223,69240,69256,69273,69290,69306,69322,69340,69356,69373,69391,69405,69422,69439,69456,69473,69490,69506,69523,69540,69557,69572,69590,69606,69624,69643,69657,69673,69689,69706,69723,69740,69756,69773,69790,69806,69824,69839,69856,69873,69890,69907,69924,69940,69957,69973,69992,70006,70023,70040,70057,70073,70091,70107,70123,70139,70159,70172,70190,70204,70222,70239,70256,70272,70289,70307,70323,70340,70356,70374,70390,70407,70423,70440,70457,70473,70490,70507,70523,70540,70557,70574,70590,70606,70623,70640,70657,70674,70692,70707,70725,70740,70756,70773,70791,70806,70823,70840,70856,70874,70890,70907,70923,70941,70957,70974,70991,71006,71023,71041,71057,71074,71090,71108,71127,71140,71157,71173,71190,71206,71224,71241,71257,71274,71290,71306,71324,71341,71357,71373,71391,71407,71424,71441,71457,71474,71490,71507,71523,71541,71557,71574,71591,71606,71624,71640,71657,71673,71691,71708,71725,71741,71757,71773,71788,71806,71822,71840,71856,71874,71890,71906,71924,71940,71957,71974,71994,72007,72023,72041,72058,72074,72091,72106,72123,72141,72157,72174,72191,72207,72224,72241,72257,72276,72291,72308,72323,72341,72357,72374,72391,72407,72424,72440,72457,72474,72491,72507,72523,72540,72557,72574,72591,72609,72628,72640,72656,72674,72691,72707,72723,72741,72757,72773,72790,72808,72825,72841,72858,72874,72891,72907,72925,72940,72957,72974,72995,73008,73024,73041,73057,73074,73091,73107,73123,73140,73157,73174,73191,73209,73226,73242,73257,73274,73291,73307,73323,73340,73356,73373,73390,73407,73423,73440,73457,73474,73491,73508,73524,73541,73557,73575,73591,73608,73624,73642,73657,73675,73691,73707,73724,73741,73758,73775,73790,73808,73824,73842,73858,73875,73891,73907,73925,73941,73957,73975,73993,74008,74024,74041,74059,74078,74090,74108,74124,74142,74158,74175,74191,74207,74225,74241,74258,74275,74291,74309,74324,74340,74358,74374,74392,74408,74425,74441,74459,74474,74492,74508,74525,74540,74558,74575,74591,74608,74624,74642,74658,74675,74690,74707,74724,74742,74758,74774,74792,74808,74824,74842,74857,74873,74890,74906,74923,74939,74957,74975,74993,75007,75025,75041,75059,75075,75092,75107,75125,75141,75158,75175,75191,75208,75224,75242,75257,75274,75291,75307,75325,75341,75358,75374,75392,75410,75424,75444,75464,75476,75491,75507,75527,75542,75557,75574,75592,75607,75624,75641,75659,75676,75691,75709,75725,75741,75758,75775,75792,75808,75826,75842,75858,75874,75892,75908,75924,75941,75957,75975,75995,76009,76024,76042,76058,76075,76091,76109,76125,76141,76158,76175,76191,76207,76225,76241,76258,76274,76292,76307,76326,76342,76358,76374,76392,76409,76425,76442,76457,76473,76490,76508,76524,76541,76557,76575,76592,76609,76624,76642,76658,76675,76691,76708,76724,76741,76758,76774,76792,76808,76825,76843,76858,76875,76892,76908,76925,76943,76962,76974,76992,77008,77024,77042,77058,77075,77092,77108,77126,77142,77158,77176,77192,77208,77224,77241,77258,77274,77293,77308,77325,77341,77357,77376,77392,77409,77425,77442,77460,77475,77492,77508,77525,77541,77559,77576,77592,77609,77625,77641,77659,77674,77692,77708,77725,77742,77758,77774,77792,77808,77826,77841,77858,77874,77892,77908,77925,77941,77958,77975,77994,78008,78024,78040,78057,78074,78091,78108,78125,78142,78158,78175,78192,78209,78225,78241,78258,78275,78293,78308,78325,78343,78361,78376,78392,78410,78429,78442,78458,78475,78492,78509,78525,78542,78559,78576,78591,78609,78625,78642,78659,78675,78691,78709,78725,78743,78758,78776,78794,78808,78825,78841,78858,78876,78892,78909,78925,78942,78959,78975,78997,79009,79025,79043,79059,79075,79091,79109,79129,79142,79160,79176,79193,79209,79225,79243,79258,79276,79293,79309,79326,79342,79360,79375,79394,79409,79425,79441,79459,79475,79492,79508,79526,79542,79559,79574,79591,79607,79624,79641,79658,79674,79693,79709,79726,79742,79759,79775,79793,79810,79826,79843,79860,79876,79896,79908,79925,79942,79959,79975,79995,80010,80026,80042,80060,80076,80093,80108,80125,80143,80159,80176,80193,80209,80228,80244,80262,80276,80292,80308,80325,80342,80360,80376,80392,80408,80426,80442,80460,80476,80493,80508,80526,80542,80559,80575,80592,80608,80626,80643,80660,80675,80692,80710,80726,80742,80759,80777,80792,80809,80826,80842,80859,80876,80893,80908,80925,80943,80959,80977,80995,81010,81026,81042,81060,81075,81093,81110,81126,81142,81157,81174,81192,81210,81226,81242,81260,81277,81293,81310,81326,81343,81359,81377,81397,81409,81425,81443,81459,81476,81492,81510,81525,81543,81559,81577,81593,81610,81625,81643,81660,81675,81693,81710,81726,81743,81759,81776,81793,81810,81827,81843,81859,81875,81893,81909,81926,81943,81959,81975,81996,82009,82026,82042,82058,82075,82093,82110,82126,82143,82159,82177,82193,82210,82227,82243,82261,82277,82292,82310,82326,82343,82361,82376,82395,82409,82427,82443,82460,82477,82493,82509,82526,82543,82560,82575,82594,82610,82627,82643,82659,82677,82691,82709,82725,82741,82759,82776,82793,82809,82828,82844,82863,82875,82892,82909,82926,82942,82960,82976,82995,83010,83027,83044,83060,83077,83093,83109,83126,83143,83159,83176,83193,83209,83227,83244,83259,83278,83294,83310,83326,83343,83360,83378,83392,83411,83426,83443,83459,83477,83493,83509,83526,83543,83561,83577,83594,83609,83626,83644,83660,83676,83694,83711,83727,83743,83760,83776,83793,83810,83826,83844,83859,83877,83893,83910,83926,83944,83960,83977,83997,84012,84025,84043,84060,84077,84093,84110,84126,84143,84159,84177,84194,84209,84227,84244,84260,84276,84292,84309,84328,84343,84359,84375,84392,84410,84426,84444,84461,84478,84494,84511,84527,84543,84560,84577,84593,84611,84627,84643,84660,84677,84692,84710,84726,84744,84761,84777,84793,84810,84827,84843,84861,84877,84894,84910,84927,84944,84959,84976,84997,85012,85027,85044,85060,85077,85094,85110,85126,85144,85161,85178,85194,85210,85227,85244,85260,85277,85294,85310,85326,85344,85361,85376,85393,85411,85427,85444,85461,85477,85493,85510,85527,85544,85560,85577,85593,85611,85627,85643,85660,85676,85693,85709,85727,85743,85761,85778,85793,85810,85828,85847,85859,85875,85892,85909,85926,85943,85959,85977,85996,86009,86026,86044,86061,86077,86093,86111,86127,86144,86161,86177,86194,86212,86228,86244,86260,86278,86294,86310,86326,86344,86360,86377,86393,86410,86427,86443,86461,86478,86494,86511,86527,86544,86560,86578,86594,86611,86627,86643,86661,86677,86694,86711,86728,86744,86760,86777,86794,86811,86828,86844,86861,86877,86894,86911,86928,86943,86961,86978,86996,87011,87028,87044,87060,87077,87093,87111,87129,87144,87161,87177,87194,87211,87228,87244,87260,87277,87294,87313,87328,87344,87360,87377,87393,87410,87427,87442,87459,87476,87494,87510,87527,87544,87561,87578,87593,87611,87627,87645,87661,87678,87693,87711,87727,87744,87761,87777,87794,87810,87827,87845,87862,87877,87893,87911,87928,87945,87960,87977,87997,88012,88028,88043,88061,88077,88095,88111,88128,88145,88161,88178,88195,88213,88231,88245,88260,88278,88295,88310,88327,88345,88360,88380,88394,88411,88427,88444,88461,88478,88494,88511,88528,88544,88560,88577,88595,88610,88627,88645,88661,88677,88694,88711,88728,88744,88761,88777,88794,88812,88831,88843,88861,88877,88894,88911,88927,88945,88960,88977,88994,89010,89026,89043,89060,89076,89094,89111,89127,89144,89161,89177,89194,89212,89228,89245,89261,89277,89295,89312,89328,89344,89362,89378,89395,89410,89430,89444,89460,89477,89494,89511,89528,89544,89562,89577,89595,89612,89628,89644,89660,89677,89694,89712,89727,89745,89761,89779,89795,89812,89827,89845,89862,89878,89894,89912,89927,89944,89960,89977,89997,90012,90028,90044,90062,90077,90094,90111,90127,90144,90162,90177,90194,90211,90227,90244,90262,90277,90296,90316,90328,90345,90361,90379,90394,90412,90428,90446,90461,90477,90495,90511,90527,90545,90561,90577,90593,90610,90627,90643,90661,90678,90694,90712,90728,90744,90762,90778,90794,90812,90829,90845,90862,90879,90894,90911,90929,90945,90962,90977,90997,91011,91029,91045,91061,91079,91094,91111,91128,91145,91161,91179,91195,91212,91227,91244,91263,91278,91296,91311,91328,91344,91362,91379,91395,91412,91428,91446,91461,91480,91496,91512,91528,91545,91562,91577,91595,91612,91628,91644,91662,91678,91694,91712,91727,91745,91762,91780,91800,91813,91828,91845,91861,91879,91897,91915,91932,91946,91962,91977,91995,92011,92028,92044,92061,92078,92096,92112,92127,92144,92160,92177,92193,92212,92227,92245,92262,92279,92294,92311,92328,92345,92361,92378,92396,92413,92429,92445,92462,92478,92496,92511,92529,92546,92563,92578,92595,92611,92629,92646,92661,92678,92694,92713,92729,92745,92762,92778,92795,92813,92830,92846,92863,92878,92895,92913,92929,92946,92963,92979,92998,93012,93028,93045,93061,93079,93095,93113,93129,93144,93161,93179,93196,93212,93229,93247,93264,93279,93294,93311,93328,93345,93362,93379,93396,93413,93429,93446,93462,93479,93495,93512,93528,93546,93563,93579,93596,93613,93630,93645,93663,93678,93695,93710,93727,93743,93760,93778,93795,93812,93828,93845,93863,93879,93895,93913,93928,93946,93961,93980,93999,94013,94029,94045,94065,94079,94096,94113,94128,94146,94163,94179,94196,94213,94229,94245,94263,94280,94296,94313,94328,94346,94362,94379,94396,94413,94429,94445,94461,94479,94495,94512,94529,94546,94562,94579,94596,94612,94628,94646,94662,94679,94695,94713,94728,94746,94765,94783,94796,94812,94829,94846,94862,94878,94895,94913,94928,94946,94963,94978,94996,95011,95028,95043,95061,95078,95094,95110,95126,95144,95160,95177,95193,95210,95228,95244,95261,95277,95294,95311,95328,95343,95360,95377,95393,95410,95426,95444,95461,95477,95493,95510,95526,95544,95560,95577,95594,95610,95626,95644,95661,95678,95695,95710,95727,95744,95761,95778,95794,95811,95827,95844,95860,95877,95894,95911,95927,95943,95960,95977,95994,96011,96027,96044,96060,96077,96093,96110,96128,96144,96160,96176,96194,96210,96228,96244,96263,96277,96295,96311,96328,96344,96360,96377,96394,96411,96427,96443,96460,96476,96493,96510,96527,96543,96560,96576,96593,96611,96627,96644,96660,96678,96694,96711,96728,96743,96761,96777,96794,96811,96828,96844,96860,96877,96893,96910,96927,96943,96959,96976,96994,97011,97028,97045,97060,97078,97094,97110,97127,97143,97161,97177,97194,97212,97228,97244,97260,97278,97293,97311,97328,97344,97360,97377,97395,97410,97428,97444,97460,97478,97494,97511,97527,97544,97561,97577,97593,97610,97628,97645,97660,97678,97694,97713,97727,97745,97760,97777,97794,97810,97828,97844,97860,97878,97895,97911,97928,97944,97961,97978,97994,98011,98027,98044,98061,98077,98093,98111,98127,98144,98160,98178,98194,98210,98227,98244,98261,98278,98293,98311,98328,98344,98360,98376,98393,98410,98427,98443,98461,98477,98495,98510,98527,98543,98561,98576,98594,98611,98628,98644,98660,98678,98694,98710,98728,98745,98762,98778,98795,98810,98828,98845,98862,98878,98895,98911,98928,98944,98961,98978,98995,99011,99028,99045,99061,99078,99094,99111,99128,99145,99161,99180,99195,99212,99228,99244,99262,99277,99295,99311,99328,99345,99361,99378,99395,99411,99428,99445,99461,99478,99494,99511,99527,99545,99561,99578,99594,99611,99628,99645,99662,99678,99695,99711,99729,99744,99761,99778,99794,99812,99829,99844,99862,99878,99895,99911,99928,99944,99962,99978,99995,100012,100028,100045,100062,100079,100095,100112,100129,100145,100162,100178,100195,100212,100229,100245,100262,100278,100295,100312,100329,100345,100362,100379,100394,100412,100429,100445,100462,100479,100495,100512,100529,100545,100563,100579,100595,100612,100630,100648,100662,100679,100695,100712,100729,100745,100763,100779,100796,100813,100830,100846,100862,100879,100896,100913,100929,100946,100962,100979,100996,101013,101029,101046,101063,101080,101096,101113,101130,101146,101162,101180,101196,101213,101230,101246,101263,101280,101296,101312,101330,101346,101363,101380,101396,101413,101430,101446,101462,101478,101495,101512,101529,101546,101562,101579,101596,101612,101630,101646,101663,101680,101696,101713,101730,101746,101762,101780,101797,101813,101830,101846,101863,101880,101896,101913,101930,101947,101963,101980,101997,102013,102030,102046,102064,102079,102096,102114,102131,102147,102163,102180,102197,102213,102230,102246,102262,102279,102297,102314,102330,102346,102363,102380,102397,102413,102430,102446,102464,102480,102497,102514,102530,102546,102563,102580,102597,102614,102631,102647,102663,102680,102697,102714,102731,102746,102764,102780,102797,102813,102830,102846,102864,102880,102897,102914,102931,102946,102964,102981,102998,103014,103029,103046,103062,103080,103097,103114,103130,103146,103163,103179,103197,103215,103231,103246,103264,103280,103298,103313,103331,103347,103364,103381,103397,103414,103430,103447,103464,103481,103496,103514,103530,103548,103564,103580,103598,103614,103632,103650,103664,103680,103697,103714,103731,103747,103764,103781,103797,103813,103830,103847,103864,103880,103897,103913,103931,103947,103963,103981,103997,104014,104031,104047,104063,104081,104097,104114,104131,104147,104165,104181,104198,104213,104231,104248,104264,104281,104298,104314,104331,104347,104365,104380,104398,104414,104431,104448,104464,104481,104497,104513,104530,104547,104564,104580,104597,104613,104630,104646,104663,104681,104697,104714,104731,104747,104764,104781,104797,104814,104831,104848,104863,104881,104897,104914,104931,104947,104964,104981,105000,105014,105030,105048,105065,105081,105098,105113,105132,105150,105164,105181,105197,105215,105231,105247,105265,105281,105298,105314,105331,105348,105365,105381,105397,105415,105431,105447,105464,105481,105497,105515,105531,105548,105565,105582,105597,105615,105632,105648,105665,105681,105698,105714,105731,105748,105764,105782,105798,105815,105832,105847,105864,105882,105898,105915,105932,105948,105965,105982,106000,106015,106032,106048,106065,106082,106098,106114,106131,106147,106163,106180,106196,106214,106231,106248,106265,106282,106298,106314,106331,106349,106365,106381,106397,106415,106431,106448,106464,106481,106498,106514,106531,106547,106565,106581,106598,106617,106633,106647,106664,106681,106698,106714,106731,106748,106765,106781,106798,106814,106832,106847,106865,106882,106898,106914,106932,106949,106964,106981,106999,107014,107032,107049,107065,107082,107099,107115,107132,107148,107165,107182,107199,107215,107232,107249,107266,107282,107298,107315,107332,107349,107365,107381,107399,107414,107432,107448,107465,107481,107498,107515,107532,107548,107564,107582,107598,107614,107631,107649,107665,107683,107697,107714,107730,107746,107764,107781,107798,107815,107832,107848,107864,107882,107898,107915,107932,107948,107965,107982,108001,108014,108032,108049,108065,108083,108102,108114,108131,108149,108165,108182,108199,108216,108232,108248,108266,108282,108299,108316,108332,108349,108366,108382,108399,108418,108432,108448,108465,108483,108498,108516,108531,108549,108565,108583,108600,108615,108632,108650,108666,108682,108700,108715,108732,108749,108766,108783,108799,108815,108832,108849,108866,108882,108900,108916,108932,108948,108966,108984,108999,109016,109031,109048,109065,109082,109099,109117,109132,109148,109166,109182,109199,109216,109232,109248,109266,109281,109297,109314,109332,109348,109365,109382,109399,109416,109432,109450,109466,109484,109500,109515,109531,109548,109566,109581,109599,109617,109631,109649,109666,109682,109700,109716,109733,109749,109766,109783,109800,109816,109833,109850,109865,109883,109901,109916,109933,109949,109965,109983,109998,110015,110033,110049,110065,110083,110098,110117,110133,110150,110165,110183,110198,110215,110232,110248,110266,110283,110301,110316,110333,110351,110366,110383,110399,110417,110433,110449,110466,110483,110500,110515,110532,110551,110566,110582,110599,110616,110633,110649,110665,110683,110700,110717,110733,110749,110765,110783,110799,110817,110832,110847,110863,110881,110898,110914,110933,110949,110966,110986,111000,111016,111032,111050,111066,111082,111100,111119,111132,111149,111165,111183,111200,111215,111232,111250,111266,111283,111300,111315,111332,111350,111366,111382,111399,111415,111432,111450,111465,111483,111501,111516,111532,111550,111567,111583,111600,111615,111633,111649,111668,111683,111700,111715,111733,111750,111766,111782,111800,111816,111833,111849,111867,111884,111899,111916,111932,111949,111966,111985,112000,112017,112033,112050,112066,112083,112099,112117,112134,112149,112167,112182,112200,112217,112233,112249,112267,112283,112300,112316,112333,112350,112366,112384,112399,112415,112431,112448,112465,112483,112500,112515,112533,112549,112567,112583,112600,112618,112633,112654,112682,112699,112716,112733,112750,112766,112783,112799,112816,112834,112849,112866,112884,112899,112917,112934,112950,112966,112983,113001,113017,113032,113050,113066,113083,113101,113117,113133,113149,113167,113184,113199,113217,113234,113249,113266,113283,113300,113316,113332,113350,113367,113383,113400,113418,113433,113451,113466,113482,113499,113517,113533,113550,113567,113583,113600,113616,113635,113650,113667,113683,113700,113717,113734,113749,113767,113782,113799,113816,113833,113850,113867,113884,113901,113917,113933,113951,113966,113983,114000,114015,114032,114049,114065,114083,114099,114116,114134,114151,114172,114184,114200,114216,114234,114250,114266,114284,114301,114316,114336,114350,114367,114384,114400,114416,114433,114450,114467,114484,114499,114518,114533,114550,114569,114583,114600,114617,114633,114649,114666,114683,114700,114716,114733,114751,114767,114784,114800,114817,114833,114851,114866,114884,114899,114916,114934,114950,114967,114984,115001,115016,115034,115050,115067,115084,115100,115117,115134,115150,115166,115184,115202,115217,115234,115250,115267,115283,115300,115317,115334,115350,115366,115384,115401,115416,115434,115450,115467,115484,115500,115517,115533,115549,115565,115582,115599,115616,115632,115651,115669,115683,115700,115717,115735,115751,115767,115784,115800,115817,115834,115850,115867,115884,115901,115918,115933,115950,115967,115986,116004,116019,116035,116050,116067,116083,116100,116118,116134,116150,116166,116184,116200,116218,116233,116250,116268,116284,116301,116317,116333,116350,116366,116384,116401,116417,116434,116451,116466,116484,116500,116518,116534,116550,116569,116584,116601,116617,116633,116651,116667,116684,116701,116718,116733,116751,116768,116783,116801,116817,116834,116851,116867,116884,116901,116917,116934,116950,116968,116984,117002,117017,117034,117051,117067,117084,117100,117118,117133,117151,117166,117182,117200,117216,117233,117251,117267,117284,117301,117317,117334,117351,117367,117383,117401,117417,117434,117451,117467,117484,117501,117517,117533,117551,117567,117585,117600,117617,117635,117651,117667,117684,117700,117718,117733,117751,117767,117784,117801,117818,117835,117850,117867,117884,117901,117918,117935,117950,117968,117987,118001,118017,118034,118051,118067,118083,118102,118117,118133,118151,118167,118184,118201,118219,118235,118252,118268,118285,118301,118317,118335,118351,118367,118385,118401,118418,118435,118450,118468,118484,118501,118518,118533,118551,118568,118584,118602,118617,118634,118653,118670,118684,118700,118716,118733,118749,118767,118784,118800,118817,118835,118852,118868,118885,118902,118918,118935,118952,118968,118984,119002,119017,119035,119051,119068,119084,119101,119117,119134,119151,119167,119184,119201,119219,119235,119251,119268,119285,119300,119317,119335,119352,119367,119385,119401,119419,119434,119451,119467,119486,119503,119518,119535,119550,119567,119585,119601,119618,119635,119651,119667,119685,119701,119717,119735,119751,119767,119784,119802,119818,119834,119852,119868,119885,119901,119917,119935,119951,119969,119987,120003,120018,120035,120052,120067,120084,120102,120119,120135,120156,120184,120201,120218,120235,120252,120267,120283,120299,120317,120334,120350,120367,120384,120402,120418,120435,120452,120467,120484,120503,120519,120535,120551,120568,120585,120602,120619,120635,120651,120670,120686,120703,120717,120735,120750,120767,120784,120802,120819,120835,120851,120867,120884,120902,120918,120934,120952,120968,120985,121004,121017,121035,121051,121069,121086,121101,121119,121134,121152,121167,121184,121202,121217,121235,121251,121269,121285,121301,121318,121334,121351,121369,121385,121401,121418,121434,121452,121468,121486,121502,121520,121537,121552,121568,121585,121601,121619,121635,121653,121672,121684,121701,121719,121734,121752,121768,121785,121802,121819,121835,121851,121867,121883,121900,121917,121935,121951,121967,121986,122000,122018,122035,122052,122068,122085,122102,122119,122135,122152,122169,122185,122202,122218,122235,122252,122269,122284,122304,122319,122336,122352,122368,122384,122402,122418,122435,122452,122469,122486,122502,122518,122536,122552,122568,122586,122601,122620,122637,122653,122669,122686,122703,122718,122734,122752,122768,122786,122803,122818,122836,122851,122869,122885,122901,122920,122935,122952,122968,122987,123004,123023,123038,123052,123068,123086,123103,123121,123137,123154,123172,123187,123201,123217,123235,123253,123268,123285,123303,123319,123335,123353,123368,123385,123402,123418,123434,123451,123468,123485,123502,123519,123537,123552,123569,123585,123602,123619,123636,123653,123669,123685,123702,123719,123736,123752,123769,123786,123801,123820,123835,123853,123869,123885,123901,123918,123936,123952,123969,123985,124003,124019,124036,124053,124072,124088,124103,124118,124136,124152,124169,124186,124201,124220,124236,124253,124269,124285,124303,124318,124335,124353,124369,124386,124403,124419,124436,124453,124469,124486,124502,124520,124536,124552,124572,124591,124608,124622,124637,124653,124669,124686,124701,124718,124734,124750,124768,124783,124801,124818,124835,124851,124868,124884,124901,124918,124934,124951,124968,124984,125002,125018,125034,125050,125068,125086,125102,125119,125136,125152,125168,125187,125203,125220,125235,125253,125271,125286,125304,125320,125338,125356,125371,125386,125404,125422,125438,125453,125468,125484,125502,125520,125536,125553,125569,125586,125605,125620,125636,125652,125670,125686,125703,125719,125738,125755,125773,125790,125807,125823,125840,125855,125872,125888,125904,125919,125935,125953,125971,125989,126004,126020,126036,126052,126070,126087,126104,126121,126141,126157,126172,126190,126207,126222,126237,126252,126270,126288,126304,126320,126337,126354,126371,126387,126402,126420,126436,126453,126471,126488,126503,126520,126537,126554,126570,126586,126602,126620,126637,126651,126670,126687,126703,126720,126736,126752,126771,126786,126804,126821,126837,126853,126873,126890,126908,126924,126939,126955,126973,126993,127011,127023,127040,127057,127074,127090,127107,127124,127140,127156,127171,127189,127205,127221,127236,127252,127269,127286,127304,127320,127336,127352,127371,127387,127404,127420,127437,127452,127469,127486,127504,127521,127539,127557,127574,127590,127606,127621,127639,127656,127676,127687,127702,127719,127736,127754,127772,127788,127804,127822,127839,127855,127871,127888,127904,127920,127938,127954,127971,127990,128005,128020,128036,128054,128070,128087,128103,128122,128138,128155,128171,128187,128203,128219,128236,128252,128268,128286,128303,128321,128336,128352,128370,128387,128403,128420,128436,128460,128496,128520,128537,128553,128573,128591,128607,128621,128639,128655,128671,128692,128707,128721,128739,128755,128773,128788,128804,128822,128839,128856,128871,128887,128904,128922,128939,128952,128971,128986,129005,129021,129037,129052,129070,129086,129102,129122,129135,129153,129170,129186,129203,129220,129235,129252,129268,129287,129304,129319,129336,129352,129370,129386,129403,129419,129436,129453,129468,129485,129502,129520,129539,129553,129568,129585,129603,129620,129635,129653,129668,129686,129701,129717,129734,129751,129768,129784,129801,129818,129835,129852,129869,129885,129901,129918,129935,129951,129968,129985,130002,130018,130035,130052,130069,130085,130101,130118,130135,130152,130169,130185,130202,130219,130235,130251,130269,130285,130302,130317,130335,130351,130369,130385,130402,130418,130435,130452,130468,130485,130502,130519,130534,130551,130567,130587,130602,130619,130635,130652,130669,130685,130701,130718,130734,130751,130768,130784,130802,130819,130834,130851,130868,130885,130902,130918,130935,130952,130970,130987,131001,131018,131035,131052,131071,131086,131105,131120,131139,131153,131170,131185,131204,131221,131236,131253,131270,131286,131304,131320,131337,131353,131370,131386,131403,131420,131435,131452,131469,131485,131502,131519,131536,131552,131568,131586,131604,131618,131636,131655,131668,131685,131702,131718,131735,131753,131769,131785,131803,131818,131835,131853,131868,131886,131902,131919,131935,131953,131969,131985,132003,132019,132036,132052,132068,132084,132102,132119,132134,132153,132172,132187,132203,132219,132235,132253,132269,132285,132303,132319,132336,132352,132369,132386,132404,132420,132435,132453,132469,132487,132502,132520,132536,132554,132569,132585,132603,132619,132636,132652,132669,132685,132704,132720,132735,132753,132770,132788,132802,132821,132835,132853,132869,132885,132903,132920,132936,132952,132969,132989,133003,133019,133035,133053,133069,133086,133102,133119,133136,133154,133169,133186,133203,133221,133239,133253,133269,133286,133304,133319,133336,133352,133369,133387,133403,133419,133436,133453,133471,133486,133501,133519,133537,133553,133572,133589,133605,133621,133639,133654,133671,133687,133704,133720,133737,133756,133771,133788,133805,133820,133838,133853,133870,133886,133903,133921,133936,133952,133971,133991,134003,134020,134036,134053,134071,134086,134103,134119,134137,134152,134170,134186,134203,134221,134236,134255,134270,134289,134304,134321,134336,134354,134370,134386,134403,134420,134438,134453,134470,134486,134504,134520,134536,134554,134569,134588,134603,134619,134636,134654,134672,134687,134703,134720,134739,134754,134770,134787,134803,134822,134838,134854,134870,134888,134904,134920,134937,134958,134970,134985,135002,135020,135038,135055,135071,135089,135115,135124,135149,135172,135190,135206,135223,135239,135257,135272,135288,135304,135321,135340,135356,135372,135388,135404,135422,135439,135455,135471,135487,135505,135521,135537,135554,135571,135588,135604,135621,135637,135655,135671,135687,135704,135722,135739,135754,135771,135788,135805,135821,135838,135854,135873,135890,135904,135921,135937,135953,135971,135988,136004,136021,136039,136054,136071,136088,136106,136121,136138,136154,136172,136189,136205,136222,136238,136256,136272,136287,136305,136322,136339,136354,136372,136390,136407,136422,136440,136454,136471,136489,136505,136522,136538,136555,136573,136588,136605,136622,136639,136655,136672,136688,136705,136722,136740,136755,136772,136789,136805,136822,136838,136855,136873,136888,136905,136921,136941,136957,136972,136990,137005,137022,137039,137055,137072,137089,137106,137122,137138,137155,137172,137190,137205,137222,137238,137256,137272,137288,137305,137322,137340,137355,137372,137389,137406,137422,137438,137456,137473,137489,137504,137521,137538,137556,137573,137588,137605,137622,137640,137655,137672,137688,137705,137723,137739,137755,137774,137790,137806,137824,137843,137855,137872,137888,137904,137922,137940,137955,137972,137992,138008,138024,138040,138054,138069,138087,138105,138122,138139,138155,138174,138191,138207,138224,138240,138256,138274,138290,138307,138323,138341,138357,138374,138391,138407,138422,138439,138455,138473,138489,138506,138523,138539,138558,138574,138589,138606,138623,138639,138656,138672,138691,138706,138722,138739,138756,138772,138791,138807,138823,138839,138857,138872,138889,138907,138923,138940,138955,138972,138991,139006,139023,139039,139056,139072,139089,139104,139121,139138,139156,139173,139192,139208,139224,139242,139257,139276,139304,139321,139339,139354,139371,139387,139405,139421,139438,139454,139471,139489,139504,139521,139539,139556,139571,139588,139604,139622,139639,139655,139671,139688,139705,139721,139738,139755,139771,139789,139804,139821,139838,139855,139872,139888,139904,139921,139939,139954,139971,139990,140005,140024,140039,140056,140073,140091,140106,140124,140140,140156,140174,140189,140206,140224,140241,140256,140273,140290,140307,140324,140339,140356,140373,140390,140406,140423,140440,140456,140474,140490,140506,140523,140540,140556,140573,140589,140607,140624,140639,140655,140671,140690,140707,140723,140738,140755,140774,140789,140806,140823,140840,140856,140874,140890,140906,140924,140940,140956,140973,140993,141008,141023,141040,141056,141074,141090,141106,141123,141141,141157,141175,141191,141208,141225,141240,141256,141274,141290,141307,141323,141340,141356,141374,141390,141406,141423,141440,141458,141473,141490,141506,141523,141541,141556,141573,141589,141608,141623,141640,141657,141673,141691,141708,141724,141740,141757,141774,141790,141807,141823,141840,141858,141873,141890,141906,141924,141940,141956,141973,141994,142008,142023,142040,142057,142074,142090,142120,142139,142157,142173,142187,142205,142221,142239,142256,142272,142289,142309,142326,142340,142356,142375,142390,142407,142423,142440,142458,142474,142490,142507,142523,142542,142557,142573,142590,142608,142623,142640,142657,142674,142692,142707,142723,142740,142757,142775,142791,142807,142824,142841,142857,142874,142890,142908,142925,142940,142957,142973,142994,143007,143023,143040,143057,143075,143090,143107,143123,143140,143158,143174,143190,143207,143225,143240,143256,143273,143292,143308,143325,143340,143357,143374,143391,143407,143423,143440,143458,143474,143490,143509,143525,143540,143556,143573,143590,143607,143625,143640,143657,143674,143691,143706,143723,143740,143755,143772,143789,143806,143823,143841,143858,143874,143890,143907,143925,143940,143957,143973,143993,144008,144023,144040,144057,144074,144091,144107,144123,144141,144157,144175,144190,144207,144224,144242,144257,144274,144291,144307,144324,144340,144357,144374,144391,144407,144423,144440,144457,144475,144490,144507,144524,144541,144558,144574,144590,144607,144625,144641,144657,144674,144690,144708,144724,144740,144757,144775,144792,144807,144824,144841,144857,144875,144891,144910,144925,144944,144957,144973,144990,145007,145025,145041,145059,145073,145090,145108,145124,145140,145157,145175,145190,145207,145224,145241,145258,145274,145292,145308,145323,145340,145356,145373,145390,145408,145425,145441,145458,145474,145492,145508,145524,145541,145558,145574,145591,145607,145624,145642,145658,145674,145690,145707,145725,145742,145757,145774,145792,145807,145824,145840,145858,145875,145891,145907,145924,145942,145958,145975,145996,146008,146025,146041,146057,146074,146091,146109,146124,146141,146157,146174,146192,146207,146224,146240,146258,146275,146291,146307,146324,146342,146361,146375,146393,146409,146426,146440,146457,146474,146494,146508,146524,146541,146557,146575,146591,146608,146624,146642,146659,146674,146691,146707,146726,146743,146757,146774,146791,146809,146824,146840,146859,146874,146891,146906,146923,146940,146957,146975,146994,147009,147026,147042,147058,147074,147091,147108,147125,147141,147161,147179,147194,147212,147228,147241,147257,147276,147291,147309,147325,147341,147359,147373,147390,147406,147424,147441,147457,147474,147490,147507,147525,147541,147557,147573,147591,147608,147624,147641,147659,147675,147691,147708,147724,147743,147758,147774,147791,147809,147824,147842,147860,147880,147906,147923,147940,147957,147973,147993,148007,148024,148042,148058,148075,148092,148108,148125,148141,148158,148174,148192,148208,148225,148244,148261,148276,148291,148308,148324,148341,148359,148374,148391,148407,148425,148442,148457,148474,148491,148506,148524,148541,148558,148576,148593,148609,148626,148641,148659,148675,148691,148708,148725,148742,148758,148774,148791,148808,148825,148841,148858,148874,148892,148908,148924,148942,148958,148976,148993,149008,149024,149041,149058,149074,149091,149107,149127,149143,149158,149176,149192,149208,149225,149241,149258,149276,149294,149307,149323,149342,149359,149375,149391,149408,149425,149443,149458,149475,149491,149509,149525,149542,149558,149575,149593,149609,149625,149642,149659,149675,149692,149708,149725,149743,149758,149775,149792,149808,149826,149842,149858,149875,149893,149909,149925,149941,149958,149976,149995,150010,150024,150040,150057,150073,150091,150108,150126,150141,150159,150175,150193,150209,150225,150242,150258,150275,150293,150308,150325,150341,150359,150375,150392,150408,150425,150443,150458,150475,150492,150508,150526,150542,150558,150575,150593,150608,150625,150642,150659,150676,150694,150710,150725,150741,150760,150775,150791,150808,150826,150842,150858,150875,150892,150910,150927,150939,150956,150975,150998,151011,151027,151043,151059,151077,151093,151110,151126,151144,151159,151177,151193,151210,151226,151243,151260,151276,151293,151310,151325,151342,151359,151375,151393,151409,151426,151442,151460,151475,151492,151508,151526,151542,151559,151576,151591,151608,151624,151640,151657,151674,151693,151709,151725,151742,151759,151776,151793,151809,151826,151843,151859,151875,151896,151912,151927,151942,151959,151976,151993,152008,152024,152042,152061,152078,152092,152108,152125,152142,152160,152175,152192,152209,152226,152243,152259,152275,152292,152309,152328,152342,152359,152375,152393,152409,152425,152442,152459,152477,152492,152509,152525,152543,152560,152576,152592,152609,152626,152642,152659,152675,152692,152710,152725,152742,152756,152773,152790,152807,152829,152844,152862,152877,152894,152910,152927,152944,152961,152977,152995,153013,153028,153044,153061,153076,153092,153110,153128,153142,153158,153175,153190,153208,153225,153243,153260,153276,153292,153309,153327,153342,153361,153377,153393,153410,153426,153444,153459,153479,153507,153525,153541,153559,153576,153591,153608,153624,153641,153659,153674,153691,153708,153725,153741,153757,153774,153791,153809,153825,153841,153857,153875,153894,153910,153926,153943,153957,153973,153990,154009,154026,154044,154064,154081,154096,154111,154127,154144,154160,154179,154194,154212,154227,154244,154260,154277,154292,154310,154325,154343,154360,154376,154393,154409,154427,154445,154459,154476,154493,154511,154526,154543,154560,154577,154594,154609,154626,154642,154659,154677,154692,154710,154726,154742,154758,154777,154792,154808,154828,154843,154859,154875,154892,154909,154926,154943,154961,154978,154994,155009,155026,155044,155061,155077,155093,155109,155127,155144,155159,155176,155193,155210,155226,155243,155259,155277,155293,155309,155327,155343,155361,155376,155393,155409,155426,155445,155460,155477,155496,155511,155527,155543,155560,155578,155594,155609,155626,155642,155661,155676,155693,155710,155728,155745,155760,155775,155794,155813,155826,155843,155860,155876,155894,155910,155926,155943,155961,155978,155997,156011,156027,156045,156060,156080],"hit":[null],"x":[-2.0408163265306123,-2.0408163265306123,-2.0408163265306123,-2.0408163265306123,-2.0408163265306123,-2.0408163265306123,-2.0408163265306123,-2.0408163265306123,-2.0408163265306123,-2.0408163265306123,-2.0408163265306123,-2.0408163265306123,-2.0408163265306123,-