[{"success":true,"trial_type":"fullscreen","trial_index":0,"time_elapsed":2263,"internal_node_id":"0.0-0.0","protocol_sum":"","subject_identifier":532,"subject_sum":[234,91,39,85,111,187,19,77,239,44,47,191,148,77,156,221,163,219,219,107,16,71,58,26,236,89,246,241,112,196,202,58],"subject_pair":266,"STUDY_ID":"66a3ed3c5d10d0e7d8a6b9da","PROLIFIC_PID":"669202f5e7b5f2d98974f65a","SESSION_ID":"66a470eab13d1f85a17e2476","practice_instructions":3,"leaderboard_instructions":0,"bonus":1,"reveal_word":false,"self_rating":"2","confidence":"83"},{"view_history":"[{\"page_index\":0,\"viewing_time\":1714.8000000715256}]","rt":1715,"trial_type":"instructions","trial_index":1,"time_elapsed":3979,"internal_node_id":"0.0-1.0","protocol_sum":"","subject_identifier":532,"subject_sum":[234,91,39,85,111,187,19,77,239,44,47,191,148,77,156,221,163,219,219,107,16,71,58,26,236,89,246,241,112,196,202,58],"subject_pair":266,"STUDY_ID":"66a3ed3c5d10d0e7d8a6b9da","PROLIFIC_PID":"669202f5e7b5f2d98974f65a","SESSION_ID":"66a470eab13d1f85a17e2476","practice_instructions":3,"leaderboard_instructions":0,"bonus":1,"reveal_word":false,"self_rating":"2","confidence":"83"},{"view_history":"[{\"page_index\":0,\"viewing_time\":1237.1000000238419}]","rt":1237.3000000715256,"trial_type":"instructions","trial_index":2,"time_elapsed":5216,"internal_node_id":"0.0-2.0-0.0","protocol_sum":"","subject_identifier":532,"subject_sum":[234,91,39,85,111,187,19,77,239,44,47,191,148,77,156,221,163,219,219,107,16,71,58,26,236,89,246,241,112,196,202,58],"subject_pair":266,"STUDY_ID":"66a3ed3c5d10d0e7d8a6b9da","PROLIFIC_PID":"669202f5e7b5f2d98974f65a","SESSION_ID":"66a470eab13d1f85a17e2476","practice_instructions":3,"leaderboard_instructions":0,"bonus":1,"reveal_word":false,"self_rating":"2","confidence":"83"},{"rt":8990.600000023842,"responses":"{\"Q0\":\"... click on letters in <b>alphabetical order</b>\"}","question_order":"[0]","trial_type":"survey-multi-choice","trial_index":3,"time_elapsed":14208,"internal_node_id":"0.0-2.0-1.0","protocol_sum":"","subject_identifier":532,"subject_sum":[234,91,39,85,111,187,19,77,239,44,47,191,148,77,156,221,163,219,219,107,16,71,58,26,236,89,246,241,112,196,202,58],"subject_pair":266,"correct":false,"test_part":"multichoice_nonpretend","STUDY_ID":"66a3ed3c5d10d0e7d8a6b9da","PROLIFIC_PID":"669202f5e7b5f2d98974f65a","SESSION_ID":"66a470eab13d1f85a17e2476","practice_instructions":3,"leaderboard_instructions":0,"bonus":1,"reveal_word":false,"self_rating":"2","confidence":"83"},{"view_history":"[{\"page_index\":0,\"viewing_time\":1202.4000000953674}]","rt":1202.8000000715256,"trial_type":"instructions","trial_index":4,"time_elapsed":15412,"internal_node_id":"0.0-2.1-0.1","protocol_sum":"","subject_identifier":532,"subject_sum":[234,91,39,85,111,187,19,77,239,44,47,191,148,77,156,221,163,219,219,107,16,71,58,26,236,89,246,241,112,196,202,58],"subject_pair":266,"STUDY_ID":"66a3ed3c5d10d0e7d8a6b9da","PROLIFIC_PID":"669202f5e7b5f2d98974f65a","SESSION_ID":"66a470eab13d1f85a17e2476","practice_instructions":3,"leaderboard_instructions":0,"bonus":1,"reveal_word":false,"self_rating":"2","confidence":"83"},{"rt":4921.600000023842,"responses":"{\"Q0\":\"... go <b>really fast</b> and finish the game as quickly as possible\"}","question_order":"[0]","trial_type":"survey-multi-choice","trial_index":5,"time_elapsed":20334,"internal_node_id":"0.0-2.1-1.1","protocol_sum":"","subject_identifier":532,"subject_sum":[234,91,39,85,111,187,19,77,239,44,47,191,148,77,156,221,163,219,219,107,16,71,58,26,236,89,246,241,112,196,202,58],"subject_pair":266,"correct":false,"test_part":"multichoice_nonpretend","STUDY_ID":"66a3ed3c5d10d0e7d8a6b9da","PROLIFIC_PID":"669202f5e7b5f2d98974f65a","SESSION_ID":"66a470eab13d1f85a17e2476","practice_instructions":3,"leaderboard_instructions":0,"bonus":1,"reveal_word":false,"self_rating":"2","confidence":"83"},{"view_history":"[{\"page_index\":0,\"viewing_time\":6537.199999928474}]","rt":6537.299999952316,"trial_type":"instructions","trial_index":6,"time_elapsed":26871,"internal_node_id":"0.0-2.2-0.2","protocol_sum":"","subject_identifier":532,"subject_sum":[234,91,39,85,111,187,19,77,239,44,47,191,148,77,156,221,163,219,219,107,16,71,58,26,236,89,246,241,112,196,202,58],"subject_pair":266,"STUDY_ID":"66a3ed3c5d10d0e7d8a6b9da","PROLIFIC_PID":"669202f5e7b5f2d98974f65a","SESSION_ID":"66a470eab13d1f85a17e2476","practice_instructions":3,"leaderboard_instructions":0,"bonus":1,"reveal_word":false,"self_rating":"2","confidence":"83"},{"rt":3131.4000000953674,"responses":"{\"Q0\":\"... reveal the word with as <b>few letter guesses</b> as possible\"}","question_order":"[0]","trial_type":"survey-multi-choice","trial_index":7,"time_elapsed":30004,"internal_node_id":"0.0-2.2-1.2","protocol_sum":"","subject_identifier":532,"subject_sum":[234,91,39,85,111,187,19,77,239,44,47,191,148,77,156,221,163,219,219,107,16,71,58,26,236,89,246,241,112,196,202,58],"subject_pair":266,"correct":true,"test_part":"multichoice_nonpretend","STUDY_ID":"66a3ed3c5d10d0e7d8a6b9da","PROLIFIC_PID":"669202f5e7b5f2d98974f65a","SESSION_ID":"66a470eab13d1f85a17e2476","practice_instructions":3,"leaderboard_instructions":0,"bonus":1,"reveal_word":false,"self_rating":"2","confidence":"83"},{"view_history":"[{\"page_index\":0,\"viewing_time\":1042.5}]","rt":1042.5,"trial_type":"instructions","trial_index":8,"time_elapsed":31048,"internal_node_id":"0.0-3.0","protocol_sum":"","subject_identifier":532,"subject_sum":[234,91,39,85,111,187,19,77,239,44,47,191,148,77,156,221,163,219,219,107,16,71,58,26,236,89,246,241,112,196,202,58],"subject_pair":266,"STUDY_ID":"66a3ed3c5d10d0e7d8a6b9da","PROLIFIC_PID":"669202f5e7b5f2d98974f65a","SESSION_ID":"66a470eab13d1f85a17e2476","practice_instructions":3,"leaderboard_instructions":0,"bonus":1,"reveal_word":false,"self_rating":"2","confidence":"83"},{"word":"ZEBRA","click_log":{"letter":["","T","I","A","K","E","O","B","Z","R"],"t":[0,7269.399999976158,9989.200000047684,11866.200000047684,15386.899999976158,17523.899999976158,21823,23295,25649.399999976158,27941.700000047684],"hit":[null,0,0,1,0,1,0,1,1,1],"asked":["","T","TI","TIA","TIAK","TIAKE","TIAKEO","TIAKEOB","TIAKEOBZ","TIAKEOBZR"],"word_state":["_____","_____","_____","____A","____A","_E__A","_E__A","_EB_A","ZEB_A","ZEBRA"]},"hover_log":{"letter":["?","?","?","?","?","?","?","?","?","?","?","?","J","J","K","K","L","L","L","?","?","M","M","M","M","M","M","M","M","?","?","?","C","?","?","?","?","?","?","?","?","?","?","?","?","?","?","?","?","?","?","?","?","?","?","?","?","?","?","?","?","?","?","?","?","?","?","?","?","?","?","?","?","?","?","?","?","?","?","?","?","?","?","?","?","?","?","?","?","?","?","?","?","?","?","?","?","?","A","A","A","A","A","A","A","A","A","A","?","?","?","?","?","?","?","?","?","?","?","?","?","B","B","B","B","B","B","B","B","B","B","B","B","B","B","B","B","B","B","B","B","?","?","?","?","?","?","?","?","?","?","?","?","?","?","?","?","?","?","?","?","?","B","B","B","B","B","B","B","B","B","B","B","B","B","B","B","B","B","B","B","B","B","B","B","B","B","B","B","B","B","B","B","B","B","B","B","B","B","B","?","?","?","?","?","?","?","?","?","?","?","?","?","?","?","?","?","?","?","?","?","?","?","?","?","?","?","?","?","?","?","?","?","?","?","?","?","?","?","?","?","?","?","?","?","?","?","?","?","?","?","?","?","?","?","?","?","?","?","?","?","?","?","?","?","?","?","?","?","?","?","?","?","?","?","?","?","?","?","?","?","?","?","?","?","?","?","?","?","?","?","?","?","?","?","?","?","?","?","?","?","?","?","?","?","?","?","?","?","?","?","?","?","?","?","?","?","?","?","?","?","?","?","?","?","?","?","?","?","?","?","?","?","?","?","?","?","?","?","?","?","?","?","?","?","?","?","?","?","?","?","?","?","?","?","?","D","D","D","D","D","D","D","D","?","?","F","?","?","?","?","?","?","?","N","N","?","?","?","?","V","?","?","?","?","?","?","?","K","K","K","?","?","?","?","?","?","?","?","U","U","U","U","U","U","U","U","?","T","T","T","T","T","T","T","T","T","T","T","T","T","T","T","T","T","T","T","T","T","T","T","T","T","T","T","T","T","T","T","T","T","T","T","T","T","T","T","T","T","T","T","T","T","T","T","T","T","T","T","T","T","T","T","T","U","?","?","?","?","W","W","W","W","W","W","W","W","W","W","W","W","W","W","W","W","W","W","W","W","W","W","W","?","?","V","V","V","?","?","?","?","?","?","?","?","?","?","?","?","?","?","K","K","?","?","?","?","?","?","?","?","?","?","K","L","M","M","?","?","?","?","?","?","?","?","?","?","?","I","I","I","I","I","I","I","I","I","I","I","I","I","I","I","I","I","I","I","I","I","I","I","I","?","?","?","H","H","H","H","H","H","H","H","H","H","H","H","H","?","?","?","?","?","?","I","I","I","I","I","I","I","I","I","I","I","I","I","I","I","I","I","I","I","I","I","I","I","I","I","I","I","I","I","I","I","I","?","?","?","?","?","?","?","?","?","P","P","P","P","P","?","O","O","O","O","?","?","?","?","?","?","?","?","?","?","?","?","?","?","?","K","K","K","K","K","K","K","K","K","K","K","K","L","L","L","M","N","N","N","?","O","O","O","O","O","O","O","O","O","?","?","N","M","?","?","?","?","?","?","?","?","?","?","?","?","?","?","A","A","A","A","A","A","A","A","A","A","A","A","A","A","A","A","A","A","A","A","A","A","A","A","A","A","A","A","A","A","A","A","A","A","A","A","A","?","?","?","B","B","B","B","B","B","B","B","B","B","B","B","B","B","B","B","B","B","B","B","B","B","B","B","B","B","B","B","B","B","B","B","B","?","?","?","?","?","?","?","?","?","?","?","?","?","?","?","?","?","?","?","?","?","L","L","L","L","L","L","L","L","L","L","L","L","L","L","L","L","L","L","L","L","L","L","L","L","L","L","L","L","L","L","L","L","L","L","L","L","L","L","L","L","L","L","L","L","L","L","L","L","L","L","L","L","L","L","L","L","L","L","L","?","?","M","M","N","N","N","?","?","?","?","?","?","?","?","?","?","?","?","O","O","O","O","?","?","?","P","P","P","P","P","P","?","O","O","N","?","?","?","?","?","?","?","?","?","?","?","?","?","?","?","?","?","?","?","?","K","K","K","K","K","K","K","K","K","K","K","K","K","K","K","K","K","K","K","K","K","K","K","K","K","K","K","K","K","K","K","K","K","K","K","K","K","K","K","?","?","?","?","?","?","N","?","?","?","?","?","?","?","?","?","?","?","?","?","N","N","N","N","N","?","?","M","M","M","M","L","L","L","L","?","?","?","?","?","?","?","?","?","?","?","?","?","?","?","?","?","?","?","B","B","B","B","B","B","B","B","?","?","?","?","?","?","?","?","?","M","M","?","?","N","N","N","?","?","?","?","?","?","?","?","?","?","?","E","E","E","E","E","E","E","E","E","E","E","E","E","E","E","E","E","E","E","E","E","E","E","E","E","E","E","E","E","E","E","E","E","E","E","E","E","E","E","E","E","E","E","E","?","?","?","?","?","?","?","?","?","?","?","?","?","?","?","?","?","?","?","?","?","?","?","?","?","?","?","?","?","?","?","?","?","?","?","?","?","?","?","?","?","?","?","?","?","?","?","?","?","?","?","?","?","?","?","?","?","?","?","?","?","?","?","?","?","?","?","?","?","?","?","?","?","?","?","?","?","?","?","?","?","?","?","?","?","?","?","N","N","N","N","?","M","M","M","?","?","?","?","L","L","L","L","L","L","L","?","?","?","?","?","?","?","?","?","?","?","?","?","?","C","C","C","C","C","C","C","C","C","C","C","C","B","B","B","B","B","B","B","B","B","B","B","B","B","B","B","B","B","B","B","B","B","B","?","?","C","D","D","E","E","E","F","F","F","F","?","?","G","G","G","G","G","G","G","?","?","?","H","H","H","H","H","H","H","H","H","H","H","H","H","H","H","?","?","?","?","?","?","?","?","?","?","?","P","P","P","P","P","P","P","P","P","P","P","?","?","O","O","O","O","O","O","O","O","O","O","O","O","O","O","O","O","O","O","O","O","O","O","O","O","O","O","O","O","O","O","O","O","O","O","O","N","N","N","N","M","M","?","?","?","?","?","?","?","?","?","?","?","?","?","?","?","?","?","?","?","?","?","?","?","?","?","?","?","B","B","B","B","B","B","B","B","B","B","B","B","B","B","B","B","B","B","B","B","B","B","B","B","B","B","B","B","B","B","B","B","B","B","B","B","B","B","B","B","B","B","B","?","?","C","C","?","?","?","?","?","?","?","?","?","?","?","?","?","?","?","?","?","?","?","?","?","?","?","?","?","?","?","?","?","D","D","D","D","D","D","D","D","D","D","D","D","D","D","D","D","D","D","D","D","D","?","?","?","?","?","?","?","?","?","?","?","?","?","?","?","?","?","?","T","T","T","T","T","T","T","?","?","?","?","?","?","?","?","T","?","?","?","V","W","X","X","X","?","Y","Y","Y","?","?","?","?","?","?","?","?","?","?","?","?","?","Y","Y","Y","?","?","?","?","Z","Z","Z","Z","Z","Z","Z","Z","Z","Z","Z","Z","Z","Z","Z","Z","Z","Z","Z","Z","Z","Z","Z","Z","Z","Z","?","?","?","Y","?","?","?","?","?","?","N","N","?","M","M","M","M","M","M","M","?","?","?","?","?","?","?","?","?","?","?","C","?","D","D","D","?","E","E","E","?","?","?","?","?","?","?","?","?","?","?","?","?","?","?","?","?","?","?","?","?","?","?","?","?","?","?","?","?","?","?","?","?","?","?","?","V","V","W","W","W","W","W","X","X","X","?","?","?","?","P","P","P","P","P","P","P","?","?","Q","Q","Q","Q","Q","Q","Q","Q","?","?","R","R","R","R","R","R","R","R","R","R","R","R","R","R","R","R","R","R","R","R","R","R","R","R","R","R","R","R","?","?","Q","Q","Q","Q","Q","?","?","P","?","?","?","?","?","?","?","?","?","?","?","?","?","?","?","?","?","?","?","?","?","?","?","?","?","?","?","?","?","?","?","?","?","?","?","?","?","?","?","?","?","?","?","?","?","?","W","W","?","?","?","?","?","?","?","?","?","?","?","?","?","?","?","?","?","?","?","?","?","?","?","?","?","?","?","?","?","?","?","?","?","?","?","?","?","?","?","?","?","?","?","?","?","?","?","?","?","?"],"t":[27,33,49,66,82,99,116,132,149,166,183,198,219,232,249,265,282,299,315,332,349,366,383,399,415,432,449,466,482,499,515,532,549,565,582,599,615,632,649,669,682,699,715,736,748,765,786,799,815,832,849,865,882,899,916,932,949,965,982,999,1015,1032,1049,1066,1082,1099,1115,1132,1148,1166,1182,1198,1215,1232,1248,1269,1282,1298,1315,1332,1352,1365,1381,1398,1415,1436,1449,1465,1482,1499,1515,1531,1549,1565,1582,1599,1615,1632,1649,1665,1682,1699,1715,1732,1749,1765,1782,1800,1815,1832,1849,1865,1882,1899,1915,1932,1948,1965,1982,1999,2015,2033,2049,2065,2082,2100,2115,2132,2148,2165,2182,2199,2215,2232,2249,2266,2282,2302,2315,2332,2352,2365,2382,2402,2415,2432,2449,2466,2485,2499,2515,2532,2549,2565,2585,2599,2615,2632,2648,2665,2682,2702,2716,2732,2749,2766,2782,2798,2815,2832,2848,2866,2882,2899,2916,2932,2948,2966,2982,2998,3015,3032,3049,3065,3082,3099,3116,3132,3149,3165,3182,3199,3215,3231,3249,3265,3282,3298,3315,3332,3349,3365,3383,3402,3415,3432,3451,3465,3482,3502,3516,3532,3552,3565,3582,3599,3615,3632,3648,3665,3685,3699,3715,3732,3749,3765,3782,3798,3815,3835,3848,3866,3882,3899,3915,3932,3949,3968,3982,3998,4015,4032,4048,4066,4082,4099,4115,4131,4149,4166,4182,4198,4215,4232,4248,4265,4282,4299,4315,4332,4349,4365,4383,4398,4415,4432,4449,4469,4482,4498,4516,4532,4548,4565,4582,4598,4615,4632,4648,4665,4684,4699,4715,4735,4748,4765,4782,4799,4815,4832,4851,4865,4883,4898,4915,4932,4948,4965,4982,4999,5015,5032,5049,5065,5082,5098,5115,5132,5148,5165,5182,5202,5215,5232,5249,5265,5282,5299,5315,5332,5348,5365,5382,5398,5415,5432,5448,5465,5485,5498,5515,5532,5549,5565,5582,5599,5615,5634,5648,5666,5682,5699,5715,5732,5752,5765,5782,5799,5816,5832,5848,5865,5882,5901,5915,5932,5949,5965,5982,5998,6018,6032,6049,6065,6082,6098,6119,6132,6148,6165,6182,6199,6216,6231,6248,6265,6283,6298,6315,6331,6348,6365,6385,6398,6415,6432,6449,6465,6482,6498,6515,6531,6552,6565,6582,6598,6615,6631,6648,6669,6682,6698,6715,6732,6748,6765,6781,6798,6815,6832,6848,6865,6882,6899,6915,6932,6951,6965,6982,6998,7018,7032,7048,7068,7082,7098,7115,7131,7152,7165,7182,7199,7215,7232,7248,7265,7282,7298,7316,7332,7352,7365,7382,7399,7415,7432,7449,7466,7482,7498,7515,7532,7549,7565,7584,7598,7615,7632,7649,7665,7682,7698,7715,7732,7752,7765,7782,7801,7815,7832,7848,7866,7882,7898,7915,7932,7948,7965,7985,7998,8015,8032,8048,8065,8082,8098,8115,8131,8148,8165,8183,8198,8215,8231,8252,8265,8282,8298,8315,8332,8348,8365,8385,8398,8415,8432,8449,8469,8482,8499,8515,8535,8548,8565,8582,8598,8615,8632,8648,8665,8682,8698,8719,8732,8750,8764,8781,8798,8815,8831,8852,8865,8885,8898,8918,8931,8948,8965,8986,8998,9015,9032,9048,9065,9082,9098,9115,9132,9148,9165,9181,9198,9219,9232,9248,9265,9282,9298,9315,9332,9348,9365,9381,9398,9415,9436,9448,9465,9482,9498,9515,9532,9548,9565,9582,9598,9615,9631,9652,9665,9681,9702,9715,9731,9748,9768,9782,9798,9815,9832,9848,9865,9882,9898,9915,9932,9948,9965,9982,9999,10015,10031,10049,10065,10082,10099,10115,10131,10148,10165,10182,10198,10215,10231,10248,10265,10285,10298,10315,10332,10348,10365,10381,10399,10415,10436,10448,10465,10482,10498,10518,10532,10548,10565,10582,10598,10615,10631,10648,10668,10681,10698,10715,10735,10748,10765,10781,10798,10815,10832,10848,10865,10881,10898,10918,10931,10948,10965,10982,10998,11014,11032,11048,11065,11081,11098,11115,11132,11148,11165,11182,11201,11215,11231,11248,11265,11282,11298,11315,11335,11348,11365,11383,11398,11414,11431,11451,11464,11482,11501,11515,11531,11548,11565,11581,11599,11618,11631,11648,11665,11682,11698,11715,11731,11748,11764,11781,11798,11815,11832,11848,11865,11883,11899,11915,11932,11948,11965,11981,11998,12015,12032,12048,12065,12085,12098,12115,12132,12148,12165,12181,12198,12215,12232,12249,12265,12281,12298,12315,12331,12348,12365,12381,12398,12415,12432,12448,12465,12485,12498,12515,12531,12548,12565,12582,12598,12615,12632,12648,12665,12681,12698,12715,12731,12748,12765,12785,12798,12815,12832,12851,12865,12882,12898,12915,12932,12948,12966,12982,12998,13015,13031,13048,13065,13082,13098,13115,13132,13149,13165,13182,13198,13215,13231,13249,13265,13281,13298,13315,13331,13348,13365,13381,13401,13415,13432,13448,13465,13482,13498,13515,13531,13548,13565,13581,13598,13615,13631,13648,13665,13681,13698,13715,13731,13748,13765,13782,13798,13814,13831,13848,13865,13882,13898,13915,13932,13949,13965,13982,13998,14015,14032,14049,14065,14081,14098,14115,14131,14148,14164,14185,14198,14218,14231,14252,14265,14282,14301,14315,14332,14348,14365,14382,14399,14415,14431,14448,14465,14481,14498,14514,14531,14548,14565,14581,14598,14616,14631,14651,14665,14681,14698,14715,14731,14748,14765,14781,14798,14816,14832,14849,14864,14881,14898,14915,14931,14948,14969,14981,14998,15015,15032,15048,15065,15082,15098,15118,15132,15148,15165,15181,15198,15215,15232,15248,15264,15281,15298,15315,15332,15348,15365,15381,15398,15415,15431,15448,15465,15481,15499,15514,15531,15548,15565,15582,15598,15615,15631,15648,15665,15681,15698,15715,15731,15751,15765,15782,15798,15818,15831,15852,15865,15881,15901,15916,15932,15948,15965,15981,15998,16018,16031,16048,16065,16081,16098,16115,16132,16149,16165,16182,16198,16215,16232,16248,16265,16281,16298,16315,16332,16352,16365,16381,16398,16415,16431,16448,16464,16481,16502,16515,16531,16547,16565,16582,16598,16615,16631,16648,16664,16681,16698,16715,16732,16748,16764,16781,16797,16818,16832,16848,16865,16881,16898,16915,16935,16949,16965,16982,16998,17014,17031,17048,17064,17081,17101,17114,17131,17149,17165,17181,17198,17216,17232,17249,17264,17281,17298,17315,17331,17348,17365,17384,17398,17414,17431,17448,17464,17481,17498,17515,17532,17548,17565,17581,17601,17615,17632,17648,17665,17681,17698,17715,17732,17748,17764,17781,17801,17814,17831,17848,17865,17881,17898,17915,17931,17949,17964,17982,17998,18015,18035,18048,18065,18081,18098,18115,18132,18148,18164,18181,18198,18214,18231,18248,18267,18281,18298,18315,18331,18349,18365,18384,18399,18414,18432,18448,18464,18482,18498,18515,18531,18548,18564,18581,18598,18615,18632,18648,18665,18681,18698,18714,18731,18748,18764,18781,18798,18815,18832,18848,18865,18881,18898,18915,18931,18948,18964,18982,18998,19014,19031,19048,19064,19081,19101,19115,19131,19151,19164,19181,19198,19215,19235,19248,19268,19281,19298,19314,19331,19348,19365,19385,19398,19414,19431,19447,19464,19481,19498,19515,19531,19548,19565,19581,19598,19614,19635,19648,19664,19681,19698,19715,19731,19751,19764,19782,19798,19814,19834,19848,19865,19882,19898,19918,19932,19948,19964,19982,19998,20015,20031,20048,20064,20081,20101,20115,20131,20148,20165,20181,20203,20214,20232,20248,20265,20281,20298,20315,20332,20348,20365,20381,20398,20414,20431,20448,20465,20481,20498,20514,20531,20548,20564,20586,20597,20614,20631,20648,20665,20681,20698,20715,20731,20748,20765,20782,20798,20815,20831,20848,20864,20885,20898,20915,20931,20948,20964,20981,20998,21014,21031,21051,21065,21081,21098,21115,21131,21148,21165,21181,21198,21215,21231,21248,21264,21282,21298,21314,21331,21348,21364,21381,21398,21414,21434,21447,21465,21482,21498,21515,21531,21548,21565,21581,21599,21615,21631,21648,21664,21681,21698,21714,21731,21747,21765,21781,21798,21814,21831,21848,21864,21881,21898,21914,21932,21948,21965,21982,21998,22014,22031,22048,22067,22080,22098,22114,22131,22148,22164,22182,22198,22214,22231,22248,22264,22281,22299,22314,22332,22348,22364,22381,22398,22415,22435,22448,22464,22481,22499,22514,22531,22548,22565,22581,22598,22615,22631,22648,22664,22681,22701,22714,22731,22748,22764,22782,22798,22814,22831,22848,22864,22881,22901,22914,22931,22948,22964,22981,22998,23014,23034,23048,23064,23081,23098,23114,23132,23148,23165,23181,23201,23214,23231,23250,23264,23282,23298,23315,23331,23348,23364,23381,23398,23418,23431,23448,23464,23481,23498,23514,23532,23548,23568,23581,23598,23615,23635,23650,23664,23681,23698,23715,23731,23748,23768,23781,23798,23814,23831,23848,23864,23881,23898,23914,23931,23948,23964,23981,23998,24015,24031,24048,24064,24081,24098,24114,24132,24148,24164,24181,24198,24214,24231,24248,24264,24284,24297,24315,24331,24348,24364,24381,24398,24415,24431,24448,24464,24481,24498,24515,24531,24548,24565,24582,24598,24614,24631,24649,24664,24681,24698,24715,24735,24747,24764,24781,24798,24814,24831,24848,24865,24881,24898,24915,24931,24947,24965,24981,24998,25014,25031,25048,25065,25082,25101,25114,25131,25148,25166,25181,25198,25214,25231,25247,25265,25281,25298,25314,25335,25348,25365,25381,25398,25414,25431,25448,25465,25481,25498,25515,25531,25548,25567,25581,25598,25614,25634,25648,25664,25681,25699,25714,25731,25748,25764,25784,25798,25814,25832,25847,25864,25881,25897,25918,25931,25948,25964,25982,25998,26014,26031,26049,26066,26081,26097,26118,26130,26147,26168,26181,26202,26214,26231,26248,26264,26285,26298,26315,26331,26348,26364,26381,26398,26414,26431,26448,26465,26481,26497,26514,26531,26548,26564,26581,26597,26614,26631,26647,26668,26681,26698,26714,26731,26748,26768,26781,26798,26814,26832,26847,26865,26881,26898,26914,26931,26951,26964,26980,27001,27014,27031,27048,27064,27081,27098,27114,27135,27147,27165,27182,27198,27214,27231,27248,27264,27281,27298,27315,27331,27347,27365,27382,27398,27414,27431,27448,27464,27481,27500,27514,27531,27547,27564,27581,27598,27618,27631,27648,27664,27681,27697,27715,27731,27748,27764,27781,27798,27815,27831,27848,27865,27881,27898,27914,27931,27951,27964,27981,27998,28018,28031,28048,28064,28081,28097,28118,28131,28152,28164,28182,28197,28214,28231,28247,28267,28282,28297,28314,28332,28348,28365,28381,28397,28415,28431,28452,28465,28481,28498,28514,28531,28548,28565,28581,28598,28614,28631,28648,28664,28681,28697,28714,28731,28747,28764,28781,28798,28814,28831,28848,28864,28881,28898,28914,28931,28948,28965,28981,28997,29014,29031,29048,29064,29081,29098,29114,29131,29147,29164,29181,29197,29214,29231,29248,29264,29281,29298,29314,29331,29348,29364,29381,29398,29414,29431,29448,29465,29481,29499,29514,29531,29548,29564,29581,29598,29615,29631,29647,29664,29681,29697,29718,29731,29748,29764,29781,29797,29814,29831,29847,29864,29881,29897,29914,29931,29949],"hit":[null],"x":[-2.0408163265306123,-2.0408163265306123,-2.0408163265306123,-2.0408163265306123,-2.0408163265306123,-2.0408163265306123,-2.0408163265306123,-2.0408163265306123,-2.0408163265306123,-2.0408163265306123,-2.0408163265306123,-2.0408163265306123,0.047619047619047616,0.047619047619047616,0.10204081632653061,0.10204081632653061,0.24489795918367346,0.24489795918367346,0.24489795918367346,0.35714285714285715,0.35714285714285715,0.3707482993197279,0.3741496598639456,0.3741496598639456,0.3741496598639456,0.3741496598639456,0.37755102040816324,0.37755102040816324,0.37755102040816324,0.38095238095238093,0.38095238095238093,0.3673469387755102,0.3299319727891156,0.29931972789115646,0.29931972789115646,0.2755102040816326,0.2755102040816326,0.2755102040816326,0.2755102040816326,0.2755102040816326,0.282312925170068,0.282312925170068,0.2857142857142857,0.2857142857142857,0.2857142857142857,0.2857142857142857,0.2857142857142857,0.282312925170068,0.282312925170068,0.282312925170068,0.282312925170068,0.282312925170068,0.282312925170068,0.282312925170068,0.282312925170068,0.24489795918367346,0.21768707482993196,0.21768707482993196,0.21768707482993196,0.21768707482993196,0.21768707482993196,0.21768707482993196,0.21768707482993196,0.21768707482993196,0.21768707482993196,0.21768707482993196,0.21768707482993196,0.21768707482993196,0.21768707482993196,0.21768707482993196,0.21768707482993196,0.21768707482993196,0.21768707482993196,0.21768707482993196,0.21768707482993196,0.21428571428571427,0.21428571428571427,0.21428571428571427,0.21428571428571427,0.2108843537414966,0.20408163265306123,0.20408163265306123,0.20408163265306123,0.19387755102040816,0.1870748299319728,0.17346938775510204,0.15306122448979592,0.14965986394557823,0.1360544217687075,0.11224489795918367,0.09523809523809523,0.07482993197278912,0.07482993197278912,0.06462585034013606,0.06462585034013606,0.05102040816326531,0.047619047619047616,0.04081632653061224,0.03741496598639456,0.03741496598639456,0.034013605442176874,0.034013605442176874,0.034013605442176874,0.034013605442176874,0.034013605442176874,0.034013605442176874,0.034013605442176874,0.03741496598639456,0.05442176870748299,0.05442176870748299,0.06802721088435375,0.07482993197278912,0.07482993197278912,0.07482993197278912,0.07482993197278912,0.07482993197278912,0.07482993197278912,0.07482993197278912,0.07482993197278912,0.07482993197278912,0.0782312925170068,0.10884353741496598,0.10884353741496598,0.12244897959183673,0.13945578231292516,0.14285714285714285,0.14285714285714285,0.14285714285714285,0.14285714285714285,0.14285714285714285,0.14285714285714285,0.14285714285714285,0.14285714285714285,0.14285714285714285,0.14285714285714285,0.14285714285714285,0.14285714285714285,0.14625850340136054,0.1360544217687075,0.12585034013605442,0.11904761904761904,0.10884353741496598,0.10884353741496598,0.10204081632653061,0.10204081632653061,0.09523809523809523,0.09183673469387756,0.08163265306122448,0.0782312925170068,0.07482993197278912,0.07482993197278912,0.06802721088435375,0.06802721088435375,0.05782312925170068,0.05442176870748299,0.047619047619047616,0.047619047619047616,0.047619047619047616,0.047619047619047616,0.047619047619047616,0.047619047619047616,0.06462585034013606,0.09523809523809523,0.09523809523809523,0.12585034013605442,0.14965986394557823,0.17006802721088435,0.17006802721088435,0.17687074829931973,0.17687074829931973,0.17687074829931973,0.17687074829931973,0.17687074829931973,0.17687074829931973,0.17687074829931973,0.17687074829931973,0.17346938775510204,0.1598639455782313,0.14965986394557823,0.14285714285714285,0.14285714285714285,0.14285714285714285,0.14285714285714285,0.14285714285714285,0.14285714285714285,0.14285714285714285,0.14285714285714285,0.14285714285714285,0.14285714285714285,0.14285714285714285,0.14285714285714285,0.14285714285714285,0.14285714285714285,0.14285714285714285,0.14285714285714285,0.14285714285714285,0.14285714285714285,0.14285714285714285,0.16326530612244897,0.16326530612244897,0.16326530612244897,0.16326530612244897,0.16326530612244897,0.1564625850340136,0.1564625850340136,0.1564625850340136,0.1564625850340136,0.1564625850340136,0.1564625850340136,0.1564625850340136,0.1564625850340136,0.1564625850340136,0.1564625850340136,0.1564625850340136,0.1564625850340136,0.1564625850340136,0.1564625850340136,0.1564625850340136,0.1564625850340136,0.1564625850340136,0.17687074829931973,0.17687074829931973,0.23129251700680273,0.23129251700680273,0.24489795918367346,0.24489795918367346,0.2857142857142857,0.2857142857142857,0.3197278911564626,0.3707482993197279,0.3707482993197279,0.43197278911564624,0.47278911564625853,0.48299319727891155,0.48299319727891155,0.5034013605442177,0.5238095238095238,0.54421768707483,0.54421768707483,0.5544217687074829,0.5544217687074829,0.5544217687074829,0.5544217687074829,0.5714285714285714,0.5850340136054422,0.5850340136054422,0.5850340136054422,0.5850340136054422,0.5578231292517006,0.4217687074829932,0.2925170068027211,0.2925170068027211,0.21768707482993196,0.20408163265306123,0.20408163265306123,0.20408163265306123,0.20408163265306123,0.20408163265306123,0.20408163265306123,0.20408163265306123,0.20408163265306123,0.20408163265306123,0.20408163265306123,0.20408163265306123,0.24489795918367346,0.24489795918367346,0.3129251700680272,0.3401360544217687,0.3979591836734694,0.3979591836734694,0.3979591836734694,0.3979591836734694,0.3979591836734694,0.3979591836734694,0.3979591836734694,0.3979591836734694,0.3979591836734694,0.3979591836734694,0.3979591836734694,0.3979591836734694,0.3979591836734694,0.40816326530612246,0.45918367346938777,0.5408163265306123,0.5952380952380952,0.5952380952380952,0.6190476190476191,0.6190476190476191,0.6190476190476191,0.6190476190476191,0.6190476190476191,0.6190476190476191,0.6190476190476191,0.6190476190476191,0.6190476190476191,0.6190476190476191,0.6190476190476191,0.6190476190476191,0.6190476190476191,0.6190476190476191,0.6190476190476191,0.6190476190476191,0.6190476190476191,0.6190476190476191,0.6190476190476191,0.6190476190476191,0.6190476190476191,0.6224489795918368,0.6700680272108843,0.7312925170068028,0.7312925170068028,0.7755102040816326,0.782312925170068,0.782312925170068,0.782312925170068,0.782312925170068,0.782312925170068,0.782312925170068,0.782312925170068,0.782312925170068,0.782312925170068,0.782312925170068,0.782312925170068,0.782312925170068,0.782312925170068,0.782312925170068,0.782312925170068,0.782312925170068,0.782312925170068,0.782312925170068,0.782312925170068,0.782312925170068,0.782312925170068,0.782312925170068,0.782312925170068,0.782312925170068,0.782312925170068,0.7346938775510204,0.7346938775510204,0.6904761904761905,0.6394557823129252,0.5918367346938775,0.5918367346938775,0.5578231292517006,0.54421768707483,0.5136054421768708,0.5136054421768708,0.5,0.48299319727891155,0.47959183673469385,0.47959183673469385,0.47959183673469385,0.47959183673469385,0.46258503401360546,0.4421768707482993,0.4421768707482993,0.41496598639455784,0.3979591836734694,0.3945578231292517,0.3945578231292517,0.3945578231292517,0.4013605442176871,0.4013605442176871,0.48299319727891155,0.6326530612244898,0.6326530612244898,0.7346938775510204,0.7721088435374149,0.7721088435374149,0.7721088435374149,0.7687074829931972,0.7687074829931972,0.7210884353741497,0.6938775510204082,0.5850340136054422,0.5850340136054422,0.5204081632653061,0.46598639455782315,0.42857142857142855,0.42857142857142855,0.41836734693877553,0.40816326530612246,0.40816326530612246,0.3979591836734694,0.3843537414965986,0.3401360544217687,0.3401360544217687,0.21768707482993196,0.1292517006802721,0.08503401360544217,0.08503401360544217,0.06802721088435375,0.06462585034013606,0.06462585034013606,0.06462585034013606,0.10204081632653061,0.1564625850340136,0.21768707482993196,0.21768707482993196,0.272108843537415,0.272108843537415,0.2857142857142857,0.2857142857142857,0.2857142857142857,0.2585034013605442,0.23129251700680273,0.23129251700680273,0.2108843537414966,0.20068027210884354,0.20068027210884354,0.19387755102040816,0.19047619047619047,0.19047619047619047,0.19047619047619047,0.19047619047619047,0.19047619047619047,0.19047619047619047,0.19047619047619047,0.19047619047619047,0.19047619047619047,0.1836734693877551,0.17346938775510204,0.17346938775510204,0.17006802721088435,0.17006802721088435,0.17006802721088435,0.16326530612244897,0.16326530612244897,0.16326530612244897,0.16326530612244897,0.16326530612244897,0.16326530612244897,0.16326530612244897,0.16326530612244897,0.16326530612244897,0.16326530612244897,0.16326530612244897,0.16326530612244897,0.16326530612244897,0.16326530612244897,0.16326530612244897,0.16326530612244897,0.16326530612244897,0.16326530612244897,0.16326530612244897,0.16326530612244897,0.16326530612244897,0.16326530612244897,0.16326530612244897,0.16326530612244897,0.16326530612244897,0.16326530612244897,0.16326530612244897,0.16326530612244897,0.16326530612244897,0.16326530612244897,0.16326530612244897,0.16326530612244897,0.16326530612244897,0.16326530612244897,0.16326530612244897,0.16326530612244897,0.16326530612244897,0.1836734693877551,0.24829931972789115,0.3673469387755102,0.3673469387755102,0.4897959183673469,0.4897959183673469,0.5850340136054422,0.6190476190476191,0.6224489795918368,0.6224489795918368,0.6224489795918368,0.6224489795918368,0.6224489795918368,0.6224489795918368,0.6224489795918368,0.6122448979591837,0.6122448979591837,0.6054421768707483,0.6054421768707483,0.6054421768707483,0.6054421768707483,0.6054421768707483,0.6054421768707483,0.6054421768707483,0.6054421768707483,0.6054421768707483,0.6054421768707483,0.5952380952380952,0.5578231292517006,0.5170068027210885,0.5170068027210885,0.4557823129251701,0.41836734693877553,0.41836734693877553,0.3945578231292517,0.3945578231292517,0.35374149659863946,0.35374149659863946,0.3299319727891156,0.3197278911564626,0.29931972789115646,0.29931972789115646,0.2891156462585034,0.272108843537415,0.23809523809523808,0.23809523809523808,0.19387755102040816,0.19387755102040816,0.10204081632653061,0.10204081632653061,0.0782312925170068,0.06802721088435375,0.06802721088435375,0.061224489795918366,0.061224489795918366,0.061224489795918366,0.061224489795918366,0.061224489795918366,0.061224489795918366,0.07482993197278912,0.14285714285714285,0.2891156462585034,0.4489795918367347,0.4489795918367347,0.6394557823129252,0.6394557823129252,0.7891156462585034,0.9047619047619048,0.9829931972789115,1.0408163265306123,1.0408163265306123,1.0680272108843538,1.0680272108843538,1.1088435374149659,1.1088435374149659,1.129251700680272,1.129251700680272,1.1564625850340136,1.1564625850340136,1.163265306122449,1.163265306122449,1.163265306122449,1.163265306122449,1.163265306122449,1.163265306122449,1.163265306122449,1.163265306122449,1.1598639455782314,1.1496598639455782,1.129251700680272,1.1122448979591837,1.1122448979591837,1.1054421768707483,1.1020408163265305,1.1020408163265305,1.1020408163265305,1.0952380952380953,1.0952380952380953,1.0952380952380953,1.0816326530612246,1.0680272108843538,1.0680272108843538,1.0510204081632653,1.0476190476190477,1.0476190476190477,1.0476190476190477,1.0476190476190477,1.0476190476190477,1.0476190476190477,1.0476190476190477,1.0476190476190477,1.0476190476190477,1.0476190476190477,1.0510204081632653,1.054421768707483,1.0578231292517006,1.0578231292517006,1.0578231292517006,1.0680272108843538,1.0748299319727892,1.0748299319727892,1.08843537414966,1.1054421768707483,1.1258503401360545,1.1258503401360545,1.1394557823129252,1.1428571428571428,1.1428571428571428,1.1428571428571428,1.1428571428571428,1.1428571428571428,1.1428571428571428,1.1428571428571428,1.1428571428571428,1.1428571428571428,1.1428571428571428,1.1428571428571428,1.1428571428571428,1.1428571428571428,1.1428571428571428,1.1428571428571428,1.1428571428571428,1.1428571428571428,1.1428571428571428,1.1428571428571428,1.1428571428571428,1.1428571428571428,1.1428571428571428,1.1428571428571428,1.1428571428571428,1.1428571428571428,1.1428571428571428,1.1020408163265305,1.0850340136054422,1.054421768707483,1.054421768707483,1.0238095238095237,1.0238095238095237,0.9931972789115646,0.9931972789115646,0.9693877551020408,0.9591836734693877,0.9081632653061225,0.9081632653061225,0.8639455782312925,0.8197278911564626,0.8197278911564626,0.7755102040816326,0.7346938775510204,0.7346938775510204,0.717687074829932,0.7006802721088435,0.6870748299319728,0.6666666666666666,0.6666666666666666,0.6496598639455783,0.6224489795918368,0.5884353741496599,0.5884353741496599,0.54421768707483,0.4897959183673469,0.4897959183673469,0.4013605442176871,0.3333333333333333,0.3333333333333333,0.2687074829931973,0.20408163265306123,0.14285714285714285,0.14285714285714285,0.10884353741496598,0.10884353741496598,0.10204081632653061,0.10204081632653061,0.10204081632653061,0.10204081632653061,0.11564625850340136,0.1326530612244898,0.1836734693877551,0.1836734693877551,0.25510204081632654,0.3401360544217687,0.3401360544217687,0.43537414965986393,0.5170068027210885,0.5170068027210885,0.5918367346938775,0.6428571428571429,0.6802721088435374,0.6870748299319728,0.6870748299319728,0.6870748299319728,0.6870748299319728,0.6870748299319728,0.6870748299319728,0.6870748299319728,0.6870748299319728,0.6530612244897959,0.6530612244897959,0.5714285714285714,0.46598639455782315,0.3163265306122449,0.3163265306122449,0.17346938775510204,0.10884353741496598,0.10884353741496598,0.06462585034013606,0.05442176870748299,0.05442176870748299,0.05442176870748299,0.05442176870748299,0.05442176870748299,0.04421768707482993,0.04421768707482993,0.04421768707482993,0.03741496598639456,0.03741496598639456,0.02040816326530612,0.013605442176870748,0.01020408163265306,0.01020408163265306,0.01020408163265306,0.01020408163265306,0.01020408163265306,0.01020408163265306,0.01020408163265306,0.01020408163265306,0.01020408163265306,0.01020408163265306,0.01020408163265306,0.01020408163265306,0.01020408163265306,0.01020408163265306,0.01020408163265306,0.01020408163265306,0.01020408163265306,0.01020408163265306,0.01020408163265306,0.01020408163265306,0.01020408163265306,0.01020408163265306,0.01020408163265306,0.01020408163265306,0.01020408163265306,0.01020408163265306,0.01020408163265306,0.01020408163265306,0.01020408163265306,0.01020408163265306,0.01020408163265306,0.01020408163265306,0.034013605442176874,0.061224489795918366,0.061224489795918366,0.08163265306122448,0.09183673469387756,0.09523809523809523,0.09523809523809523,0.09523809523809523,0.09523809523809523,0.09523809523809523,0.09523809523809523,0.09523809523809523,0.09523809523809523,0.09523809523809523,0.09523809523809523,0.09523809523809523,0.09523809523809523,0.09523809523809523,0.09523809523809523,0.09523809523809523,0.09523809523809523,0.09523809523809523,0.09523809523809523,0.09523809523809523,0.09523809523809523,0.09523809523809523,0.09523809523809523,0.09523809523809523,0.09523809523809523,0.09523809523809523,0.09523809523809523,0.09523809523809523,0.09523809523809523,0.10884353741496598,0.16326530612244897,0.16326530612244897,0.19047619047619047,0.2108843537414966,0.2108843537414966,0.2108843537414966,0.2108843537414966,0.2108843537414966,0.21768707482993196,0.21768707482993196,0.23129251700680273,0.23129251700680273,0.24489795918367346,0.25510204081632654,0.2619047619047619,0.2619047619047619,0.272108843537415,0.2755102040816326,0.2755102040816326,0.2755102040816326,0.2755102040816326,0.2755102040816326,0.2755102040816326,0.2755102040816326,0.2755102040816326,0.2755102040816326,0.2755102040816326,0.2755102040816326,0.2755102040816326,0.2755102040816326,0.2755102040816326,0.2755102040816326,0.2755102040816326,0.2755102040816326,0.2755102040816326,0.2755102040816326,0.2755102040816326,0.2755102040816326,0.2755102040816326,0.2755102040816326,0.2755102040816326,0.2755102040816326,0.2755102040816326,0.2755102040816326,0.2755102040816326,0.2755102040816326,0.2755102040816326,0.2755102040816326,0.2755102040816326,0.2755102040816326,0.2755102040816326,0.2755102040816326,0.2755102040816326,0.2755102040816326,0.2755102040816326,0.2755102040816326,0.2755102040816326,0.2755102040816326,0.2755102040816326,0.2755102040816326,0.2755102040816326,0.2755102040816326,0.2755102040816326,0.2755102040816326,0.2755102040816326,0.2755102040816326,0.2755102040816326,0.2755102040816326,0.2755102040816326,0.2755102040816326,0.2755102040816326,0.2755102040816326,0.2755102040816326,0.2755102040816326,0.2789115646258503,0.2789115646258503,0.29591836734693877,0.29591836734693877,0.29931972789115646,0.30952380952380953,0.3197278911564626,0.3197278911564626,0.336734693877551,0.35034013605442177,0.35034013605442177,0.3741496598639456,0.4387755102040816,0.5204081632653061,0.5204081632653061,0.5986394557823129,0.6326530612244898,0.6462585034013606,0.6462585034013606,0.6496598639455783,0.6496598639455783,0.6496598639455783,0.6496598639455783,0.6496598639455783,0.6496598639455783,0.6496598639455783,0.6496598639455783,0.6530612244897959,0.6938775510204082,0.7244897959183674,0.7244897959183674,0.7482993197278912,0.7755102040816326,0.7891156462585034,0.7891156462585034,0.7993197278911565,0.7993197278911565,0.8027210884353742,0.8027210884353742,0.8027210884353742,0.8027210884353742,0.7755102040816326,0.7074829931972789,0.7074829931972789,0.5986394557823129,0.5272108843537415,0.5272108843537415,0.46938775510204084,0.445578231292517,0.4217687074829932,0.3741496598639456,0.3741496598639456,0.30952380952380953,0.30952380952380953,0.25510204081632654,0.25510204081632654,0.25170068027210885,0.25170068027210885,0.25170068027210885,0.25170068027210885,0.25170068027210885,0.25170068027210885,0.23809523809523808,0.21768707482993196,0.21768707482993196,0.19047619047619047,0.16666666666666666,0.15306122448979592,0.14965986394557823,0.14965986394557823,0.14965986394557823,0.14965986394557823,0.14965986394557823,0.14965986394557823,0.14965986394557823,0.14965986394557823,0.14965986394557823,0.14965986394557823,0.14965986394557823,0.14965986394557823,0.14965986394557823,0.14965986394557823,0.14965986394557823,0.14965986394557823,0.14965986394557823,0.14965986394557823,0.14965986394557823,0.14965986394557823,0.14965986394557823,0.14965986394557823,0.14965986394557823,0.14965986394557823,0.14965986394557823,0.14965986394557823,0.14965986394557823,0.14965986394557823,0.14965986394557823,0.14965986394557823,0.14965986394557823,0.14965986394557823,0.14965986394557823,0.14965986394557823,0.14965986394557823,0.14965986394557823,0.19727891156462585,0.19727891156462585,0.272108843537415,0.3741496598639456,0.3741496598639456,0.4897959183673469,0.5714285714285714,0.6156462585034014,0.6156462585034014,0.6224489795918368,0.6224489795918368,0.6224489795918368,0.6224489795918368,0.6224489795918368,0.6224489795918368,0.6224489795918368,0.6224489795918368,0.6224489795918368,0.6258503401360545,0.6258503401360545,0.5986394557823129,0.5986394557823129,0.5714285714285714,0.54421768707483,0.5272108843537415,0.5034013605442177,0.5034013605442177,0.47959183673469385,0.43537414965986393,0.43537414965986393,0.3877551020408163,0.336734693877551,0.282312925170068,0.2585034013605442,0.24829931972789115,0.24489795918367346,0.23129251700680273,0.22108843537414966,0.21768707482993196,0.21768707482993196,0.2108843537414966,0.20408163265306123,0.19047619047619047,0.19047619047619047,0.16326530612244897,0.14965986394557823,0.14625850340136054,0.14625850340136054,0.14625850340136054,0.14625850340136054,0.14625850340136054,0.14625850340136054,0.14625850340136054,0.14625850340136054,0.14625850340136054,0.14625850340136054,0.14965986394557823,0.1564625850340136,0.17687074829931973,0.17687074829931973,0.19047619047619047,0.19727891156462585,0.20068027210884354,0.20068027210884354,0.20068027210884354,0.20068027210884354,0.20068027210884354,0.20748299319727892,0.20748299319727892,0.24149659863945577,0.3231292517006803,0.40816326530612246,0.40816326530612246,0.48639455782312924,0.5068027210884354,0.54421768707483,0.54421768707483,0.5476190476190477,0.5544217687074829,0.5544217687074829,0.5578231292517006,0.5612244897959183,0.564625850340136,0.564625850340136,0.5782312925170068,0.5782312925170068,0.5918367346938775,0.5952380952380952,0.5952380952380952,0.5986394557823129,0.6020408163265306,0.608843537414966,0.6156462585034014,0.6156462585034014,0.6190476190476191,0.6224489795918368,0.6224489795918368,0.6224489795918368,0.6224489795918368,0.6224489795918368,0.6224489795918368,0.6224489795918368,0.6224489795918368,0.6224489795918368,0.6224489795918368,0.6224489795918368,0.6224489795918368,0.6224489795918368,0.6224489795918368,0.6224489795918368,0.6224489795918368,0.6224489795918368,0.6224489795918368,0.6224489795918368,0.6224489795918368,0.6224489795918368,0.6224489795918368,0.6224489795918368,0.6224489795918368,0.6224489795918368,0.6224489795918368,0.6224489795918368,0.6224489795918368,0.6224489795918368,0.6224489795918368,0.6224489795918368,0.6224489795918368,0.6224489795918368,0.6224489795918368,0.6224489795918368,0.6224489795918368,0.6258503401360545,0.6258503401360545,0.6360544217687075,0.6428571428571429,0.6530612244897959,0.6700680272108843,0.6700680272108843,0.6802721088435374,0.6972789115646258,0.7074829931972789,0.7074829931972789,0.7074829931972789,0.7108843537414966,0.7108843537414966,0.7108843537414966,0.7108843537414966,0.7108843537414966,0.7108843537414966,0.7108843537414966,0.7244897959183674,0.7346938775510204,0.7346938775510204,0.7551020408163265,0.7653061224489796,0.7653061224489796,0.7857142857142857,0.7993197278911565,0.8027210884353742,0.8027210884353742,0.8027210884353742,0.8027210884353742,0.8027210884353742,0.8027210884353742,0.8027210884353742,0.8027210884353742,0.8027210884353742,0.8027210884353742,0.8027210884353742,0.8027210884353742,0.8027210884353742,0.8027210884353742,0.8027210884353742,0.8027210884353742,0.8027210884353742,0.7993197278911565,0.7925170068027211,0.7891156462585034,0.7891156462585034,0.7891156462585034,0.7789115646258503,0.7789115646258503,0.7789115646258503,0.7789115646258503,0.7789115646258503,0.7789115646258503,0.7789115646258503,0.7789115646258503,0.7789115646258503,0.7789115646258503,0.7789115646258503,0.7789115646258503,0.7789115646258503,0.7789115646258503,0.7789115646258503,0.7789115646258503,0.7789115646258503,0.7789115646258503,0.7789115646258503,0.7789115646258503,0.7755102040816326,0.7517006802721088,0.7517006802721088,0.7380952380952381,0.7346938775510204,0.7346938775510204,0.7346938775510204,0.7278911564625851,0.7244897959183674,0.717687074829932,0.7108843537414966,0.7108843537414966,0.7074829931972789,0.7074829931972789,0.6972789115646258,0.6870748299319728,0.6870748299319728,0.673469387755102,0.6530612244897959,0.6530612244897959,0.5918367346938775,0.5918367346938775,0.5306122448979592,0.5306122448979592,0.47619047619047616,0.42517006802721086,0.4013605442176871,0.4013605442176871,0.3673469387755102,0.3673469387755102,0.35374149659863946,0.35374149659863946,0.3333333333333333,0.3163265306122449,0.30612244897959184,0.2755102040816326,0.2755102040816326,0.2755102040816326,0.2755102040816326,0.23469387755102042,0.23469387755102042,0.23129251700680273,0.23129251700680273,0.23129251700680273,0.23129251700680273,0.23129251700680273,0.23129251700680273,0.23129251700680273,0.23129251700680273,0.23129251700680273,0.23129251700680273,0.23129251700680273,0.23469387755102042,0.24489795918367346,0.24489795918367346,0.24489795918367346,0.24489795918367346,0.24489795918367346,0.24489795918367346,0.24489795918367346,0.24489795918367346,0.24489795918367346,0.24489795918367346,0.23129251700680273,0.23129251700680273,0.17006802721088435,0.10884353741496598,0.08843537414965986,0.08843537414965986,0.08843537414965986,0.08843537414965986,0.08843537414965986,0.08843537414965986,0.08843537414965986,0.08843537414965986,0.09863945578231292,0.14625850340136054,0.14625850340136054,0.17006802721088435,0.19047619047619047,0.19047619047619047,0.19047619047619047,0.19047619047619047,0.19047619047619047,0.19047619047619047,0.19047619047619047,0.19047619047619047,0.20408163265306123,0.20408163265306123,0.272108843537415,0.3945578231292517,0.3945578231292517,0.5238095238095238,0.6122448979591837,0.6122448979591837,0.6666666666666666,0.6666666666666666,0.7074829931972789,0.7380952380952381,0.7755102040816326,0.7755102040816326,0.8027210884353742,0.8027210884353742,0.8299319727891157,0.8299319727891157,0.8673469387755102,0.8843537414965986,0.8979591836734694,0.9251700680272109,0.9285714285714286,0.935374149659864,0.9455782312925171,0.9625850340136054,0.9625850340136054,0.9761904761904762,0.9795918367346939,0.9795918367346939,0.9863945578231292,0.9863945578231292,0.9863945578231292,0.9863945578231292,0.9863945578231292,0.9863945578231292,0.9863945578231292,0.9931972789115646,1.0068027210884354,1.010204081632653,1.010204081632653,1.010204081632653,1.0068027210884354,1.0068027210884354,0.9897959183673469,0.95578231292517,0.95578231292517,0.9115646258503401,0.9115646258503401,0.9115646258503401,0.8979591836734694,0.8979591836734694,0.891156462585034,0.8843537414965986,0.8843537414965986,0.8707482993197279,0.8537414965986394,0.8537414965986394,0.8061224489795918,0.8061224489795918,0.8061224489795918,0.7993197278911565,0.782312925170068,0.7619047619047619,0.7619047619047619,0.7346938775510204,0.7278911564625851,0.7278911564625851,0.7278911564625851,0.7278911564625851,0.7278911564625851,0.7278911564625851,0.7278911564625851,0.7278911564625851,0.7278911564625851,0.7278911564625851,0.7278911564625851,0.7278911564625851,0.7278911564625851,0.7278911564625851,0.7278911564625851,0.7278911564625851,0.7278911564625851,0.7278911564625851,0.7278911564625851,0.7278911564625851,0.7278911564625851,0.7278911564625851,0.7278911564625851,0.7278911564625851,0.7278911564625851,0.7278911564625851,0.7278911564625851,0.7244897959183674,0.7244897959183674,0.7108843537414966,0.6870748299319728,0.6598639455782312,0.6258503401360545,0.5918367346938775,0.5918367346938775,0.5408163265306123,0.4557823129251701,0.4557823129251701,0.3741496598639456,0.3197278911564626,0.3197278911564626,0.2857142857142857,0.272108843537415,0.272108843537415,0.272108843537415,0.272108843537415,0.272108843537415,0.2619047619047619,0.2619047619047619,0.24489795918367346,0.22789115646258504,0.21768707482993196,0.21768707482993196,0.21768707482993196,0.21768707482993196,0.21768707482993196,0.21768707482993196,0.21768707482993196,0.21768707482993196,0.21768707482993196,0.21768707482993196,0.21768707482993196,0.21768707482993196,0.20408163265306123,0.20408163265306123,0.19727891156462585,0.19387755102040816,0.19387755102040816,0.19047619047619047,0.19047619047619047,0.1870748299319728,0.1870748299319728,0.18027210884353742,0.18027210884353742,0.17687074829931973,0.17687074829931973,0.17687074829931973,0.17687074829931973,0.17687074829931973,0.17687074829931973,0.17687074829931973,0.17687074829931973,0.17687074829931973,0.17687074829931973,0.17687074829931973,0.17687074829931973,0.17687074829931973,0.17687074829931973,0.17687074829931973,0.17687074829931973,0.17687074829931973,0.17687074829931973,0.17687074829931973,0.17687074829931973,0.17687074829931973,0.17687074829931973,0.17687074829931973,0.17687074829931973,0.17687074829931973,0.17687074829931973,0.17687074829931973,0.17687074829931973,0.17687074829931973,0.17687074829931973,0.17687074829931973,0.17687074829931973,0.19047619047619047,0.19047619047619047,0.21768707482993196,0.24149659863945577,0.2653061224489796,0.2653061224489796,0.2925170068027211,0.2925170068027211,0.3129251700680272,0.3299319727891156,0.3401360544217687,0.35374149659863946,0.35374149659863946,0.3707482993197279,0.38095238095238093,0.3945578231292517,0.3945578231292517,0.40476190476190477,0.40476190476190477,0.40816326530612246,0.40816326530612246,0.40816326530612246,0.40816326530612246,0.40816326530612246,0.40816326530612246,0.40816326530612246,0.40816326530612246,0.40816326530612246,0.40816326530612246,0.40816326530612246,0.40816326530612246,0.40816326530612246,0.40816326530612246,0.40816326530612246,0.40816326530612246,0.40816326530612246,0.40816326530612246,0.40816326530612246,0.40816326530612246,0.40816326530612246,0.40816326530612246,0.40816326530612246,0.40816326530612246,0.40816326530612246,0.40816326530612246,0.40816326530612246,0.40816326530612246,0.40816326530612246,0.40816326530612246,0.40816326530612246,0.40816326530612246,0.40816326530612246,0.41496598639455784,0.41496598639455784,0.42857142857142855,0.4421768707482993,0.48299319727891155,0.48299319727891155,0.5,0.5034013605442177,0.5068027210884354,0.5068027210884354,0.5102040816326531,0.5102040816326531,0.5102040816326531,0.5034013605442177,0.47959183673469385,0.445578231292517,0.445578231292517,0.38095238095238093,0.3129251700680272,0.24829931972789115,0.24829931972789115,0.20068027210884354,0.17687074829931973,0.17687074829931973,0.1598639455782313,0.13945578231292516,0.11904761904761904,0.08843537414965986,0.08843537414965986,0.07142857142857142,0.06802721088435375,0.06802721088435375,0.06802721088435375,0.06802721088435375,0.06802721088435375,0.08503401360544217,0.08503401360544217,0.1360544217687075,0.22108843537414966,0.35374149659863946,0.35374149659863946,0.4489795918367347,0.5578231292517006,0.7074829931972789,0.7074829931972789,0.7482993197278912,0.7755102040816326,0.8027210884353742,0.8333333333333334,0.8707482993197279,0.9115646258503401,0.9115646258503401,0.9523809523809523,0.9523809523809523,0.9523809523809523,0.9523809523809523,0.9523809523809523,0.9387755102040817,0.9387755102040817,0.9115646258503401,0.9013605442176871,0.9013605442176871,0.9013605442176871,0.9013605442176871,0.9013605442176871,0.9013605442176871,0.9115646258503401,0.9217687074829932,0.9387755102040817,0.9387755102040817,0.9523809523809523,0.9625850340136054,0.9659863945578231,0.9659863945578231,0.9659863945578231,0.9659863945578231,0.9659863945578231,0.9659863945578231,0.9659863945578231,0.9659863945578231,0.9659863945578231,0.9659863945578231,0.9659863945578231,0.9659863945578231,0.9659863945578231,0.9659863945578231,0.9659863945578231,0.9659863945578231,0.9659863945578231,0.9659863945578231,0.9659863945578231,0.9659863945578231,0.9659863945578231,0.9693877551020408,0.9693877551020408,0.9523809523809523,0.9285714285714286,0.9285714285714286,0.8979591836734694,0.8673469387755102,0.8299319727891157,0.8299319727891157,0.7857142857142857,0.7006802721088435,0.7006802721088435,0.6394557823129252,0.564625850340136,0.564625850340136,0.4965986394557823,0.4421768707482993,0.41496598639455784,0.41496598639455784,0.40816326530612246,0.40816326530612246,0.4013605442176871,0.391156462585034,0.3741496598639456,0.3401360544217687,0.32653061224489793,0.32653061224489793,0.3129251700680272,0.3129251700680272,0.30612244897959184,0.29931972789115646,0.29931972789115646,0.30612244897959184,0.30612244897959184,0.3197278911564626,0.35374149659863946,0.4013605442176871,0.4013605442176871,0.4421768707482993,0.4965986394557823,0.5612244897959183,0.5612244897959183,0.6122448979591837,0.6292517006802721,0.6292517006802721,0.6360544217687075,0.6394557823129252,0.6394557823129252,0.6258503401360545,0.6258503401360545,0.5986394557823129,0.5986394557823129,0.5714285714285714,0.54421768707483,0.5306122448979592,0.5136054421768708,0.5,0.4965986394557823,0.47619047619047616,0.47619047619047616,0.4489795918367347,0.41836734693877553,0.40476190476190477,0.4013605442176871,0.4013605442176871,0.4013605442176871,0.4013605442176871,0.3843537414965986,0.37755102040816324,0.37755102040816324,0.36394557823129253,0.35374149659863946,0.35034013605442177,0.3469387755102041,0.3469387755102041,0.3469387755102041,0.3469387755102041,0.35374149659863946,0.3945578231292517,0.46258503401360546,0.46258503401360546,0.5170068027210885,0.5170068027210885,0.6054421768707483,0.6054421768707483,0.6292517006802721,0.6802721088435374,0.6802721088435374,0.7244897959183674,0.7585034013605442,0.7925170068027211,0.8333333333333334,0.8333333333333334,0.8673469387755102,0.8673469387755102,0.8741496598639455,0.8843537414965986,0.8877551020408163,0.891156462585034,0.891156462585034,0.9115646258503401,0.9251700680272109,0.9727891156462585,0.9727891156462585,0.9897959183673469,1.0068027210884354,1.0068027210884354,1.0204081632653061,1.0374149659863945,1.0374149659863945,1.064625850340136,1.064625850340136,1.08843537414966,1.1020408163265305,1.1020408163265305,1.1122448979591837,1.1156462585034013,1.119047619047619,1.119047619047619,1.119047619047619,1.119047619047619,1.1258503401360545,1.1258503401360545,1.1258503401360545,1.1258503401360545,1.1258503401360545,1.1258503401360545,1.1258503401360545,1.1258503401360545,1.1258503401360545,1.1258503401360545,1.1258503401360545,1.1258503401360545,1.1258503401360545,1.1258503401360545,1.1258503401360545,1.1258503401360545,1.1258503401360545,1.098639455782313,1.08843537414966,1.0782312925170068,1.0612244897959184,1.0476190476190477,1.0476190476190477,1.0272108843537415,0.9931972789115646,0.9693877551020408,0.9183673469387755,0.9183673469387755,0.8571428571428571,0.7619047619047619,0.6632653061224489,0.6632653061224489,0.5884353741496599,0.5340136054421769,0.5340136054421769,0.4897959183673469,0.46598639455782315,0.43197278911564624,0.43197278911564624,0.40816326530612246,0.3979591836734694,0.3979591836734694,0.3945578231292517,0.3945578231292517,0.3945578231292517,0.3945578231292517,0.3945578231292517,0.3945578231292517,0.3945578231292517,0.3945578231292517,0.3945578231292517,0.3945578231292517,0.3945578231292517,0.3945578231292517,0.3945578231292517,0.3945578231292517,0.3945578231292517,0.3945578231292517,0.3945578231292517,0.3945578231292517,0.3945578231292517,0.3945578231292517,0.3945578231292517,0.3945578231292517,0.3945578231292517,0.3945578231292517,0.3945578231292517,0.3945578231292517,0.3945578231292517,0.3945578231292517,0.3945578231292517,0.3945578231292517,0.3945578231292517,0.4557823129251701,0.4557823129251701,0.5714285714285714,0.5714285714285714,0.9251700680272109,1.0816326530612246,1.0816326530612246,1.183673469387755,1.183673469387755,1.2585034013605443,1.3027210884353742,1.3333333333333333,1.3333333333333333,1.3605442176870748,1.3877551020408163,1.435374149659864,1.435374149659864,1.469387755102041,1.510204081632653,1.5204081632653061,1.5238095238095237,1.5238095238095237,1.5238095238095237,1.5238095238095237,1.5238095238095237,1.5238095238095237,1.5238095238095237,1.5238095238095237,1.5238095238095237,1.5238095238095237,1.5238095238095237,1.5238095238095237,1.5238095238095237,1.5238095238095237,1.5238095238095237,1.5238095238095237,1.5238095238095237,1.5238095238095237,1.5238095238095237,1.5238095238095237,1.5238095238095237,1.5238095238095237,1.5238095238095237,1.5238095238095237,1.5238095238095237,1.5238095238095237,1.5238095238095237,1.5238095238095237,1.5238095238095237,1.5238095238095237,1.5238095238095237,1.5238095238095237,1.5238095238095237,1.5238095238095237],"y":[-3.4285714285714284,-3.4285714285714284,-3.4285714285714284,-3.4285714285714284,-3.4285714285714284,-3.4285714285714284,-3.4285714285714284,-3.4285714285714284,-3.4285714285714284,-3.4285714285714284,-3.4285714285714284,-3.4285714285714284,0.45714285714285713,0.45714285714285713,0.45714285714285713,0.45714285714285713,0.45714285714285713,0.45714285714285713,0.45714285714285713,0.4666666666666667,0.4666666666666667,0.4666666666666667,0.4666666666666667,0.4666666666666667,0.4666666666666667,0.4666666666666667,0.4666666666666667,0.4666666666666667,0.4666666666666667,0.4,0.4,0.21904761904761905,0.009523809523809525,-0.19047619047619047,-0.19047619047619047,-0.3142857142857143,-0.45714285714285713,-0.45714285714285713,-0.5904761904761905,-0.7238095238095238,-0.9047619047619048,-0.9047619047619048,-1.0857142857142856,-1.2666666666666666,-1.361904761904762,-1.361904761904762,-1.4666666666666666,-1.4761904761904763,-1.4761904761904763,-1.4761904761904763,-1.4761904761904763,-1.4761904761904763,-1.4761904761904763,-1.4761904761904763,-1.4761904761904763,-1.4761904761904763,-1.4761904761904763,-1.4761904761904763,-1.4761904761904763,-1.4761904761904763,-1.4761904761904763,-1.4761904761904763,-1.4761904761904763,-1.4761904761904763,-1.4761904761904763,-1.4761904761904763,-1.4761904761904763,-1.4761904761904763,-1.4761904761904763,-1.4761904761904763,-1.457142857142857,-1.457142857142857,-1.2285714285714286,-1.2285714285714286,-1.1428571428571428,-1.0761904761904761,-1.0761904761904761,-1.019047619047619,-0.9523809523809523,-0.9142857142857143,-0.8666666666666667,-0.8666666666666667,-0.8666666666666667,-0.7904761904761904,-0.7238095238095238,-0.6666666666666666,-0.6,-0.5619047619047619,-0.5333333333333333,-0.4380952380952381,-0.3523809523809524,-0.2571428571428571,-0.2571428571428571,-0.19047619047619047,-0.19047619047619047,-0.1523809523809524,-0.14285714285714285,-0.12380952380952381,-0.10476190476190476,-0.10476190476190476,-0.10476190476190476,-0.10476190476190476,-0.10476190476190476,-0.10476190476190476,-0.10476190476190476,-0.10476190476190476,-0.10476190476190476,-0.10476190476190476,-0.10476190476190476,-0.10476190476190476,-0.10476190476190476,-0.10476190476190476,-0.10476190476190476,-0.10476190476190476,-0.10476190476190476,-0.10476190476190476,-0.10476190476190476,-0.10476190476190476,-0.10476190476190476,-0.10476190476190476,-0.10476190476190476,-0.09523809523809523,-0.09523809523809523,-0.08571428571428572,-0.0761904761904762,-0.0761904761904762,-0.0761904761904762,-0.0761904761904762,-0.0761904761904762,-0.0761904761904762,-0.0761904761904762,-0.0761904761904762,-0.0761904761904762,-0.0761904761904762,-0.0761904761904762,-0.0761904761904762,-0.0761904761904762,-0.009523809523809525,0.05714285714285714,0.09523809523809523,0.12380952380952381,0.14285714285714285,0.14285714285714285,0.14285714285714285,0.14285714285714285,0.14285714285714285,0.14285714285714285,0.14285714285714285,0.14285714285714285,0.14285714285714285,0.14285714285714285,0.14285714285714285,0.14285714285714285,0.14285714285714285,0.14285714285714285,0.14285714285714285,0.14285714285714285,0.14285714285714285,0.14285714285714285,0.14285714285714285,0.14285714285714285,0.11428571428571428,0.047619047619047616,0.047619047619047616,-0.009523809523809525,-0.02857142857142857,-0.0380952380952381,-0.0380952380952381,-0.0380952380952381,-0.0380952380952381,-0.0380952380952381,-0.0380952380952381,-0.0380952380952381,-0.0380952380952381,-0.0380952380952381,-0.0380952380952381,-0.009523809523809525,0.02857142857142857,0.047619047619047616,0.047619047619047616,0.047619047619047616,0.047619047619047616,0.047619047619047616,0.047619047619047616,0.047619047619047616,0.047619047619047616,0.047619047619047616,0.047619047619047616,0.047619047619047616,0.047619047619047616,0.047619047619047616,0.047619047619047616,0.047619047619047616,0.047619047619047616,0.047619047619047616,0.047619047619047616,0.047619047619047616,0.047619047619047616,-0.10476190476190476,-0.10476190476190476,-0.3047619047619048,-0.5238095238095238,-0.5238095238095238,-0.8285714285714286,-0.8285714285714286,-0.9809523809523809,-1.0952380952380953,-1.0952380952380953,-1.180952380952381,-1.2285714285714286,-1.2285714285714286,-1.2285714285714286,-1.2380952380952381,-1.2380952380952381,-1.2380952380952381,-1.2380952380952381,-1.2380952380952381,-1.2380952380952381,-1.2476190476190476,-1.2476190476190476,-1.2476190476190476,-1.2476190476190476,-1.2857142857142858,-1.2857142857142858,-1.2857142857142858,-1.2857142857142858,-1.2857142857142858,-1.2857142857142858,-1.2857142857142858,-1.2666666666666666,-1.2666666666666666,-1.2476190476190476,-1.2476190476190476,-1.2476190476190476,-1.2476190476190476,-1.2476190476190476,-1.2666666666666666,-1.2857142857142858,-1.2857142857142858,-1.2952380952380953,-1.2952380952380953,-1.2952380952380953,-1.2952380952380953,-1.2952380952380953,-1.2952380952380953,-1.2952380952380953,-1.2952380952380953,-1.2952380952380953,-1.2952380952380953,-1.2571428571428571,-1.2571428571428571,-1.2571428571428571,-1.2571428571428571,-1.2571428571428571,-1.2571428571428571,-1.2571428571428571,-1.2571428571428571,-1.2571428571428571,-1.2571428571428571,-1.2571428571428571,-1.2571428571428571,-1.2571428571428571,-1.2571428571428571,-1.2571428571428571,-1.2571428571428571,-1.2571428571428571,-1.2571428571428571,-1.2571428571428571,-1.2571428571428571,-1.2571428571428571,-1.2571428571428571,-1.2571428571428571,-1.2571428571428571,-1.2571428571428571,-1.2571428571428571,-1.2571428571428571,-1.2571428571428571,-1.2571428571428571,-1.2571428571428571,-1.2571428571428571,-1.2571428571428571,-1.2571428571428571,-1.2857142857142858,-1.2857142857142858,-1.3142857142857143,-1.3142857142857143,-1.3238095238095238,-1.3238095238095238,-1.3238095238095238,-1.3238095238095238,-1.3238095238095238,-1.3238095238095238,-1.3238095238095238,-1.3238095238095238,-1.3238095238095238,-1.3238095238095238,-1.3238095238095238,-1.3238095238095238,-1.3238095238095238,-1.3238095238095238,-1.3238095238095238,-1.3238095238095238,-1.3238095238095238,-1.3238095238095238,-1.3238095238095238,-1.3238095238095238,-1.3238095238095238,-1.3238095238095238,-1.3333333333333333,-1.3333333333333333,-1.3333333333333333,-1.3333333333333333,-1.3428571428571427,-1.3428571428571427,-1.3428571428571427,-1.3428571428571427,-1.3428571428571427,-1.3428571428571427,-1.3428571428571427,-1.3428571428571427,-1.3428571428571427,-1.3428571428571427,-1.3428571428571427,-1.3428571428571427,-1.3428571428571427,-1.3428571428571427,-1.3428571428571427,-1.3428571428571427,-1.3428571428571427,-1.3428571428571427,-1.3428571428571427,-1.3428571428571427,-1.3428571428571427,-1.3428571428571427,-1.3428571428571427,-1.3428571428571427,-1.3428571428571427,-1.2476190476190476,-1.2476190476190476,-1.1238095238095238,-0.9619047619047619,-0.8285714285714286,-0.8285714285714286,-0.7238095238095238,-0.6761904761904762,-0.5714285714285714,-0.5714285714285714,-0.49523809523809526,-0.41904761904761906,-0.38095238095238093,-0.38095238095238093,-0.38095238095238093,-0.38095238095238093,-0.3333333333333333,-0.23809523809523808,-0.23809523809523808,-0.1619047619047619,-0.09523809523809523,-0.047619047619047616,-0.047619047619047616,-0.02857142857142857,-0.009523809523809525,-0.009523809523809525,0.0380952380952381,0.10476190476190476,0.10476190476190476,0.13333333333333333,0.1619047619047619,0.1619047619047619,0.1619047619047619,0.2,0.2,0.2761904761904762,0.3142857142857143,0.5428571428571428,0.5428571428571428,0.6476190476190476,0.7333333333333333,0.8095238095238095,0.8095238095238095,0.8380952380952381,0.8380952380952381,0.8380952380952381,0.8380952380952381,0.8380952380952381,0.7619047619047619,0.7619047619047619,0.5904761904761905,0.5047619047619047,0.49523809523809526,0.49523809523809526,0.49523809523809526,0.5428571428571428,0.6571428571428571,0.6571428571428571,0.7714285714285715,0.8285714285714286,0.8571428571428571,0.8571428571428571,0.8666666666666667,0.8666666666666667,0.8666666666666667,0.8666666666666667,0.8666666666666667,0.9142857142857143,0.9523809523809523,0.9523809523809523,0.9904761904761905,1.019047619047619,1.019047619047619,1.0380952380952382,1.0761904761904761,1.0761904761904761,1.0857142857142856,1.0857142857142856,1.0857142857142856,1.0857142857142856,1.0857142857142856,1.0857142857142856,1.0857142857142856,1.0952380952380953,1.0952380952380953,1.0952380952380953,1.0952380952380953,1.0952380952380953,1.0952380952380953,1.0952380952380953,1.0952380952380953,1.0857142857142856,1.0761904761904761,1.0761904761904761,1.0761904761904761,1.0761904761904761,1.0761904761904761,1.0761904761904761,1.0761904761904761,1.0761904761904761,1.0761904761904761,1.0761904761904761,1.0761904761904761,1.0761904761904761,1.0761904761904761,1.0761904761904761,1.0761904761904761,1.0761904761904761,1.0761904761904761,1.0761904761904761,1.0761904761904761,1.0761904761904761,1.0761904761904761,1.0761904761904761,1.0761904761904761,1.0761904761904761,1.0761904761904761,1.0761904761904761,1.0761904761904761,1.0761904761904761,1.0761904761904761,1.0761904761904761,1.0761904761904761,1.0761904761904761,1.0761904761904761,1.0761904761904761,1.0666666666666667,1.0380952380952382,1.019047619047619,1.019047619047619,1.019047619047619,1.019047619047619,1,0.9619047619047619,0.9619047619047619,0.9619047619047619,0.9619047619047619,0.9619047619047619,0.9619047619047619,0.9619047619047619,0.9619047619047619,0.9619047619047619,0.9619047619047619,0.9619047619047619,0.9619047619047619,0.9619047619047619,0.9619047619047619,0.9619047619047619,0.9619047619047619,0.9619047619047619,0.9619047619047619,0.9619047619047619,0.9619047619047619,0.9619047619047619,0.9333333333333333,0.9238095238095239,0.9238095238095239,0.8857142857142857,0.8476190476190476,0.8476190476190476,0.8476190476190476,0.8476190476190476,0.8095238095238095,0.8095238095238095,0.7714285714285715,0.7619047619047619,0.7428571428571429,0.7428571428571429,0.7333333333333333,0.7238095238095238,0.6857142857142857,0.6857142857142857,0.638095238095238,0.638095238095238,0.5047619047619047,0.5047619047619047,0.49523809523809526,0.47619047619047616,0.47619047619047616,0.4666666666666667,0.4666666666666667,0.4666666666666667,0.4666666666666667,0.4666666666666667,0.4666666666666667,0.4666666666666667,0.4666666666666667,0.4666666666666667,0.4666666666666667,0.4666666666666667,0.4666666666666667,0.4666666666666667,0.41904761904761906,0.3523809523809524,0.29523809523809524,0.24761904761904763,0.24761904761904763,0.20952380952380953,0.20952380952380953,0.1619047619047619,0.1619047619047619,0.12380952380952381,0.12380952380952381,0.08571428571428572,0.08571428571428572,0.08571428571428572,0.08571428571428572,0.08571428571428572,0.08571428571428572,0.08571428571428572,0.08571428571428572,0.08571428571428572,0.08571428571428572,0.0761904761904762,0.0761904761904762,0.06666666666666667,0.05714285714285714,0.05714285714285714,0.05714285714285714,0.05714285714285714,0.05714285714285714,0.05714285714285714,0.05714285714285714,0.05714285714285714,0.05714285714285714,0.05714285714285714,0.05714285714285714,0.05714285714285714,0.06666666666666667,0.0761904761904762,0.0761904761904762,0.0761904761904762,0.0761904761904762,0.0761904761904762,0.0761904761904762,0.0761904761904762,0.0761904761904762,0.0761904761904762,0.0761904761904762,0.06666666666666667,0.05714285714285714,0.05714285714285714,0.05714285714285714,0.05714285714285714,0.0380952380952381,0.02857142857142857,0.02857142857142857,0.02857142857142857,0.009523809523809525,0.009523809523809525,0.009523809523809525,0,-0.009523809523809525,-0.009523809523809525,-0.009523809523809525,-0.009523809523809525,-0.009523809523809525,-0.009523809523809525,-0.009523809523809525,-0.009523809523809525,-0.009523809523809525,-0.009523809523809525,-0.009523809523809525,-0.009523809523809525,-0.009523809523809525,-0.009523809523809525,-0.009523809523809525,-0.009523809523809525,-0.009523809523809525,-0.009523809523809525,-0.009523809523809525,-0.009523809523809525,-0.009523809523809525,-0.009523809523809525,-0.009523809523809525,-0.009523809523809525,-0.009523809523809525,-0.009523809523809525,0.047619047619047616,0.0761904761904762,0.14285714285714285,0.14285714285714285,0.2,0.2,0.2857142857142857,0.2857142857142857,0.34285714285714286,0.3523809523809524,0.42857142857142855,0.42857142857142855,0.4666666666666667,0.5142857142857142,0.5142857142857142,0.5714285714285714,0.6,0.6,0.6190476190476191,0.638095238095238,0.6571428571428571,0.6666666666666666,0.6666666666666666,0.6952380952380952,0.7047619047619048,0.7047619047619048,0.7047619047619048,0.7333333333333333,0.7333333333333333,0.7333333333333333,0.7428571428571429,0.7333333333333333,0.7333333333333333,0.7142857142857143,0.6857142857142857,0.6476190476190476,0.6476190476190476,0.6190476190476191,0.6190476190476191,0.6095238095238096,0.6095238095238096,0.6095238095238096,0.6095238095238096,0.5904761904761905,0.5714285714285714,0.5428571428571428,0.5428571428571428,0.5047619047619047,0.5047619047619047,0.5047619047619047,0.5047619047619047,0.49523809523809526,0.49523809523809526,0.4857142857142857,0.47619047619047616,0.4666666666666667,0.45714285714285713,0.45714285714285713,0.45714285714285713,0.45714285714285713,0.45714285714285713,0.45714285714285713,0.45714285714285713,0.45714285714285713,0.44761904761904764,0.44761904761904764,0.42857142857142855,0.4095238095238095,0.3523809523809524,0.3523809523809524,0.26666666666666666,0.23809523809523808,0.23809523809523808,0.20952380952380953,0.19047619047619047,0.19047619047619047,0.19047619047619047,0.19047619047619047,0.19047619047619047,0.18095238095238095,0.18095238095238095,0.18095238095238095,0.12380952380952381,0.12380952380952381,0.0761904761904762,0.047619047619047616,0.0380952380952381,0.0380952380952381,0.0380952380952381,0.0380952380952381,0.0380952380952381,0.0380952380952381,0.0380952380952381,0.0380952380952381,0.0380952380952381,0.0380952380952381,0.0380952380952381,0.0380952380952381,0.0380952380952381,0.0380952380952381,0.0380952380952381,0.0380952380952381,0.0380952380952381,0.0380952380952381,0.0380952380952381,0.0380952380952381,0.0380952380952381,0.0380952380952381,0.0380952380952381,0.0380952380952381,0.0380952380952381,0.0380952380952381,0.0380952380952381,0.0380952380952381,0.0380952380952381,0.0380952380952381,0.0380952380952381,0.0380952380952381,0.009523809523809525,0.009523809523809525,0.009523809523809525,0,0,0,0,0,0,0,0,0,0,0,0,0,0,0,0,0,0,0,0,0,0,0,0,0,0,0,0,0,0,0,0,0,0,0.01904761904761905,0.01904761904761905,0.01904761904761905,0.01904761904761905,0.01904761904761905,0.02857142857142857,0.047619047619047616,0.09523809523809523,0.09523809523809523,0.14285714285714285,0.19047619047619047,0.22857142857142856,0.22857142857142856,0.26666666666666666,0.2761904761904762,0.2761904761904762,0.2857142857142857,0.2857142857142857,0.2857142857142857,0.2857142857142857,0.3238095238095238,0.37142857142857144,0.37142857142857144,0.41904761904761906,0.4666666666666667,0.5333333333333333,0.5523809523809524,0.5523809523809524,0.5523809523809524,0.5523809523809524,0.5523809523809524,0.5523809523809524,0.5523809523809524,0.5523809523809524,0.5523809523809524,0.5523809523809524,0.5523809523809524,0.5523809523809524,0.5523809523809524,0.5523809523809524,0.5523809523809524,0.5523809523809524,0.5523809523809524,0.5523809523809524,0.5523809523809524,0.5523809523809524,0.5523809523809524,0.5523809523809524,0.5523809523809524,0.5523809523809524,0.5523809523809524,0.5523809523809524,0.5523809523809524,0.5523809523809524,0.5523809523809524,0.5523809523809524,0.5523809523809524,0.5523809523809524,0.5523809523809524,0.5523809523809524,0.5523809523809524,0.5523809523809524,0.5523809523809524,0.5523809523809524,0.5523809523809524,0.5523809523809524,0.5523809523809524,0.5523809523809524,0.5523809523809524,0.5523809523809524,0.5523809523809524,0.5619047619047619,0.5619047619047619,0.5142857142857142,0.5142857142857142,0.5047619047619047,0.4857142857142857,0.4666666666666667,0.4666666666666667,0.44761904761904764,0.4380952380952381,0.4380952380952381,0.4380952380952381,0.4380952380952381,0.44761904761904764,0.44761904761904764,0.45714285714285713,0.45714285714285713,0.45714285714285713,0.45714285714285713,0.45714285714285713,0.45714285714285713,0.45714285714285713,0.45714285714285713,0.45714285714285713,0.45714285714285713,0.45714285714285713,0.45714285714285713,0.45714285714285713,0.45714285714285713,0.45714285714285713,0.45714285714285713,0.4666666666666667,0.4666666666666667,0.47619047619047616,0.47619047619047616,0.47619047619047616,0.47619047619047616,0.47619047619047616,0.47619047619047616,0.47619047619047616,0.47619047619047616,0.47619047619047616,0.4857142857142857,0.4857142857142857,0.5714285714285714,0.638095238095238,0.638095238095238,0.7142857142857143,0.7333333333333333,0.7428571428571429,0.7333333333333333,0.7333333333333333,0.7238095238095238,0.7238095238095238,0.6952380952380952,0.6952380952380952,0.6857142857142857,0.6857142857142857,0.6857142857142857,0.6857142857142857,0.6857142857142857,0.6857142857142857,0.6571428571428571,0.580952380952381,0.580952380952381,0.5047619047619047,0.4380952380952381,0.42857142857142855,0.42857142857142855,0.42857142857142855,0.42857142857142855,0.42857142857142855,0.42857142857142855,0.42857142857142855,0.42857142857142855,0.42857142857142855,0.42857142857142855,0.42857142857142855,0.42857142857142855,0.42857142857142855,0.42857142857142855,0.42857142857142855,0.42857142857142855,0.42857142857142855,0.42857142857142855,0.42857142857142855,0.42857142857142855,0.42857142857142855,0.42857142857142855,0.42857142857142855,0.41904761904761906,0.41904761904761906,0.4,0.4,0.4,0.4,0.4,0.4,0.4,0.4,0.4,0.4,0.4,0.3904761904761905,0.3619047619047619,0.3619047619047619,0.3333333333333333,0.3238095238095238,0.3238095238095238,0.3333333333333333,0.3523809523809524,0.3523809523809524,0.3523809523809524,0.3523809523809524,0.3523809523809524,0.3523809523809524,0.3523809523809524,0.3523809523809524,0.3523809523809524,0.3523809523809524,0.3523809523809524,0.3523809523809524,0.3523809523809524,0.3523809523809524,0.38095238095238093,0.38095238095238093,0.4,0.42857142857142855,0.4380952380952381,0.44761904761904764,0.44761904761904764,0.4666666666666667,0.4666666666666667,0.4666666666666667,0.4666666666666667,0.44761904761904764,0.4095238095238095,0.38095238095238093,0.37142857142857144,0.3619047619047619,0.34285714285714286,0.3142857142857143,0.29523809523809524,0.29523809523809524,0.2857142857142857,0.2761904761904762,0.26666666666666666,0.26666666666666666,0.23809523809523808,0.21904761904761905,0.20952380952380953,0.20952380952380953,0.20952380952380953,0.20952380952380953,0.20952380952380953,0.20952380952380953,0.20952380952380953,0.20952380952380953,0.12380952380952381,0.12380952380952381,0.08571428571428572,0.0761904761904762,0.047619047619047616,0.047619047619047616,0.047619047619047616,0.047619047619047616,0.047619047619047616,0.047619047619047616,0.047619047619047616,0.047619047619047616,0.047619047619047616,0.047619047619047616,0.047619047619047616,0.1523809523809524,0.26666666666666666,0.3523809523809524,0.3523809523809524,0.37142857142857144,0.38095238095238093,0.37142857142857144,0.37142857142857144,0.3523809523809524,0.3238095238095238,0.3142857142857143,0.2857142857142857,0.2571428571428571,0.23809523809523808,0.23809523809523808,0.20952380952380953,0.20952380952380953,0.18095238095238095,0.1619047619047619,0.1619047619047619,0.14285714285714285,0.12380952380952381,0.08571428571428572,0.047619047619047616,0.047619047619047616,0.009523809523809525,-0.0380952380952381,-0.047619047619047616,-0.06666666666666667,-0.06666666666666667,-0.06666666666666667,-0.06666666666666667,-0.06666666666666667,-0.06666666666666667,-0.06666666666666667,-0.06666666666666667,-0.06666666666666667,-0.06666666666666667,-0.06666666666666667,-0.06666666666666667,-0.06666666666666667,-0.06666666666666667,-0.06666666666666667,-0.06666666666666667,-0.06666666666666667,-0.06666666666666667,-0.06666666666666667,-0.06666666666666667,-0.06666666666666667,-0.06666666666666667,-0.06666666666666667,-0.06666666666666667,-0.06666666666666667,-0.06666666666666667,-0.06666666666666667,-0.06666666666666667,-0.06666666666666667,-0.06666666666666667,-0.06666666666666667,-0.06666666666666667,-0.02857142857142857,-0.02857142857142857,0.009523809523809525,0.009523809523809525,0.0761904761904762,0.09523809523809523,0.14285714285714285,0.1619047619047619,0.1619047619047619,0.18095238095238095,0.19047619047619047,0.2,0.2,0.2,0.2,0.2,0.2,0.2,0.2,0.2,0.2,0.2,0.2,0.2,0.21904761904761905,0.21904761904761905,0.21904761904761905,0.22857142857142856,0.22857142857142856,0.23809523809523808,0.23809523809523808,0.23809523809523808,0.23809523809523808,0.23809523809523808,0.23809523809523808,0.23809523809523808,0.23809523809523808,0.23809523809523808,0.23809523809523808,0.23809523809523808,0.23809523809523808,0.23809523809523808,0.23809523809523808,0.23809523809523808,0.23809523809523808,0.23809523809523808,0.23809523809523808,0.23809523809523808,0.23809523809523808,0.23809523809523808,0.23809523809523808,0.23809523809523808,0.23809523809523808,0.23809523809523808,0.23809523809523808,0.23809523809523808,0.23809523809523808,0.23809523809523808,0.23809523809523808,0.23809523809523808,0.23809523809523808,0.23809523809523808,0.23809523809523808,0.23809523809523808,0.23809523809523808,0.23809523809523808,0.23809523809523808,0.23809523809523808,0.23809523809523808,0.23809523809523808,0.23809523809523808,0.23809523809523808,0.26666666666666666,0.26666666666666666,0.2761904761904762,0.2857142857142857,0.2857142857142857,0.2857142857142857,0.29523809523809524,0.3047619047619048,0.3142857142857143,0.3142857142857143,0.3142857142857143,0.3142857142857143,0.3142857142857143,0.3142857142857143,0.3142857142857143,0.3142857142857143,0.3333333333333333,0.34285714285714286,0.34285714285714286,0.3523809523809524,0.3523809523809524,0.3904761904761905,0.3904761904761905,0.4,0.41904761904761906,0.42857142857142855,0.42857142857142855,0.42857142857142855,0.42857142857142855,0.42857142857142855,0.42857142857142855,0.42857142857142855,0.42857142857142855,0.4095238095238095,0.3619047619047619,0.3619047619047619,0.3619047619047619,0.3619047619047619,0.22857142857142856,0.20952380952380953,0.19047619047619047,0.17142857142857143,0.1619047619047619,0.1619047619047619,0.1619047619047619,0.1619047619047619,0.1619047619047619,0.1619047619047619,0.13333333333333333,0.12380952380952381,0.11428571428571428,0.10476190476190476,0.0761904761904762,0.06666666666666667,0.06666666666666667,0.06666666666666667,0.06666666666666667,0.06666666666666667,0.06666666666666667,0.06666666666666667,0.06666666666666667,0.06666666666666667,0.05714285714285714,0.05714285714285714,0.05714285714285714,0.047619047619047616,0.02857142857142857,0.02857142857142857,0.02857142857142857,0.02857142857142857,0.02857142857142857,0.02857142857142857,0.02857142857142857,0.02857142857142857,0.02857142857142857,0.01904761904761905,0.01904761904761905,0.01904761904761905,0.009523809523809525,0.009523809523809525,0.009523809523809525,0.009523809523809525,0.009523809523809525,0.009523809523809525,0.009523809523809525,0.009523809523809525,0.009523809523809525,0.009523809523809525,0.009523809523809525,0.047619047619047616,0.047619047619047616,0.08571428571428572,0.08571428571428572,0.08571428571428572,0.0761904761904762,0.0761904761904762,0.06666666666666667,0.047619047619047616,0.01904761904761905,0.01904761904761905,0.009523809523809525,0.009523809523809525,-0.01904761904761905,-0.01904761904761905,-0.01904761904761905,-0.01904761904761905,-0.01904761904761905,-0.01904761904761905,-0.01904761904761905,-0.01904761904761905,-0.01904761904761905,-0.01904761904761905,-0.01904761904761905,-0.01904761904761905,-0.01904761904761905,-0.01904761904761905,-0.01904761904761905,-0.01904761904761905,-0.01904761904761905,-0.01904761904761905,-0.01904761904761905,-0.01904761904761905,-0.01904761904761905,0.047619047619047616,0.11428571428571428,0.17142857142857143,0.17142857142857143,0.20952380952380953,0.26666666666666666,0.26666666666666666,0.29523809523809524,0.3523809523809524,0.3523809523809524,0.4,0.4,0.4,0.4095238095238095,0.4095238095238095,0.41904761904761906,0.42857142857142855,0.42857142857142855,0.42857142857142855,0.42857142857142855,0.42857142857142855,0.41904761904761906,0.41904761904761906,0.41904761904761906,0.41904761904761906,0.41904761904761906,0.41904761904761906,0.41904761904761906,0.42857142857142855,0.44761904761904764,0.44761904761904764,0.44761904761904764,0.44761904761904764,0.44761904761904764,0.44761904761904764,0.44761904761904764,0.44761904761904764,0.44761904761904764,0.44761904761904764,0.44761904761904764,0.44761904761904764,0.44761904761904764,0.44761904761904764,0.44761904761904764,0.44761904761904764,0.44761904761904764,0.44761904761904764,0.44761904761904764,0.44761904761904764,0.44761904761904764,0.44761904761904764,0.44761904761904764,0.44761904761904764,0.44761904761904764,0.44761904761904764,0.44761904761904764,0.44761904761904764,0.44761904761904764,0.45714285714285713,0.4666666666666667,0.4666666666666667,0.4666666666666667,0.4666666666666667,0.4666666666666667,0.4666666666666667,0.4095238095238095,0.4095238095238095,0.3142857142857143,0.26666666666666666,0.26666666666666666,0.22857142857142856,0.2,0.2,0.2,0.2,0.2,0.1619047619047619,0.1619047619047619,0.12380952380952381,0.047619047619047616,0.02857142857142857,0.02857142857142857,0.02857142857142857,0.02857142857142857,0.02857142857142857,0.02857142857142857,0.01904761904761905,0.01904761904761905,0.01904761904761905,0.01904761904761905,0.01904761904761905,0.01904761904761905,0.009523809523809525,0.009523809523809525,0.009523809523809525,0.009523809523809525,0.009523809523809525,0.009523809523809525,0.009523809523809525,0.01904761904761905,0.01904761904761905,0.02857142857142857,0.02857142857142857,0.02857142857142857,0.02857142857142857,0.02857142857142857,0.02857142857142857,0.02857142857142857,0.02857142857142857,0.02857142857142857,0.02857142857142857,0.02857142857142857,0.02857142857142857,0.02857142857142857,0.02857142857142857,0.02857142857142857,0.02857142857142857,0.02857142857142857,0.02857142857142857,0.02857142857142857,0.02857142857142857,0.02857142857142857,0.02857142857142857,0.02857142857142857,0.02857142857142857,0.02857142857142857,0.02857142857142857,0.02857142857142857,0.02857142857142857,0.02857142857142857,0.02857142857142857,0.02857142857142857,0.02857142857142857,0.02857142857142857,0.02857142857142857,0.05714285714285714,0.05714285714285714,0.08571428571428572,0.11428571428571428,0.13333333333333333,0.13333333333333333,0.18095238095238095,0.18095238095238095,0.2,0.2,0.2,0.2,0.2,0.20952380952380953,0.20952380952380953,0.20952380952380953,0.20952380952380953,0.20952380952380953,0.20952380952380953,0.19047619047619047,0.19047619047619047,0.18095238095238095,0.18095238095238095,0.1619047619047619,0.1619047619047619,0.1619047619047619,0.1619047619047619,0.1619047619047619,0.1619047619047619,0.1619047619047619,0.1619047619047619,0.1619047619047619,0.1619047619047619,0.1619047619047619,0.1619047619047619,0.14285714285714285,0.14285714285714285,0.14285714285714285,0.14285714285714285,0.14285714285714285,0.14285714285714285,0.14285714285714285,0.14285714285714285,0.14285714285714285,0.14285714285714285,0.14285714285714285,0.14285714285714285,0.14285714285714285,0.14285714285714285,0.14285714285714285,0.14285714285714285,0.14285714285714285,0.14285714285714285,0.14285714285714285,0.14285714285714285,0.1619047619047619,0.22857142857142856,0.22857142857142856,0.26666666666666666,0.29523809523809524,0.3523809523809524,0.3523809523809524,0.4666666666666667,0.5333333333333333,0.5333333333333333,0.580952380952381,0.6285714285714286,0.6952380952380952,0.6952380952380952,0.7428571428571429,0.7714285714285715,0.8095238095238095,0.8095238095238095,0.8476190476190476,0.8952380952380953,0.8952380952380953,0.9333333333333333,0.9619047619047619,1,1.019047619047619,1.019047619047619,1.0380952380952382,1.0476190476190477,1.0476190476190477,1.0476190476190477,1.0476190476190477,1.0476190476190477,1.0476190476190477,1.0476190476190477,1.0380952380952382,0.9904761904761905,0.9904761904761905,0.9904761904761905,0.9904761904761905,0.9904761904761905,0.9904761904761905,0.9904761904761905,0.9714285714285714,0.9619047619047619,0.9333333333333333,0.9238095238095239,0.9142857142857143,0.8857142857142857,0.8857142857142857,0.8666666666666667,0.8571428571428571,0.8571428571428571,0.8571428571428571,0.8571428571428571,0.8476190476190476,0.8476190476190476,0.8476190476190476,0.8761904761904762,0.8857142857142857,0.8857142857142857,0.9047619047619048,0.9142857142857143,0.9142857142857143,0.9238095238095239,0.9238095238095239,0.9238095238095239,0.9238095238095239,0.9238095238095239,0.9238095238095239,0.9238095238095239,0.9238095238095239,0.9238095238095239,0.9238095238095239,0.9238095238095239,0.9238095238095239,0.9238095238095239,0.9238095238095239,0.9238095238095239,0.9238095238095239,0.9238095238095239,0.9238095238095239,0.9238095238095239,0.9238095238095239,0.9238095238095239,0.9238095238095239,0.9238095238095239,0.9238095238095239,0.9238095238095239,0.9238095238095239,0.9238095238095239,0.9238095238095239,0.9238095238095239,0.9238095238095239,0.8857142857142857,0.8857142857142857,0.8761904761904762,0.8666666666666667,0.8476190476190476,0.8476190476190476,0.8095238095238095,0.7714285714285715,0.7714285714285715,0.7238095238095238,0.6571428571428571,0.6571428571428571,0.580952380952381,0.5047619047619047,0.4666666666666667,0.4666666666666667,0.45714285714285713,0.45714285714285713,0.42857142857142855,0.4,0.3619047619047619,0.3047619047619048,0.2761904761904762,0.2761904761904762,0.24761904761904763,0.24761904761904763,0.22857142857142856,0.21904761904761905,0.2,0.1619047619047619,0.1619047619047619,0.12380952380952381,0.0761904761904762,0.0380952380952381,0.0380952380952381,0.0380952380952381,0.0380952380952381,0.047619047619047616,0.047619047619047616,0.11428571428571428,0.1523809523809524,0.1523809523809524,0.17142857142857143,0.19047619047619047,0.19047619047619047,0.2,0.2,0.20952380952380953,0.20952380952380953,0.21904761904761905,0.21904761904761905,0.23809523809523808,0.23809523809523808,0.23809523809523808,0.23809523809523808,0.23809523809523808,0.23809523809523808,0.23809523809523808,0.23809523809523808,0.23809523809523808,0.23809523809523808,0.23809523809523808,0.23809523809523808,0.23809523809523808,0.23809523809523808,0.23809523809523808,0.23809523809523808,0.23809523809523808,0.2571428571428571,0.2761904761904762,0.3619047619047619,0.3619047619047619,0.47619047619047616,0.5619047619047619,0.7047619047619048,0.8571428571428571,1,1,1.0285714285714285,1.0285714285714285,1.0476190476190477,1.0476190476190477,1.0380952380952382,0.9619047619047619,0.9619047619047619,0.8857142857142857,0.8095238095238095,0.7619047619047619,0.6952380952380952,0.6952380952380952,0.638095238095238,0.638095238095238,0.6095238095238096,0.580952380952381,0.580952380952381,0.5714285714285714,0.5714285714285714,0.5714285714285714,0.5714285714285714,0.5619047619047619,0.5619047619047619,0.5619047619047619,0.5619047619047619,0.5619047619047619,0.5619047619047619,0.5619047619047619,0.5619047619047619,0.5619047619047619,0.5619047619047619,0.5619047619047619,0.5428571428571428,0.5428571428571428,0.5428571428571428,0.5238095238095238,0.5238095238095238,0.5238095238095238,0.5238095238095238,0.5238095238095238,0.5047619047619047,0.5047619047619047,0.5047619047619047,0.5047619047619047,0.5047619047619047,0.5047619047619047,0.5047619047619047,0.5047619047619047,0.5047619047619047,0.5047619047619047,0.5047619047619047,0.5047619047619047,0.5047619047619047,0.5047619047619047,0.5047619047619047,0.5047619047619047,0.5047619047619047,0.4857142857142857,0.4857142857142857,0.4857142857142857,0.4857142857142857,0.49523809523809526,0.49523809523809526,0.5047619047619047,0.5333333333333333,0.5333333333333333,0.5523809523809524,0.5523809523809524,0.580952380952381,0.6285714285714286,0.6571428571428571,0.6571428571428571,0.6857142857142857,0.7047619047619048,0.7047619047619048,0.7333333333333333,0.7619047619047619,0.7714285714285715,0.7714285714285715,0.8,0.8095238095238095,0.8095238095238095,0.819047619047619,0.8285714285714286,0.8285714285714286,0.8285714285714286,0.8285714285714286,0.8285714285714286,0.8285714285714286,0.8285714285714286,0.8285714285714286,0.8285714285714286,0.8285714285714286,0.8285714285714286,0.8285714285714286,0.8285714285714286,0.8285714285714286,0.8285714285714286,0.8285714285714286,0.8285714285714286,0.8285714285714286,0.8285714285714286,0.8285714285714286,0.8285714285714286,0.8285714285714286,0.8285714285714286,0.8285714285714286,0.8285714285714286,0.8285714285714286,0.8285714285714286,0.8285714285714286,0.8285714285714286,0.8285714285714286,0.8476190476190476,0.8476190476190476,0.8571428571428571,0.8571428571428571,0.9428571428571428,0.9904761904761905,0.9904761904761905,1,1,1,0.9619047619047619,0.9428571428571428,0.9428571428571428,0.9142857142857143,0.8857142857142857,0.8666666666666667,0.8666666666666667,0.8380952380952381,0.8095238095238095,0.8095238095238095,0.8095238095238095,0.8095238095238095,0.8095238095238095,0.8095238095238095,0.8095238095238095,0.8095238095238095,0.8095238095238095,0.8095238095238095,0.8095238095238095,0.8095238095238095,0.8095238095238095,0.8095238095238095,0.8095238095238095,0.8095238095238095,0.8095238095238095,0.8095238095238095,0.8095238095238095,0.8095238095238095,0.8095238095238095,0.8095238095238095,0.8095238095238095,0.8095238095238095,0.8095238095238095,0.8095238095238095,0.8095238095238095,0.8095238095238095,0.8095238095238095,0.8095238095238095,0.8095238095238095,0.8095238095238095,0.8095238095238095,0.8095238095238095,0.8095238095238095,0.8095238095238095]},"final_keyboard_state":["T","I","A","K","E","O","B","Z","R"],"num_clicks":9,"points":11,"cheat":false,"trial_type":"Hangman","trial_index":9,"time_elapsed":60999,"internal_node_id":"0.0-4.0","protocol_sum":"","subject_identifier":532,"subject_sum":[234,91,39,85,111,187,19,77,239,44,47,191,148,77,156,221,163,219,219,107,16,71,58,26,236,89,246,241,112,196,202,58],"subject_pair":266,"STUDY_ID":"66a3ed3c5d10d0e7d8a6b9da","PROLIFIC_PID":"669202f5e7b5f2d98974f65a","SESSION_ID":"66a470eab13d1f85a17e2476","practice_instructions":3,"leaderboard_instructions":0,"bonus":1,"reveal_word":false,"self_rating":"2","confidence":"83"},{"view_history":"[{\"page_index\":0,\"viewing_time\":1018.6999999284744},{\"page_index\":1,\"viewing_time\":1035.1000000238419}]","rt":2054.0999999046326,"trial_type":"instructions","trial_index":10,"time_elapsed":63055,"internal_node_id":"0.0-5.0","protocol_sum":"","subject_identifier":532,"subject_sum":[234,91,39,85,111,187,19,77,239,44,47,191,148,77,156,221,163,219,219,107,16,71,58,26,236,89,246,241,112,196,202,58],"subject_pair":266,"STUDY_ID":"66a3ed3c5d10d0e7d8a6b9da","PROLIFIC_PID":"669202f5e7b5f2d98974f65a","SESSION_ID":"66a470eab13d1f85a17e2476","practice_instructions":3,"leaderboard_instructions":0,"bonus":1,"reveal_word":false,"self_rating":"2","confidence":"83"},{"rt":6490.700000047684,"responses":"{\"Q0\":\"...from <b>a previous session</b> that is part of the upcoming tournament.\"}","question_order":"[0]","trial_type":"survey-multi-choice","trial_index":11,"time_elapsed":69546,"internal_node_id":"0.0-6.0","protocol_sum":"","subject_identifier":532,"subject_sum":[234,91,39,85,111,187,19,77,239,44,47,191,148,77,156,221,163,219,219,107,16,71,58,26,236,89,246,241,112,196,202,58],"subject_pair":266,"correct":false,"test_part":"multichoice_leaderboard","STUDY_ID":"66a3ed3c5d10d0e7d8a6b9da","PROLIFIC_PID":"669202f5e7b5f2d98974f65a","SESSION_ID":"66a470eab13d1f85a17e2476","practice_instructions":3,"leaderboard_instructions":0,"bonus":1,"reveal_word":false,"self_rating":"2","confidence":"83"},{"view_history":"[{\"page_index\":0,\"viewing_time\":944.7999999523163}]","rt":945,"trial_type":"instructions","trial_index":12,"time_elapsed":70491,"internal_node_id":"0.0-7.0-0.0","protocol_sum":"","subject_identifier":532,"subject_sum":[234,91,39,85,111,187,19,77,239,44,47,191,148,77,156,221,163,219,219,107,16,71,58,26,236,89,246,241,112,196,202,58],"subject_pair":266,"STUDY_ID":"66a3ed3c5d10d0e7d8a6b9da","PROLIFIC_PID":"669202f5e7b5f2d98974f65a","SESSION_ID":"66a470eab13d1f85a17e2476","practice_instructions":3,"leaderboard_instructions":0,"bonus":1,"reveal_word":false,"self_rating":"2","confidence":"83"},{"rt":1271.6000000238419,"responses":"{\"Q0\":\"...from the <b>upcoming tournament</b>.\"}","question_order":"[0]","trial_type":"survey-multi-choice","trial_index":13,"time_elapsed":71764,"internal_node_id":"0.0-7.0-1.0","protocol_sum":"","subject_identifier":532,"subject_sum":[234,91,39,85,111,187,19,77,239,44,47,191,148,77,156,221,163,219,219,107,16,71,58,26,236,89,246,241,112,196,202,58],"subject_pair":266,"correct":false,"test_part":"multichoice_leaderboard","STUDY_ID":"66a3ed3c5d10d0e7d8a6b9da","PROLIFIC_PID":"669202f5e7b5f2d98974f65a","SESSION_ID":"66a470eab13d1f85a17e2476","practice_instructions":3,"leaderboard_instructions":0,"bonus":1,"reveal_word":false,"self_rating":"2","confidence":"83"},{"view_history":"[{\"page_index\":0,\"viewing_time\":705.5999999046326}]","rt":705.6999999284744,"trial_type":"instructions","trial_index":14,"time_elapsed":72470,"internal_node_id":"0.0-7.1-0.1","protocol_sum":"","subject_identifier":532,"subject_sum":[234,91,39,85,111,187,19,77,239,44,47,191,148,77,156,221,163,219,219,107,16,71,58,26,236,89,246,241,112,196,202,58],"subject_pair":266,"STUDY_ID":"66a3ed3c5d10d0e7d8a6b9da","PROLIFIC_PID":"669202f5e7b5f2d98974f65a","SESSION_ID":"66a470eab13d1f85a17e2476","practice_instructions":3,"leaderboard_instructions":0,"bonus":1,"reveal_word":false,"self_rating":"2","confidence":"83"},{"rt":1125.2000000476837,"responses":"{\"Q0\":\"...from <b>a previous session</b> that is not part of the upcoming tournament.\"}","question_order":"[0]","trial_type":"survey-multi-choice","trial_index":15,"time_elapsed":73596,"internal_node_id":"0.0-7.1-1.1","protocol_sum":"","subject_identifier":532,"subject_sum":[234,91,39,85,111,187,19,77,239,44,47,191,148,77,156,221,163,219,219,107,16,71,58,26,236,89,246,241,112,196,202,58],"subject_pair":266,"correct":true,"test_part":"multichoice_leaderboard","STUDY_ID":"66a3ed3c5d10d0e7d8a6b9da","PROLIFIC_PID":"669202f5e7b5f2d98974f65a","SESSION_ID":"66a470eab13d1f85a17e2476","practice_instructions":3,"leaderboard_instructions":0,"bonus":1,"reveal_word":false,"self_rating":"2","confidence":"83"},{"view_history":"[{\"page_index\":0,\"viewing_time\":675}]","rt":675.7000000476837,"trial_type":"instructions","trial_index":16,"time_elapsed":74272,"internal_node_id":"0.0-8.0","protocol_sum":"","subject_identifier":532,"subject_sum":[234,91,39,85,111,187,19,77,239,44,47,191,148,77,156,221,163,219,219,107,16,71,58,26,236,89,246,241,112,196,202,58],"subject_pair":266,"STUDY_ID":"66a3ed3c5d10d0e7d8a6b9da","PROLIFIC_PID":"669202f5e7b5f2d98974f65a","SESSION_ID":"66a470eab13d1f85a17e2476","practice_instructions":3,"leaderboard_instructions":0,"bonus":1,"reveal_word":false,"self_rating":"2","confidence":"83"},{"rt":1617.2999999523163,"responses":"{\"Q0\":\"...players' leaderboard position (in terms of <b>points</b>) in an <b>upcoming tournament.</b>\"}","question_order":"[0]","trial_type":"survey-multi-choice","trial_index":17,"time_elapsed":75891,"internal_node_id":"0.0-9.0","protocol_sum":"","subject_identifier":532,"subject_sum":[234,91,39,85,111,187,19,77,239,44,47,191,148,77,156,221,163,219,219,107,16,71,58,26,236,89,246,241,112,196,202,58],"subject_pair":266,"correct":true,"test_part":"multichoice_tournament","STUDY_ID":"66a3ed3c5d10d0e7d8a6b9da","PROLIFIC_PID":"669202f5e7b5f2d98974f65a","SESSION_ID":"66a470eab13d1f85a17e2476","practice_instructions":3,"leaderboard_instructions":0,"bonus":1,"reveal_word":false,"self_rating":"2","confidence":"83"},{"view_history":"[{\"page_index\":0,\"viewing_time\":531}]","rt":531.2000000476837,"trial_type":"instructions","trial_index":18,"time_elapsed":76422,"internal_node_id":"0.0-11.0","protocol_sum":"","subject_identifier":532,"subject_sum":[234,91,39,85,111,187,19,77,239,44,47,191,148,77,156,221,163,219,219,107,16,71,58,26,236,89,246,241,112,196,202,58],"subject_pair":266,"STUDY_ID":"66a3ed3c5d10d0e7d8a6b9da","PROLIFIC_PID":"669202f5e7b5f2d98974f65a","SESSION_ID":"66a470eab13d1f85a17e2476","practice_instructions":3,"leaderboard_instructions":0,"bonus":1,"reveal_word":false,"self_rating":"2","confidence":"83"},{"view_history":"[{\"page_index\":0,\"viewing_time\":1720}]","rt":1720.1000000238419,"trial_type":"instructions","trial_index":19,"time_elapsed":78143,"internal_node_id":"0.0-12.0-0.0","protocol_sum":"","subject_identifier":532,"subject_sum":[234,91,39,85,111,187,19,77,239,44,47,191,148,77,156,221,163,219,219,107,16,71,58,26,236,89,246,241,112,196,202,58],"subject_pair":266,"STUDY_ID":"66a3ed3c5d10d0e7d8a6b9da","PROLIFIC_PID":"669202f5e7b5f2d98974f65a","SESSION_ID":"66a470eab13d1f85a17e2476","practice_instructions":3,"leaderboard_instructions":0,"bonus":1,"reveal_word":false,"self_rating":"2","confidence":"83"},{"word":"SHAKIRA","click_log":{"letter":["","D","V","X","Y","H","G","K","S","T","A","R","I"],"t":[0,2104.3000000715256,3020.7000000476837,3837.100000023842,4270.399999976158,5303.800000071526,5970.700000047684,7337.5,8004,9870.5,11153.600000023842,14453.300000071526,15836.899999976158],"hit":[null,0,0,0,0,1,0,1,1,0,2,1,1],"asked":["","D","DV","DVX","DVXY","DVXYH","DVXYHG","DVXYHGK","DVXYHGKS","DVXYHGKST","DVXYHGKSTA","DVXYHGKSTAR","DVXYHGKSTARI"],"word_state":["_______","_______","______