[{"success":true,"trial_type":"fullscreen","trial_index":0,"time_elapsed":31118,"internal_node_id":"0.0-0.0","protocol_sum":"","subject_identifier":501,"subject_sum":[30,71,43,57,177,5,211,73,188,208,105,196,167,17,180,74,47,255,184,226,116,113,75,176,126,207,255,105,169,167,246,123],"subject_pair":250,"STUDY_ID":"66a3ed3c5d10d0e7d8a6b9da","PROLIFIC_PID":"5d7fec0793bb8600164dd05f","SESSION_ID":"66a3f0acb9a9da7351577b7a","practice_instructions":1,"leaderboard_instructions":0,"bonus":0,"reveal_word":true,"self_rating":"3","confidence":"65"},{"view_history":"[{\"page_index\":0,\"viewing_time\":3634}]","rt":3634.5,"trial_type":"instructions","trial_index":1,"time_elapsed":34754,"internal_node_id":"0.0-1.0","protocol_sum":"","subject_identifier":501,"subject_sum":[30,71,43,57,177,5,211,73,188,208,105,196,167,17,180,74,47,255,184,226,116,113,75,176,126,207,255,105,169,167,246,123],"subject_pair":250,"STUDY_ID":"66a3ed3c5d10d0e7d8a6b9da","PROLIFIC_PID":"5d7fec0793bb8600164dd05f","SESSION_ID":"66a3f0acb9a9da7351577b7a","practice_instructions":1,"leaderboard_instructions":0,"bonus":0,"reveal_word":true,"self_rating":"3","confidence":"65"},{"view_history":"[{\"page_index\":0,\"viewing_time\":17291.699999809265}]","rt":17292.099999427795,"trial_type":"instructions","trial_index":2,"time_elapsed":52047,"internal_node_id":"0.0-2.0-0.0","protocol_sum":"","subject_identifier":501,"subject_sum":[30,71,43,57,177,5,211,73,188,208,105,196,167,17,180,74,47,255,184,226,116,113,75,176,126,207,255,105,169,167,246,123],"subject_pair":250,"STUDY_ID":"66a3ed3c5d10d0e7d8a6b9da","PROLIFIC_PID":"5d7fec0793bb8600164dd05f","SESSION_ID":"66a3f0acb9a9da7351577b7a","practice_instructions":1,"leaderboard_instructions":0,"bonus":0,"reveal_word":true,"self_rating":"3","confidence":"65"},{"rt":15263.10000038147,"responses":"{\"Q0\":\"... reveal the word with as <b>few letter guesses</b> as possible\"}","question_order":"[0]","trial_type":"survey-multi-choice","trial_index":3,"time_elapsed":67314,"internal_node_id":"0.0-2.0-1.0","protocol_sum":"","subject_identifier":501,"subject_sum":[30,71,43,57,177,5,211,73,188,208,105,196,167,17,180,74,47,255,184,226,116,113,75,176,126,207,255,105,169,167,246,123],"subject_pair":250,"correct":true,"test_part":"multichoice_nonpretend","STUDY_ID":"66a3ed3c5d10d0e7d8a6b9da","PROLIFIC_PID":"5d7fec0793bb8600164dd05f","SESSION_ID":"66a3f0acb9a9da7351577b7a","practice_instructions":1,"leaderboard_instructions":0,"bonus":0,"reveal_word":true,"self_rating":"3","confidence":"65"},{"view_history":"[{\"page_index\":0,\"viewing_time\":1477.4000005722046}]","rt":1477.8000001907349,"trial_type":"instructions","trial_index":4,"time_elapsed":68794,"internal_node_id":"0.0-3.0","protocol_sum":"","subject_identifier":501,"subject_sum":[30,71,43,57,177,5,211,73,188,208,105,196,167,17,180,74,47,255,184,226,116,113,75,176,126,207,255,105,169,167,246,123],"subject_pair":250,"STUDY_ID":"66a3ed3c5d10d0e7d8a6b9da","PROLIFIC_PID":"5d7fec0793bb8600164dd05f","SESSION_ID":"66a3f0acb9a9da7351577b7a","practice_instructions":1,"leaderboard_instructions":0,"bonus":0,"reveal_word":true,"self_rating":"3","confidence":"65"},{"word":"ZEBRA","click_log":{"letter":["","T","I","A","N","E","O","C","B","Z","R"],"t":[0,7647,11077.70000076294,12450.400000572205,16479.10000038147,23347.60000038147,25335.400000572205,31555,32529,34776.60000038147,38214.5],"hit":[null,0,0,1,0,1,0,0,1,1,1],"asked":["","T","TI","TIA","TIAN","TIANE","TIANEO","TIANEOC","TIANEOCB","TIANEOCBZ","TIANEOCBZR"],"word_state":["_____","_____","_____","____A","____A","_E__A","_E__A","_E__A","_EB_A","ZEB_A","ZEBRA"]},"hover_log":{"letter":["?","?","?","?","?","?","?","?","?","?","?","?","?","?","?","?","?","?","?","?","?","?","?","?","?","?","?","?","?","?","?","?","?","?","?","?","?","?","?","?","?","?","?","?","?","?","?","?","?","?","?","?","?","?","?","?","?","?","?","?","?","?","?","?","?","?","?","?","?","?","?","?","?","?","?","?","?","?","?","?","?","?","?","?","?","?","?","?","?","?","?","?","?","?","?","?","?","?","?","?","?","?","?","?","?","?","?","?","?","?","?","?","?","?","?","?","?","?","?","?","?","?","?","?","?","?","?","?","?","?","?","?","?","?","?","?","?","?","?","?","?","?","?","?","?","?","?","?","?","?","?","?","?","?","?","?","?","?","?","?","?","?","?","?","?","?","?","?","?","?","?","?","?","?","?","?","?","?","?","?","?","?","?","?","?","?","?","?","?","?","?","?","?","?","?","?","?","?","?","?","?","?","?","?","?","?","?","?","?","?","?","?","?","?","?","?","?","?","?","?","?","?","?","?","?","?","?","?","?","?","?","?","?","?","?","?","?","?","?","?","?","?","?","?","?","?","?","?","?","?","?","?","?","?","?","?","?","?","?","?","?","?","?","?","?","?","?","?","?","?","?","?","?","?","?","?","?","?","?","?","?","?","?","?","?","?","?","?","?","?","?","?","?","?","?","?","?","?","?","?","?","?","?","?","?","?","?","?","?","?","?","?","?","?","?","?","?","?","?","?","?","?","?","?","?","?","?","?","?","?","?","?","?","?","?","?","?","?","?","?","?","?","?","?","?","?","?","?","?","?","?","?","?","?","?","?","?","?","?","?","?","?","?","?","?","?","?","?","?","?","?","?","?","?","?","?","?","?","?","?","?","J","?","?","A","?","?","?","?","?","?","?","?","?","?","?","?","?","?","?","?","D","D","?","E","F","?","?","?","?","?","?","?","?","?","?","?","?","?","?","?","?","?","?","L","L","L","L","L","L","L","?","?","?","?","T","T","T","T","T","T","T","T","T","T","T","T","T","T","T","T","T","T","T","T","T","T","T","T","T","T","T","T","T","T","T","T","T","T","T","T","T","T","T","T","T","T","T","T","T","T","T","T","T","T","T","T","T","T","T","T","T","T","T","T","T","T","T","T","T","T","T","T","T","T","T","T","T","T","T","T","T","T","T","T","T","T","T","T","T","T","T","T","T","T","T","T","T","T","T","T","T","T","L","D","?","?","?","?","?","?","?","?","?","?","?","?","?","?","?","?","I","I","I","I","I","I","I","I","I","I","I","I","I","I","I","I","I","I","I","I","I","I","I","I","I","I","I","I","I","I","I","I","I","I","I","I","I","I","I","I","I","I","I","I","I","I","I","I","I","I","I","I","I","I","I","I","I","I","I","I","I","I","I","I","I","I","I","I","I","I","I","I","I","I","I","I","I","I","I","I","I","I","I","I","I","I","I","I","I","I","I","I","I","I","I","I","I","I","I","I","I","I","I","I","I","I","I","I","I","I","I","I","I","I","I","I","I","I","I","I","I","I","I","I","I","I","I","I","I","I","I","I","I","I","I","I","I","I","I","I","I","I","I","I","I","I","I","I","I","I","I","I","I","I","I","H","?","?","M","L","K","?","J","J","?","?","?","?","?","?","?","?","?","?","?","?","?","?","?","?","A","A","A","A","A","A","A","A","A","A","A","A","A","A","A","A","A","A","A","A","A","A","A","A","A","A","A","A","A","A","A","A","A","A","A","A","A","A","A","A","A","A","A","A","A","A","A","A","A","A","A","A","A","A","A","A","A","A","A","A","A","A","A","A","A","A","A","A","A","A","A","A","A","A","A","A","A","A","A","A","A","A","A","A","A","A","A","A","A","A","A","A","A","A","A","A","A","A","A","A","A","A","A","A","A","A","A","A","A","A","A","A","A","A","A","A","A","A","A","A","A","A","A","A","A","A","A","A","A","A","A","A","A","A","A","A","A","A","A","A","A","A","A","A","A","A","A","A","A","A","A","B","B","?","?","?","?","?","?","?","?","?","?","?","?","?","?","?","?","?","?","?","?","?","?","?","?","?","?","?","?","?","?","M","M","M","M","M","M","M","M","M","M","M","M","M","M","M","M","M","M","M","M","M","M","M","M","M","M","M","M","M","M","M","M","M","M","M","M","M","M","M","M","M","M","M","M","M","M","M","M","M","M","?","?","?","N","N","N","N","N","N","N","N","N","N","N","N","N","N","N","N","N","N","N","N","N","N","N","N","N","N","N","N","N","N","N","N","N","N","N","N","N","N","N","N","N","N","N","N","N","N","N","N","N","N","N","N","N","N","N","N","N","N","N","N","N","N","N","N","N","N","N","N","N","N","N","?","?","W","W","W","W","W","W","W","W","W","W","W","W","W","W","W","W","W","W","W","W","W","W","W","W","W","W","W","W","W","W","W","W","W","W","W","W","W","W","W","W","W","W","W","W","W","W","W","W","W","W","W","W","W","W","W","W","W","W","W","W","W","W","W","W","W","W","W","W","W","W","W","W","W","W","W","W","W","W","W","W","W","W","W","W","W","W","W","W","W","W","W","W","W","W","W","W","W","W","W","W","W","W","W","W","W","W","W","W","W","W","W","W","W","W","W","W","W","W","W","W","W","W","W","W","W","W","W","W","W","W","W","W","W","W","W","W","W","W","W","W","W","W","W","W","W","W","W","W","W","W","W","W","W","W","W","W","W","W","W","W","W","W","W","W","W","W","W","W","W","W","W","W","W","W","W","W","W","W","W","W","W","W","W","W","W","W","W","W","W","W","W","W","W","W","W","W","W","W","W","W","W","W","W","W","W","W","W","W","W","W","W","W","W","W","W","W","W","W","W","W","W","W","W","W","W","W","W","W","W","W","W","W","W","W","W","W","W","W","W","W","W","W","W","W","W","W","W","W","W","W","W","W","W","W","W","W","W","W","W","W","W","W","W","W","W","W","W","W","W","W","W","W","W","W","W","W","W","W","W","W","W","W","W","W","W","W","W","W","W","W","W","W","W","W","W","W","W","W","W","W","W","W","W","W","W","W","W","W","W","W","W","W","W","W","W","W","W","W","W","W","W","W","W","W","W","W","W","W","W","W","W","W","?","N","N","?","?","?","?","?","?","?","?","?","?","?","E","E","E","E","E","E","E","E","E","E","E","E","E","E","E","E","E","E","E","E","E","E","E","E","E","E","E","E","E","E","E","E","E","E","E","E","E","E","E","E","E","E","E","E","E","E","E","E","E","E","E","E","E","E","E","E","E","E","E","E","E","E","E","E","E","E","E","E","E","E","E","E","E","E","E","E","E","E","E","E","E","E","E","E","E","E","E","E","E","E","E","E","E","E","E","E","E","E","E","E","?","?","?","?","?","?","?","?","?","?","?","?","?","?","?","?","?","O","O","O","O","O","O","O","O","O","O","O","O","O","O","O","O","O","O","O","O","O","O","O","O","O","O","O","O","O","O","O","O","O","O","O","O","O","O","O","O","O","O","O","O","O","O","O","O","O","O","O","O","O","O","O","O","O","O","O","O","O","O","O","?","?","?","X","X","X","X","X","X","X","X","X","X","X","X","X","X","X","X","X","X","X","X","X","X","X","X","X","X","X","X","X","X","X","X","X","X","X","X","X","X","X","X","X","X","X","X","X","X","X","X","X","X","X","X","X","X","X","X","X","X","X","X","X","X","X","X","X","X","X","X","X","X","X","X","X","X","X","X","X","X","X","X","X","X","X","X","X","X","X","X","X","X","X","X","X","X","X","X","X","X","X","X","X","X","X","X","X","X","X","X","X","X","X","X","X","X","X","X","X","X","X","X","X","X","X","X","X","X","X","X","X","X","X","X","X","X","X","X","X","X","X","X","X","X","X","X","X","X","X","X","X","X","X","X","X","X","X","X","X","X","X","X","X","X","X","X","X","X","X","X","X","X","X","X","X","X","X","X","X","X","X","X","X","X","X","X","X","X","X","X","X","X","X","X","X","X","X","X","X","X","X","X","X","X","X","X","X","X","X","X","X","X","X","X","X","X","X","X","X","X","X","X","X","X","X","X","X","X","X","X","X","X","X","X","X","X","X","X","X","X","X","X","X","X","X","X","X","X","X","X","X","X","X","X","X","X","X","X","X","X","X","X","X","X","X","X","X","X","X","?","?","N","M","?","?","?","?","?","?","C","C","C","C","C","C","C","C","C","?","B","B","B","B","B","B","B","B","B","B","B","B","B","B","B","B","B","B","?","?","?","?","C","C","C","C","C","C","C","C","C","C","C","C","C","C","C","C","C","C","C","C","C","C","C","C","C","C","C","C","C","C","C","C","C","C","C","C","C","C","C","C","C","C","C","C","C","C","C","C","C","C","C","C","C","C","C","C","C","B","B","B","B","B","B","B","B","B","B","B","B","B","B","B","B","B","B","B","B","B","B","B","B","B","B","B","B","B","B","B","?","?","C","C","C","C","C","C","C","C","C","C","?","?","?","?","?","?","?","?","?","?","?","?","?","D","D","D","D","D","?","E","E","E","E","E","E","E","E","E","E","E","E","E","E","E","E","E","E","E","E","E","E","E","E","E","E","E","?","?","?","?","L","L","L","L","L","L","L","L","?","?","?","?","?","?","?","?","?","K","K","K","K","K","K","K","K","L","?","M","?","?","X","Y","Y","Y","Y","Y","Y","Y","?","?","?","?","?","Z","Z","Z","Z","Z","Z","Z","Z","Z","Z","Z","Z","Z","Z","Z","Z","Z","Z","Z","Z","Z","Z","Z","Z","Z","Z","Z","Z","Z","?","?","?","?","?","N","N","?","M","M","M","M","M","?","?","?","?","?","?","?","?","?","M","?","?","?","?","?","?","?","?","?","?","?","?","?","?","?","?","?","?","?","?","?","?","?","?","P","P","P","P","P","P","P","P","P","P","?","?","?","?","?","?","?","?","?","Y","Y","Y","Y","?","?","?","?","?","?","X","X","X","X","X","X","?","W","W","V","V","V","U","U","?","?","?","?","?","?","?","?","?","?","?","?","?","?","?","?","?","?","?","?","?","?","?","?","?","?","?","?","?","?","?","L","L","?","?","?","?","?","G","?","?","Q","Q","Q","Q","Q","Q","Q","Q","Q","Q","Q","Q","Q","Q","Q","Q","Q","Q","Q","?","?","?","?","?","?","?","?","?","?","?","?","?","?","Q","Q","Q","?","?","R","R","R","R","R","R","R","R","R","R","R","R","R","R","R","R","R","R","R","R","R","R","R","R","R","R","R","R","R","R","R","R","R","R","R","R","R","R","R","R","R","R","R","R","R","R","R","R","R","R","R","R","R","R","R","R","R","R","R","R","R","R","R","R","R","R","R","R","R","R","R","R","R","R","R","R","R","?","?","?","?","?","?","?","?","?","?","?","?","?","?","?","?","?","?","?","?","?","?","?","?","?","?","?","?","?","?","?","?","?","?","?","?","?","?","?","?","?","?","?","?","?","?","?","?","?","?","?","?","?","?","?","?","?","?","?","?","?","?","?","?","?"],"t":[32,45,61,78,95,111,129,145,162,179,195,211,230,244,262,280,296,313,329,346,363,379,396,413,429,446,463,479,496,513,529,545,562,579,595,612,628,646,663,678,696,713,729,746,762,778,795,813,829,845,861,880,895,913,928,946,961,979,996,1013,1028,1044,1061,1078,1095,1112,1129,1145,1162,1179,1196,1212,1229,1246,1262,1279,1296,1312,1329,1346,1362,1379,1396,1412,1427,1445,1461,1479,1495,1512,1529,1544,1562,1579,1596,1613,1629,1646,1662,1679,1696,1712,1729,1745,1762,1778,1795,1813,1829,1845,1861,1879,1895,1913,1929,1944,1962,1978,1994,2013,2029,2046,2062,2079,2096,2112,2129,2145,2161,2179,2196,2212,2229,2246,2262,2279,2295,2313,2329,2345,2363,2379,2396,2412,2429,2451,2478,2496,2511,2529,2546,2562,2579,2596,2612,2629,2646,2662,2678,2696,2712,2729,2745,2763,2779,2796,2812,2829,2846,2863,2878,2894,2911,2927,2945,2961,2978,2995,3012,3029,3045,3062,3079,3096,3113,3129,3146,3161,3179,3196,3213,3229,3246,3263,3279,3296,3312,3329,3344,3363,3379,3396,3412,3429,3446,3462,3479,3495,3512,3528,3546,3563,3579,3595,3612,3629,3646,3662,3679,3695,3712,3729,3746,3762,3779,3796,3811,3829,3846,3862,3879,3896,3913,3928,3945,3963,3979,3996,4012,4029,4046,4063,4079,4096,4113,4129,4144,4163,4179,4196,4213,4229,4245,4263,4279,4295,4312,4329,4344,4360,4378,4395,4412,4429,4446,4462,4478,4495,4512,4529,4546,4562,4578,4596,4612,4629,4645,4662,4679,4696,4712,4729,4746,4761,4779,4796,4812,4828,4845,4863,4879,4896,4912,4929,4946,4962,4979,4995,5012,5029,5046,5062,5077,5094,5111,5127,5144,5162,5179,5195,5213,5229,5245,5263,5279,5295,5311,5329,5346,5363,5378,5396,5412,5429,5446,5462,5479,5494,5512,5527,5546,5563,5578,5595,5613,5629,5644,5663,5677,5695,5712,5729,5746,5762,5779,5796,5811,5827,5843,5862,5879,5895,5912,5930,5946,5963,5979,5996,6013,6028,6046,6062,6079,6096,6112,6128,6144,6162,6178,6195,6211,6229,6246,6262,6279,6295,6312,6329,6346,6361,6378,6398,6412,6429,6446,6462,6479,6495,6512,6529,6545,6561,6578,6595,6612,6629,6645,6663,6679,6696,6712,6729,6746,6762,6779,6795,6812,6828,6844,6862,6879,6894,6913,6928,6946,6962,6978,6996,7012,7029,7045,7062,7078,7095,7112,7129,7145,7162,7178,7194,7210,7228,7245,7261,7277,7295,7312,7329,7345,7362,7379,7395,7411,7428,7446,7462,7479,7496,7512,7529,7546,7563,7579,7596,7613,7629,7646,7662,7678,7695,7712,7729,7746,7763,7779,7795,7813,7829,7845,7861,7879,7895,7913,7928,7946,7962,7979,7994,8012,8029,8044,8061,8080,8095,8111,8129,8146,8162,8179,8196,8212,8230,8245,8262,8279,8296,8312,8330,8346,8361,8379,8396,8412,8429,8446,8462,8479,8496,8512,8529,8546,8562,8578,8596,8612,8628,8646,8662,8679,8694,8711,8729,8746,8762,8779,8795,8812,8829,8845,8862,8878,8895,8912,8929,8944,8962,8979,8995,9011,9028,9046,9062,9079,9095,9111,9128,9144,9160,9178,9194,9211,9229,9244,9262,9278,9295,9311,9327,9345,9362,9379,9396,9412,9429,9445,9462,9479,9496,9512,9529,9546,9563,9579,9596,9613,9629,9644,9663,9679,9696,9712,9729,9746,9762,9778,9796,9813,9829,9846,9862,9879,9894,9912,9928,9946,9962,9979,9995,10012,10028,10046,10063,10079,10096,10111,10129,10144,10160,10178,10196,10212,10229,10245,10263,10279,10296,10312,10329,10345,10362,10378,10395,10413,10429,10446,10462,10479,10494,10513,10529,10545,10562,10579,10595,10611,10628,10645,10662,10678,10694,10712,10729,10745,10761,10778,10795,10813,10829,10846,10862,10879,10896,10912,10929,10946,10962,10979,10996,11011,11027,11045,11061,11077,11095,11111,11128,11144,11161,11177,11194,11211,11229,11244,11262,11278,11295,11313,11329,11346,11362,11379,11395,11412,11429,11446,11462,11479,11495,11511,11528,11545,11562,11578,11595,11611,11627,11643,11661,11679,11696,11712,11729,11745,11763,11779,11794,11812,11829,11846,11862,11878,11895,11911,11929,11945,11962,11979,11996,12012,12029,12045,12061,12079,12095,12112,12129,12145,12162,12179,12195,12212,12229,12246,12262,12279,12296,12312,12329,12346,12362,12379,12396,12412,12429,12446,12465,12479,12495,12511,12527,12543,12561,12578,12595,12612,12629,12645,12662,12679,12695,12712,12729,12745,12761,12778,12796,12813,12829,12846,12863,12879,12896,12912,12929,12945,12962,12979,12996,13011,13029,13046,13062,13078,13096,13112,13128,13145,13162,13178,13194,13212,13229,13245,13263,13279,13296,13312,13329,13345,13362,13379,13396,13412,13429,13446,13462,13479,13495,13511,13529,13546,13561,13579,13595,13612,13629,13645,13663,13679,13696,13712,13729,13745,13763,13779,13796,13812,13830,13845,13863,13878,13896,13913,13929,13945,13963,13979,13996,14013,14029,14046,14062,14079,14096,14113,14129,14144,14162,14179,14195,14212,14229,14246,14263,14279,14296,14313,14329,14344,14361,14379,14396,14412,14428,14445,14463,14478,14495,14511,14528,14544,14562,14579,14595,14612,14629,14645,14662,14679,14695,14711,14729,14744,14761,14779,14795,14812,14829,14846,14862,14877,14895,14912,14929,14945,14962,14978,14995,15012,15029,15045,15063,15079,15095,15112,15129,15145,15162,15179,15195,15212,15229,15244,15262,15279,15294,15312,15329,15345,15362,15379,15395,15413,15429,15445,15463,15478,15495,15512,15529,15546,15562,15579,15596,15613,15629,15646,15662,15679,15696,15713,15729,15746,15762,15779,15796,15812,15829,15846,15863,15879,15895,15913,15928,15944,15962,15978,15994,16012,16028,16045,16061,16079,16095,16112,16129,16146,16162,16179,16195,16212,16229,16245,16261,16278,16295,16312,16329,16346,16363,16379,16395,16412,16429,16445,16462,16478,16495,16512,16529,16546,16562,16579,16593,16611,16627,16643,16660,16676,16693,16711,16727,16744,16760,16777,16794,16811,16828,16844,16861,16878,16894,16912,16928,16945,16961,16979,16995,17013,17029,17045,17063,17078,17096,17112,17128,17144,17160,17177,17195,17212,17228,17244,17262,17278,17295,17312,17328,17344,17361,17379,17395,17412,17429,17446,17461,17479,17496,17512,17528,17546,17562,17579,17595,17613,17629,17645,17662,17679,17695,17713,17728,17746,17761,17779,17796,17811,17828,17845,17863,17879,17895,17912,17929,17945,17961,17979,17996,18013,18028,18045,18061,18079,18095,18113,18129,18146,18162,18179,18196,18212,18229,18246,18262,18279,18296,18312,18328,18346,18361,18379,18395,18412,18429,18444,18462,18482,18512,18529,18546,18562,18578,18596,18612,18629,18644,18663,18679,18694,18713,18729,18746,18762,18778,18794,18812,18829,18845,18861,18879,18896,18912,18928,18945,18962,18979,18995,19013,19028,19045,19062,19079,19094,19112,19128,19144,19162,19179,19195,19212,19228,19246,19262,19279,19296,19312,19329,19345,19361,19379,19396,19411,19428,19446,19462,19479,19495,19511,19527,19544,19562,19578,19595,19612,19628,19645,19662,19679,19695,19711,19729,19746,19762,19779,19795,19811,19829,19846,19862,19879,19895,19912,19929,19945,19962,19979,19995,20012,20028,20045,20062,20078,20094,20112,20128,20145,20163,20179,20196,20212,20229,20246,20261,20278,20295,20312,20328,20346,20363,20379,20396,20412,20429,20445,20463,20478,20496,20512,20529,20546,20562,20579,20596,20612,20629,20645,20662,20679,20695,20712,20728,20745,20762,20779,20796,20812,20828,20845,20861,20877,20895,20911,20929,20945,20963,20979,20995,21013,21029,21045,21062,21079,21095,21111,21129,21145,21161,21177,21195,21211,21228,21245,21262,21278,21296,21312,21329,21346,21361,21378,21396,21411,21428,21446,21462,21479,21494,21511,21529,21545,21562,21579,21595,21612,21628,21646,21662,21678,21693,21710,21728,21745,21762,21779,21795,21811,21829,21845,21862,21878,21895,21912,21928,21944,21962,21979,21995,22012,22029,22046,22062,22079,22096,22112,22127,22146,22161,22179,22196,22212,22229,22246,22262,22278,22296,22312,22329,22346,22362,22379,22395,22412,22428,22446,22461,22479,22495,22511,22529,22545,22561,22579,22595,22612,22628,22645,22661,22679,22695,22712,22728,22745,22762,22779,22796,22812,22828,22845,22862,22879,22895,22911,22929,22945,22962,22979,22996,23012,23029,23045,23062,23079,23096,23111,23128,23145,23162,23179,23195,23212,23229,23244,23262,23280,23295,23312,23329,23346,23362,23378,23394,23413,23429,23444,23461,23479,23495,23511,23528,23545,23563,23579,23595,23612,23628,23644,23662,23679,23695,23712,23728,23746,23762,23779,23794,23812,23829,23845,23863,23877,23894,23911,23929,23946,23963,23978,23995,24012,24029,24044,24062,24078,24095,24112,24129,24145,24162,24179,24195,24213,24228,24245,24262,24279,24295,24311,24328,24346,24362,24378,24395,24412,24429,24444,24461,24477,24494,24511,24527,24544,24561,24577,24594,24611,24628,24644,24662,24679,24696,24712,24728,24744,24762,24779,24795,24811,24828,24845,24862,24879,24894,24912,24928,24946,24962,24979,24995,25012,25029,25045,25062,25079,25095,25112,25129,25144,25161,25177,25195,25211,25228,25244,25261,25278,25295,25312,25327,25345,25362,25378,25394,25412,25428,25445,25462,25479,25495,25512,25527,25546,25562,25577,25596,25612,25628,25646,25662,25677,25695,25712,25728,25745,25762,25779,25795,25812,25829,25846,25862,25878,25895,25912,25927,25945,25962,25979,25995,26012,26027,26045,26062,26079,26095,26112,26129,26146,26162,26179,26195,26212,26229,26245,26262,26279,26295,26312,26329,26345,26361,26379,26396,26412,26429,26444,26462,26479,26495,26512,26528,26545,26562,26578,26595,26612,26628,26645,26662,26679,26696,26712,26729,26746,26762,26778,26794,26813,26829,26846,26861,26878,26895,26912,26929,26944,26962,26979,26995,27012,27029,27046,27061,27079,27096,27112,27128,27145,27161,27179,27196,27212,27229,27244,27261,27277,27294,27312,27329,27345,27362,27379,27394,27412,27428,27445,27462,27479,27495,27512,27529,27545,27562,27578,27595,27612,27627,27646,27662,27679,27695,27712,27728,27746,27762,27779,27795,27812,27828,27845,27862,27878,27896,27912,27929,27945,27963,27978,27995,28012,28029,28044,28062,28079,28095,28112,28129,28144,28162,28179,28194,28211,28228,28245,28262,28279,28294,28312,28329,28346,28362,28379,28396,28412,28429,28445,28462,28478,28494,28512,28528,28545,28561,28579,28595,28612,28628,28644,28660,28677,28695,28712,28729,28746,28762,28779,28795,28813,28828,28846,28862,28878,28896,28912,28928,28944,28962,28979,28996,29011,29028,29045,29062,29079,29094,29112,29129,29145,29162,29179,29194,29210,29227,29245,29262,29277,29295,29312,29327,29346,29362,29377,29396,29412,29429,29445,29462,29477,29496,29512,29527,29546,29562,29577,29596,29611,29627,29646,29662,29679,29696,29710,29728,29745,29761,29779,29796,29812,29829,29846,29862,29879,29896,29912,29929,29945,29962,29979,29996,30012,30029,30043,30060,30077,30096,30112,30129,30145,30162,30179,30195,30212,30229,30246,30262,30279,30296,30312,30329,30345,30361,30378,30394,30412,30429,30446,30462,30479,30496,30512,30528,30545,30562,30579,30596,30612,30629,30645,30661,30679,30695,30712,30729,30744,30762,30779,30795,30811,30827,30845,30862,30879,30895,30912,30929,30946,30962,30979,30995,31012,31029,31045,31062,31079,31095,31112,31128,31145,31161,31179,31195,31212,31228,31245,31262,31279,31294,31312,31329,31346,31361,31379,31395,31411,31427,31443,31460,31477,31495,31511,31528,31545,31562,31578,31595,31612,31629,31646,31660,31679,31695,31712,31727,31745,31762,31779,31796,31812,31828,31845,31862,31878,31896,31912,31929,31946,31962,31979,31995,32012,32028,32046,32061,32079,32096,32112,32129,32144,32161,32179,32195,32212,32228,32244,32262,32279,32294,32312,32327,32344,32362,32379,32394,32412,32428,32445,32462,32478,32495,32511,32528,32545,32562,32578,32595,32612,32629,32645,32662,32679,32695,32712,32727,32744,32761,32777,32795,32811,32827,32844,32862,32878,32895,32911,32928,32945,32962,32978,32994,33012,33029,33045,33062,33079,33095,33112,33129,33144,33162,33177,33195,33211,33228,33244,33261,33278,33295,33310,33328,33345,33362,33378,33395,33412,33429,33445,33461,33478,33495,33512,33528,33545,33562,33579,33595,33612,33629,33645,33661,33678,33694,33710,33728,33744,33761,33778,33795,33811,33829,33845,33862,33879,33895,33912,33928,33946,33962,33979,33994,34011,34029,34046,34062,34077,34094,34110,34128,34144,34161,34178,34194,34212,34228,34245,34262,34279,34295,34312,34328,34346,34362,34379,34395,34412,34427,34444,34462,34478,34495,34512,34528,34545,34561,34579,34595,34612,34627,34644,34662,34678,34695,34712,34728,34745,34761,34778,34795,34812,34829,34844,34862,34879,34895,34912,34929,34945,34961,34978,34995,35012,35029,35045,35061,35079,35094,35111,35128,35145,35162,35178,35194,35210,35227,35244,35261,35278,35295,35312,35328,35345,35362,35378,35394,35411,35427,35444,35462,35477,35494,35511,35528,35545,35561,35578,35595,35612,35628,35645,35662,35678,35695,35712,35728,35745,35762,35777,35795,35812,35827,35844,35862,35878,35895,35911,35928,35945,35962,35978,35994,36012,36028,36045,36062,36078,36095,36111,36128,36145,36162,36179,36195,36212,36228,36244,36262,36278,36294,36312,36329,36345,36361,36378,36395,36412,36429,36445,36461,36479,36495,36512,36529,36545,36561,36578,36596,36612,36629,36644,36662,36679,36696,36712,36728,36744,36761,36778,36794,36812,36828,36845,36862,36879,36896,36912,36929,36944,36962,36978,36994,37011,37028,37045,37062,37079,37095,37111,37128,37145,37161,37179,37196,37212,37228,37244,37261,37277,37293,37310,37328,37345,37362,37377,37395,37412,37429,37445,37462,37479,37495,37511,37529,37545,37562,37579,37595,37612,37628,37644,37662,37679,37695,37712,37729,37745,37762,37778,37795,37812,37829,37845,37861,37878,37895,37912,37928,37945,37962,37979,37995,38012,38028,38046,38061,38077,38093,38112,38128,38144,38162,38179,38196,38212,38232,38245,38262,38279,38295,38312,38329,38345,38362,38378,38395,38411,38429,38445,38461,38479,38496,38512,38528,38545,38562,38578,38594,38612,38629,38646,38662,38679,38695,38712,38729,38745,38761,38778,38795,38812,38830,38846,38862,38879,38895,38912,38928,38946,38962,38979,38995,39012,39029,39045,39062,39079,39095,39112,39128,39145,39161,39179,39195,39212,39229,39245,39262,39277,39295,39312,39329,39345,39361,39377,39394,39411,39429,39445,39463,39479,39495,39511,39528,39544,39561,39578,39595,39612,39629,39645,39662,39679,39694,39711,39728,39745,39762,39779,39796,39812,39829,39845,39861,39879,39895,39913,39928,39945,39961,39979,39995,40013,40027,40045,40062,40079,40095,40112,40129,40145,40162,40179,40196,40212,40232],"hit":[null],"x":[-1.9285714285714286,-1.9285714285714286,-1.9285714285714286,-1.9285714285714286,-1.9285714285714286,-1.9285714285714286,-1.9285714285714286,-1.9285714285714286,-1.9285714285714286,-1.9285714285714286,-1.9285714285714286,-1.9285714285714286,-1.9285714285714286,-1.9285714285714286,-1.9285714285714286,-1.9285714285714286,-1.9285714285714286,-1.9285714285714286,-1.9285714285714286,-1.9285714285714286,-1.9285714285714286,-1.9285714285714286,-1.9285714285714286,-1.9285714285714286,-1.9285714285714286,-1.9285714285714286,-1.9285714285714286,-1.9285714285714286,-1.9285714285714286,-1.9285714285714286,-1.9285714285714286,-1.9285714285714286,-1.9285714285714286,-1.9285714285714286,-1.9285714285714286,-1.9285714285714286,-1.9285714285714286,-1.9285714285714286,-1.9285714285714286,-1.9285714285714286,-1.9285714285714286,-1.9285714285714286,-1.9285714285714286,-1.9285714285714286,-1.9285714285714286,-1.9285714285714286,-1.9285714285714286,-1.9285714285714286,-1.9285714285714286,-1.9285714285714286,-1.9285714285714286,-1.9285714285714286,-1.9285714285714286,-1.9285714285714286,-1.9285714285714286,-1.9285714285714286,-1.9285714285714286,-1.9285714285714286,-1.9285714285714286,-1.9285714285714286,-1.9285714285714286,-1.9285714285714286,-1.9285714285714286,-1.9285714285714286,-1.9285714285714286,-1.9285714285714286,-1.9285714285714286,-1.9285714285714286,-1.9285714285714286,-1.9285714285714286,-1.9285714285714286,-1.9285714285714286,-1.9285714285714286,-1.9285714285714286,-1.9285714285714286,-1.9285714285714286,-1.9285714285714286,-1.9285714285714286,-1.9285714285714286,-1.9285714285714286,-1.9285714285714286,-1.9285714285714286,-1.9285714285714286,-1.9285714285714286,-1.9285714285714286,-1.9285714285714286,-1.9285714285714286,-1.9285714285714286,-1.9285714285714286,-1.9285714285714286,-1.9285714285714286,-1.9285714285714286,-1.9285714285714286,-1.9285714285714286,-1.9285714285714286,-1.9285714285714286,-1.9285714285714286,-1.9285714285714286,-1.9285714285714286,-1.9285714285714286,-1.9285714285714286,-1.9285714285714286,-1.9285714285714286,-1.9285714285714286,-1.9285714285714286,-1.9285714285714286,-1.9285714285714286,-1.9285714285714286,-1.9285714285714286,-1.9285714285714286,-1.9285714285714286,-1.9285714285714286,-1.9285714285714286,-1.9285714285714286,-1.9285714285714286,-1.9285714285714286,-1.9285714285714286,-1.9285714285714286,-1.9285714285714286,-1.9285714285714286,-1.9285714285714286,-1.9285714285714286,-1.9285714285714286,-1.9285714285714286,-1.9285714285714286,-1.9285714285714286,-1.9285714285714286,-1.9285714285714286,-1.9285714285714286,-1.9285714285714286,-1.9285714285714286,-1.9285714285714286,-1.9285714285714286,-1.9285714285714286,-1.9285714285714286,-1.9285714285714286,-1.9285714285714286,-1.9285714285714286,-1.9285714285714286,-1.9285714285714286,-1.9285714285714286,-1.9285714285714286,-1.9285714285714286,-1.9285714285714286,-1.9285714285714286,-1.9285714285714286,-1.9285714285714286,-1.9285714285714286,-1.9285714285714286,-1.9285714285714286,-1.9285714285714286,-1.9285714285714286,-1.9285714285714286,-1.9285714285714286,-1.9285714285714286,-1.9285714285714286,-1.9285714285714286,-1.9285714285714286,-1.9285714285714286,-1.9285714285714286,-1.9285714285714286,-1.9285714285714286,-1.9285714285714286,-1.9285714285714286,-1.9285714285714286,-1.9285714285714286,-1.9285714285714286,-1.9285714285714286,-1.9285714285714286,-1.9285714285714286,-1.9285714285714286,-1.9285714285714286,-1.9285714285714286,-1.9285714285714286,-1.9285714285714286,-1.9285714285714286,-1.9285714285714286,-1.9285714285714286,-1.9285714285714286,-1.9285714285714286,-1.9285714285714286,-1.9285714285714286,-1.9285714285714286,-1.9285714285714286,-1.9285714285714286,-1.9285714285714286,-1.9285714285714286,-1.9285714285714286,-1.9285714285714286,-1.9285714285714286,-1.9285714285714286,-1.9285714285714286,-1.9285714285714286,-1.9285714285714286,-1.9285714285714286,-1.9285714285714286,-1.9285714285714286,-1.9285714285714286,-1.9285714285714286,-1.9285714285714286,-1.9285714285714286,-1.9285714285714286,-1.9285714285714286,-1.9285714285714286,-1.9285714285714286,-1.9285714285714286,-1.9285714285714286,-1.9285714285714286,-1.9285714285714286,-1.9285714285714286,-1.9285714285714286,-1.9285714285714286,-1.9285714285714286,-1.9285714285714286,-1.9285714285714286,-1.9285714285714286,-1.9285714285714286,-1.9285714285714286,-1.9285714285714286,-1.9285714285714286,-1.9285714285714286,-1.9285714285714286,-1.9285714285714286,-1.9285714285714286,-1.9285714285714286,-1.9285714285714286,-1.9285714285714286,-1.9285714285714286,-1.9285714285714286,-1.9285714285714286,-1.9285714285714286,-1.9285714285714286,-1.9285714285714286,-1.9285714285714286,-1.9285714285714286,-1.9285714285714286,-1.9285714285714286,-1.9285714285714286,-1.9285714285714286,-1.9285714285714286,-1.9285714285714286,-1.9285714285714286,-1.9285714285714286,-1.9285714285714286,-1.9285714285714286,-1.9285714285714286,-1.9285714285714286,-1.9285714285714286,-1.9285714285714286,-1.9285714285714286,-1.9285714285714286,-1.9285714285714286,-1.9285714285714286,-1.9285714285714286,-1.9285714285714286,-1.9285714285714286,-1.9285714285714286,-1.9285714285714286,-1.9285714285714286,-1.9285714285714286,-1.9285714285714286,-1.9285714285714286,-1.9285714285714286,-1.9285714285714286,-1.9285714285714286,-1.9285714285714286,-1.9285714285714286,-1.9285714285714286,-1.9285714285714286,-1.9285714285714286,-1.9285714285714286,-1.9285714285714286,-1.9285714285714286,-1.9285714285714286,-1.9285714285714286,-1.9285714285714286,-1.9285714285714286,-1.9285714285714286,-1.9285714285714286,-1.9285714285714286,-1.9285714285714286,-1.9285714285714286,-1.9285714285714286,-1.9285714285714286,-1.9285714285714286,-1.9285714285714286,-1.9285714285714286,-1.9285714285714286,-1.9285714285714286,-1.9285714285714286,-1.9285714285714286,-1.9285714285714286,-1.9285714285714286,-1.9285714285714286,-1.9285714285714286,-1.9285714285714286,-1.9285714285714286,-1.9285714285714286,-1.9285714285714286,-1.9285714285714286,-1.9285714285714286,-1.9285714285714286,-1.9285714285714286,-1.9285714285714286,-1.9285714285714286,-1.9285714285714286,-1.9285714285714286,-1.9285714285714286,-1.9285714285714286,-1.9285714285714286,-1.9285714285714286,-1.9285714285714286,-1.9285714285714286,-1.9285714285714286,-1.9285714285714286,-1.9285714285714286,-1.9285714285714286,-1.9285714285714286,-1.9285714285714286,-1.9285714285714286,-1.9285714285714286,-1.9285714285714286,-1.9285714285714286,-1.9285714285714286,-1.9285714285714286,-1.9285714285714286,-1.9285714285714286,-1.9285714285714286,-1.9285714285714286,-1.9285714285714286,-1.9285714285714286,-1.9285714285714286,-1.9285714285714286,-1.9285714285714286,-1.9285714285714286,-1.9285714285714286,-1.9285714285714286,-1.9285714285714286,-1.9285714285714286,-1.9285714285714286,-1.9285714285714286,-1.9285714285714286,-1.9285714285714286,-1.9285714285714286,-1.9285714285714286,-1.9285714285714286,-1.9285714285714286,-1.9285714285714286,-1.9285714285714286,-1.9285714285714286,-1.9285714285714286,-1.9285714285714286,-1.9285714285714286,-1.9285714285714286,-1.9285714285714286,-1.9285714285714286,-1.9285714285714286,-1.9285714285714286,-1.9285714285714286,-1.9285714285714286,-1.9285714285714286,-1.9285714285714286,-1.9285714285714286,-1.9285714285714286,-1.9285714285714286,-1.9285714285714286,-1.9285714285714286,-1.9285714285714286,-1.9285714285714286,-1.9285714285714286,-1.9285714285714286,-1.9285714285714286,-1.9285714285714286,-1.9285714285714286,-1.9285714285714286,-1.9285714285714286,-1.9285714285714286,-1.9285714285714286,-1.9285714285714286,-1.9285714285714286,-1.9285714285714286,-0.01020408163265306,-0.027210884353741496,-0.027210884353741496,-0.023809523809523808,0.05102040816326531,0.12244897959183673,0.19387755102040816,0.2619047619047619,0.3129251700680272,0.35714285714285715,0.3707482993197279,0.3843537414965986,0.3843537414965986,0.3843537414965986,0.3843537414965986,0.3843537414965986,0.3843537414965986,0.3843537414965986,0.3843537414965986,0.3843537414965986,0.40476190476190477,0.445578231292517,0.4897959183673469,0.5918367346938775,0.6768707482993197,0.7993197278911565,0.8401360544217688,0.8775510204081632,0.8945578231292517,0.8945578231292517,0.8945578231292517,0.8945578231292517,0.8945578231292517,0.8945578231292517,0.8945578231292517,0.8945578231292517,0.8945578231292517,0.8775510204081632,0.826530612244898,0.6700680272108843,0.5374149659863946,0.47619047619047616,0.35714285714285715,0.29931972789115646,0.2755102040816326,0.25510204081632654,0.24829931972789115,0.24489795918367346,0.24489795918367346,0.24149659863945577,0.23809523809523808,0.22448979591836735,0.20408163265306123,0.17687074829931973,0.13945578231292516,0.12244897959183673,0.11224489795918367,0.10884353741496598,0.1054421768707483,0.1054421768707483,0.10204081632653061,0.10204081632653061,0.10204081632653061,0.10204081632653061,0.10204081632653061,0.10204081632653061,0.10204081632653061,0.10204081632653061,0.10204081632653061,0.10204081632653061,0.10204081632653061,0.10204081632653061,0.10204081632653061,0.10204081632653061,0.10204081632653061,0.10204081632653061,0.10204081632653061,0.10204081632653061,0.10204081632653061,0.10204081632653061,0.10204081632653061,0.10204081632653061,0.10204081632653061,0.10204081632653061,0.10204081632653061,0.10204081632653061,0.10204081632653061,0.10204081632653061,0.10204081632653061,0.10204081632653061,0.10204081632653061,0.10204081632653061,0.10204081632653061,0.10204081632653061,0.10204081632653061,0.10204081632653061,0.10204081632653061,0.10204081632653061,0.10204081632653061,0.10204081632653061,0.10204081632653061,0.10204081632653061,0.10204081632653061,0.10204081632653061,0.10204081632653061,0.10204081632653061,0.10204081632653061,0.10204081632653061,0.10204081632653061,0.10204081632653061,0.10204081632653061,0.10204081632653061,0.10204081632653061,0.10204081632653061,0.10204081632653061,0.10204081632653061,0.10204081632653061,0.10204081632653061,0.10204081632653061,0.10204081632653061,0.10204081632653061,0.10204081632653061,0.10204081632653061,0.10204081632653061,0.10204081632653061,0.10204081632653061,0.10204081632653061,0.10204081632653061,0.10204081632653061,0.10204081632653061,0.10204081632653061,0.10204081632653061,0.10204081632653061,0.10204081632653061,0.10204081632653061,0.10204081632653061,0.10204081632653061,0.10204081632653061,0.10204081632653061,0.10204081632653061,0.10204081632653061,0.10204081632653061,0.10204081632653061,0.10204081632653061,0.10204081632653061,0.10204081632653061,0.10204081632653061,0.10204081632653061,0.10204081632653061,0.10204081632653061,0.10204081632653061,0.11564625850340136,0.272108843537415,0.47959183673469385,0.8809523809523809,1.054421768707483,1.1462585034013606,1.251700680272109,1.3401360544217686,1.3673469387755102,1.3945578231292517,1.3945578231292517,1.3911564625850341,1.3537414965986394,1.3265306122448979,1.2993197278911566,1.2755102040816326,1.251700680272109,1.2244897959183674,1.2074829931972788,1.1904761904761905,1.1870748299319729,1.1768707482993197,1.1734693877551021,1.1700680272108843,1.1700680272108843,1.1700680272108843,1.1700680272108843,1.1700680272108843,1.1700680272108843,1.1700680272108843,1.1700680272108843,1.1700680272108843,1.1700680272108843,1.1700680272108843,1.1700680272108843,1.1700680272108843,1.1700680272108843,1.1700680272108843,1.1700680272108843,1.1700680272108843,1.1700680272108843,1.1700680272108843,1.1700680272108843,1.1700680272108843,1.1700680272108843,1.1700680272108843,1.1700680272108843,1.1700680272108843,1.1700680272108843,1.1700680272108843,1.1700680272108843,1.1700680272108843,1.1700680272108843,1.1700680272108843,1.1700680272108843,1.1700680272108843,1.1700680272108843,1.1700680272108843,1.1700680272108843,1.1700680272108843,1.1700680272108843,1.1700680272108843,1.1700680272108843,1.1700680272108843,1.1700680272108843,1.1700680272108843,1.1700680272108843,1.1700680272108843,1.1700680272108843,1.1700680272108843,1.1700680272108843,1.1700680272108843,1.1700680272108843,1.1700680272108843,1.1700680272108843,1.1700680272108843,1.1700680272108843,1.1700680272108843,1.1700680272108843,1.1700680272108843,1.1700680272108843,1.1700680272108843,1.1700680272108843,1.1700680272108843,1.1700680272108843,1.1700680272108843,1.1700680272108843,1.1700680272108843,1.1700680272108843,1.1700680272108843,1.1700680272108843,1.1700680272108843,1.1700680272108843,1.1700680272108843,1.1700680272108843,1.1700680272108843,1.1700680272108843,1.1700680272108843,1.1700680272108843,1.1700680272108843,1.1700680272108843,1.1700680272108843,1.1700680272108843,1.1700680272108843,1.1700680272108843,1.1700680272108843,1.1700680272108843,1.1700680272108843,1.1700680272108843,1.1700680272108843,1.1700680272108843,1.1700680272108843,1.1700680272108843,1.1700680272108843,1.1700680272108843,1.1700680272108843,1.1700680272108843,1.1700680272108843,1.1700680272108843,1.1700680272108843,1.1700680272108843,1.1700680272108843,1.1700680272108843,1.1700680272108843,1.1700680272108843,1.1700680272108843,1.1700680272108843,1.1700680272108843,1.1700680272108843,1.1700680272108843,1.1700680272108843,1.1700680272108843,1.1700680272108843,1.1700680272108843,1.1700680272108843,1.1700680272108843,1.1700680272108843,1.1700680272108843,1.1700680272108843,1.1700680272108843,1.1700680272108843,1.1700680272108843,1.1700680272108843,1.1700680272108843,1.1700680272108843,1.1700680272108843,1.1700680272108843,1.1700680272108843,1.1700680272108843,1.1700680272108843,1.1700680272108843,1.1700680272108843,1.1700680272108843,1.1700680272108843,1.1700680272108843,1.1700680272108843,1.1700680272108843,1.1700680272108843,1.1700680272108843,1.1700680272108843,1.1700680272108843,1.1700680272108843,1.1700680272108843,1.1700680272108843,1.1700680272108843,1.1700680272108843,1.1700680272108843,1.1700680272108843,1.1700680272108843,1.1700680272108843,1.1700680272108843,1.1564625850340136,1.1360544217687074,1.1020408163265305,1.0068027210884354,0.782312925170068,0.5918367346938775,0.391156462585034,0.2619047619047619,0.1564625850340136,0.05782312925170068,-0.006802721088435374,-0.03741496598639456,-0.06462585034013606,-0.08163265306122448,-0.09183673469387756,-0.10204081632653061,-0.10884353741496598,-0.11224489795918367,-0.11564625850340136,-0.11564625850340136,-0.11564625850340136,-0.11564625850340136,-0.11564625850340136,-0.11564625850340136,-0.10884353741496598,-0.09183673469387756,-0.07482993197278912,-0.05442176870748299,-0.04421768707482993,-0.03741496598639456,-0.034013605442176874,-0.034013605442176874,-0.034013605442176874,-0.034013605442176874,-0.034013605442176874,-0.034013605442176874,-0.034013605442176874,-0.034013605442176874,-0.034013605442176874,-0.034013605442176874,-0.034013605442176874,-0.034013605442176874,-0.034013605442176874,-0.034013605442176874,-0.034013605442176874,-0.034013605442176874,-0.034013605442176874,-0.034013605442176874,-0.034013605442176874,-0.034013605442176874,-0.034013605442176874,-0.034013605442176874,-0.034013605442176874,-0.034013605442176874,-0.034013605442176874,-0.034013605442176874,-0.034013605442176874,-0.034013605442176874,-0.034013605442176874,-0.034013605442176874,-0.034013605442176874,-0.034013605442176874,-0.034013605442176874,-0.034013605442176874,-0.034013605442176874,-0.034013605442176874,-0.034013605442176874,-0.034013605442176874,-0.034013605442176874,-0.034013605442176874,-0.034013605442176874,-0.034013605442176874,-0.034013605442176874,-0.034013605442176874,-0.034013605442176874,-0.034013605442176874,-0.034013605442176874,-0.034013605442176874,-0.034013605442176874,-0.034013605442176874,-0.034013605442176874,-0.034013605442176874,-0.034013605442176874,-0.034013605442176874,-0.034013605442176874,-0.034013605442176874,-0.034013605442176874,-0.034013605442176874,-0.034013605442176874,-0.034013605442176874,-0.034013605442176874,-0.034013605442176874,-0.034013605442176874,-0.034013605442176874,-0.034013605442176874,-0.034013605442176874,-0.034013605442176874,-0.034013605442176874,-0.034013605442176874,-0.034013605442176874,-0.034013605442176874,-0.034013605442176874,-0.034013605442176874,-0.034013605442176874,-0.034013605442176874,-0.034013605442176874,-0.034013605442176874,-0.034013605442176874,-0.034013605442176874,-0.034013605442176874,-0.034013605442176874,-0.034013605442176874,-0.034013605442176874,-0.034013605442176874,-0.034013605442176874,-0.034013605442176874,-0.034013605442176874,-0.034013605442176874,-0.034013605442176874,-0.034013605442176874,-0.034013605442176874,-0.034013605442176874,-0.034013605442176874,-0.034013605442176874,-0.034013605442176874,-0.034013605442176874,-0.034013605442176874,-0.034013605442176874,-0.034013605442176874,-0.034013605442176874,-0.034013605442176874,-0.034013605442176874,-0.034013605442176874,-0.034013605442176874,-0.034013605442176874,-0.034013605442176874,-0.034013605442176874,-0.034013605442176874,-0.034013605442176874,-0.034013605442176874,-0.034013605442176874,-0.034013605442176874,-0.034013605442176874,-0.034013605442176874,-0.034013605442176874,-0.034013605442176874,-0.034013605442176874,-0.034013605442176874,-0.034013605442176874,-0.034013605442176874,-0.034013605442176874,-0.034013605442176874,-0.034013605442176874,-0.034013605442176874,-0.034013605442176874,-0.034013605442176874,-0.034013605442176874,-0.034013605442176874,-0.034013605442176874,-0.034013605442176874,-0.034013605442176874,-0.034013605442176874,-0.034013605442176874,-0.034013605442176874,-0.034013605442176874,-0.034013605442176874,-0.034013605442176874,-0.034013605442176874,-0.034013605442176874,-0.034013605442176874,-0.034013605442176874,-0.034013605442176874,-0.034013605442176874,-0.034013605442176874,-0.034013605442176874,-0.027210884353741496,0,0.013605442176870748,0.05102040816326531,0.09863945578231292,0.13945578231292516,0.17687074829931973,0.19727891156462585,0.21768707482993196,0.23469387755102042,0.24829931972789115,0.2585034013605442,0.272108843537415,0.2891156462585034,0.30272108843537415,0.32653061224489793,0.3401360544217687,0.35034013605442177,0.35374149659863946,0.36054421768707484,0.36054421768707484,0.36394557823129253,0.36394557823129253,0.36394557823129253,0.36394557823129253,0.36394557823129253,0.36394557823129253,0.36394557823129253,0.36394557823129253,0.36394557823129253,0.36394557823129253,0.3673469387755102,0.3707482993197279,0.3741496598639456,0.37755102040816324,0.3843537414965986,0.391156462585034,0.4013605442176871,0.41496598639455784,0.43197278911564624,0.445578231292517,0.4557823129251701,0.46258503401360546,0.46258503401360546,0.46258503401360546,0.46258503401360546,0.46258503401360546,0.46258503401360546,0.46258503401360546,0.46258503401360546,0.46258503401360546,0.46258503401360546,0.46258503401360546,0.46258503401360546,0.46258503401360546,0.46258503401360546,0.46258503401360546,0.46258503401360546,0.46258503401360546,0.46258503401360546,0.46258503401360546,0.46258503401360546,0.46258503401360546,0.46258503401360546,0.46258503401360546,0.46258503401360546,0.46258503401360546,0.46258503401360546,0.46258503401360546,0.46258503401360546,0.46258503401360546,0.46258503401360546,0.46258503401360546,0.46258503401360546,0.46258503401360546,0.46258503401360546,0.46258503401360546,0.46258503401360546,0.46258503401360546,0.46258503401360546,0.46258503401360546,0.46258503401360546,0.46258503401360546,0.46258503401360546,0.46598639455782315,0.47619047619047616,0.48639455782312924,0.5,0.5102040816326531,0.5170068027210885,0.5204081632653061,0.5204081632653061,0.5238095238095238,0.5238095238095238,0.5272108843537415,0.5272108843537415,0.5272108843537415,0.5272108843537415,0.5272108843537415,0.5306122448979592,0.5306122448979592,0.5306122448979592,0.5306122448979592,0.5306122448979592,0.5306122448979592,0.5306122448979592,0.5306122448979592,0.5306122448979592,0.5306122448979592,0.5306122448979592,0.5306122448979592,0.5306122448979592,0.5306122448979592,0.5306122448979592,0.5306122448979592,0.5306122448979592,0.5306122448979592,0.5306122448979592,0.5306122448979592,0.5306122448979592,0.5306122448979592,0.5306122448979592,0.5306122448979592,0.5306122448979592,0.5306122448979592,0.5306122448979592,0.5306122448979592,0.5306122448979592,0.5306122448979592,0.5306122448979592,0.5306122448979592,0.5306122448979592,0.5306122448979592,0.5306122448979592,0.5306122448979592,0.5306122448979592,0.5306122448979592,0.5306122448979592,0.5306122448979592,0.5306122448979592,0.5306122448979592,0.5306122448979592,0.5306122448979592,0.5306122448979592,0.5306122448979592,0.5306122448979592,0.5306122448979592,0.5306122448979592,0.5306122448979592,0.5306122448979592,0.5306122448979592,0.5306122448979592,0.5306122448979592,0.5306122448979592,0.5306122448979592,0.5306122448979592,0.5306122448979592,0.5306122448979592,0.5306122448979592,0.5374149659863946,0.54421768707483,0.5544217687074829,0.5612244897959183,0.5714285714285714,0.5748299319727891,0.5748299319727891,0.5748299319727891,0.5748299319727891,0.5748299319727891,0.5748299319727891,0.5748299319727891,0.5748299319727891,0.5748299319727891,0.5748299319727891,0.5748299319727891,0.5748299319727891,0.5748299319727891,0.5748299319727891,0.5748299319727891,0.5748299319727891,0.5748299319727891,0.5748299319727891,0.5748299319727891,0.5748299319727891,0.5748299319727891,0.5748299319727891,0.5748299319727891,0.5748299319727891,0.5748299319727891,0.5748299319727891,0.5748299319727891,0.5748299319727891,0.5748299319727891,0.5748299319727891,0.5748299319727891,0.5748299319727891,0.5748299319727891,0.5748299319727891,0.5748299319727891,0.5748299319727891,0.5748299319727891,0.5748299319727891,0.5748299319727891,0.5748299319727891,0.5748299319727891,0.5748299319727891,0.5748299319727891,0.5748299319727891,0.5748299319727891,0.5748299319727891,0.5748299319727891,0.5748299319727891,0.5748299319727891,0.5748299319727891,0.5748299319727891,0.5748299319727891,0.5748299319727891,0.5748299319727891,0.5748299319727891,0.5748299319727891,0.5748299319727891,0.5748299319727891,0.5748299319727891,0.5748299319727891,0.5748299319727891,0.5748299319727891,0.5748299319727891,0.5748299319727891,0.5748299319727891,0.5748299319727891,0.5748299319727891,0.5748299319727891,0.5748299319727891,0.5748299319727891,0.5748299319727891,0.5748299319727891,0.5748299319727891,0.5748299319727891,0.5748299319727891,0.5748299319727891,0.5748299319727891,0.5748299319727891,0.5748299319727891,0.5748299319727891,0.5748299319727891,0.5748299319727891,0.5748299319727891,0.5748299319727891,0.5748299319727891,0.5748299319727891,0.5748299319727891,0.5748299319727891,0.5748299319727891,0.5748299319727891,0.5748299319727891,0.5748299319727891,0.5748299319727891,0.5748299319727891,0.5748299319727891,0.5748299319727891,0.5748299319727891,0.5748299319727891,0.5748299319727891,0.5748299319727891,0.5748299319727891,0.5748299319727891,0.5748299319727891,0.5748299319727891,0.5748299319727891,0.5748299319727891,0.5748299319727891,0.5748299319727891,0.5748299319727891,0.5748299319727891,0.5748299319727891,0.5748299319727891,0.5748299319727891,0.5748299319727891,0.5748299319727891,0.5748299319727891,0.5748299319727891,0.5748299319727891,0.5748299319727891,0.5748299319727891,0.5748299319727891,0.5748299319727891,0.5748299319727891,0.5748299319727891,0.5748299319727891,0.5748299319727891,0.5748299319727891,0.5748299319727891,0.5748299319727891,0.5748299319727891,0.5748299319727891,0.5748299319727891,0.5748299319727891,0.5748299319727891,0.5748299319727891,0.5748299319727891,0.5748299319727891,0.5748299319727891,0.5748299319727891,0.5748299319727891,0.5748299319727891,0.5748299319727891,0.5748299319727891,0.5748299319727891,0.5748299319727891,0.5748299319727891,0.5748299319727891,0.5748299319727891,0.5748299319727891,0.5748299319727891,0.5748299319727891,0.5748299319727891,0.5748299319727891,0.5748299319727891,0.5748299319727891,0.5748299319727891,0.5748299319727891,0.5748299319727891,0.5748299319727891,0.5748299319727891,0.5748299319727891,0.5748299319727891,0.5748299319727891,0.5748299319727891,0.5748299319727891,0.5748299319727891,0.5748299319727891,0.5748299319727891,0.5748299319727891,0.5748299319727891,0.5748299319727891,0.5748299319727891,0.5748299319727891,0.5748299319727891,0.5748299319727891,0.5748299319727891,0.5748299319727891,0.5748299319727891,0.5748299319727891,0.5748299319727891,0.5748299319727891,0.5748299319727891,0.5748299319727891,0.5748299319727891,0.5748299319727891,0.5748299319727891,0.5748299319727891,0.5748299319727891,0.5748299319727891,0.5748299319727891,0.5748299319727891,0.5748299319727891,0.5748299319727891,0.5748299319727891,0.5748299319727891,0.5748299319727891,0.5748299319727891,0.5748299319727891,0.5748299319727891,0.5748299319727891,0.5748299319727891,0.5748299319727891,0.5748299319727891,0.5748299319727891,0.5748299319727891,0.5748299319727891,0.5748299319727891,0.5748299319727891,0.5748299319727891,0.5748299319727891,0.5748299319727891,0.5748299319727891,0.5748299319727891,0.5748299319727891,0.5748299319727891,0.5748299319727891,0.5748299319727891,0.5748299319727891,0.5748299319727891,0.5748299319727891,0.5748299319727891,0.5748299319727891,0.5748299319727891,0.5748299319727891,0.5748299319727891,0.5748299319727891,0.5748299319727891,0.5748299319727891,0.5748299319727891,0.5748299319727891,0.5748299319727891,0.5748299319727891,0.5748299319727891,0.5748299319727891,0.5748299319727891,0.5748299319727891,0.5748299319727891,0.5748299319727891,0.5748299319727891,0.5748299319727891,0.5748299319727891,0.5748299319727891,0.5748299319727891,0.5748299319727891,0.5748299319727891,0.5748299319727891,0.5748299319727891,0.5748299319727891,0.5748299319727891,0.5748299319727891,0.5748299319727891,0.5748299319727891,0.5748299319727891,0.5748299319727891,0.5748299319727891,0.5748299319727891,0.5748299319727891,0.5748299319727891,0.5748299319727891,0.5748299319727891,0.5748299319727891,0.5748299319727891,0.5748299319727891,0.5748299319727891,0.5748299319727891,0.5748299319727891,0.5748299319727891,0.5748299319727891,0.5748299319727891,0.5748299319727891,0.5748299319727891,0.5748299319727891,0.5748299319727891,0.5748299319727891,0.5748299319727891,0.5748299319727891,0.5748299319727891,0.5748299319727891,0.5748299319727891,0.5748299319727891,0.5748299319727891,0.5748299319727891,0.5748299319727891,0.5748299319727891,0.5748299319727891,0.5748299319727891,0.5748299319727891,0.5748299319727891,0.5748299319727891,0.5748299319727891,0.5748299319727891,0.5748299319727891,0.5748299319727891,0.5748299319727891,0.5748299319727891,0.5748299319727891,0.5748299319727891,0.5748299319727891,0.5748299319727891,0.5748299319727891,0.5748299319727891,0.5748299319727891,0.5748299319727891,0.5748299319727891,0.5748299319727891,0.5748299319727891,0.5748299319727891,0.5748299319727891,0.5748299319727891,0.5748299319727891,0.5748299319727891,0.5748299319727891,0.5748299319727891,0.5748299319727891,0.5748299319727891,0.5748299319727891,0.5748299319727891,0.5748299319727891,0.5748299319727891,0.5748299319727891,0.5748299319727891,0.5748299319727891,0.5748299319727891,0.5748299319727891,0.5748299319727891,0.5748299319727891,0.5748299319727891,0.5748299319727891,0.5748299319727891,0.5816326530612245,0.5918367346938775,0.608843537414966,0.6224489795918368,0.6326530612244898,0.6394557823129252,0.6428571428571429,0.6462585034013606,0.6462585034013606,0.6462585034013606,0.6428571428571429,0.6394557823129252,0.6360544217687075,0.6326530612244898,0.6224489795918368,0.6156462585034014,0.6054421768707483,0.5952380952380952,0.5884353741496599,0.5850340136054422,0.5816326530612245,0.5816326530612245,0.5816326530612245,0.5816326530612245,0.5816326530612245,0.5816326530612245,0.5816326530612245,0.5816326530612245,0.5816326530612245,0.5816326530612245,0.5816326530612245,0.5816326530612245,0.5816326530612245,0.5816326530612245,0.5816326530612245,0.5816326530612245,0.5816326530612245,0.5816326530612245,0.5816326530612245,0.5816326530612245,0.5816326530612245,0.5816326530612245,0.5816326530612245,0.5816326530612245,0.5816326530612245,0.5816326530612245,0.5816326530612245,0.5816326530612245,0.5816326530612245,0.5816326530612245,0.5816326530612245,0.5816326530612245,0.5816326530612245,0.5816326530612245,0.5816326530612245,0.5816326530612245,0.5816326530612245,0.5816326530612245,0.5816326530612245,0.5816326530612245,0.5816326530612245,0.5816326530612245,0.5816326530612245,0.5816326530612245,0.5816326530612245,0.5816326530612245,0.5816326530612245,0.5816326530612245,0.5816326530612245,0.5816326530612245,0.5816326530612245,0.5816326530612245,0.5816326530612245,0.5816326530612245,0.5816326530612245,0.5816326530612245,0.5816326530612245,0.5816326530612245,0.5816326530612245,0.5816326530612245,0.5816326530612245,0.5816326530612245,0.5816326530612245,0.5816326530612245,0.5816326530612245,0.5816326530612245,0.5816326530612245,0.5816326530612245,0.5816326530612245,0.5816326530612245,0.5816326530612245,0.5816326530612245,0.5816326530612245,0.5816326530612245,0.5816326530612245,0.5816326530612245,0.5816326530612245,0.5816326530612245,0.5816326530612245,0.5816326530612245,0.5816326530612245,0.5816326530612245,0.5816326530612245,0.5816326530612245,0.5816326530612245,0.5816326530612245,0.5816326530612245,0.5816326530612245,0.5816326530612245,0.5816326530612245,0.5816326530612245,0.5816326530612245,0.5850340136054422,0.5952380952380952,0.608843537414966,0.6326530612244898,0.6564625850340136,0.673469387755102,0.6870748299319728,0.7006802721088435,0.7108843537414966,0.7210884353741497,0.7278911564625851,0.7346938775510204,0.7346938775510204,0.7380952380952381,0.7380952380952381,0.7380952380952381,0.7380952380952381,0.7380952380952381,0.7346938775510204,0.7346938775510204,0.7278911564625851,0.7278911564625851,0.7210884353741497,0.717687074829932,0.717687074829932,0.7142857142857143,0.7142857142857143,0.7142857142857143,0.7142857142857143,0.7142857142857143,0.7142857142857143,0.7142857142857143,0.7142857142857143,0.7142857142857143,0.7142857142857143,0.7142857142857143,0.7142857142857143,0.7142857142857143,0.7142857142857143,0.7142857142857143,0.7142857142857143,0.7142857142857143,0.7142857142857143,0.7142857142857143,0.7142857142857143,0.7142857142857143,0.7142857142857143,0.7142857142857143,0.7142857142857143,0.7142857142857143,0.7142857142857143,0.7142857142857143,0.7142857142857143,0.7142857142857143,0.7142857142857143,0.7142857142857143,0.7142857142857143,0.7142857142857143,0.7142857142857143,0.7142857142857143,0.7142857142857143,0.7142857142857143,0.7142857142857143,0.7142857142857143,0.7142857142857143,0.7142857142857143,0.7142857142857143,0.7142857142857143,0.7142857142857143,0.7142857142857143,0.7142857142857143,0.7142857142857143,0.7142857142857143,0.7142857142857143,0.7142857142857143,0.7142857142857143,0.7142857142857143,0.7142857142857143,0.7142857142857143,0.7142857142857143,0.717687074829932,0.7210884353741497,0.7244897959183674,0.7278911564625851,0.7346938775510204,0.7380952380952381,0.7482993197278912,0.7551020408163265,0.7551020408163265,0.7551020408163265,0.7551020408163265,0.7551020408163265,0.7551020408163265,0.7551020408163265,0.7551020408163265,0.7551020408163265,0.7551020408163265,0.7551020408163265,0.7551020408163265,0.7551020408163265,0.7551020408163265,0.7551020408163265,0.7551020408163265,0.7551020408163265,0.7551020408163265,0.7551020408163265,0.7551020408163265,0.7551020408163265,0.7551020408163265,0.7551020408163265,0.7551020408163265,0.7551020408163265,0.7551020408163265,0.7551020408163265,0.7551020408163265,0.7551020408163265,0.7551020408163265,0.7551020408163265,0.7551020408163265,0.7551020408163265,0.7551020408163265,0.7551020408163265,0.7551020408163265,0.7551020408163265,0.7551020408163265,0.7551020408163265,0.7551020408163265,0.7551020408163265,0.7551020408163265,0.7551020408163265,0.7551020408163265,0.7551020408163265,0.7551020408163265,0.7551020408163265,0.7551020408163265,0.7551020408163265,0.7551020408163265,0.7551020408163265,0.7551020408163265,0.7551020408163265,0.7551020408163265,0.7551020408163265,0.7551020408163265,0.7551020408163265,0.7551020408163265,0.7551020408163265,0.7551020408163265,0.7551020408163265,0.7551020408163265,0.7551020408163265,0.7551020408163265,0.7551020408163265,0.7551020408163265,0.7551020408163265,0.7551020408163265,0.7551020408163265,0.7551020408163265,0.7551020408163265,0.7551020408163265,0.7551020408163265,0.7551020408163265,0.7551020408163265,0.7551020408163265,0.7551020408163265,0.7551020408163265,0.7551020408163265,0.7551020408163265,0.7551020408163265,0.7551020408163265,0.7551020408163265,0.7551020408163265,0.7551020408163265,0.7551020408163265,0.7551020408163265,0.7551020408163265,0.7551020408163265,0.7551020408163265,0.7551020408163265,0.7551020408163265,0.7551020408163265,0.7551020408163265,0.7551020408163265,0.7551020408163265,0.7551020408163265,0.7551020408163265,0.7551020408163265,0.7551020408163265,0.7551020408163265,0.7551020408163265,0.7551020408163265,0.7551020408163265,0.7551020408163265,0.7551020408163265,0.7551020408163265,0.7551020408163265,0.7551020408163265,0.7551020408163265,0.7551020408163265,0.7551020408163265,0.7551020408163265,0.7551020408163265,0.7551020408163265,0.7551020408163265,0.7551020408163265,0.7551020408163265,0.7551020408163265,0.7551020408163265,0.7551020408163265,0.7551020408163265,0.7551020408163265,0.7551020408163265,0.7551020408163265,0.7551020408163265,0.7551020408163265,0.7551020408163265,0.7551020408163265,0.7551020408163265,0.7551020408163265,0.7551020408163265,0.7551020408163265,0.7551020408163265,0.7551020408163265,0.7551020408163265,0.7551020408163265,0.7551020408163265,0.7551020408163265,0.7551020408163265,0.7551020408163265,0.7551020408163265,0.7551020408163265,0.7551020408163265,0.7551020408163265,0.7551020408163265,0.7551020408163265,0.7551020408163265,0.7551020408163265,0.7551020408163265,0.7551020408163265,0.7551020408163265,0.7551020408163265,0.7551020408163265,0.7551020408163265,0.7551020408163265,0.7551020408163265,0.7551020408163265,0.7551020408163265,0.7551020408163265,0.7551020408163265,0.7551020408163265,0.7551020408163265,0.7551020408163265,0.7551020408163265,0.7551020408163265,0.7551020408163265,0.7551020408163265,0.7551020408163265,0.7551020408163265,0.7551020408163265,0.7551020408163265,0.7551020408163265,0.7551020408163265,0.7551020408163265,0.7551020408163265,0.7551020408163265,0.7551020408163265,0.7551020408163265,0.7551020408163265,0.7551020408163265,0.7551020408163265,0.7551020408163265,0.7551020408163265,0.7551020408163265,0.7551020408163265,0.7551020408163265,0.7551020408163265,0.7551020408163265,0.7551020408163265,0.7551020408163265,0.7551020408163265,0.7551020408163265,0.7551020408163265,0.7551020408163265,0.7551020408163265,0.7551020408163265,0.7551020408163265,0.7551020408163265,0.7551020408163265,0.7551020408163265,0.7551020408163265,0.7551020408163265,0.7551020408163265,0.7551020408163265,0.7551020408163265,0.7551020408163265,0.7551020408163265,0.7551020408163265,0.7551020408163265,0.7551020408163265,0.7551020408163265,0.7551020408163265,0.7551020408163265,0.7551020408163265,0.7551020408163265,0.7551020408163265,0.7551020408163265,0.7551020408163265,0.7551020408163265,0.7551020408163265,0.7551020408163265,0.7551020408163265,0.7551020408163265,0.7551020408163265,0.7551020408163265,0.7551020408163265,0.7551020408163265,0.7551020408163265,0.7551020408163265,0.7551020408163265,0.7551020408163265,0.7551020408163265,0.7551020408163265,0.7551020408163265,0.7551020408163265,0.7551020408163265,0.7551020408163265,0.7551020408163265,0.7551020408163265,0.7551020408163265,0.7551020408163265,0.7551020408163265,0.7551020408163265,0.7551020408163265,0.7551020408163265,0.7551020408163265,0.7551020408163265,0.7551020408163265,0.7551020408163265,0.7551020408163265,0.7551020408163265,0.7551020408163265,0.7551020408163265,0.7551020408163265,0.7551020408163265,0.7551020408163265,0.7551020408163265,0.7551020408163265,0.7551020408163265,0.7551020408163265,0.7551020408163265,0.7551020408163265,0.7551020408163265,0.7380952380952381,0.7006802721088435,0.6564625850340136,0.6054421768707483,0.5408163265306123,0.4557823129251701,0.41496598639455784,0.38095238095238093,0.35374149659863946,0.3401360544217687,0.336734693877551,0.3299319727891156,0.3299319727891156,0.3299319727891156,0.32653061224489793,0.32653061224489793,0.3197278911564626,0.30952380952380953,0.2857142857142857,0.2619047619047619,0.23809523809523808,0.21768707482993196,0.19727891156462585,0.1836734693877551,0.17346938775510204,0.16666666666666666,0.1598639455782313,0.1598639455782313,0.1598639455782313,0.1598639455782313,0.1598639455782313,0.1598639455782313,0.1598639455782313,0.1598639455782313,0.16326530612244897,0.16326530612244897,0.17006802721088435,0.17687074829931973,0.1870748299319728,0.19727891156462585,0.20408163265306123,0.2108843537414966,0.21768707482993196,0.22448979591836735,0.23129251700680273,0.23809523809523808,0.24489795918367346,0.25170068027210885,0.2585034013605442,0.2653061224489796,0.2687074829931973,0.272108843537415,0.272108843537415,0.2755102040816326,0.2755102040816326,0.2755102040816326,0.2755102040816326,0.2755102040816326,0.2755102040816326,0.2755102040816326,0.2755102040816326,0.2755102040816326,0.2755102040816326,0.2755102040816326,0.2755102040816326,0.2755102040816326,0.2755102040816326,0.2755102040816326,0.2755102040816326,0.2755102040816326,0.2755102040816326,0.2755102040816326,0.2755102040816326,0.2755102040816326,0.2755102040816326,0.2755102040816326,0.2755102040816326,0.2755102040816326,0.2755102040816326,0.2755102040816326,0.2755102040816326,0.2755102040816326,0.2755102040816326,0.2755102040816326,0.2755102040816326,0.2755102040816326,0.2755102040816326,0.2755102040816326,0.2755102040816326,0.2755102040816326,0.2755102040816326,0.2755102040816326,0.2755102040816326,0.2755102040816326,0.2755102040816326,0.2755102040816326,0.2755102040816326,0.2755102040816326,0.2687074829931973,0.25170068027210885,0.23129251700680273,0.19387755102040816,0.17006802721088435,0.14285714285714285,0.12585034013605442,0.11564625850340136,0.11224489795918367,0.11224489795918367,0.11224489795918367,0.11224489795918367,0.11224489795918367,0.11224489795918367,0.11224489795918367,0.11224489795918367,0.11224489795918367,0.11224489795918367,0.11224489795918367,0.11224489795918367,0.11224489795918367,0.11224489795918367,0.11224489795918367,0.11224489795918367,0.11224489795918367,0.11224489795918367,0.11224489795918367,0.11224489795918367,0.11224489795918367,0.11904761904761904,0.1292517006802721,0.14285714285714285,0.16666666666666666,0.1870748299319728,0.2108843537414966,0.22448979591836735,0.24489795918367346,0.25510204081632654,0.2687074829931973,0.2789115646258503,0.282312925170068,0.30612244897959184,0.3163265306122449,0.32653061224489793,0.3333333333333333,0.3401360544217687,0.35034013605442177,0.35714285714285715,0.36054421768707484,0.36394557823129253,0.36394557823129253,0.3673469387755102,0.3673469387755102,0.3673469387755102,0.3673469387755102,0.3673469387755102,0.3673469387755102,0.3707482993197279,0.3741496598639456,0.38095238095238093,0.3979591836734694,0.4217687074829932,0.4557823129251701,0.46938775510204084,0.5034013605442177,0.5204081632653061,0.5340136054421769,0.5340136054421769,0.5340136054421769,0.5340136054421769,0.5340136054421769,0.5340136054421769,0.5340136054421769,0.5340136054421769,0.5340136054421769,0.5340136054421769,0.5340136054421769,0.5340136054421769,0.5340136054421769,0.5340136054421769,0.5340136054421769,0.5340136054421769,0.5340136054421769,0.5340136054421769,0.5340136054421769,0.5340136054421769,0.5340136054421769,0.5340136054421769,0.5340136054421769,0.5340136054421769,0.5340136054421769,0.5306122448979592,0.4897959183673469,0.4489795918367347,0.3979591836734694,0.35374149659863946,0.3299319727891156,0.30612244897959184,0.2925170068027211,0.2789115646258503,0.272108843537415,0.2653061224489796,0.2585034013605442,0.25170068027210885,0.23469387755102042,0.21768707482993196,0.20408163265306123,0.1836734693877551,0.17006802721088435,0.15306122448979592,0.14285714285714285,0.1292517006802721,0.11904761904761904,0.11224489795918367,0.10884353741496598,0.1054421768707483,0.1054421768707483,0.1054421768707483,0.11904761904761904,0.14285714285714285,0.20068027210884354,0.272108843537415,0.36394557823129253,0.46598639455782315,0.5816326530612245,0.6836734693877551,0.7448979591836735,0.8299319727891157,0.8503401360544217,0.8741496598639455,0.8877551020408163,0.8979591836734694,0.9047619047619048,0.9115646258503401,0.9149659863945578,0.9217687074829932,0.9285714285714286,0.935374149659864,0.9421768707482994,0.9455782312925171,0.9489795918367347,0.9523809523809523,0.9523809523809523,0.9523809523809523,0.9523809523809523,0.95578231292517,0.95578231292517,0.95578231292517,0.95578231292517,0.95578231292517,0.95578231292517,0.95578231292517,0.95578231292517,0.95578231292517,0.95578231292517,0.95578231292517,0.95578231292517,0.95578231292517,0.95578231292517,0.95578231292517,0.95578231292517,0.95578231292517,0.95578231292517,0.95578231292517,0.95578231292517,0.95578231292517,0.95578231292517,0.95578231292517,0.9421768707482994,0.9013605442176871,0.8401360544217688,0.7959183673469388,0.6768707482993197,0.6122448979591837,0.564625850340136,0.5102040816326531,0.46598639455782315,0.4421768707482993,0.41836734693877553,0.4013605442176871,0.3877551020408163,0.37755102040816324,0.3707482993197279,0.36394557823129253,0.36054421768707484,0.36054421768707484,0.36054421768707484,0.36054421768707484,0.36054421768707484,0.37755102040816324,0.4217687074829932,0.4897959183673469,0.5714285714285714,0.6564625850340136,0.7108843537414966,0.7721088435374149,0.8163265306122449,0.8401360544217688,0.8605442176870748,0.8741496598639455,0.8843537414965986,0.8843537414965986,0.8877551020408163,0.8877551020408163,0.8877551020408163,0.8775510204081632,0.8571428571428571,0.8367346938775511,0.8231292517006803,0.8095238095238095,0.8061224489795918,0.8061224489795918,0.8061224489795918,0.8095238095238095,0.8163265306122449,0.8367346938775511,0.8537414965986394,0.8639455782312925,0.8741496598639455,0.8809523809523809,0.8843537414965986,0.891156462585034,0.8945578231292517,0.8979591836734694,0.9047619047619048,0.9081632653061225,0.9115646258503401,0.9183673469387755,0.9217687074829932,0.9217687074829932,0.9217687074829932,0.9183673469387755,0.9013605442176871,0.8843537414965986,0.8571428571428571,0.8401360544217688,0.8197278911564626,0.8027210884353742,0.7891156462585034,0.782312925170068,0.7789115646258503,0.7755102040816326,0.7755102040816326,0.7755102040816326,0.7721088435374149,0.7721088435374149,0.7653061224489796,0.7482993197278912,0.7210884353741497,0.6904761904761905,0.6360544217687075,0.5952380952380952,0.5238095238095238,0.47619047619047616,0.4217687074829932,0.3741496598639456,0.3163265306122449,0.2891156462585034,0.272108843537415,0.2585034013605442,0.24829931972789115,0.24149659863945577,0.23469387755102042,0.22789115646258504,0.22108843537414966,0.21428571428571427,0.20748299319727892,0.20068027210884354,0.19387755102040816,0.1870748299319728,0.1836734693877551,0.1836734693877551,0.1836734693877551,0.1836734693877551,0.1836734693877551,0.1836734693877551,0.1836734693877551,0.1836734693877551,0.1836734693877551,0.1836734693877551,0.1836734693877551,0.1836734693877551,0.1836734693877551,0.1836734693877551,0.1836734693877551,0.1836734693877551,0.1836734693877551,0.1836734693877551,0.19387755102040816,0.23469387755102042,0.2925170068027211,0.3707482993197279,0.45918367346938777,0.5510204081632653,0.6496598639455783,0.7482993197278912,0.8435374149659864,0.9013605442176871,0.935374149659864,1.0068027210884354,1.0170068027210883,1.0204081632653061,1.0204081632653061,1.0204081632653061,1.0204081632653061,1.0204081632653061,1.0204081632653061,1.0204081632653061,1.0204081632653061,1.0204081632653061,1.0204081632653061,1.0204081632653061,1.0204081632653061,1.0204081632653061,1.0204081632653061,1.0170068027210883,0.9931972789115646,0.9625850340136054,0.9319727891156463,0.9081632653061225,0.8877551020408163,0.8775510204081632,0.8673469387755102,0.8639455782312925,0.8639455782312925,0.8639455782312925,0.8639455782312925,0.8639455782312925,0.8639455782312925,0.8707482993197279,0.9013605442176871,0.935374149659864,0.9795918367346939,1.0170068027210883,1.0408163265306123,1.0612244897959184,1.0748299319727892,1.0850340136054422,1.08843537414966,1.08843537414966,1.0918367346938775,1.0918367346938775,1.0918367346938775,1.0918367346938775,1.0952380952380953,1.0952380952380953,1.0952380952380953,1.0952380952380953,1.0952380952380953,1.0952380952380953,1.098639455782313,1.098639455782313,1.098639455782313,1.098639455782313,1.098639455782313,1.098639455782313,1.098639455782313,1.098639455782313,1.098639455782313,1.098639455782313,1.098639455782313,1.098639455782313,1.098639455782313,1.098639455782313,1.098639455782313,1.098639455782313,1.098639455782313,1.098639455782313,1.098639455782313,1.098639455782313,1.098639455782313,1.098639455782313,1.098639455782313,1.098639455782313,1.098639455782313,1.098639455782313,1.098639455782313,1.098639455782313,1.098639455782313,1.098639455782313,1.098639455782313,1.098639455782313,1.098639455782313,1.098639455782313,1.098639455782313,1.098639455782313,1.098639455782313,1.098639455782313,1.098639455782313,1.098639455782313,1.098639455782313,1.098639455782313,1.098639455782313,1.098639455782313,1.098639455782313,1.098639455782313,1.098639455782313,1.098639455782313,1.098639455782313,1.098639455782313,1.098639455782313,1.098639455782313,1.098639455782313,1.098639455782313,1.098639455782313,1.098639455782313,1.098639455782313,1.098639455782313,1.098639455782313,1.098639455782313,1.098639455782313,1.098639455782313,1.098639455782313,1.0850340136054422,1.0578231292517006,0.9897959183673469,0.935374149659864,0.8741496598639455,0.8197278911564626,0.7891156462585034,0.7551020408163265,0.7346938775510204,0.7142857142857143,0.7142857142857143,0.7142857142857143,0.7142857142857143,0.7142857142857143,0.7142857142857143,0.7142857142857143,0.7142857142857143,0.7142857142857143,0.7142857142857143,0.7142857142857143,0.7142857142857143,0.7142857142857143,0.7142857142857143,0.7142857142857143,0.7142857142857143,0.7142857142857143,0.7142857142857143,0.7142857142857143,0.7142857142857143,0.7142857142857143,0.7142857142857143,0.7142857142857143,0.7142857142857143,0.7142857142857143,0.7142857142857143,0.7142857142857143,0.7142857142857143,0.7142857142857143,0.7142857142857143,0.7142857142857143,0.7142857142857143,0.7142857142857143,0.7142857142857143,0.7142857142857143,0.7142857142857143,0.7142857142857143,0.7142857142857143,0.7142857142857143,0.7142857142857143,0.7142857142857143,0.7142857142857143,0.7142857142857143,0.7142857142857143,0.7142857142857143,0.7142857142857143,0.7142857142857143,0.7142857142857143,0.7142857142857143,0.7142857142857143,0.7142857142857143,0.7142857142857143,0.7142857142857143,0.7142857142857143,0.7142857142857143,0.7142857142857143,0.7142857142857143],"y":[-3.6507936507936507,-3.6507936507936507,-3.6507936507936507,-3.6507936507936507,-3.6507936507936507,-3.6507936507936507,-3.6507936507936507,-3.6507936507936507,-3.6507936507936507,-3.6507936507936507,-3.6507936507936507,-3.6507936507936507,-3.6507936507936507,-3.6507936507936507,-3.6507936507936507,-3.6507936507936507,-3.6507936507936507,-3.6507936507936507,-3.6507936507936507,-3.6507936507936507,-3.6507936507936507,-3.6507936507936507,-3.6507936507936507,-3.6507936507936507,-3.6507936507936507,-3.6507936507936507,-3.6507936507936507,-3.6507936507936507,-3.6507936507936507,-3.6507936507936507,-3.6507936507936507,-3.6507936507936507,-3.6507936507936507,-3.6507936507936507,-3.6507936507936507,-3.6507936507936507,-3.6507936507936507,-3.6507936507936507,-3.6507936507936507,-3.6507936507936507,-3.6507936507936507,-3.6507936507936507,-3.6507936507936507,-3.6507936507936507,-3.6507936507936507,-3.6507936507936507,-3.6507936507936507,-3.6507936507936507,-3.6507936507936507,-3.6507936507936507,-3.6507936507936507,-3.6507936507936507,-3.6507936507936507,-3.6507936507936507,-3.6507936507936507,-3.6507936507936507,-3.6507936507936507,-3.6507936507936507,-3.6507936507936507,-3.6507936507936507,-3.6507936507936507,-3.6507936507936507,-3.6507936507936507,-3.6507936507936507,-3.6507936507936507,-3.6507936507936507,-3.6507936507936507,-3.6507936507936507,-3.6507936507936507,-3.6507936507936507,-3.6507936507936507,-3.6507936507936507,-3.6507936507936507,-3.6507936507936507,-3.6507936507936507,-3.6507936507936507,-3.6507936507936507,-3.6507936507936507,-3.6507936507936507,-3.6507936507936507,-3.6507936507936507,-3.6507936507936507,-3.6507936507936507,-3.6507936507936507,-3.6507936507936507,-3.6507936507936507,-3.6507936507936507,-3.6507936507936507,-3.6507936507936507,-3.6507936507936507,-3.6507936507936507,-3.6507936507936507,-3.6507936507936507,-3.6507936507936507,-3.6507936507936507,-3.6507936507936507,-3.6507936507936507,-3.6507936507936507,-3.6507936507936507,-3.6507936507936507,-3.6507936507936507,-3.6507936507936507,-3.6507936507936507,-3.6507936507936507,-3.6507936507936507,-3.6507936507936507,-3.6507936507936507,-3.6507936507936507,-3.6507936507936507,-3.6507936507936507,-3.6507936507936507,-3.6507936507936507,-3.6507936507936507,-3.6507936507936507,-3.6507936507936507,-3.6507936507936507,-3.6507936507936507,-3.6507936507936507,-3.6507936507936507,-3.6507936507936507,-3.6507936507936507,-3.6507936507936507,-3.6507936507936507,-3.6507936507936507,-3.6507936507936507,-3.6507936507936507,-3.6507936507936507,-3.6507936507936507,-3.6507936507936507,-3.6507936507936507,-3.6507936507936507,-3.6507936507936507,-3.6507936507936507,-3.6507936507936507,-3.6507936507936507,-3.6507936507936507,-3.6507936507936507,-3.6507936507936507,-3.6507936507936507,-3.6507936507936507,-3.6507936507936507,-3.6507936507936507,-3.6507936507936507,-3.6507936507936507,-3.6507936507936507,-3.6507936507936507,-3.6507936507936507,-3.6507936507936507,-3.6507936507936507,-3.6507936507936507,-3.6507936507936507,-3.6507936507936507,-3.6507936507936507,-3.6507936507936507,-3.6507936507936507,-3.6507936507936507,-3.6507936507936507,-3.6507936507936507,-3.6507936507936507,-3.6507936507936507,-3.6507936507936507,-3.6507936507936507,-3.6507936507936507,-3.6507936507936507,-3.6507936507936507,-3.6507936507936507,-3.6507936507936507,-3.6507936507936507,-3.6507936507936507,-3.6507936507936507,-3.6507936507936507,-3.6507936507936507,-3.6507936507936507,-3.6507936507936507,-3.6507936507936507,-3.6507936507936507,-3.6507936507936507,-3.6507936507936507,-3.6507936507936507,-3.6507936507936507,-3.6507936507936507,-3.6507936507936507,-3.6507936507936507,-3.6507936507936507,-3.6507936507936507,-3.6507936507936507,-3.6507936507936507,-3.6507936507936507,-3.6507936507936507,-3.6507936507936507,-3.6507936507936507,-3.6507936507936507,-3.6507936507936507,-3.6507936507936507,-3.6507936507936507,-3.6507936507936507,-3.6507936507936507,-3.6507936507936507,-3.6507936507936507,-3.6507936507936507,-3.6507936507936507,-3.6507936507936507,-3.6507936507936507,-3.6507936507936507,-3.6507936507936507,-3.6507936507936507,-3.6507936507936507,-3.6507936507936507,-3.6507936507936507,-3.6507936507936507,-3.6507936507936507,-3.6507936507936507,-3.6507936507936507,-3.6507936507936507,-3.6507936507936507,-3.6507936507936507,-3.6507936507936507,-3.6507936507936507,-3.6507936507936507,-3.6507936507936507,-3.6507936507936507,-3.6507936507936507,-3.6507936507936507,-3.6507936507936507,-3.6507936507936507,-3.6507936507936507,-3.6507936507936507,-3.6507936507936507,-3.6507936507936507,-3.6507936507936507,-3.6507936507936507,-3.6507936507936507,-3.6507936507936507,-3.6507936507936507,-3.6507936507936507,-3.6507936507936507,-3.6507936507936507,-3.6507936507936507,-3.6507936507936507,-3.6507936507936507,-3.6507936507936507,-3.6507936507936507,-3.6507936507936507,-3.6507936507936507,-3.6507936507936507,-3.6507936507936507,-3.6507936507936507,-3.6507936507936507,-3.6507936507936507,-3.6507936507936507,-3.6507936507936507,-3.6507936507936507,-3.6507936507936507,-3.6507936507936507,-3.6507936507936507,-3.6507936507936507,-3.6507936507936507,-3.6507936507936507,-3.6507936507936507,-3.6507936507936507,-3.6507936507936507,-3.6507936507936507,-3.6507936507936507,-3.6507936507936507,-3.6507936507936507,-3.6507936507936507,-3.6507936507936507,-3.6507936507936507,-3.6507936507936507,-3.6507936507936507,-3.6507936507936507,-3.6507936507936507,-3.6507936507936507,-3.6507936507936507,-3.6507936507936507,-3.6507936507936507,-3.6507936507936507,-3.6507936507936507,-3.6507936507936507,-3.6507936507936507,-3.6507936507936507,-3.6507936507936507,-3.6507936507936507,-3.6507936507936507,-3.6507936507936507,-3.6507936507936507,-3.6507936507936507,-3.6507936507936507,-3.6507936507936507,-3.6507936507936507,-3.6507936507936507,-3.6507936507936507,-3.6507936507936507,-3.6507936507936507,-3.6507936507936507,-3.6507936507936507,-3.6507936507936507,-3.6507936507936507,-3.6507936507936507,-3.6507936507936507,-3.6507936507936507,-3.6507936507936507,-3.6507936507936507,-3.6507936507936507,-3.6507936507936507,-3.6507936507936507,-3.6507936507936507,-3.6507936507936507,-3.6507936507936507,-3.6507936507936507,-3.6507936507936507,-3.6507936507936507,-3.6507936507936507,-3.6507936507936507,-3.6507936507936507,-3.6507936507936507,-3.6507936507936507,-3.6507936507936507,-3.6507936507936507,-3.6507936507936507,-3.6507936507936507,-3.6507936507936507,-3.6507936507936507,-3.6507936507936507,-3.6507936507936507,-3.6507936507936507,-3.6507936507936507,-3.6507936507936507,-3.6507936507936507,-3.6507936507936507,-3.6507936507936507,-3.6507936507936507,-3.6507936507936507,-3.6507936507936507,-3.6507936507936507,-3.6507936507936507,-3.6507936507936507,-3.6507936507936507,-3.6507936507936507,-3.6507936507936507,-3.6507936507936507,-3.6507936507936507,-3.6507936507936507,-3.6507936507936507,-3.6507936507936507,-3.6507936507936507,-3.6507936507936507,-3.6507936507936507,-3.6507936507936507,-3.6507936507936507,-3.6507936507936507,-3.6507936507936507,-3.6507936507936507,-3.6507936507936507,-3.6507936507936507,-3.6507936507936507,-3.6507936507936507,-3.6507936507936507,-3.6507936507936507,-3.6507936507936507,-3.6507936507936507,-3.6507936507936507,-3.6507936507936507,-3.6507936507936507,-3.6507936507936507,-3.6507936507936507,-3.6507936507936507,-3.6507936507936507,-3.6507936507936507,-3.6507936507936507,-3.6507936507936507,-3.6507936507936507,-3.6507936507936507,-3.6507936507936507,-3.6507936507936507,-3.6507936507936507,-3.6507936507936507,-3.6507936507936507,-3.6507936507936507,-3.6507936507936507,-3.6507936507936507,0.6206349206349208,0.3253968253968256,0.16349206349206366,-0.15079365079365062,-0.6174603174603173,-0.7888888888888888,-0.8079365079365077,-0.7507936507936506,-0.5888888888888887,-0.40793650793650776,-0.28412698412698395,-0.1412698412698411,-0.1412698412698411,-0.1412698412698411,-0.1412698412698411,-0.1412698412698411,-0.1412698412698411,-0.1412698412698411,-0.1412698412698411,-0.1412698412698411,-0.1412698412698411,-0.12222222222222204,-0.09365079365079347,-0.026984126984126805,0.049206349206349385,0.15396825396825414,0.18253968253968272,0.22063492063492082,0.23015873015873034,0.23015873015873034,0.23015873015873034,0.23015873015873034,0.23015873015873034,0.23015873015873034,0.23015873015873034,0.23015873015873034,0.23015873015873034,0.23015873015873034,0.23015873015873034,0.2682539682539684,0.3444444444444446,0.3920634920634922,0.496825396825397,0.5444444444444446,0.5730158730158732,0.5920634920634923,0.5920634920634923,0.6015873015873018,0.6015873015873018,0.6111111111111113,0.6206349206349208,0.6587301587301589,0.7349206349206351,0.8111111111111113,0.9063492063492066,0.9444444444444446,0.9634920634920636,0.9730158730158732,0.9730158730158732,0.9825396825396827,0.9825396825396827,0.9825396825396827,0.9825396825396827,0.9825396825396827,0.9825396825396827,0.9825396825396827,0.9825396825396827,0.9825396825396827,0.9825396825396827,0.9825396825396827,0.9825396825396827,0.9825396825396827,0.9825396825396827,0.9825396825396827,0.9825396825396827,0.9825396825396827,0.9825396825396827,0.9825396825396827,0.9825396825396827,0.9825396825396827,0.9825396825396827,0.9825396825396827,0.9825396825396827,0.9825396825396827,0.9825396825396827,0.9825396825396827,0.9825396825396827,0.9825396825396827,0.9825396825396827,0.9825396825396827,0.9825396825396827,0.9825396825396827,0.9825396825396827,0.9825396825396827,0.9825396825396827,0.9825396825396827,0.9825396825396827,0.9825396825396827,0.9825396825396827,0.9825396825396827,0.9825396825396827,0.9825396825396827,0.9825396825396827,0.9825396825396827,0.9825396825396827,0.9825396825396827,0.9825396825396827,0.9825396825396827,0.9825396825396827,0.9825396825396827,0.9825396825396827,0.9825396825396827,0.9825396825396827,0.9825396825396827,0.9825396825396827,0.9825396825396827,0.9825396825396827,0.9825396825396827,0.9825396825396827,0.9825396825396827,0.9825396825396827,0.9825396825396827,0.9825396825396827,0.9825396825396827,0.9825396825396827,0.9825396825396827,0.9825396825396827,0.9825396825396827,0.9825396825396827,0.9825396825396827,0.9825396825396827,0.9825396825396827,0.9825396825396827,0.9825396825396827,0.9825396825396827,0.9825396825396827,0.9825396825396827,0.9825396825396827,0.9825396825396827,0.9825396825396827,0.9825396825396827,0.9825396825396827,0.9825396825396827,0.9825396825396827,0.9825396825396827,0.9825396825396827,0.9825396825396827,0.9825396825396827,0.9825396825396827,0.9825396825396827,0.9825396825396827,0.9158730158730161,0.4682539682539684,0.05873015873015891,-0.48412698412698396,-0.6174603174603173,-0.6650793650793649,-0.6841269841269839,-0.6841269841269839,-0.6841269841269839,-0.6650793650793649,-0.6460317460317458,-0.5793650793650792,-0.4650793650793649,-0.3793650793650792,-0.303174603174603,-0.24603174603174585,-0.18888888888888872,-0.13174603174603156,-0.09365079365079347,-0.0650793650793649,-0.046031746031745854,-0.03650793650793633,-0.03650793650793633,-0.026984126984126805,-0.026984126984126805,-0.026984126984126805,-0.026984126984126805,-0.026984126984126805,-0.026984126984126805,-0.026984126984126805,-0.026984126984126805,-0.026984126984126805,-0.026984126984126805,-0.026984126984126805,-0.026984126984126805,-0.026984126984126805,-0.026984126984126805,-0.026984126984126805,-0.026984126984126805,-0.026984126984126805,-0.026984126984126805,-0.026984126984126805,-0.026984126984126805,-0.026984126984126805,-0.026984126984126805,-0.026984126984126805,-0.026984126984126805,-0.026984126984126805,-0.026984126984126805,-0.026984126984126805,-0.026984126984126805,-0.026984126984126805,-0.026984126984126805,-0.026984126984126805,-0.026984126984126805,-0.026984126984126805,-0.026984126984126805,-0.026984126984126805,-0.026984126984126805,-0.026984126984126805,-0.026984126984126805,-0.026984126984126805,-0.026984126984126805,-0.026984126984126805,-0.026984126984126805,-0.026984126984126805,-0.026984126984126805,-0.026984126984126805,-0.026984126984126805,-0.026984126984126805,-0.026984126984126805,-0.026984126984126805,-0.026984126984126805,-0.026984126984126805,-0.026984126984126805,-0.026984126984126805,-0.026984126984126805,-0.026984126984126805,-0.026984126984126805,-0.026984126984126805,-0.026984126984126805,-0.026984126984126805,-0.026984126984126805,-0.026984126984126805,-0.026984126984126805,-0.026984126984126805,-0.026984126984126805,-0.026984126984126805,-0.026984126984126805,-0.026984126984126805,-0.026984126984126805,-0.026984126984126805,-0.026984126984126805,-0.026984126984126805,-0.026984126984126805,-0.026984126984126805,-0.026984126984126805,-0.026984126984126805,-0.026984126984126805,-0.026984126984126805,-0.026984126984126805,-0.026984126984126805,-0.026984126984126805,-0.026984126984126805,-0.026984126984126805,-0.026984126984126805,-0.026984126984126805,-0.026984126984126805,-0.026984126984126805,-0.026984126984126805,-0.026984126984126805,-0.026984126984126805,-0.026984126984126805,-0.026984126984126805,-0.026984126984126805,-0.026984126984126805,-0.026984126984126805,-0.026984126984126805,-0.026984126984126805,-0.026984126984126805,-0.026984126984126805,-0.026984126984126805,-0.026984126984126805,-0.026984126984126805,-0.026984126984126805,-0.026984126984126805,-0.026984126984126805,-0.026984126984126805,-0.026984126984126805,-0.026984126984126805,-0.026984126984126805,-0.026984126984126805,-0.026984126984126805,-0.026984126984126805,-0.026984126984126805,-0.026984126984126805,-0.026984126984126805,-0.026984126984126805,-0.026984126984126805,-0.026984126984126805,-0.026984126984126805,-0.026984126984126805,-0.026984126984126805,-0.026984126984126805,-0.026984126984126805,-0.026984126984126805,-0.026984126984126805,-0.026984126984126805,-0.026984126984126805,-0.026984126984126805,-0.026984126984126805,-0.026984126984126805,-0.026984126984126805,-0.026984126984126805,-0.026984126984126805,-0.026984126984126805,-0.026984126984126805,-0.026984126984126805,-0.026984126984126805,-0.026984126984126805,-0.026984126984126805,-0.026984126984126805,-0.026984126984126805,-0.026984126984126805,-0.026984126984126805,-0.026984126984126805,-0.026984126984126805,-0.026984126984126805,-0.026984126984126805,-0.026984126984126805,-0.026984126984126805,-0.026984126984126805,-0.01746031746031728,0.011111111111111292,0.08730158730158748,0.23968253968253986,0.3253968253968256,0.3730158730158732,0.3920634920634922,0.3920634920634922,0.3920634920634922,0.3920634920634922,0.3920634920634922,0.3730158730158732,0.3634920634920637,0.3444444444444446,0.315873015873016,0.2682539682539684,0.23968253968253986,0.2111111111111113,0.19206349206349224,0.18253968253968272,0.1730158730158732,0.16349206349206366,0.15396825396825414,0.14444444444444463,0.1253968253968256,0.10634920634920653,0.08730158730158748,0.07777777777777796,0.07777777777777796,0.07777777777777796,0.06825396825396843,0.06825396825396843,0.05873015873015891,0.05873015873015891,0.05873015873015891,0.049206349206349385,0.049206349206349385,0.049206349206349385,0.049206349206349385,0.049206349206349385,0.049206349206349385,0.049206349206349385,0.049206349206349385,0.049206349206349385,0.049206349206349385,0.049206349206349385,0.049206349206349385,0.049206349206349385,0.049206349206349385,0.049206349206349385,0.049206349206349385,0.049206349206349385,0.049206349206349385,0.049206349206349385,0.049206349206349385,0.049206349206349385,0.049206349206349385,0.049206349206349385,0.049206349206349385,0.049206349206349385,0.049206349206349385,0.049206349206349385,0.049206349206349385,0.049206349206349385,0.049206349206349385,0.049206349206349385,0.049206349206349385,0.049206349206349385,0.049206349206349385,0.049206349206349385,0.049206349206349385,0.049206349206349385,0.049206349206349385,0.049206349206349385,0.049206349206349385,0.049206349206349385,0.049206349206349385,0.049206349206349385,0.049206349206349385,0.049206349206349385,0.049206349206349385,0.049206349206349385,0.049206349206349385,0.049206349206349385,0.049206349206349385,0.049206349206349385,0.049206349206349385,0.049206349206349385,0.049206349206349385,0.049206349206349385,0.049206349206349385,0.049206349206349385,0.049206349206349385,0.049206349206349385,0.049206349206349385,0.049206349206349385,0.049206349206349385,0.049206349206349385,0.049206349206349385,0.049206349206349385,0.049206349206349385,0.049206349206349385,0.049206349206349385,0.049206349206349385,0.049206349206349385,0.049206349206349385,0.049206349206349385,0.049206349206349385,0.049206349206349385,0.049206349206349385,0.049206349206349385,0.049206349206349385,0.049206349206349385,0.049206349206349385,0.049206349206349385,0.049206349206349385,0.049206349206349385,0.049206349206349385,0.049206349206349385,0.049206349206349385,0.049206349206349385,0.049206349206349385,0.049206349206349385,0.049206349206349385,0.049206349206349385,0.049206349206349385,0.049206349206349385,0.049206349206349385,0.049206349206349385,0.049206349206349385,0.049206349206349385,0.049206349206349385,0.049206349206349385,0.049206349206349385,0.049206349206349385,0.049206349206349385,0.049206349206349385,0.049206349206349385,0.049206349206349385,0.049206349206349385,0.049206349206349385,0.049206349206349385,0.049206349206349385,0.049206349206349385,0.049206349206349385,0.049206349206349385,0.049206349206349385,0.049206349206349385,0.049206349206349385,0.049206349206349385,0.049206349206349385,0.049206349206349385,0.049206349206349385,0.049206349206349385,0.049206349206349385,0.049206349206349385,0.049206349206349385,0.049206349206349385,0.049206349206349385,0.049206349206349385,0.049206349206349385,0.049206349206349385,0.049206349206349385,0.049206349206349385,0.049206349206349385,0.049206349206349385,0.049206349206349385,0.049206349206349385,0.049206349206349385,0.049206349206349385,0.049206349206349385,0.049206349206349385,0.049206349206349385,0.049206349206349385,0.049206349206349385,0.049206349206349385,0.049206349206349385,0.05873015873015891,0.08730158730158748,0.1253968253968256,0.15396825396825414,0.1730158730158732,0.19206349206349224,0.20158730158730176,0.2111111111111113,0.22063492063492082,0.23015873015873034,0.24920634920634938,0.2587301587301589,0.27777777777777796,0.27777777777777796,0.2873015873015875,0.296825396825397,0.296825396825397,0.296825396825397,0.30634920634920654,0.30634920634920654,0.30634920634920654,0.30634920634920654,0.30634920634920654,0.30634920634920654,0.30634920634920654,0.30634920634920654,0.30634920634920654,0.30634920634920654,0.315873015873016,0.3253968253968256,0.3349206349206351,0.3444444444444446,0.3730158730158732,0.3920634920634922,0.4206349206349208,0.4492063492063494,0.496825396825397,0.5253968253968255,0.5539682539682541,0.5730158730158732,0.5730158730158732,0.5730158730158732,0.5730158730158732,0.5730158730158732,0.5730158730158732,0.5730158730158732,0.5730158730158732,0.5730158730158732,0.5730158730158732,0.5730158730158732,0.5730158730158732,0.5730158730158732,0.5730158730158732,0.5730158730158732,0.5730158730158732,0.5730158730158732,0.5730158730158732,0.5730158730158732,0.5730158730158732,0.5730158730158732,0.5730158730158732,0.5730158730158732,0.5730158730158732,0.5730158730158732,0.5730158730158732,0.5730158730158732,0.5730158730158732,0.5730158730158732,0.5730158730158732,0.5730158730158732,0.5730158730158732,0.5730158730158732,0.5730158730158732,0.5730158730158732,0.5730158730158732,0.5730158730158732,0.5730158730158732,0.5730158730158732,0.5730158730158732,0.5730158730158732,0.5730158730158732,0.5730158730158732,0.5730158730158732,0.5730158730158732,0.5730158730158732,0.5634920634920637,0.5634920634920637,0.5539682539682541,0.5539682539682541,0.5444444444444446,0.5444444444444446,0.5444444444444446,0.5444444444444446,0.5349206349206351,0.5349206349206351,0.5349206349206351,0.5349206349206351,0.5349206349206351,0.5253968253968255,0.5253968253968255,0.5253968253968255,0.5253968253968255,0.5253968253968255,0.5253968253968255,0.5253968253968255,0.5253968253968255,0.5253968253968255,0.5253968253968255,0.5253968253968255,0.5253968253968255,0.5253968253968255,0.5253968253968255,0.5253968253968255,0.5253968253968255,0.5253968253968255,0.5253968253968255,0.5253968253968255,0.5253968253968255,0.5253968253968255,0.5253968253968255,0.5253968253968255,0.5253968253968255,0.5253968253968255,0.5253968253968255,0.5253968253968255,0.5253968253968255,0.5253968253968255,0.5253968253968255,0.5253968253968255,0.5253968253968255,0.5253968253968255,0.5253968253968255,0.5253968253968255,0.5253968253968255,0.5253968253968255,0.5253968253968255,0.5253968253968255,0.5253968253968255,0.5253968253968255,0.5253968253968255,0.5253968253968255,0.5253968253968255,0.5253968253968255,0.5253968253968255,0.5253968253968255,0.5253968253968255,0.5253968253968255,0.5253968253968255,0.5253968253968255,0.5253968253968255,0.5253968253968255,0.5253968253968255,0.5253968253968255,0.5253968253968255,0.5253968253968255,0.5349206349206351,0.6015873015873018,0.6777777777777779,0.7730158730158732,0.8682539682539684,0.9730158730158732,1.0206349206349208,1.0206349206349208,1.0206349206349208,1.0206349206349208,1.0206349206349208,1.0206349206349208,1.0206349206349208,1.0206349206349208,1.0206349206349208,1.0206349206349208,1.0206349206349208,1.0206349206349208,1.0206349206349208,1.0206349206349208,1.0206349206349208,1.0206349206349208,1.0206349206349208,1.0206349206349208,1.0206349206349208,1.0206349206349208,1.0206349206349208,1.0206349206349208,1.0206349206349208,1.0206349206349208,1.0206349206349208,1.0206349206349208,1.0206349206349208,1.0206349206349208,1.0206349206349208,1.0206349206349208,1.0206349206349208,1.0206349206349208,1.0206349206349208,1.0206349206349208,1.0206349206349208,1.0206349206349208,1.0206349206349208,1.0206349206349208,1.0206349206349208,1.0206349206349208,1.0206349206349208,1.0206349206349208,1.0206349206349208,1.0206349206349208,1.0206349206349208,1.0206349206349208,1.0206349206349208,1.0206349206349208,1.0206349206349208,1.0206349206349208,1.0206349206349208,1.0206349206349208,1.0206349206349208,1.0206349206349208,1.0206349206349208,1.0206349206349208,1.0206349206349208,1.0206349206349208,1.0206349206349208,1.0206349206349208,1.0206349206349208,1.0206349206349208,1.0206349206349208,1.0206349206349208,1.0206349206349208,1.0206349206349208,1.0206349206349208,1.0206349206349208,1.0206349206349208,1.0206349206349208,1.0206349206349208,1.0206349206349208,1.0206349206349208,1.0206349206349208,1.0206349206349208,1.0206349206349208,1.0206349206349208,1.0206349206349208,1.0206349206349208,1.0206349206349208,1.0206349206349208,1.0206349206349208,1.0206349206349208,1.0206349206349208,1.0206349206349208,1.0206349206349208,1.0206349206349208,1.0206349206349208,1.0206349206349208,1.0206349206349208,1.0206349206349208,1.0206349206349208,1.0206349206349208,1.0206349206349208,1.0206349206349208,1.0206349206349208,1.0206349206349208,1.0206349206349208,1.0206349206349208,1.0206349206349208,1.0206349206349208,1.0206349206349208,1.0206349206349208,1.0206349206349208,1.0206349206349208,1.0206349206349208,1.0206349206349208,1.0206349206349208,1.0206349206349208,1.0206349206349208,1.0206349206349208,1.0206349206349208,1.0206349206349208,1.0206349206349208,1.0206349206349208,1.0206349206349208,1.0206349206349208,1.0206349206349208,1.0206349206349208,1.0206349206349208,1.0206349206349208,1.0206349206349208,1.0206349206349208,1.0206349206349208,1.0206349206349208,1.0206349206349208,1.0206349206349208,1.0206349206349208,1.0206349206349208,1.0206349206349208,1.0206349206349208,1.0206349206349208,1.0206349206349208,1.0206349206349208,1.0206349206349208,1.0206349206349208,1.0206349206349208,1.0206349206349208,1.0206349206349208,1.0206349206349208,1.0206349206349208,1.0206349206349208,1.0206349206349208,1.0206349206349208,1.0206349206349208,1.0206349206349208,1.0206349206349208,1.0206349206349208,1.0206349206349208,1.0206349206349208,1.0206349206349208,1.0206349206349208,1.0206349206349208,1.0206349206349208,1.0206349206349208,1.0206349206349208,1.0206349206349208,1.0206349206349208,1.0206349206349208,1.0206349206349208,1.0206349206349208,1.0206349206349208,1.0206349206349208,1.0206349206349208,1.0206349206349208,1.0206349206349208,1.0206349206349208,1.0206349206349208,1.0206349206349208,1.0206349206349208,1.0206349206349208,1.0206349206349208,1.0206349206349208,1.0206349206349208,1.0206349206349208,1.0206349206349208,1.0206349206349208,1.0206349206349208,1.0206349206349208,1.0206349206349208,1.0206349206349208,1.0206349206349208,1.0206349206349208,1.0206349206349208,1.0206349206349208,1.0206349206349208,1.0206349206349208,1.0206349206349208,1.0206349206349208,1.0206349206349208,1.0206349206349208,1.0206349206349208,1.0206349206349208,1.0206349206349208,1.0206349206349208,1.0206349206349208,1.0206349206349208,1.0206349206349208,1.0206349206349208,1.0206349206349208,1.0206349206349208,1.0206349206349208,1.0206349206349208,1.0206349206349208,1.0206349206349208,1.0206349206349208,1.0206349206349208,1.0206349206349208,1.0206349206349208,1.0206349206349208,1.0206349206349208,1.0206349206349208,1.0206349206349208,1.0206349206349208,1.0206349206349208,1.0206349206349208,1.0206349206349208,1.0206349206349208,1.0206349206349208,1.0206349206349208,1.0206349206349208,1.0206349206349208,1.0206349206349208,1.0206349206349208,1.0206349206349208,1.0206349206349208,1.0206349206349208,1.0206349206349208,1.0206349206349208,1.0206349206349208,1.0206349206349208,1.0206349206349208,1.0206349206349208,1.0206349206349208,1.0206349206349208,1.0206349206349208,1.0206349206349208,1.0206349206349208,1.0206349206349208,1.0206349206349208,1.0206349206349208,1.0206349206349208,1.0206349206349208,1.0206349206349208,1.0206349206349208,1.0206349206349208,1.0206349206349208,1.0206349206349208,1.0206349206349208,1.0206349206349208,1.0206349206349208,1.0206349206349208,1.0206349206349208,1.0206349206349208,1.0206349206349208,1.0206349206349208,1.0206349206349208,1.0206349206349208,1.0206349206349208,1.0206349206349208,1.0206349206349208,1.0206349206349208,1.0206349206349208,1.0206349206349208,1.0206349206349208,1.0206349206349208,1.0206349206349208,1.020