[{"success":true,"trial_type":"fullscreen","trial_index":0,"time_elapsed":3305,"internal_node_id":"0.0-0.0","protocol_sum":"","subject_identifier":320,"subject_sum":[165,18,219,39,65,205,32,105,62,75,22,241,152,145,231,43,159,241,44,234,215,39,97,252,94,146,210,170,243,71,64,193],"subject_pair":160,"STUDY_ID":"66a0b3911f23dfc7665bb169","PROLIFIC_PID":"6682c4fcefd32e38eb8197b2","SESSION_ID":"66a1455a22da0ce26d93260a","practice_instructions":1,"leaderboard_instructions":0,"bonus":1,"reveal_word":false,"self_rating":"1","confidence":"100"},{"view_history":"[{\"page_index\":0,\"viewing_time\":10095.300000011921}]","rt":10095.60000000894,"trial_type":"instructions","trial_index":1,"time_elapsed":13402,"internal_node_id":"0.0-1.0","protocol_sum":"","subject_identifier":320,"subject_sum":[165,18,219,39,65,205,32,105,62,75,22,241,152,145,231,43,159,241,44,234,215,39,97,252,94,146,210,170,243,71,64,193],"subject_pair":160,"STUDY_ID":"66a0b3911f23dfc7665bb169","PROLIFIC_PID":"6682c4fcefd32e38eb8197b2","SESSION_ID":"66a1455a22da0ce26d93260a","practice_instructions":1,"leaderboard_instructions":0,"bonus":1,"reveal_word":false,"self_rating":"1","confidence":"100"},{"view_history":"[{\"page_index\":0,\"viewing_time\":29704.70000000298}]","rt":29705.09999999404,"trial_type":"instructions","trial_index":2,"time_elapsed":43107,"internal_node_id":"0.0-2.0-0.0","protocol_sum":"","subject_identifier":320,"subject_sum":[165,18,219,39,65,205,32,105,62,75,22,241,152,145,231,43,159,241,44,234,215,39,97,252,94,146,210,170,243,71,64,193],"subject_pair":160,"STUDY_ID":"66a0b3911f23dfc7665bb169","PROLIFIC_PID":"6682c4fcefd32e38eb8197b2","SESSION_ID":"66a1455a22da0ce26d93260a","practice_instructions":1,"leaderboard_instructions":0,"bonus":1,"reveal_word":false,"self_rating":"1","confidence":"100"},{"rt":9877.09999999404,"responses":"{\"Q0\":\"... reveal the word with as <b>few letter guesses</b> as possible\"}","question_order":"[0]","trial_type":"survey-multi-choice","trial_index":3,"time_elapsed":52985,"internal_node_id":"0.0-2.0-1.0","protocol_sum":"","subject_identifier":320,"subject_sum":[165,18,219,39,65,205,32,105,62,75,22,241,152,145,231,43,159,241,44,234,215,39,97,252,94,146,210,170,243,71,64,193],"subject_pair":160,"correct":true,"test_part":"multichoice_nonpretend","STUDY_ID":"66a0b3911f23dfc7665bb169","PROLIFIC_PID":"6682c4fcefd32e38eb8197b2","SESSION_ID":"66a1455a22da0ce26d93260a","practice_instructions":1,"leaderboard_instructions":0,"bonus":1,"reveal_word":false,"self_rating":"1","confidence":"100"},{"view_history":"[{\"page_index\":0,\"viewing_time\":1563.8999999910593}]","rt":1564.0999999940395,"trial_type":"instructions","trial_index":4,"time_elapsed":54550,"internal_node_id":"0.0-3.0","protocol_sum":"","subject_identifier":320,"subject_sum":[165,18,219,39,65,205,32,105,62,75,22,241,152,145,231,43,159,241,44,234,215,39,97,252,94,146,210,170,243,71,64,193],"subject_pair":160,"STUDY_ID":"66a0b3911f23dfc7665bb169","PROLIFIC_PID":"6682c4fcefd32e38eb8197b2","SESSION_ID":"66a1455a22da0ce26d93260a","practice_instructions":1,"leaderboard_instructions":0,"bonus":1,"reveal_word":false,"self_rating":"1","confidence":"100"},{"word":"ZEBRA","click_log":{"letter":["","E","L","B","G","R","Z","A"],"t":[0,8490.5,33723.90000000596,43174,59916.10000000894,69327.79999999702,77959.70000000298,78619.5],"hit":[null,1,0,1,0,1,1,1],"asked":["","E","EL","ELB","ELBG","ELBGR","ELBGRZ","ELBGRZA"],"word_state":["_____","_E___","_E___","_EB__","_EB__","_EBR_","ZEBR_","ZEBRA"]},"hover_log":{"letter":["?","?","?","?","?","?","?","?","?","?","?","?","?","?","?","?","?","?","?","?","?","?","?","?","?","?","?","?","?","?","?","?","?","?","?","?","?","?","?","?","?","?","?","?","?","?","?","?","?","?","?","?","?","?","?","?","?","?","?","?","?","?","?","?","?","J","J","J","J","J","J","J","J","J","J","J","J","J","J","J","J","J","J","J","J","J","J","J","J","J","J","J","J","J","J","J","J","J","J","J","J","J","J","J","J","J","J","J","J","J","J","J","J","J","J","J","J","J","J","J","J","J","J","J","J","J","J","J","J","J","J","J","J","J","J","J","J","J","J","J","J","J","J","J","J","J","J","J","J","J","J","J","J","J","J","J","J","J","J","J","J","J","J","J","J","J","J","J","J","J","J","J","J","J","J","J","J","J","J","J","J","J","J","J","J","J","J","J","J","J","J","J","J","J","J","J","J","J","J","J","J","J","J","J","J","J","J","J","J","J","J","J","J","J","J","J","J","J","J","J","J","J","J","J","J","J","J","J","J","J","J","J","J","J","J","J","J","J","J","J","J","J","J","J","J","J","J","J","J","J","J","J","J","J","J","J","J","J","J","J","J","J","J","J","J","J","J","J","J","J","J","J","J","J","J","J","J","?","?","?","?","?","A","A","A","A","?","?","?","?","?","?","?","A","A","A","A","A","A","A","A","A","A","A","A","A","A","A","A","A","A","A","A","A","A","A","A","A","A","A","A","A","A","?","?","?","?","?","B","B","B","B","B","B","B","B","B","B","B","B","B","B","B","B","B","B","B","B","?","?","?","C","C","C","C","C","C","C","C","?","?","D","D","D","D","D","D","D","D","D","?","?","?","?","E","E","E","E","E","E","E","E","E","E","E","?","?","?","F","F","F","F","F","F","F","F","F","F","F","F","F","F","F","F","F","F","F","F","F","F","F","F","F","F","F","F","?","?","?","?","?","?","?","?","?","?","?","?","?","?","?","?","?","?","?","?","?","?","?","?","G","G","G","G","G","G","G","G","G","G","G","G","G","G","G","G","?","?","F","F","F","E","E","E","D","D","D","D","D","D","D","D","D","D","D","D","D","D","D","D","D","D","D","D","D","D","D","D","?","?","E","E","E","E","E","E","E","E","E","E","E","E","E","E","E","E","E","E","E","E","E","E","E","E","E","E","E","E","E","E","E","E","E","E","E","E","E","E","E","E","E","E","E","E","E","E","E","E","E","E","E","E","E","E","E","E","E","E","E","E","E","E","E","E","E","E","E","E","E","E","E","E","E","E","E","E","E","E","E","E","E","E","E","E","E","E","E","E","?","?","N","?","?","?","?","?","?","Y","Y","Y","Y","?","?","?","?","?","?","?","?","?","?","?","?","?","?","?","?","?","?","?","?","?","?","?","?","?","?","?","?","?","?","?","?","?","?","?","?","?","?","?","?","?","?","?","?","?","?","?","?","?","?","?","?","?","?","?","?","?","?","?","?","?","?","?","?","?","?","?","?","?","?","?","?","?","?","?","?","?","?","?","?","?","?","?","?","?","?","?","?","?","?","?","?","?","?","?","?","?","?","?","?","?","?","?","?","?","?","?","?","?","?","?","?","?","?","?","?","?","?","?","?","?","?","?","?","?","?","?","?","?","?","?","?","?","?","?","?","?","?","?","?","?","?","?","?","Z","Z","Z","Z","Z","Z","Z","Z","Z","Z","Z","Z","Z","?","?","?","?","?","?","?","?","?","?","?","?","?","?","?","?","?","?","?","?","?","?","?","?","?","?","?","?","?","?","?","?","?","?","?","?","?","?","?","?","?","?","?","?","?","?","?","?","?","?","?","?","?","?","?","?","?","?","?","?","?","?","?","?","?","?","?","?","?","?","?","?","?","?","?","?","?","?","?","?","?","?","?","?","?","?","?","?","?","?","?","?","?","?","?","?","?","?","?","?","?","?","?","?","?","?","?","?","?","?","?","?","?","?","?","?","?","?","?","?","?","?","?","?","?","?","?","?","?","?","?","?","?","?","?","?","?","?","?","?","?","?","?","?","?","?","?","?","?","?","?","?","?","?","?","?","?","?","?","?","?","?","?","?","?","?","?","?","?","?","?","?","?","?","?","?","?","?","?","?","?","?","?","?","?","?","?","?","?","?","?","?","?","?","?","?","?","?","?","?","?","?","?","?","?","?","?","?","?","?","?","?","?","?","?","?","?","?","?","?","?","?","?","?","?","?","?","?","?","?","?","?","Z","?","?","?","?","?","?","?","?","?","?","?","?","?","?","?","?","?","?","?","?","?","?","?","?","?","?","?","?","?","?","?","?","?","?","?","?","?","?","?","?","?","?","?","?","?","?","?","?","?","?","?","?","?","?","?","?","?","?","?","?","?","?","?","?","?","?","?","?","?","?","?","?","?","?","?","?","?","?","?","?","?","?","?","?","?","?","?","?","?","?","?","?","?","?","?","?","?","?","?","?","?","?","?","?","?","?","?","?","?","?","?","?","?","?","?","?","?","?","?","?","?","?","?","?","?","?","?","?","?","?","?","?","?","?","?","?","?","?","?","?","?","?","?","?","?","?","?","?","?","?","?","?","?","?","?","?","?","?","?","?","?","?","?","?","?","?","?","?","?","?","?","?","?","?","?","?","?","?","?","?","?","?","?","?","?","?","?","?","?","?","?","?","?","?","?","?","?","?","?","?","?","?","?","?","?","?","?","?","?","?","?","?","?","?","?","?","?","?","?","?","?","?","?","?","?","?","?","?","?","?","?","?","?","?","?","?","?","?","?","?","?","?","?","?","?","?","?","?","?","?","?","?","?","?","?","?","?","?","?","?","?","?","?","?","?","?","?","?","?","?","?","?","?","?","?","?","?","?","?","?","?","?","?","?","?","?","?","?","?","?","?","?","?","?","?","?","?","?","?","?","?","?","?","?","?","?","?","?","?","?","?","?","?","?","?","?","?","?","?","?","?","?","?","?","?","?","?","?","?","?","?","?","?","?","?","?","?","?","?","?","?","?","?","?","?","?","?","?","?","?","?","?","?","?","?","?","?","?","?","?","?","?","?","?","?","?","?","?","?","?","?","?","?","?","?","?","?","?","?","?","?","?","?","?","?","?","?","?","?","?","?","?","?","?","?","?","?","?","?","?","?","?","?","?","?","?","?","?","?","?","?","?","?","?","?","?","?","?","?","?","?","?","?","?","?","?","?","?","?","?","?","?","?","?","?","?","?","?","?","?","?","?","?","?","?","?","?","?","?","?","?","?","?","?","?","?","?","?","?","?","?","?","?","?","?","?","?","?","?","?","?","?","?","?","?","?","?","?","?","?","?","?","?","?","?","?","?","?","?","?","?","?","?","?","?","?","?","?","?","?","?","?","?","?","?","?","?","?","?","?","?","?","?","?","?","?","?","?","?","?","?","?","?","?","?","?","?","?","?","?","?","?","?","?","?","?","?","?","?","?","?","?","?","?","?","?","?","?","?","?","?","?","?","?","?","?","?","?","?","?","?","?","?","?","?","?","?","?","?","?","?","?","?","?","?","?","?","?","?","?","?","?","?","?","?","?","?","?","?","?","?","?","?","?","?","?","?","?","?","?","?","O","O","O","O","O","O","O","O","O","O","O","O","O","O","O","O","O","O","O","O","O","O","O","O","O","O","O","O","O","O","O","O","O","O","O","O","O","O","O","O","O","O","O","O","O","O","O","O","O","O","O","O","O","O","O","O","O","O","O","O","O","O","O","O","O","O","O","O","O","O","O","O","O","O","O","O","O","O","O","O","O","O","O","O","O","O","O","O","O","O","O","O","O","O","O","O","O","O","O","O","O","O","O","O","O","O","O","O","O","O","O","O","O","O","O","O","O","O","O","O","O","O","O","O","O","O","O","O","O","O","O","O","O","O","O","O","O","O","O","O","O","O","O","O","O","O","O","O","O","O","O","O","O","O","O","O","O","O","O","O","O","O","O","O","O","O","O","O","O","O","O","O","O","O","O","O","O","O","O","O","O","O","O","O","O","O","O","O","O","O","O","O","O","O","O","O","O","O","O","O","O","O","O","O","O","O","O","O","O","O","O","O","O","O","O","O","O","O","O","O","O","O","O","O","O","O","O","O","O","O","O","O","O","O","O","O","O","O","O","O","O","O","O","O","O","O","O","O","O","O","O","O","O","O","O","O","O","O","O","O","O","O","O","O","O","O","O","O","O","O","O","O","O","O","O","O","O","O","O","O","O","O","O","O","O","O","O","O","O","O","O","O","O","O","O","O","O","O","O","O","O","O","O","O","O","O","O","O","O","O","O","O","O","O","O","O","O","O","O","O","O","O","O","O","O","O","O","O","O","O","O","O","O","O","O","O","O","O","O","O","O","O","O","O","O","O","O","O","O","O","O","O","O","O","O","O","O","O","O","O","O","O","O","O","O","O","O","O","O","O","O","O","O","O","O","O","O","O","O","O","O","O","O","O","O","O","O","O","O","O","O","O","O","O","O","O","O","O","?","?","N","N","N","N","N","N","?","?","M","M","M","M","M","?","?","?","L","L","L","L","L","L","L","L","L","L","L","L","L","L","L","L","L","L","L","L","L","L","L","L","L","L","L","L","L","L","L","L","L","L","L","L","L","L","L","L","L","L","L","L","L","L","L","L","L","L","L","L","L","L","L","L","L","L","L","L","L","L","L","L","L","L","L","L","L","L","L","L","L","L","L","L","L","L","L","L","L","L","L","L","L","L","L","L","L","L","L","L","L","L","L","L","L","L","L","L","L","L","L","L","L","L","L","L","L","L","L","L","L","L","L","L","L","L","L","L","L","L","L","L","L","L","L","L","L","L","L","L","L","L","L","L","L","L","L","L","L","L","L","L","L","L","L","L","L","?","?","?","?","?","?","?","?","?","?","?","?","?","?","?","?","?","?","?","?","?","?","?","?","?","?","?","?","?","?","?","?","?","?","?","?","?","?","?","?","?","?","?","?","?","?","?","?","?","?","?","?","?","?","?","?","?","?","?","?","?","?","?","?","?","?","?","?","?","?","?","?","?","?","?","?","?","?","?","?","?","?","?","?","?","?","?","?","?","?","?","?","?","?","?","?","?","?","?","?","?","?","?","?","?","?","?","?","?","?","?","?","?","?","?","?","?","?","?","?","?","?","?","?","?","T","T","T","T","T","T","T","T","T","T","T","T","T","T","T","T","T","T","T","T","T","T","T","T","T","T","T","T","T","T","T","T","T","T","T","T","T","T","T","T","T","T","T","T","T","T","T","T","T","T","T","T","T","T","T","T","T","T","T","T","T","T","T","T","T","T","T","T","T","T","T","T","T","T","T","T","T","T","T","T","T","T","T","T","T","T","T","T","T","T","T","T","T","T","T","T","T","T","T","T","T","T","T","T","T","T","T","T","T","T","T","T","T","T","T","T","T","T","T","T","T","T","T","T","T","T","T","T","T","T","T","T","T","T","T","T","T","T","T","T","T","T","T","T","T","T","T","T","T","T","T","T","T","T","T","T","T","T","T","T","T","T","T","T","T","T","T","T","T","T","T","T","T","T","T","T","T","T","T","T","T","T","T","T","T","T","T","T","T","T","T","T","T","T","T","T","T","T","T","T","T","T","T","T","T","T","T","T","T","T","T","T","T","T","T","T","T","T","T","T","T","T","T","T","T","T","T","T","T","T","T","T","T","?","?","?","K","K","K","K","K","?","?","?","?","?","B","B","B","B","B","B","B","B","B","B","B","B","B","B","B","B","B","B","B","B","B","B","B","B","B","B","B","B","B","B","B","B","B","B","B","B","B","B","B","B","B","B","B","B","B","B","B","B","B","B","B","B","B","B","B","B","B","B","B","B","B","B","B","B","B","B","B","B","B","B","B","B","B","B","B","B","B","B","B","B","B","B","B","B","B","B","B","B","B","B","B","B","B","B","B","B","B","B","B","B","B","B","B","B","B","B","B","B","B","B","B","B","B","B","B","B","B","B","B","B","B","B","B","B","B","B","B","B","B","B","B","B","B","B","B","B","B","B","B","B","B","B","B","B","B","B","B","B","B","B","B","B","B","B","B","B","B","?","L","?","U","?","?","?","?","?","?","?","?","?","?","?","?","?","?","?","?","?","?","?","?","?","?","?","?","?","?","?","?","?","?","?","?","?","?","?","?","?","?","?","?","?","?","?","?","?","?","?","?","?","?","?","?","?","?","?","?","?","?","?","?","?","?","?","?","?","?","?","?","?","?","?","?","?","?","?","?","?","?","?","?","?","?","?","?","?","?","?","?","?","?","?","?","?","?","?","?","?","?","?","?","?","?","?","?","?","?","?","?","?","?","?","?","?","?","?","?","?","?","?","?","?","?","?","?","?","?","?","?","?","?","?","?","?","?","?","?","?","?","?","?","?","?","?","?","?","?","?","?","?","?","?","?","?","?","?","?","?","?","?","?","?","?","?","?","?","?","?","?","?","?","?","?","?","?","?","?","?","?","?","?","?","?","?","?","?","?","?","?","?","?","?","?","?","?","?","?","?","?","?","?","?","?","?","?","?","?","?","?","?","?","?","?","?","?","?","?","?","?","?","?","?","?","?","?","?","?","?","?","?","?","?","?","?","?","?","?","?","?","?","?","?","?","?","?","?","?","?","?","?","?","?","?","?","?","?","?","?","?","?","?","?","?","?","?","?","?","?","?","?","?","?","?","?","?","?","?","?","?","?","?","?","?","?","?","?","?","?","?","?","?","?","?","?","?","?","?","?","?","?","?","?","?","?","?","?","?","?","?","?","?","?","?","?","?","?","?","?","?","?","?","?","?","?","?","?","?","?","?","?","?","?","?","?","?","?","?","?","?","?","?","?","?","?","?","?","?","?","?","?","?","?","?","?","?","?","?","?","?","?","?","?","?","?","?","?","?","?","?","?","?","?","?","?","?","?","?","?","?","?","?","?","?","?","?","?","?","?","?","?","?","?","?","?","?","?","?","?","?","?","?","?","?","?","?","?","?","?","?","?","?","?","?","?","?","?","?","?","?","?","V","V","V","V","V","V","V","V","V","V","V","V","V","V","V","V","?","?","?","?","?","?","?","?","?","?","?","?","?","?","?","?","?","?","?","?","?","?","?","?","?","?","?","?","?","?","?","?","?","?","?","?","?","?","?","?","?","?","?","?","?","?","?","?","?","?","?","?","?","?","?","?","?","?","?","?","?","?","?","?","?","?","?","?","?","?","?","?","?","?","?","?","?","?","?","?","L","L","L","L","?","?","?","?","?","?","B","B","B","?","?","A","A","A","A","A","A","A","A","A","A","A","A","A","A","?","B","B","B","B","B","B","?","?","?","?","?","C","C","C","C","C","C","C","C","C","C","C","C","C","C","C","C","C","C","C","C","C","C","C","C","C","C","C","C","C","C","C","C","C","C","C","C","C","C","C","C","C","C","C","C","C","C","C","C","C","C","C","C","C","C","C","C","C","C","C","C","C","C","C","C","C","C","C","C","C","C","C","C","C","C","C","C","C","C","C","C","?","?","D","D","D","D","D","D","D","D","D","D","D","D","D","D","D","D","D","D","D","D","D","D","D","D","D","D","D","D","?","E","E","E","?","F","F","F","F","F","F","F","F","F","F","F","F","F","F","F","F","F","F","F","F","F","F","F","F","F","F","F","F","F","F","F","F","F","F","F","F","F","F","F","F","F","F","F","F","F","F","F","F","F","F","F","F","F","F","F","F","F","F","F","F","F","F","F","F","F","F","F","F","F","F","F","F","F","F","F","F","F","F","F","F","F","F","F","F","F","F","F","F","F","F","F","F","F","F","F","F","F","F","F","F","F","F","F","F","F","F","F","F","F","F","F","F","F","F","F","F","F","F","F","F","F","F","F","F","F","F","F","F","F","F","F","F","F","F","F","F","F","F","F","F","F","F","F","F","F","F","?","?","G","G","G","G","G","G","G","G","G","G","G","G","G","G","G","G","G","G","G","G","G","G","G","G","G","G","G","G","G","G","G","G","G","G","G","G","G","G","G","G","G","G","G","G","G","G","G","G","G","G","G","G","G","G","G","G","G","G","G","G","G","G","G","G","G","G","G","G","G","G","G","G","G","G","G","G","G","G","G","G","G","G","G","G","G","G","G","G","G","G","G","G","G","G","G","G","G","G","G","G","G","G","G","G","G","G","G","G","G","G","G","G","G","G","G","G","G","G","G","G","G","G","G","G","G","G","G","G","G","G","G","G","G","G","G","G","G","G","G","G","G","G","G","G","G","G","G","G","G","G","G","G","G","G","G","G","G","G","G","G","G","G","G","G","G","G","G","G","G","G","G","G","G","G","G","G","G","G","G","G","G","G","G","G","G","G","G","G","?","?","?","?","?","?","?","?","?","?","?","?","Q","Q","Q","Q","Q","Q","Q","Q","Q","Q","Q","Q","Q","Q","Q","Q","Q","Q","Q","Q","Q","Q","Q","Q","Q","Q","Q","Q","Q","Q","Q","Q","Q","Q","Q","Q","Q","Q","Q","Q","Q","Q","Q","Q","Q","Q","Q","Q","Q","Q","Q","Q","Q","Q","Q","Q","Q","Q","Q","Q","Q","Q","Q","Q","Q","Q","Q","Q","Q","Q","Q","Q","Q","Q","Q","Q","Q","Q","Q","Q","Q","Q","Q","Q","Q","Q","Q","Q","Q","Q","Q","Q","Q","Q","Q","Q","Q","Q","Q","Q","Q","Q","Q","Q","Q","Q","Q","Q","Q","Q","Q","Q","Q","Q","Q","Q","Q","Q","Q","Q","Q","Q","Q","Q","Q","Q","Q","Q","Q","Q","Q","Q","Q","Q","Q","Q","Q","Q","Q","Q","Q","Q","Q","?","?","?","?","?","?","?","?","?","?","Q","Q","Q","Q","Q","Q","Q","Q","Q","Q","Q","Q","Q","Q","Q","Q","Q","Q","Q","Q","Q","Q","Q","Q","Q","Q","Q","Q","Q","Q","Q","Q","Q","Q","Q","Q","Q","Q","Q","Q","Q","Q","Q","Q","Q","Q","Q","Q","Q","Q","Q","Q","Q","Q","Q","Q","Q","Q","Q","Q","Q","Q","Q","Q","Q","Q","Q","Q","Q","Q","Q","Q","Q","Q","Q","Q","Q","Q","Q","Q","Q","Q","Q","Q","Q","Q","Q","Q","Q","Q","Q","Q","Q","Q","Q","Q","Q","Q","Q","Q","Q","Q","Q","Q","Q","Q","Q","Q","Q","Q","Q","Q","Q","Q","Q","Q","Q","Q","Q","Q","Q","Q","Q","Q","Q","Q","Q","Q","Q","Q","Q","Q","Q","Q","Q","Q","Q","Q","Q","Q","Q","Q","Q","Q","Q","Q","Q","Q","Q","Q","Q","Q","Q","Q","Q","Q","Q","Q","Q","Q","Q","Q","Q","Q","Q","Q","Q","Q","Q","Q","Q","Q","Q","Q","Q","Q","Q","Q","Q","Q","Q","Q","Q","Q","Q","Q","Q","Q","Q","Q","Q","Q","Q","Q","Q","Q","Q","Q","Q","Q","Q","Q","Q","Q","Q","Q","Q","Q","Q","Q","Q","Q","Q","Q","Q","Q","Q","Q","Q","Q","Q","Q","Q","Q","Q","Q","Q","Q","Q","Q","?","?","P","P","P","P","P","?","?","?","O","?","?","?","?","?","?","?","?","?","X","X","X","X","?","?","Y","Y","Y","?","?","?","?","Q","Q","Q","Q","Q","Q","Q","Q","Q","Q","Q","Q","?","?","?","?","?","?","?","?","?","?","?","?","?","?","?","?","?","?","?","?","?","R","R","R","R","R","R","R","R","R","R","R","R","R","R","R","R","R","R","R","R","R","R","R","R","R","R","R","R","R","?","?","?","?","?","?","?","?","?","?","?","?","?","?","?","?","?","?","?","?","?","?","?","?","?","?","?","?","?","?","?","?","?","?","?","?","?","?","?","?","?","?","?","?","?","?","?","?","?","?","?","?","?","?","?","?","?","?","?","?","?","?","?","?","?","?","?","?","?","?","?","?","?","?","?","?","?","?","?","?","?","?","?","?","?","?","?","?","?","?","?","?","?","?","?","?","?","?","?","?","?","?","?","?","?","?","?","?","?","?","?","?","?","?","?","?","?","?","?","?","?","?","?","?","?","?","?","?","?","?","?","?","?","?","?","?","?","?","?","?","?","?","?","?","?","?","?","?","?","?","?","?","?","?","?","?","?","?","?","?","?","?","?","?","?","?","?","?","?","?","?","?","?","?","?","?","?","?","?","?","?","?","?","?","?","?","?","?","?","?","?","?","?","?","?","?","?","?","?","?","?","?","?","?","?","?","?","?","?","?","?","?","?","?","?","?","?","?","?","?","?","?","?","?","?","?","?","?","?","?","?","?","?","?","?","?","?","?","?","?","?","?","?","?","?","?","?","?","?","?","?","?","?","?","?","?","?","?","?","?","?","?","?","?","?","?","?","?","?","?","?","?","?","?","?","?","?","?","?","?","?","?","?","?","?","?","?","?","?","?","?","?","?","?","?","?","?","?","?","?","?","?","?","?","?","?","?","?","?","?","?","?","?","?","?","?","?","?","?","?","?","?","?","?","?","?","?","?","?","?","?","?","?","?","?","?","?","?","?","?","?","?","?","?","?","?","?","?","?","?","?","?","?","?","?","?","?","?","?","?","?","?","?","?","?","?","?","?","?","?","?","?","?","?","?","?","?","?","?","?","?","?","?","?","?","?","?","?","?","?","?","?","?","?","?","?","?","?","?","?","?","?","?","?","?","?","?","?","?","?","?","?","?","?","?","?","?","?","?","?","?","?","?","?","?","?","?","?","?","?","?","?","?","?","?","?","?","?","?","?","?","?","?","?","?","?","?","?","?","?","?","?","?","?","?","?","?","?","?","?","?","?","?","?","?","?","?","?","?","?","?","?","?","?","?","?","?","?","?","?","?","?","?","Z","Z","Z","Z","Z","Z","Z","Z","Z","Z","Z","Z","Z","Z","Z","Z","Z","Z","Z","Z","Z","Z","?","?","?","?","?","?","N","N","M","?","L","?","?","?","?","?","?","?","?","?","A","A","A","A","A","A","A","A","A","A","A","A","A","A","A","A","A","A","A","A","A","A","A","?","J","J","?","?","S","?","?","?","?","?","?","?","?","?","?","?","?","?","?","?","?","?","?","?","?","?","?","?","?","?","?","?","?","?","?","?","?","?","?","?","?","?","?","?","?","?","?","?","?","?","?","?","?","?","?","?","?","?","?","?","?","?","?","?","?","?","?","?","?","?","?","?","?","?","?","?","?","?","?","?","?","?","?","?","?","?","?","?","?","?","?","?","?","?","?","?","?","?","?","?","?","?","?","?","?","?","?","?","?","?","?","?","?"],"t":[28,32,49,65,82,98,115,132,148,165,181,198,215,231,248,265,281,298,315,331,348,365,381,398,415,431,448,465,481,498,515,531,548,565,581,598,615,631,648,664,681,698,714,731,748,764,781,798,814,831,848,864,881,898,914,931,948,964,981,998,1014,1031,1048,1064,1082,1099,1115,1132,1149,1165,1182,1198,1215,1232,1248,1265,1281,1298,1315,1331,1348,1365,1382,1398,1415,1431,1448,1465,1481,1498,1515,1532,1548,1565,1581,1598,1615,1631,1648,1665,1681,1698,1715,1731,1748,1765,1781,1798,1815,1831,1848,1865,1881,1898,1915,1931,1948,1965,1981,1998,2015,2031,2048,2065,2081,2098,2115,2131,2148,2165,2181,2198,2215,2231,2248,2265,2281,2298,2315,2331,2348,2365,2381,2398,2415,2431,2448,2465,2481,2498,2514,2531,2548,2565,2581,2598,2615,2631,2648,2665,2681,2698,2715,2731,2748,2765,2781,2798,2815,2832,2848,2865,2881,2898,2914,2931,2948,2964,2981,2998,3015,3031,3048,3065,3081,3098,3114,3131,3148,3165,3181,3198,3215,3231,3248,3264,3281,3298,3314,3331,3348,3365,3381,3398,3414,3431,3448,3465,3481,3498,3514,3531,3548,3565,3581,3598,3615,3631,3648,3664,3681,3698,3714,3731,3748,3764,3781,3798,3814,3831,3848,3864,3881,3898,3914,3931,3948,3964,3981,3998,4014,4031,4048,4064,4081,4098,4114,4131,4148,4164,4181,4198,4214,4231,4248,4264,4281,4298,4315,4331,4348,4364,4381,4398,4414,4431,4448,4464,4481,4498,4514,4531,4548,4565,4581,4598,4615,4631,4648,4665,4681,4698,4715,4731,4748,4764,4781,4798,4814,4831,4848,4865,4881,4898,4914,4931,4948,4964,4981,4998,5014,5031,5048,5064,5081,5098,5114,5131,5148,5165,5181,5198,5214,5231,5248,5265,5281,5298,5314,5331,5348,5364,5381,5398,5414,5431,5448,5464,5481,5498,5515,5531,5548,5564,5581,5598,5614,5631,5648,5664,5681,5698,5714,5731,5748,5765,5781,5798,5815,5831,5848,5865,5881,5898,5914,5931,5948,5965,5981,5998,6014,6031,6048,6064,6081,6098,6114,6131,6148,6164,6181,6198,6214,6231,6248,6265,6281,6298,6315,6331,6348,6365,6381,6398,6415,6431,6448,6464,6481,6498,6514,6531,6548,6564,6581,6598,6614,6631,6648,6664,6681,6698,6714,6731,6748,6764,6781,6798,6814,6831,6848,6864,6881,6898,6914,6931,6948,6964,6981,6998,7014,7031,7048,7064,7081,7098,7114,7131,7148,7164,7181,7198,7215,7231,7248,7265,7281,7298,7315,7331,7348,7364,7381,7398,7414,7431,7448,7464,7481,7498,7514,7531,7548,7564,7581,7598,7614,7631,7648,7664,7681,7698,7714,7731,7748,7765,7781,7798,7814,7831,7847,7864,7881,7898,7914,7931,7948,7965,7981,7997,8014,8031,8048,8064,8081,8098,8114,8131,8148,8164,8181,8198,8214,8231,8248,8264,8281,8298,8314,8331,8348,8364,8381,8397,8414,8431,8448,8465,8481,8498,8515,8531,8548,8565,8581,8598,8615,8631,8648,8665,8681,8698,8714,8731,8748,8764,8781,8798,8814,8831,8848,8865,8881,8898,8914,8931,8948,8964,8981,8998,9014,9031,9048,9064,9081,9098,9114,9131,9148,9164,9181,9198,9214,9231,9248,9264,9281,9298,9314,9331,9348,9364,9381,9398,9414,9431,9448,9464,9481,9498,9514,9531,9548,9564,9581,9598,9614,9631,9648,9664,9681,9698,9715,9731,9748,9764,9781,9798,9814,9831,9848,9864,9881,9898,9914,9931,9948,9964,9981,9998,10014,10031,10048,10064,10081,10098,10114,10131,10148,10164,10181,10198,10214,10231,10248,10265,10281,10298,10315,10331,10348,10365,10381,10398,10414,10432,10448,10465,10481,10498,10514,10531,10548,10564,10581,10598,10614,10631,10648,10664,10681,10698,10714,10731,10748,10764,10781,10798,10814,10831,10848,10864,10881,10898,10914,10931,10948,10964,10981,10998,11014,11031,11048,11064,11081,11098,11114,11131,11148,11164,11181,11198,11215,11231,11248,11264,11281,11298,11314,11331,11348,11364,11381,11398,11414,11431,11448,11465,11481,11498,11514,11531,11548,11564,11581,11598,11614,11631,11648,11664,11681,11698,11714,11731,11748,11764,11781,11798,11814,11831,11848,11864,11881,11898,11914,11931,11948,11964,11981,11997,12014,12031,12048,12064,12081,12098,12114,12131,12148,12164,12181,12198,12214,12231,12248,12265,12281,12298,12314,12331,12347,12364,12381,12398,12414,12431,12448,12464,12481,12498,12514,12531,12548,12564,12581,12598,12615,12631,12648,12664,12681,12698,12714,12731,12748,12764,12781,12798,12815,12831,12849,12865,12881,12898,12914,12931,12948,12964,12981,12998,13014,13031,13048,13064,13081,13098,13114,13131,13148,13164,13181,13198,13214,13231,13247,13264,13281,13298,13314,13331,13348,13364,13381,13398,13414,13431,13448,13464,13481,13498,13514,13531,13548,13564,13581,13598,13614,13631,13648,13664,13681,13697,13714,13731,13747,13764,13781,13797,13814,13831,13847,13864,13881,13898,13914,13931,13948,13965,13981,13997,14014,14031,14048,14064,14081,14097,14114,14131,14148,14164,14181,14197,14214,14231,14247,14264,14281,14298,14314,14331,14348,14364,14381,14398,14414,14431,14448,14464,14481,14498,14514,14531,14548,14564,14581,14597,14614,14631,14648,14664,14681,14697,14714,14731,14748,14764,14781,14797,14814,14831,14848,14864,14881,14898,14914,14931,14947,14964,14981,14998,15014,15031,15048,15064,15081,15098,15114,15131,15148,15164,15181,15198,15214,15231,15247,15264,15281,15298,15314,15331,15348,15364,15381,15397,15414,15431,15447,15464,15481,15497,15514,15531,15547,15564,15581,15597,15614,15631,15647,15664,15681,15698,15714,15731,15747,15764,15781,15797,15814,15831,15847,15864,15881,15898,15914,15931,15947,15964,15981,15998,16014,16031,16048,16064,16081,16098,16114,16131,16148,16164,16181,16198,16214,16231,16248,16264,16281,16298,16314,16331,16348,16364,16381,16398,16414,16431,16447,16464,16481,16497,16514,16531,16547,16564,16581,16597,16614,16631,16648,16664,16681,16697,16714,16731,16748,16764,16781,16797,16814,16831,16847,16864,16881,16897,16914,16931,16948,16964,16981,16998,17014,17031,17047,17064,17081,17097,17114,17131,17147,17164,17181,17198,17214,17231,17247,17264,17281,17297,17314,17331,17347,17364,17381,17398,17414,17431,17447,17464,17481,17497,17514,17531,17547,17564,17581,17597,17614,17631,17647,17664,17681,17697,17714,17731,17747,17764,17781,17797,17814,17831,17847,17864,17881,17897,17914,17931,17947,17964,17981,17997,18014,18031,18047,18064,18081,18097,18114,18131,18147,18165,18181,18197,18214,18231,18247,18264,18281,18297,18314,18331,18347,18364,18381,18397,18414,18431,18447,18464,18481,18497,18514,18531,18548,18564,18581,18597,18614,18631,18647,18664,18681,18697,18714,18731,18747,18764,18781,18797,18814,18831,18847,18864,18881,18897,18914,18931,18947,18964,18981,18997,19014,19031,19047,19064,19081,19097,19114,19131,19147,19164,19181,19197,19214,19231,19247,19264,19281,19297,19314,19331,19347,19364,19381,19397,19414,19431,19447,19464,19481,19497,19514,19531,19547,19564,19581,19597,19614,19631,19647,19664,19681,19697,19714,19731,19748,19764,19781,19797,19814,19831,19847,19864,19881,19897,19914,19931,19947,19964,19981,19997,20014,20031,20047,20064,20081,20097,20114,20131,20147,20164,20181,20197,20214,20231,20247,20264,20281,20297,20314,20331,20347,20364,20381,20397,20414,20431,20447,20464,20481,20497,20514,20531,20547,20564,20581,20597,20614,20631,20647,20664,20681,20697,20714,20731,20747,20764,20781,20797,20814,20831,20847,20864,20881,20897,20914,20931,20947,20964,20981,20998,21014,21031,21047,21064,21081,21097,21114,21131,21147,21164,21181,21197,21214,21231,21247,21264,21281,21297,21314,21331,21347,21364,21381,21397,21414,21431,21447,21464,21481,21497,21514,21531,21547,21564,21581,21597,21614,21631,21647,21664,21681,21697,21714,21731,21747,21764,21781,21797,21814,21831,21847,21864,21881,21897,21914,21931,21947,21964,21980,21997,22014,22031,22047,22064,22081,22097,22114,22131,22147,22164,22181,22197,22214,22230,22247,22264,22281,22297,22314,22331,22347,22364,22381,22397,22414,22431,22447,22464,22481,22497,22514,22531,22547,22564,22580,22597,22614,22631,22647,22664,22681,22697,22714,22731,22747,22764,22781,22797,22814,22831,22847,22864,22882,22897,22914,22931,22947,22964,22981,22997,23014,23031,23047,23064,23080,23097,23114,23131,23147,23164,23181,23197,23214,23230,23247,23264,23281,23297,23314,23331,23347,23364,23381,23397,23414,23431,23447,23464,23481,23497,23514,23531,23547,23564,23581,23597,23614,23631,23647,23664,23681,23697,23714,23731,23747,23764,23781,23797,23814,23831,23847,23864,23881,23897,23914,23930,23947,23964,23981,23997,24014,24031,24047,24064,24081,24097,24114,24131,24147,24164,24181,24197,24214,24231,24247,24264,24280,24297,24314,24330,24347,24364,24381,24397,24414,24431,24447,24464,24481,24497,24514,24531,24547,24564,24581,24597,24614,24631,24647,24664,24681,24697,24714,24731,24747,24764,24781,24797,24814,24830,24847,24864,24881,24897,24914,24931,24947,24964,24980,24997,25014,25031,25047,25064,25081,25097,25114,25131,25147,25164,25181,25197,25214,25231,25247,25264,25281,25297,25314,25331,25347,25364,25380,25397,25414,25430,25447,25464,25481,25497,25514,25531,25547,25564,25581,25597,25614,25631,25647,25664,25680,25697,25714,25731,25747,25764,25780,25797,25814,25831,25847,25864,25881,25897,25914,25931,25947,25964,25981,25997,26014,26031,26047,26064,26081,26097,26114,26131,26147,26164,26181,26197,26214,26231,26247,26264,26281,26297,26314,26331,26347,26364,26381,26398,26414,26431,26447,26464,26481,26497,26514,26531,26547,26564,26580,26598,26614,26631,26647,26664,26680,26697,26714,26731,26747,26764,26780,26797,26814,26830,26847,26864,26880,26897,26914,26930,26947,26964,26981,26997,27014,27030,27047,27064,27081,27097,27114,27130,27147,27164,27180,27197,27214,27230,27247,27264,27281,27297,27314,27330,27347,27364,27380,27397,27414,27431,27447,27464,27480,27497,27514,27532,27547,27564,27580,27597,27614,27630,27647,27664,27681,27697,27714,27730,27747,27764,27780,27797,27814,27830,27847,27864,27881,27897,27914,27930,27947,27964,27980,27997,28014,28030,28047,28064,28081,28097,28114,28130,28147,28164,28180,28197,28214,28230,28247,28264,28281,28297,28314,28330,28347,28364,28381,28397,28414,28430,28447,28464,28480,28497,28514,28530,28547,28564,28580,28597,28614,28630,28647,28664,28680,28697,28714,28730,28747,28764,28780,28797,28814,28830,28847,28864,28881,28897,28914,28931,28947,28964,28981,28997,29014,29030,29047,29064,29080,29097,29114,29130,29147,29164,29180,29197,29214,29230,29247,29264,29280,29297,29314,29331,29347,29364,29381,29397,29414,29431,29447,29464,29480,29497,29514,29531,29547,29564,29581,29597,29614,29631,29647,29664,29680,29697,29714,29731,29747,29764,29780,29797,29814,29831,29847,29864,29881,29897,29914,29930,29947,29964,29980,29997,30014,30030,30047,30064,30080,30097,30114,30130,30147,30164,30180,30197,30214,30230,30247,30264,30280,30297,30314,30330,30347,30364,30380,30397,30414,30431,30447,30464,30481,30497,30514,30530,30547,30564,30580,30597,30614,30630,30647,30664,30680,30697,30714,30730,30747,30764,30780,30797,30814,30830,30847,30864,30881,30897,30914,30930,30947,30964,30980,30997,31014,31030,31047,31064,31080,31097,31114,31130,31147,31164,31180,31197,31214,31230,31247,31264,31280,31297,31314,31330,31347,31364,31380,31397,31414,31430,31447,31464,31481,31497,31514,31530,31547,31564,31581,31597,31614,31631,31647,31664,31680,31697,31714,31730,31747,31764,31780,31797,31814,31831,31847,31864,31880,31897,31914,31930,31947,31964,31980,31997,32014,32030,32047,32064,32080,32097,32114,32130,32147,32164,32180,32197,32214,32231,32247,32264,32280,32297,32314,32330,32347,32364,32380,32397,32414,32430,32447,32464,32480,32497,32514,32530,32547,32564,32580,32597,32614,32630,32647,32664,32680,32697,32714,32730,32747,32764,32780,32797,32814,32830,32847,32864,32880,32897,32914,32930,32947,32964,32981,32998,33014,33031,33048,33065,33081,33097,33114,33131,33147,33164,33181,33197,33214,33230,33247,33264,33280,33297,33314,33330,33347,33364,33380,33397,33414,33430,33447,33464,33481,33497,33514,33531,33547,33564,33581,33597,33614,33631,33647,33664,33680,33697,33714,33731,33747,33764,33781,33797,33814,33831,33848,33864,33881,33897,33914,33931,33948,33964,33981,33997,34014,34030,34047,34064,34080,34097,34114,34130,34147,34164,34180,34197,34214,34230,34247,34264,34280,34297,34314,34330,34347,34364,34380,34397,34414,34430,34447,34464,34480,34497,34514,34530,34547,34564,34580,34597,34614,34630,34647,34664,34680,34697,34714,34730,34747,34764,34780,34797,34814,34830,34847,34864,34880,34897,34914,34930,34947,34964,34980,34997,35014,35030,35047,35064,35080,35097,35115,35131,35148,35164,35181,35197,35214,35230,35247,35264,35281,35297,35314,35331,35347,35364,35380,35397,35414,35430,35447,35464,35480,35497,35514,35530,35547,35564,35580,35597,35614,35630,35647,35664,35680,35697,35714,35730,35747,35764,35780,35797,35814,35830,35847,35864,35880,35897,35914,35930,35947,35964,35980,35997,36014,36030,36047,36064,36080,36097,36114,36130,36147,36164,36180,36197,36214,36230,36247,36264,36280,36297,36314,36330,36347,36364,36380,36397,36414,36430,36447,36464,36480,36497,36514,36530,36547,36564,36580,36597,36614,36630,36647,36664,36680,36697,36714,36730,36747,36764,36780,36797,36814,36830,36847,36864,36880,36897,36914,36931,36947,36964,36981,36997,37014,37030,37047,37064,37080,37097,37114,37130,37147,37164,37180,37197,37214,37230,37247,37264,37280,37297,37314,37330,37347,37364,37380,37397,37414,37430,37447,37464,37480,37497,37514,37530,37547,37564,37580,37597,37614,37630,37647,37664,37680,37697,37714,37730,37747,37764,37780,37797,37814,37831,37847,37864,37881,37897,37914,37930,37947,37964,37981,37997,38014,38030,38047,38064,38080,38097,38114,38130,38147,38164,38180,38197,38214,38230,38247,38264,38280,38297,38314,38330,38347,38364,38380,38397,38414,38430,38447,38464,38480,38497,38514,38530,38547,38564,38580,38597,38614,38630,38647,38664,38680,38697,38714,38730,38747,38764,38780,38797,38814,38830,38847,38864,38880,38897,38914,38930,38947,38964,38980,38997,39014,39030,39047,39064,39080,39097,39114,39130,39147,39164,39180,39197,39214,39231,39247,39264,39281,39297,39314,39330,39347,39364,39380,39397,39414,39431,39447,39464,39480,39497,39514,39531,39547,39564,39580,39597,39614,39630,39647,39664,39680,39697,39714,39730,39747,39764,39780,39797,39814,39830,39847,39864,39880,39897,39914,39930,39947,39964,39980,39997,40014,40030,40047,40064,40080,40097,40114,40130,40147,40164,40180,40197,40214,40230,40247,40264,40280,40297,40314,40330,40347,40364,40380,40397,40414,40430,40447,40464,40480,40497,40513,40530,40547,40564,40580,40597,40614,40630,40648,40664,40680,40697,40714,40730,40747,40764,40780,40797,40814,40830,40847,40864,40880,40897,40914,40930,40947,40964,40980,40997,41014,41030,41047,41064,41080,41097,41113,41130,41147,41164,41180,41197,41214,41230,41247,41264,41280,41297,41314,41330,41347,41364,41380,41397,41414,41430,41447,41463,41480,41497,41513,41530,41547,41564,41580,41597,41614,41630,41647,41664,41680,41697,41714,41730,41747,41764,41780,41797,41814,41830,41847,41864,41880,41897,41914,41930,41947,41964,41980,41997,42014,42030,42047,42064,42080,42097,42114,42130,42147,42163,42180,42197,42213,42230,42247,42264,42280,42297,42314,42330,42347,42364,42380,42397,42413,42430,42447,42464,42480,42497,42514,42530,42547,42564,42580,42597,42614,42630,42647,42664,42680,42697,42714,42730,42747,42764,42780,42797,42814,42830,42847,42863,42881,42897,42914,42930,42947,42963,42980,42997,43013,43030,43047,43064,43080,43097,43114,43130,43147,43164,43180,43198,43214,43230,43247,43263,43280,43297,43314,43330,43347,43363,43380,43397,43414,43431,43447,43464,43480,43497,43513,43530,43547,43564,43580,43597,43614,43630,43647,43663,43680,43697,43714,43730,43747,43764,43780,43797,43814,43830,43847,43864,43881,43897,43913,43930,43947,43963,43980,43997,44013,44030,44047,44064,44080,44097,44113,44130,44147,44163,44180,44197,44214,44230,44247,44263,44280,44297,44314,44330,44347,44364,44380,44397,44414,44430,44447,44463,44480,44497,44513,44530,44547,44564,44580,44597,44614,44630,44647,44664,44680,44697,44714,44730,44747,44764,44781,44797,44813,44830,44847,44864,44880,44897,44914,44930,44947,44964,44980,44997,45014,45030,45047,45063,45080,45097,45113,45130,45147,45164,45180,45197,45214,45230,45247,45264,45280,45297,45313,45330,45347,45364,45380,45397,45413,45430,45447,45463,45480,45497,45513,45530,45547,45564,45580,45597,45614,45630,45647,45663,45680,45697,45713,45730,45747,45763,45780,45797,45813,45830,45847,45863,45880,45897,45913,45930,45947,45964,45980,45997,46013,46030,46047,46063,46080,46097,46114,46130,46147,46163,46180,46197,46214,46230,46247,46263,46280,46297,46313,46330,46347,46364,46380,46397,46413,46430,46447,46463,46480,46497,46514,46530,46547,46564,46580,46597,46613,46630,46647,46663,46680,46697,46713,46730,46747,46763,46780,46797,46814,46830,46847,46864,46880,46897,46913,46930,46947,46964,46980,46997,47014,47030,47047,47064,47080,47097,47113,47130,47147,47163,47180,47197,47213,47230,47247,47263,47280,47297,47313,47330,47347,47363,47380,47397,47413,47430,47447,47463,47480,47497,47514,47530,47547,47563,47580,47597,47613,47630,47647,47663,47680,47697,47714,47730,47747,47763,47780,47797,47813,47830,47847,47864,47880,47897,47913,47930,47947,47963,47980,47997,48013,48030,48047,48063,48080,48097,48113,48130,48147,48163,48180,48197,48213,48230,48247,48263,48280,48297,48314,48330,48347,48363,48380,48397,48413,48430,48447,48464,48480,48497,48513,48530,48547,48564,48580,48597,48614,48630,48647,48663,48680,48697,48713,48730,48747,48763,48780,48797,48813,48830,48847,48863,48880,48897,48913,48930,48947,48964,48980,48997,49013,49030,49047,49063,49080,49097,49113,49130,49147,49163,49180,49197,49213,49230,49247,49263,49281,49297,49313,49330,49347,49363,49380,49397,49413,49430,49447,49463,49480,49497,49513,49530,49547,49563,49580,49597,49613,49630,49647,49663,49680,49697,49713,49730,49747,49763,49780,49797,49813,49830,49847,49863,49880,49897,49913,49930,49947,49963,49980,49997,50013,50030,50047,50063,50080,50097,50113,50130,50147,50163,50180,50197,50213,50230,50247,50264,50280,50297,50313,50330,50347,50363,50380,50397,50413,50430,50447,50463,50480,50497,50513,50530,50547,50563,50580,50597,50613,50630,50647,50663,50680,50697,50713,50730,50747,50763,50780,50797,50813,50830,50847,50863,50880,50897,50913,50930,50947,50963,50980,50997,51013,51030,51047,51063,51080,51097,51113,51130,51147,51163,51180,51197,51213,51230,51247,51263,51280,51297,51313,51330,51347,51363,51380,51397,51413,51430,51447,51463,51480,51497,51513,51530,51547,51564,51580,51597,51614,51630,51647,51664,51680,51697,51713,51730,51747,51763,51780,51797,51814,51830,51847,51863,51880,51897,51913,51930,51947,51963,51980,51997,52013,52030,52047,52063,52080,52097,52113,52130,52147,52163,52180,52197,52213,52230,52247,52263,52280,52297,52313,52330,52346,52363,52380,52397,52413,52430,52447,52463,52480,52497,52513,52530,52547,52563,52580,52597,52613,52630,52647,52663,52680,52697,52713,52730,52747,52763,52780,52797,52813,52830,52847,52863,52881,52897,52913,52930,52947,52963,52980,52997,53013,53030,53047,53063,53080,53097,53114,53130,53147,53164,53180,53197,53213,53230,53247,53264,53280,53297,53313,53330,53347,53364,53380,53397,53413,53430,53447,53463,53480,53497,53514,53530,53547,53563,53580,53597,53613,53630,53647,53663,53680,53697,53714,53730,53747,53764,53780,53797,53814,53830,53847,53863,53880,53897,53913,53930,53947,53963,53980,53997,54013,54030,54046,54063,54080,54097,54113,54130,54147,54163,54180,54197,54213,54230,54247,54263,54280,54297,54313,54330,54347,54363,54380,54397,54414,54430,54447,54463,54480,54497,54515,54530,54547,54564,54580,54597,54613,54630,54647,54663,54680,54697,54713,54730,54747,54763,54780,54797,54813,54830,54847,54863,54880,54897,54913,54930,54947,54963,54980,54997,55013,55030,55046,55063,55080,55097,55113,55130,55147,55164,55180,55197,55214,55230,55247,55263,55280,55297,55313,55330,55347,55363,55380,55397,55413,55430,55447,55463,55480,55497,55513,55530,55547,55563,55580,55597,55613,55630,55647,55663,55680,55697,55713,55730,55747,55763,55780,55797,55813,55830,55847,55863,55880,55897,55913,55930,55947,55963,55980,55997,56013,56030,56047,56063,56080,56097,56113,56130,56147,56163,56180,56197,56213,56230,56247,56264,56280,56297,56313,56330,56347,56363,56380,56397,56413,56430,56447,56463,56480,56497,56513,56530,56547,56563,56580,56597,56613,56630,56647,56663,56680,56697,56713,56730,56747,56763,56780,56797,56813,56830,56847,56863,56880,56897,56913,56930,56947,56963,56980,56997,57013,57030,57047,57063,57080,57097,57113,57130,57147,57163,57180,57196,57213,57230,57247,57263,57280,57297,57313,57330,57347,57363,57380,57396,57413,57430,57447,57463,57480,57497,57513,57530,57547,57563,57580,57597,57613,57630,57647,57663,57680,57696,57713,57730,57746,57763,57780,57796,57813,57830,57846,57863,57880,57897,57913,57930,57946,57963,57980,57997,58013,58030,58047,58063,58080,58097,58113,58130,58147,58163,58180,58196,58213,58230,58247,58263,58280,58297,58313,58330,58347,58363,58380,58397,58413,58430,58447,58463,58480,58497,58514,58530,58547,58563,58580,58597,58613,58630,58647,58663,58680,58696,58713,58730,58746,58763,58780,58797,58813,58830,58846,58863,58880,58896,58913,58930,58947,58963,58980,58997,59013,59030,59046,59063,59080,59097,59113,59130,59146,59163,59180,59197,59213,59230,59247,59264,59280,59297,59313,59330,59346,59363,59380,59397,59413,59430,59446,59463,59480,59497,59513,59530,59547,59563,59580,59597,59613,59630,59646,59663,59680,59696,59713,59730,59747,59763,59780,59797,59813,59830,59847,59863,59880,59897,59913,59930,59947,59963,59980,59997,60013,60030,60046,60063,60080,60096,60113,60130,60147,60163,60180,60196,60213,60230,60247,60263,60280,60296,60313,60330,60347,60363,60380,60397,60413,60430,60446,60463,60480,60496,60513,60530,60546,60564,60580,60597,60613,60630,60647,60663,60680,60696,60713,60730,60747,60763,60780,60797,60813,60830,60846,60863,60880,60896,60913,60930,60947,60963,60980,60996,61013,61030,61046,61063,61080,61096,61113,61130,61146,61163,61180,61196,61213,61230,61246,61263,61280,61296,61313,61330,61346,61363,61380,61397,61413,61430,61446,61463,61480,61497,61513,61530,61546,61563,61580,61597,61613,61630,61647,61663,61680,61697,61713,61730,61747,61763,61780,61796,61813,61830,61847,61863,61880,61896,61913,61930,61946,61963,61980,61996,62013,62030,62046,62063,62080,62096,62113,62130,62146,62163,62180,62196,62213,62230,62246,62263,62280,62297,62313,62330,62346,62363,62380,62396,62413,62430,62446,62463,62480,62496,62513,62530,62546,62563,62580,62597,62613,62630,62646,62663,62680,62697,62713,62730,62746,62763,62780,62796,62813,62830,62846,62863,62880,62897,62913,62930,62946,62963,62980,62996,63013,63030,63046,63063,63080,63097,63113,63130,63146,63163,63180,63196,63213,63230,63246,63263,63280,63296,63313,63330,63347,63363,63380,63396,63413,63430,63446,63463,63480,63497,63513,63530,63546,63563,63580,63596,63613,63630,63647,63663,63680,63697,63713,63730,63747,63763,63780,63797,63813,63830,63846,63863,63880,63896,63913,63930,63946,63963,63980,63996,64013,64030,64047,64063,64080,64096,64113,64130,64146,64163,64180,64197,64213,64230,64247,64263,64280,64296,64313,64330,64346,64364,64380,64396,64413,64430,64447,64463,64480,64497,64513,64530,64546,64563,64580,64596,64613,64630,64646,64663,64680,64696,64713,64730,64746,64763,64780,64796,64813,64830,64846,64863,64880,64897,64913,64930,64946,64963,64980,64996,65013,65030,65046,65063,65080,65096,65113,65130,65147,65163,65180,65196,65213,65230,65247,65263,65280,65297,65313,65330,65347,65363,65380,65396,65413,65430,65446,65463,65480,65496,65513,65530,65546,65563,65580,65596,65613,65630,65646,65663,65680,65696,65713,65730,65746,65763,65780,65796,65813,65830,65847,65863,65880,65896,65913,65930,65946,65963,65980,65996,66013,66030,66046,66063,66080,66096,66113,66130,66146,66163,66180,66196,66213,66230,66246,66263,66280,66296,66313,66330,66346,66363,66380,66396,66413,66430,66446,66463,66480,66496,66513,66530,66546,66563,66580,66596,66613,66630,66646,66663,66680,66696,66713,66730,66746,66763,66780,66796,66813,66830,66847,66863,66880,66896,66913,66930,66946,66963,66980,66996,67013,67030,67046,67063,67080,67096,67113,67130,67146,67163,67180,67196,67213,67230,67247,67263,67280,67296,67313,67330,67346,67363,67380,67396,67413,67430,67446,67463,67480,67496,67513,67530,67546,67563,67580,67596,67613,67630,67646,67663,67680,67696,67713,67730,67746,67763,67780,67796,67813,67830,67846,67863,67880,67896,67913,67930,67946,67963,67980,67997,68013,68030,68046,68063,68080,68096,68113,68130,68146,68163,68180,68197,68213,68230,68246,68263,68280,68297,68313,68330,68347,68364,68380,68396,68413,68430,68446,68463,68480,68496,68513,68530,68546,68563,68580,68596,68613,68630,68646,68663,68680,68696,68713,68730,68747,68763,68780,68796,68813,68830,68846,68863,68880,68896,68913,68930,68946,68963,68980,68996,69013,69030,69046,69063,69080,69097,69113,69130,69146,69163,69180,69196,69213,69230,69246,69263,69280,69296,69313,69330,69346,69363,69380,69396,69413,69430,69446,69463,69480,69496,69513,69530,69547,69563,69580,69596,69613,69630,69646,69663,69680,69696,69713,69730,69746,69763,69780,69796,69813,69830,69846,69863,69880,69896,69913,69930,69946,69963,69980,69996,70013,70030,70046,70063,70080,70096,70113,70130,70146,70163,70180,70196,70213,70230,70246,70263,70280,70296,70313,70330,70346,70363,70380,70396,70413,70430,70446,70463,70480,70496,70513,70530,70546,70563,70580,70596,70613,70630,70646,70663,70680,70697,70713,70730,70746,70763,70780,70796,70813,70830,70846,70863,70880,70896,70913,70930,70946,70963,70980,70996,71013,71030,71046,71063,71080,71096,71113,71130,71146,71163,71180,71196,71213,71230,71246,71263,71280,71296,71313,71330,71346,71363,71380,71396,71413,71430,71446,71463,71480,71496,71513,71530,71546,71563,71580,71596,71613,71630,71646,71663,71680,71696,71713,71730,71746,71763,71780,71796,71813,71830,71846,71863,71880,71896,71913,71930,71946,71963,71980,71996,72013,72030,72046,72063,72080,72097,72113,72130,72146,72163,72180,72196,72213,72229,72246,72263,72280,72296,72313,72330,72346,72363,72380,72396,72413,72430,72446,72463,72480,72496,72513,72530,72546,72563,72579,72596,72613,72630,72646,72663,72679,72696,72713,72730,72746,72763,72780,72797,72813,72830,72846,72863,72880,72896,72913,72930,72946,72963,72979,72996,73013,73030,73046,73063,73080,73096,73113,73129,73146,73163,73180,73196,73213,73230,73246,73263,73280,73296,73313,73330,73346,73363,73380,73396,73413,73430,73447,73463,73480,73496,73513,73530,73546,73563,73580,73596,73613,73630,73646,73663,73679,73696,73713,73730,73746,73763,73780,73796,73813,73830,73846,73863,73879,73896,73913,73930,73946,73963,73980,73996,74013,74029,74046,74063,74079,74096,74113,74130,74146,74163,74180,74196,74213,74230,74246,74263,74280,74296,74313,74330,74346,74363,74379,74396,74413,74430,74446,74463,74480,74496,74513,74529,74546,74563,74580,74596,74613,74630,74647,74663,74680,74696,74713,74730,74746,74763,74780,74796,74813,74830,74846,74863,74880,74896,74913,74929,74946,74963,74980,74997,75013,75030,75046,75063,75080,75096,75113,75130,75146,75163,75180,75196,75213,75230,75246,75263,75280,75296,75313,75330,75346,75363,75380,75396,75413,75430,75446,75463,75480,75496,75513,75529,75546,75563,75579,75596,75613,75630,75646,75663,75679,75696,75713,75730,75746,75763,75779,75796,75813,75829,75846,75863,75879,75896,75913,75930,75946,75963,75979,75996,76013,76029,76046,76063,76079,76096,76113,76130,76146,76163,76179,76196,76213,76229,76246,76263,76280,76296,76313,76329,76346,76363,76379,76396,76413,76429,76446,76463,76479,76496,76513,76529,76546,76563,76579,76596,76613,76629,76646,76663,76679,76696,76713,76730,76746,76763,76780,76796,76813,76829,76846,76863,76879,76896,76913,76929,76946,76963,76979,76996,77013,77029,77046,77063,77079,77096,77113,77129,77146,77163,77180,77196,77213,77229,77246,77263,77279,77296,77313,77329,77346,77363,77379,77396,77413,77429,77446,77463,77480,77496,77513,77530,77546,77563,77580,77596,77613,77629,77646,77663,77680,77696,77713,77729,77746,77763,77779,77796,77813,77829,77846,77863,77880,77899,77913,77930,77946,77963,77980,77996,78013,78030,78046,78063,78080,78096,78113,78130,78146,78163,78180,78196,78213,78230,78246,78263,78279,78296,78313,78330,78346,78363,78379,78396,78413,78430,78446,78463,78480,78496,78513,78529,78546,78563,78580,78596,78613,78630,78646,78663,78680,78697,78713,78730,78746,78763,78780,78796,78813,78830,78846,78863,78880,78896,78913,78930,78946,78963,78980,78996,79013,79030,79046,79063,79080,79096,79113,79130,79146,79163,79180,79196,79213,79230,79246,79263,79280,79296,79313,79330,79346,79363,79380,79396,79413,79430,79446,79463,79480,79496,79513,79530,79546,79563,79580,79596,79613,79630,79646,79663,79680,79696,79713,79730,79747,79763,79780,79796,79813,79829,79846,79863,79880,79896,79913,79929,79946,79963,79980,79996,80013,80030,80046,80063,80080,80096,80113,80130,80146,80163,80180,80196,80213,80230,80246,80263,80280,80296,80313,80329,80346,80363,80379,80396,80413,80430,80446,80463,80480,80496,80513,80530,80546,80563,80579,80596,80613,80631],"hit":[null],"x":[-1.9404761904761905,-1.9404761904761905,-1.9404761904761905,-1.9404761904761905,-1.9404761904761905,-1.9404761904761905,-1.9404761904761905,-1.9404761904761905,-1.9404761904761905,-1.9404761904761905,-1.9404761904761905,-1.9404761904761905,-1.9404761904761905,-1.9404761904761905,-1.9404761904761905,-1.9404761904761905,-1.9404761904761905,-1.9404761904761905,-1.9404761904761905,-1.9404761904761905,-1.9404761904761905,-1.9404761904761905,-1.9404761904761905,-1.9404761904761905,-1.9404761904761905,-1.9404761904761905,-1.9404761904761905,-1.9404761904761905,-1.9404761904761905,-1.9404761904761905,-1.9404761904761905,-1.9404761904761905,-1.9404761904761905,-1.9404761904761905,-1.9404761904761905,-1.9404761904761905,-1.9404761904761905,-1.9404761904761905,-1.9404761904761905,-1.9404761904761905,-1.9404761904761905,-1.9404761904761905,-1.9404761904761905,-1.9404761904761905,-1.9404761904761905,-1.9404761904761905,-1.9404761904761905,-1.9404761904761905,-1.9404761904761905,-1.9404761904761905,-1.9404761904761905,-1.9404761904761905,-1.9404761904761905,-1.9404761904761905,-1.9404761904761905,-1.9404761904761905,-1.9404761904761905,-1.9404761904761905,-1.9404761904761905,-1.9404761904761905,-1.9404761904761905,-1.9404761904761905,-1.9404761904761905,-1.9404761904761905,0.05272108843537415,0.04591836734693878,0.0391156462585034,0.03571428571428571,0.03571428571428571,0.03571428571428571,0.03571428571428571,0.03571428571428571,0.03571428571428571,0.03571428571428571,0.03571428571428571,0.03571428571428571,0.03571428571428571,0.03571428571428571,0.03571428571428571,0.03571428571428571,0.03571428571428571,0.03571428571428571,0.03571428571428571,0.03571428571428571,0.03571428571428571,0.03571428571428571,0.03571428571428571,0.03571428571428571,0.03571428571428571,0.03571428571428571,0.03571428571428571,0.03571428571428571,0.03571428571428571,0.03571428571428571,0.03571428571428571,0.03571428571428571,0.03571428571428571,0.03571428571428571,0.03571428571428571,0.03571428571428571,0.03571428571428571,0.03571428571428571,0.03571428571428571,0.03571428571428571,0.03571428571428571,0.03571428571428571,0.03571428571428571,0.03571428571428571,0.03571428571428571,0.03571428571428571,0.03571428571428571,0.03571428571428571,0.03231292517006803,0.03231292517006803,0.02891156462585034,0.02891156462585034,0.02891156462585034,0.025510204081632654,0.025510204081632654,0.025510204081632654,0.022108843537414966,0.022108843537414966,0.022108843537414966,0.022108843537414966,0.01870748299319728,0.01870748299319728,0.01870748299319728,0.01870748299319728,0.01870748299319728,0.01870748299319728,0.01870748299319728,0.01870748299319728,0.015306122448979591,0.015306122448979591,0.015306122448979591,0.015306122448979591,0.015306122448979591,0.015306122448979591,0.015306122448979591,0.015306122448979591,0.015306122448979591,0.015306122448979591,0.015306122448979591,0.015306122448979591,0.015306122448979591,0.015306122448979591,0.015306122448979591,0.015306122448979591,0.015306122448979591,0.015306122448979591,0.015306122448979591,0.015306122448979591,0.015306122448979591,0.015306122448979591,0.015306122448979591,0.015306122448979591,0.015306122448979591,0.015306122448979591,0.015306122448979591,0.015306122448979591,0.015306122448979591,0.015306122448979591,0.015306122448979591,0.015306122448979591,0.015306122448979591,0.015306122448979591,0.015306122448979591,0.015306122448979591,0.015306122448979591,0.015306122448979591,0.015306122448979591,0.015306122448979591,0.015306122448979591,0.015306122448979591,0.015306122448979591,0.015306122448979591,0.015306122448979591,0.015306122448979591,0.015306122448979591,0.015306122448979591,0.015306122448979591,0.015306122448979591,0.015306122448979591,0.015306122448979591,0.015306122448979591,0.015306122448979591,0.015306122448979591,0.015306122448979591,0.015306122448979591,0.015306122448979591,0.015306122448979591,0.015306122448979591,0.015306122448979591,0.015306122448979591,0.015306122448979591,0.015306122448979591,0.015306122448979591,0.015306122448979591,0.015306122448979591,0.015306122448979591,0.015306122448979591,0.015306122448979591,0.015306122448979591,0.015306122448979591,0.015306122448979591,0.015306122448979591,0.015306122448979591,0.015306122448979591,0.015306122448979591,0.015306122448979591,0.015306122448979591,0.015306122448979591,0.015306122448979591,0.015306122448979591,0.015306122448979591,0.015306122448979591,0.015306122448979591,0.015306122448979591,0.015306122448979591,0.015306122448979591,0.015306122448979591,0.015306122448979591,0.015306122448979591,0.015306122448979591,0.015306122448979591,0.015306122448979591,0.015306122448979591,0.015306122448979591,0.015306122448979591,0.015306122448979591,0.015306122448979591,0.015306122448979591,0.015306122448979591,0.015306122448979591,0.015306122448979591,0.015306122448979591,0.015306122448979591,0.015306122448979591,0.015306122448979591,0.015306122448979591,0.015306122448979591,0.015306122448979591,0.015306122448979591,0.015306122448979591,0.015306122448979591,0.015306122448979591,0.015306122448979591,0.015306122448979591,0.015306122448979591,0.015306122448979591,0.015306122448979591,0.015306122448979591,0.015306122448979591,0.015306122448979591,0.015306122448979591,0.015306122448979591,0.015306122448979591,0.015306122448979591,0.015306122448979591,0.015306122448979591,0.015306122448979591,0.015306122448979591,0.015306122448979591,0.015306122448979591,0.015306122448979591,0.015306122448979591,0.015306122448979591,0.015306122448979591,0.015306122448979591,0.015306122448979591,0.015306122448979591,0.015306122448979591,0.015306122448979591,0.011904761904761904,0.008503401360544218,0.0017006802721088435,-0.00510204081632653,-0.011904761904761904,-0.01870748299319728,-0.025510204081632654,-0.03231292517006803,-0.0391156462585034,-0.04251700680272109,-0.04931972789115646,-0.05272108843537415,-0.05612244897959184,-0.05952380952380952,-0.05952380952380952,-0.05952380952380952,-0.05952380952380952,-0.05952380952380952,-0.05952380952380952,-0.05952380952380952,-0.05612244897959184,-0.05612244897959184,-0.05272108843537415,-0.04931972789115646,-0.04591836734693878,-0.04251700680272109,-0.0391156462585034,-0.03571428571428571,-0.03231292517006803,-0.03231292517006803,-0.02891156462585034,-0.02891156462585034,-0.025510204081632654,-0.025510204081632654,-0.022108843537414966,-0.022108843537414966,-0.01870748299319728,-0.01870748299319728,-0.015306122448979591,-0.011904761904761904,-0.008503401360544218,-0.0017006802721088435,0.0017006802721088435,0.008503401360544218,0.015306122448979591,0.022108843537414966,0.02891156462585034,0.0391156462585034,0.04931972789115646,0.05612244897959184,0.06292517006802721,0.0663265306122449,0.07312925170068027,0.07653061224489796,0.08333333333333333,0.08673469387755102,0.0935374149659864,0.09693877551020408,0.10374149659863946,0.10714285714285714,0.11394557823129252,0.12074829931972789,0.12414965986394558,0.12755102040816327,0.13095238095238096,0.13435374149659865,0.1377551020408163,0.141156462585034,0.14795918367346939,0.15136054421768708,0.15816326530612246,0.1649659863945578,0.1717687074829932,0.18197278911564627,0.1921768707482993,0.20238095238095238,0.21258503401360543,0.2261904761904762,0.23979591836734693,0.2534013605442177,0.26700680272108845,0.28061224489795916,0.29081632653061223,0.3078231292517007,0.32142857142857145,0.33503401360544216,0.3520408163265306,0.36904761904761907,0.3826530612244898,0.39625850340136054,0.4098639455782313,0.4200680272108844,0.4336734693877551,0.44387755102040816,0.4574829931972789,0.467687074829932,0.477891156462585,0.4880952380952381,0.49829931972789115,0.5051020408163265,0.5119047619047619,0.5221088435374149,0.5289115646258503,0.5391156462585034,0.5493197278911565,0.5595238095238095,0.5697278911564626,0.5799319727891157,0.5901360544217688,0.5969387755102041,0.6071428571428571,0.6173469387755102,0.6309523809523809,0.641156462585034,0.6513605442176871,0.6581632653061225,0.6649659863945578,0.6717687074829932,0.6785714285714286,0.685374149659864,0.6921768707482994,0.6955782312925171,0.6989795918367347,0.7023809523809523,0.70578231292517,0.7091836734693877,0.7125850340136054,0.7159863945578231,0.7193877551020408,0.7261904761904762,0.7295918367346939,0.7329931972789115,0.7363945578231292,0.7431972789115646,0.7465986394557823,0.75,0.7534013605442177,0.7568027210884354,0.7602040816326531,0.7636054421768708,0.7636054421768708,0.7670068027210885,0.7670068027210885,0.7704081632653061,0.7704081632653061,0.7704081632653061,0.7704081632653061,0.7704081632653061,0.7704081632653061,0.7738095238095238,0.7738095238095238,0.7738095238095238,0.7772108843537415,0.7772108843537415,0.7806122448979592,0.7806122448979592,0.7840136054421769,0.7840136054421769,0.7874149659863946,0.7908163265306123,0.7908163265306123,0.79421768707483,0.7976190476190477,0.7976190476190477,0.8010204081632653,0.8010204081632653,0.8044217687074829,0.8078231292517006,0.8078231292517006,0.8112244897959183,0.8112244897959183,0.814625850340136,0.814625850340136,0.8180272108843537,0.8180272108843537,0.8180272108843537,0.8180272108843537,0.8180272108843537,0.8180272108843537,0.8180272108843537,0.8180272108843537,0.8180272108843537,0.8112244897959183,0.7976190476190477,0.7806122448979592,0.75,0.7125850340136054,0.6649659863945578,0.6173469387755102,0.5663265306122449,0.5153061224489796,0.4846938775510204,0.467687074829932,0.45408163265306123,0.44727891156462585,0.44047619047619047,0.44047619047619047,0.44047619047619047,0.44047619047619047,0.44047619047619047,0.44047619047619047,0.44047619047619047,0.44387755102040816,0.44727891156462585,0.45068027210884354,0.45408163265306123,0.4574829931972789,0.4574829931972789,0.4574829931972789,0.4574829931972789,0.4574829931972789,0.4608843537414966,0.467687074829932,0.4710884353741497,0.4812925170068027,0.49489795918367346,0.5085034013605442,0.5255102040816326,0.532312925170068,0.5391156462585034,0.5459183673469388,0.5493197278911565,0.5493197278911565,0.5527210884353742,0.5561224489795918,0.5561224489795918,0.5561224489795918,0.5561224489795918,0.5561224489795918,0.5561224489795918,0.5561224489795918,0.5561224489795918,0.5561224489795918,0.5561224489795918,0.5561224489795918,0.5561224489795918,0.5561224489795918,0.5561224489795918,0.5561224489795918,0.5561224489795918,0.5561224489795918,0.5561224489795918,0.5561224489795918,0.5561224489795918,0.5561224489795918,0.5561224489795918,0.5561224489795918,0.5561224489795918,0.5561224489795918,0.5561224489795918,0.5561224489795918,0.5561224489795918,0.5561224489795918,0.5561224489795918,0.5561224489795918,0.5561224489795918,0.5561224489795918,0.5561224489795918,0.5561224489795918,0.5561224489795918,0.5561224489795918,0.5561224489795918,0.5561224489795918,0.5561224489795918,0.5561224489795918,0.5561224489795918,0.5561224489795918,0.5561224489795918,0.5561224489795918,0.5561224489795918,0.5561224489795918,0.5561224489795918,0.5561224489795918,0.5561224489795918,0.5561224489795918,0.5561224489795918,0.5561224489795918,0.5561224489795918,0.5561224489795918,0.5561224489795918,0.5561224489795918,0.5561224489795918,0.5561224489795918,0.5561224489795918,0.5561224489795918,0.5561224489795918,0.5561224489795918,0.5561224489795918,0.5561224489795918,0.5561224489795918,0.5561224489795918,0.5561224489795918,0.5561224489795918,0.5561224489795918,0.5561224489795918,0.5561224489795918,0.5561224489795918,0.5561224489795918,0.5561224489795918,0.5561224489795918,0.5561224489795918,0.5561224489795918,0.5561224489795918,0.5595238095238095,0.5697278911564626,0.5833333333333334,0.5969387755102041,0.6139455782312925,0.6377551020408163,0.6649659863945578,0.7023809523809523,0.7397959183673469,0.7738095238095238,0.8112244897959183,0.8384353741496599,0.8656462585034014,0.8928571428571429,0.9098639455782312,0.923469387755102,0.9268707482993197,0.9302721088435374,0.9302721088435374,0.9302721088435374,0.9302721088435374,0.9302721088435374,0.9302721088435374,0.9302721088435374,0.9302721088435374,0.9302721088435374,0.9302721088435374,0.9302721088435374,0.9302721088435374,0.9302721088435374,0.9302721088435374,0.9302721088435374,0.9302721088435374,0.9302721088435374,0.9302721088435374,0.9302721088435374,0.9302721088435374,0.9302721088435374,0.9302721088435374,0.9302721088435374,0.9302721088435374,0.9302721088435374,0.9302721088435374,0.9302721088435374,0.9302721088435374,0.9302721088435374,0.9302721088435374,0.9302721088435374,0.9302721088435374,0.9302721088435374,0.9302721088435374,0.9302721088435374,0.9302721088435374,0.9302721088435374,0.9302721088435374,0.9302721088435374,0.9302721088435374,0.9302721088435374,0.9302721088435374,0.9302721088435374,0.9302721088435374,0.9302721088435374,0.9302721088435374,0.9302721088435374,0.9302721088435374,0.9302721088435374,0.9302721088435374,0.9302721088435374,0.9302721088435374,0.9302721088435374,0.9302721088435374,0.9302721088435374,0.9302721088435374,0.9302721088435374,0.9302721088435374,0.9302721088435374,0.9302721088435374,0.9302721088435374,0.9302721088435374,0.9302721088435374,0.9302721088435374,0.9302721088435374,0.9302721088435374,0.9302721088435374,0.9302721088435374,0.9302721088435374,0.9302721088435374,0.9302721088435374,0.9302721088435374,0.9302721088435374,0.9302721088435374,0.9302721088435374,0.9302721088435374,0.9302721088435374,0.9302721088435374,0.9302721088435374,0.9302721088435374,0.9302721088435374,0.9302721088435374,0.9302721088435374,0.9302721088435374,0.9302721088435374,0.9302721088435374,0.9302721088435374,0.9302721088435374,0.9302721088435374,0.9302721088435374,0.9302721088435374,0.9302721088435374,0.9302721088435374,0.9302721088435374,0.9302721088435374,0.9302721088435374,0.9302721088435374,0.9302721088435374,0.9302721088435374,0.9302721088435374,0.9302721088435374,0.9302721088435374,0.9302721088435374,0.9302721088435374,0.9302721088435374,0.9302721088435374,0.9302721088435374,0.9302721088435374,0.9302721088435374,0.9302721088435374,0.9302721088435374,0.9302721088435374,0.9302721088435374,0.9302721088435374,0.9302721088435374,0.9302721088435374,0.9302721088435374,0.9302721088435374,0.9302721088435374,0.9302721088435374,0.9302721088435374,0.9302721088435374,0.9302721088435374,0.9302721088435374,0.9302721088435374,0.9302721088435374,0.9302721088435374,0.9302721088435374,0.9302721088435374,0.9302721088435374,0.9302721088435374,0.9302721088435374,0.9302721088435374,0.9302721088435374,0.9302721088435374,0.9302721088435374,0.9302721088435374,0.9302721088435374,0.9302721088435374,0.9302721088435374,0.9370748299319728,0.9404761904761905,0.9472789115646258,0.9472789115646258,0.9506802721088435,0.9506802721088435,0.9506802721088435,0.9506802721088435,0.9506802721088435,0.9506802721088435,0.9506802721088435,0.9506802721088435,0.9540816326530612,0.9710884353741497,1.0119047619047619,1.0799319727891157,1.16156462585034,1.2704081632653061,1.379251700680272,1.5085034013605443,1.6105442176870748,1.695578231292517,1.7772108843537415,1.8282312925170068,1.8656462585034013,1.8894557823129252,1.8962585034013606,1.8962585034013606,1.8962585034013606,1.8962585034013606,1.8962585034013606,1.8962585034013606,1.8962585034013606,1.8962585034013606,1.8962585034013606,1.8928571428571428,1.8860544217687074,1.8826530612244898,1.879251700680272,1.879251700680272,1.879251700680272,1.8758503401360545,1.8724489795918366,1.8622448979591837,1.8520408163265305,1.8418367346938775,1.8282312925170068,1.814625850340136,1.804421768707483,1.7942176870748299,1.784013605442177,1.7704081632653061,1.75,1.7261904761904763,1.7057823129251701,1.685374149659864,1.66156462585034,1.6411564625850341,1.6275510204081634,1.6173469387755102,1.6139455782312926,1.6105442176870748,1.6105442176870748,1.6105442176870748,1.6105442176870748,1.6105442176870748,1.6105442176870748,1.6105442176870748,1.6105442176870748,1.6139455782312926,1.6173469387755102,1.6241496598639455,1.6241496598639455,1.6275510204081634,1.6275510204081634,1.6275510204081634,1.6275510204081634,1.6275510204081634,1.6275510204081634,1.6275510204081634,1.6275510204081634,1.6241496598639455,1.6241496598639455,1.6241496598639455,1.620748299319728,1.620748299319728,1.6173469387755102,1.6173469387755102,1.6173469387755102,1.6173469387755102,1.6173469387755102,1.6173469387755102,1.6173469387755102,1.6173469387755102,1.6173469387755102,1.6173469387755102,1.6173469387755102,1.6173469387755102,1.6173469387755102,1.6173469387755102,1.6173469387755102,1.6173469387755102,1.6173469387755102,1.6173469387755102,1.6173469387755102,1.6173469387755102,1.6173469387755102,1.6173469387755102,1.6173469387755102,1.6173469387755102,1.6173469387755102,1.6173469387755102,1.6173469387755102,1.6173469387755102,1.620748299319728,1.6241496598639455,1.6241496598639455,1.6241496598639455,1.6241496598639455,1.6241496598639455,1.6241496598639455,1.6241496598639455,1.6241496598639455,1.6241496598639455,1.620748299319728,1.6105442176870748,1.6037414965986394,1.5935374149659864,1.586734693877551,1.5833333333333333,1.5765306122448979,1.5731292517006803,1.5731292517006803,1.5731292517006803,1.5731292517006803,1.5731292517006803,1.5731292517006803,1.5731292517006803,1.5731292517006803,1.5731292517006803,1.5731292517006803,1.5697278911564625,1.5697278911564625,1.5697278911564625,1.5697278911564625,1.5697278911564625,1.5697278911564625,1.5697278911564625,1.566326530612245,1.566326530612245,1.566326530612245,1.566326530612245,1.566326530612245,1.566326530612245,1.566326530612245,1.566326530612245,1.5629251700680271,1.5629251700680271,1.5595238095238095,1.5595238095238095,1.5561224489795917,1.5561224489795917,1.5561224489795917,1.5561224489795917,1.5561224489795917,1.5561224489795917,1.5561224489795917,1.5561224489795917,1.5561224489795917,1.5561224489795917,1.5561224489795917,1.5561224489795917,1.5561224489795917,1.5561224489795917,1.5561224489795917,1.5561224489795917,1.5561224489795917,1.5561224489795917,1.5561224489795917,1.5561224489795917,1.5561224489795917,1.5561224489795917,1.5561224489795917,1.5561224489795917,1.5561224489795917,1.5561224489795917,1.5561224489795917,1.5561224489795917,1.5561224489795917,1.5561224489795917,1.5561224489795917,1.5561224489795917,1.5561224489795917,1.5561224489795917,1.5561224489795917,1.5561224489795917,1.5561224489795917,1.5561224489795917,1.5561224489795917,1.5561224489795917,1.5561224489795917,1.5561224489795917,1.5561224489795917,1.5561224489795917,1.5561224489795917,1.5561224489795917,1.5561224489795917,1.5561224489795917,1.5561224489795917,1.5561224489795917,1.5561224489795917,1.5561224489795917,1.5561224489795917,1.5561224489795917,1.5561224489795917,1.5561224489795917,1.5561224489795917,1.5561224489795917,1.5561224489795917,1.5561224489795917,1.5561224489795917,1.5527210884353742,1.5527210884353742,1.5527210884353742,1.5527210884353742,1.5493197278911566,1.5493197278911566,1.5493197278911566,1.5459183673469388,1.5459183673469388,1.5425170068027212,1.5391156462585034,1.532312925170068,1.522108843537415,1.5085034013605443,1.4948979591836735,1.477891156462585,1.4506802721088434,1.413265306122449,1.3724489795918366,1.3282312925170068,1.2772108843537415,1.2295918367346939,1.185374149659864,1.1275510204081634,1.0833333333333333,1.0391156462585034,0.9948979591836735,0.967687074829932,0.9404761904761905,0.9302721088435374,0.9200680272108843,0.9200680272108843,0.9200680272108843,0.9200680272108843,0.9200680272108843,0.9200680272108843,0.9200680272108843,0.9200680272108843,0.9200680272108843,0.9200680272108843,0.9200680272108843,0.9200680272108843,0.9200680272108843,0.9200680272108843,0.9200680272108843,0.9200680272108843,0.9200680272108843,0.9200680272108843,0.9200680272108843,0.9200680272108843,0.9200680272108843,0.9200680272108843,0.9200680272108843,0.9200680272108843,0.9200680272108843,0.9200680272108843,0.9200680272108843,0.9200680272108843,0.9200680272108843,0.9200680272108843,0.9200680272108843,0.9200680272108843,0.9200680272108843,0.9200680272108843,0.9200680272108843,0.9200680272108843,0.9200680272108843,0.9200680272108843,0.9200680272108843,0.9200680272108843,0.9200680272108843,0.9200680272108843,0.9200680272108843,0.9200680272108843,0.9200680272108843,0.9200680272108843,0.9200680272108843,0.9200680272108843,0.9200680272108843,0.9200680272108843,0.9200680272108843,0.9200680272108843,0.9200680272108843,0.9200680272108843,0.9200680272108843,0.9200680272108843,0.9200680272108843,0.9200680272108843,0.9200680272108843,0.9200680272108843,0.9200680272108843,0.9200680272108843,0.9200680272108843,0.9200680272108843,0.9200680272108843,0.9200680272108843,0.9200680272108843,0.9200680272108843,0.9200680272108843,0.9200680272108843,0.9200680272108843,0.9200680272108843,0.9200680272108843,0.9200680272108843,0.9200680272108843,0.9200680272108843,0.9200680272108843,0.9200680272108843,0.9200680272108843,0.9200680272108843,0.9200680272108843,0.9200680272108843,0.9200680272108843,0.9200680272108843,0.9200680272108843,0.9200680272108843,0.9200680272108843,0.9200680272108843,0.9200680272108843,0.9200680272108843,0.9200680272108843,0.9200680272108843,0.9200680272108843,0.9200680272108843,0.9200680272108843,0.9200680272108843,0.9200680272108843,0.9200680272108843,0.9200680272108843,0.9200680272108843,0.9200680272108843,0.9200680272108843,0.9200680272108843,0.9200680272108843,0.9200680272108843,0.9200680272108843,0.9200680272108843,0.9200680272108843,0.9200680272108843,0.9200680272108843,0.9200680272108843,0.9200680272108843,0.9200680272108843,0.9200680272108843,0.9200680272108843,0.9200680272108843,0.9200680272108843,0.9200680272108843,0.9200680272108843,0.9200680272108843,0.9200680272108843,0.9200680272108843,0.9200680272108843,0.9200680272108843,0.9200680272108843,0.9200680272108843,0.9200680272108843,0.9200680272108843,0.9200680272108843,0.9200680272108843,0.9200680272108843,0.9200680272108843,0.9200680272108843,0.9200680272108843,0.9200680272108843,0.9200680272108843,0.9200680272108843,0.9200680272108843,0.9200680272108843,0.9200680272108843,0.9200680272108843,0.9200680272108843,0.9200680272108843,0.9200680272108843,0.9200680272108843,0.9200680272108843,0.9200680272108843,0.9200680272108843,0.9200680272108843,0.9200680272108843,0.9200680272108843,0.9200680272108843,0.9200680272108843,0.9200680272108843,0.9200680272108843,0.9200680272108843,0.9200680272108843,0.9200680272108843,0.9200680272108843,0.9200680272108843,0.9200680272108843,0.9200680272108843,0.9200680272108843,0.9200680272108843,0.9200680272108843,0.9200680272108843,0.9200680272108843,0.9200680272108843,0.9200680272108843,0.9200680272108843,0.9200680272108843,0.9200680272108843,0.9200680272108843,0.9200680272108843,0.9200680272108843,0.9200680272108843,0.9200680272108843,0.9200680272108843,0.9200680272108843,0.9200680272108843,0.9200680272108843,0.9200680272108843,0.9200680272108843,0.9200680272108843,0.9200680272108843,0.9200680272108843,0.9200680272108843,0.9200680272108843,0.9200680272108843,0.9200680272108843,0.9200680272108843,0.9200680272108843,0.9200680272108843,0.9200680272108843,0.9200680272108843,0.9200680272108843,0.9200680272108843,0.9200680272108843,0.9200680272108843,0.9200680272108843,0.9200680272108843,0.9200680272108843,0.9200680272108843,0.9200680272108843,0.9200680272108843,0.9200680272108843,0.9200680272108843,0.9200680272108843,0.9200680272108843,0.9200680272108843,0.9200680272108843,0.9200680272108843,0.9200680272108843,0.9200680272108843,0.9200680272108843,0.9200680272108843,0.9200680272108843,0.9200680272108843,0.9200680272108843,0.9200680272108843,0.9200680272108843,0.9200680272108843,0.9200680272108843,0.9200680272108843,0.9200680272108843,0.9200680272108843,0.9200680272108843,0.9200680272108843,0.9200680272108843,0.9200680272108843,0.9200680272108843,0.9200680272108843,0.9200680272108843,0.9200680272108843,0.9200680272108843,0.9200680272108843,0.9200680272108843,0.9200680272108843,0.9200680272108843,0.9200680272108843,0.9200680272108843,0.9200680272108843,0.9200680272108843,0.9200680272108843,0.9200680272108843,0.9200680272108843,0.9200680272108843,0.9200680272108843,0.9200680272108843,0.9200680272108843,0.9200680272108843,0.9200680272108843,0.9200680272108843,0.9200680272108843,0.9200680272108843,0.9200680272108843,0.9200680272108843,0.9200680272108843,0.9200680272108843,0.9200680272108843,0.9200680272108843,0.9200680272108843,0.9200680272108843,0.9200680272108843,0.9200680272108843,0.9200680272108843,0.9200680272108843,0.9200680272108843,0.9200680272108843,0.9200680272108843,0.9200680272108843,0.9200680272108843,0.9200680272108843,0.9200680272108843,0.9200680272108843,0.9200680272108843,0.9200680272108843,0.9200680272108843,0.9200680272108843,0.9200680272108843,0.9200680272108843,0.9200680272108843,0.9200680272108843,0.9200680272108843,0.9200680272108843,0.9200680272108843,0.9200680272108843,0.9200680272108843,0.9200680272108843,0.9200680272108843,0.9200680272108843,0.9200680272108843,0.9200680272108843,0.9200680272108843,0.9200680272108843,0.9200680272108843,0.9200680272108843,0.9200680272108843,0.9200680272108843,0.9200680272108843,0.9200680272108843,0.9200680272108843,0.9200680272108843,0.9200680272108843,0.9200680272108843,0.9200680272108843,0.9200680272108843,0.9200680272108843,0.9200680272108843,0.9200680272108843,0.9166666666666666,0.9166666666666666,0.9166666666666666,0.9166666666666666,0.9166666666666666,0.9166666666666666,0.9132653061224489,0.9132653061224489,0.9132653061224489,0.9132653061224489,0.9132653061224489,0.9132653061224489,0.9132653061224489,0.9132653061224489,0.9098639455782312,0.9098639455782312,0.9098639455782312,0.9098639455782312,0.9098639455782312,0.9098639455782312,0.9098639455782312,0.9098639455782312,0.9098639455782312,0.9098639455782312,0.9098639455782312,0.9098639455782312,0.9064625850340136,0.9064625850340136,0.9064625850340136,0.9064625850340136,0.9064625850340136,0.9064625850340136,0.9064625850340136,0.9064625850340136,0.9064625850340136,0.9064625850340136,0.9064625850340136,0.9064625850340136,0.9064625850340136,0.9064625850340136,0.9064625850340136,0.9064625850340136,0.9064625850340136,0.9064625850340136,0.9064625850340136,0.9064625850340136,0.9064625850340136,0.9064625850340136,0.9064625850340136,0.9064625850340136,0.9064625850340136,0.9064625850340136,0.9064625850340136,0.9064625850340136,0.9064625850340136,0.9064625850340136,0.9064625850340136,0.9064625850340136,0.9064625850340136,0.9064625850340136,0.9064625850340136,0.9064625850340136,0.9064625850340136,0.9064625850340136,0.9064625850340136,0.9064625850340136,0.9064625850340136,0.9064625850340136,0.9064625850340136,0.9064625850340136,0.9064625850340136,0.9064625850340136,0.9064625850340136,0.9064625850340136,0.9064625850340136,0.9064625850340136,0.9064625850340136,0.9064625850340136,0.9064625850340136,0.9064625850340136,0.9064625850340136,0.9064625850340136,0.9030612244897959,0.9030612244897959,0.9030612244897959,0.9030612244897959,0.9030612244897959,0.9030612244897959,0.9030612244897959,0.9030612244897959,0.9030612244897959,0.9030612244897959,0.8996598639455783,0.8996598639455783,0.8996598639455783,0.8996598639455783,0.8996598639455783,0.8996598639455783,0.8996598639455783,0.8996598639455783,0.8996598639455783,0.8996598639455783,0.8996598639455783,0.8996598639455783,0.8996598639455783,0.8996598639455783,0.8996598639455783,0.8996598639455783,0.8996598639455783,0.8996598639455783,0.8996598639455783,0.8996598639455783,0.8996598639455783,0.8996598639455783,0.8996598639455783,0.8996598639455783,0.8996598639455783,0.8996598639455783,0.8996598639455783,0.8996598639455783,0.8996598639455783,0.8996598639455783,0.8996598639455783,0.8996598639455783,0.8996598639455783,0.8996598639455783,0.8996598639455783,0.8996598639455783,0.8996598639455783,0.8996598639455783,0.8996598639455783,0.8996598639455783,0.8996598639455783,0.8996598639455783,0.8996598639455783,0.8996598639455783,0.8996598639455783,0.8996598639455783,0.8996598639455783,0.8996598639455783,0.8996598639455783,0.8996598639455783,0.8996598639455783,0.8996598639455783,0.8996598639455783,0.8996598639455783,0.8996598639455783,0.8996598639455783,0.8962585034013606,0.8962585034013606,0.8962585034013606,0.8962585034013606,0.8962585034013606,0.8962585034013606,0.8962585034013606,0.8962585034013606,0.8962585034013606,0.8962585034013606,0.8962585034013606,0.8962585034013606,0.8962585034013606,0.8928571428571429,0.8928571428571429,0.8928571428571429,0.8928571428571429,0.8928571428571429,0.8928571428571429,0.8928571428571429,0.8928571428571429,0.8928571428571429,0.8928571428571429,0.8928571428571429,0.8928571428571429,0.8928571428571429,0.8928571428571429,0.8928571428571429,0.8928571428571429,0.8928571428571429,0.8928571428571429,0.8928571428571429,0.8928571428571429,0.8928571428571429,0.8928571428571429,0.8928571428571429,0.8928571428571429,0.8928571428571429,0.8928571428571429,0.8928571428571429,0.8928571428571429,0.8928571428571429,0.8928571428571429,0.8928571428571429,0.8928571428571429,0.8928571428571429,0.8928571428571429,0.8928571428571429,0.8928571428571429,0.8928571428571429,0.8928571428571429,0.8928571428571429,0.8928571428571429,0.8928571428571429,0.8928571428571429,0.8928571428571429,0.8928571428571429,0.8928571428571429,0.8928571428571429,0.8928571428571429,0.8928571428571429,0.8928571428571429,0.8928571428571429,0.8928571428571429,0.8928571428571429,0.8928571428571429,0.8928571428571429,0.8928571428571429,0.8928571428571429,0.8928571428571429,0.8928571428571429,0.8928571428571429,0.8928571428571429,0.8928571428571429,0.8928571428571429,0.8928571428571429,0.8928571428571429,0.8928571428571429,0.8928571428571429,0.8928571428571429,0.8928571428571429,0.8928571428571429,0.8928571428571429,0.8928571428571429,0.8928571428571429,0.8928571428571429,0.8928571428571429,0.8928571428571429,0.8928571428571429,0.8928571428571429,0.8928571428571429,0.8928571428571429,0.8928571428571429,0.8928571428571429,0.8928571428571429,0.8928571428571429,0.8928571428571429,0.8928571428571429,0.8928571428571429,0.8928571428571429,0.8928571428571429,0.8928571428571429,0.8928571428571429,0.8928571428571429,0.8928571428571429,0.8928571428571429,0.8928571428571429,0.8928571428571429,0.8928571428571429,0.8928571428571429,0.8928571428571429,0.8928571428571429,0.8928571428571429,0.8894557823129252,0.8894557823129252,0.8860544217687075,0.8826530612244898,0.8724489795918368,0.8656462585034014,0.8554421768707483,0.8418367346938775,0.8316326530612245,0.8214285714285714,0.8078231292517006,0.7908163265306123,0.7772108843537415,0.7602040816326531,0.75,0.7431972789115646,0.7363945578231292,0.7329931972789115,0.7329931972789115,0.7295918367346939,0.7261904761904762,0.7261904761904762,0.7261904761904762,0.7227891156462585,0.7227891156462585,0.7193877551020408,0.7193877551020408,0.7159863945578231,0.7125850340136054,0.7091836734693877,0.70578231292517,0.6989795918367347,0.6955782312925171,0.6887755102040817,0.685374149659864,0.6819727891156463,0.6819727891156463,0.6785714285714286,0.6751700680272109,0.6751700680272109,0.6751700680272109,0.6751700680272109,0.6751700680272109,0.6751700680272109,0.6751700680272109,0.6751700680272109,0.6751700680272109,0.6751700680272109,0.6751700680272109,0.6751700680272109,0.6751700680272109,0.6751700680272109,0.6751700680272109,0.6751700680272109,0.6751700680272109,0.6751700680272109,0.6751700680272109,0.6751700680272109,0.6751700680272109,0.6751700680272109,0.6751700680272109,0.6751700680272109,0.6751700680272109,0.6751700680272109,0.6751700680272109,0.6751700680272109,0.6751700680272109,0.6751700680272109,0.6751700680272109,0.6751700680272109,0.6751700680272109,0.6751700680272109,0.6751700680272109,0.6751700680272109,0.6751700680272109,0.6751700680272109,0.6751700680272109,0.6751700680272109,0.6751700680272109,0.6751700680272109,0.6751700680272109,0.6751700680272109,0.6751700680272109,0.6751700680272109,0.6751700680272109,0.6751700680272109,0.6751700680272109,0.6751700680272109,0.6785714285714286,0.6819727891156463,0.685374149659864,0.6887755102040817,0.6921768707482994,0.6921768707482994,0.6921768707482994,0.6955782312925171,0.6989795918367347,0.6989795918367347,0.6989795918367347,0.6989795918367347,0.6989795918367347,0.6989795918367347,0.6989795918367347,0.6989795918367347,0.6989795918367347,0.6989795918367347,0.6989795918367347,0.6989795918367347,0.6989795918367347,0.6989795918367347,0.6989795918367347,0.6989795918367347,0.6989795918367347,0.6989795918367347,0.6989795918367347,0.6989795918367347,0.6989795918367347,0.6989795918367347,0.6989795918367347,0.6989795918367347,0.6989795918367347,0.6989795918367347,0.6989795918367347,0.6989795918367347,0.6989795918367347,0.6989795918367347,0.6989795918367347,0.6989795918367347,0.6989795918367347,0.6989795918367347,0.6989795918367347,0.6989795918367347,0.6989795918367347,0.6989795918367347,0.6989795918367347,0.6989795918367347,0.6989795918367347,0.6989795918367347,0.6989795918367347,0.6989795918367347,0.6989795918367347,0.6989795918367347,0.6989795918367347,0.6989795918367347,0.6989795918367347,0.6989795918367347,0.6989795918367347,0.6989795918367347,0.6989795918367347,0.6989795918367347,0.6989795918367347,0.6989795918367347,0.6989795918367347,0.6989795918367347,0.6989795918367347,0.6989795918367347,0.6989795918367347,0.6989795918367347,0.6989795918367347,0.6989795918367347,0.6989795918367347,0.6989795918367347,0.6989795918367347,0.6989795918367347,0.6989795918367347,0.6989795918367347,0.6989795918367347,0.6989795918367347,0.6989795918367347,0.6989795918367347,0.6989795918367347,0.6989795918367347,0.6989795918367347,0.6989795918367347,0.6989795918367347,0.6989795918367347,0.6989795918367347,0.6989795918367347,0.6989795918367347,0.6989795918367347,0.6989795918367347,0.6989795918367347,0.6989795918367347,0.6989795918367347,0.6989795918367347,0.6989795918367347,0.6989795918367347,0.6989795918367347,0.6989795918367347,0.6989795918367347,0.6989795918367347,0.6989795918367347,0.6989795918367347,0.6989795918367347,0.6989795918367347,0.6989795918367347,0.6989795918367347,0.6989795918367347,0.6989795918367347,0.6989795918367347,0.6989795918367347,0.6989795918367347,0.6989795918367347,0.6989795918367347,0.6989795918367347,0.6989795918367347,0.6989795918367347,0.6989795918367347,0.6989795918367347,0.6989795918367347,0.6989795918367347,0.6989795918367347,0.6989795918367347,0.6989795918367347,0.6989795918367347,0.6989795918367347,0.6989795918367347,0.6989795918367347,0.6989795918367347,0.6989795918367347,0.6989795918367347,0.6989795918367347,0.6989795918367347,0.6989795918367347,0.6989795918367347,0.6989795918367347,0.6989795918367347,0.6989795918367347,0.6989795918367347,0.6989795918367347,0.6989795918367347,0.6989795918367347,0.6989795918367347,0.6989795918367347,0.6989795918367347,0.6989795918367347,0.6989795918367347,0.6989795918367347,0.6989795918367347,0.6989795918367347,0.6989795918367347,0.6989795918367347,0.6989795918367347,0.6989795918367347,0.6989795918367347,0.6989795918367347,0.6989795918367347,0.6989795918367347,0.6989795918367347,0.6989795918367347,0.6989795918367347,0.6989795918367347,0.6989795918367347,0.6989795918367347,0.6989795918367347,0.6989795918367347,0.6989795918367347,0.6989795918367347,0.6989795918367347,0.6989795918367347,0.6989795918367347,0.6989795918367347,0.6989795918367347,0.6989795918367347,0.6989795918367347,0.6989795918367347,0.6989795918367347,0.6989795918367347,0.6989795918367347,0.6989795918367347,0.6989795918367347,0.6989795918367347,0.6989795918367347,0.6989795918367347,0.6989795918367347,0.6989795918367347,0.6989795918367347,0.6989795918367347,0.6989795918367347,0.6989795918367347,0.6989795918367347,0.6989795918367347,0.6989795918367347,0.6989795918367347,0.6989795918367347,0.6989795918367347,0.6989795918367347,0.6989795918367347,0.6989795918367347,0.6989795918367347,0.6989795918367347,0.6989795918367347,0.6989795918367347,0.6989795918367347,0.6989795918367347,0.6989795918367347,0.6989795918367347,0.6989795918367347,0.6989795918367347,0.6989795918367347,0.6989795918367347,0.6989795918367347,0.6989795918367347,0.6989795918367347,0.6989795918367347,0.6989795918367347,0.6989795918367347,0.6989795918367347,0.6989795918367347,0.6989795918367347,0.6989795918367347,0.6989795918367347,0.6989795918367347,0.6989795918367347,0.6989795918367347,0.6989795918367347,0.6989795918367347,0.6989795918367347,0.6989795918367347,0.6989795918367347,0.6989795918367347,0.6989795918367347,0.6989795918367347,0.6989795918367347,0.6989795918367347,0.6989795918367347,0.6989795918367347,0.6989795918367347,0.6989795918367347,0.6989795918367347,0.6989795918367347,0.6989795918367347,0.6989795918367347,0.6989795918367347,0.6989795918367347,0.6989795918367347,0.6989795918367347,0.6989795918367347,0.6989795918367347,0.6989795918367347,0.6989795918367347,0.6989795918367347,0.6989795918367347,0.6989795918367347,0.6989795918367347,0.6989795918367347,0.6989795918367347,0.6989795918367347,0.6989795918367347,0.6989795918367347,0.6989795918367347,0.6989795918367347,0.6989795918367347,0.6989795918367347,0.6989795918367347,0.6989795918367347,0.6989795918367347,0.6989795918367347,0.6989795918367347,0.6989795918367347,0.6989795918367347,0.6989795918367347,0.6989795918367347,0.6989795918367347,0.6989795918367347,0.6989795918367347,0.6989795918367347,0.6989795918367347,0.6989795918367347,0.6989795918367347,0.6989795918367347,0.6989795918367347,0.6989795918367347,0.6989795918367347,0.6989795918367347,0.6989795918367347,0.6989795918367347,0.6989795918367347,0.6989795918367347,0.6989795918367347,0.6989795918367347,0.6989795918367347,0.6989795918367347,0.6989795918367347,0.6989795918367347,0.6989795918367347,0.6989795918367347,0.6989795918367347,0.6989795918367347,0.6989795918367347,0.6989795918367347,0.6989795918367347,0.6989795918367347,0.6989795918367347,0.6989795918367347,0.6989795918367347,0.6989795918367347,0.6989795918367347,0.6989795918367347,0.6989795918367347,0.6989795918367347,0.6989795918367347,0.6989795918367347,0.6989795918367347,0.6989795918367347,0.6989795918367347,0.6989795918367347,0.6989795918367347,0.6989795918367347,0.6989795918367347,0.6989795918367347,0.6989795918367347,0.6989795918367347,0.6989795918367347,0.6989795918367347,0.6989795918367347,0.6989795918367347,0.6989795918367347,0.6989795918367347,0.6989795918367347,0.6989795918367347,0.6989795918367347,0.6887755102040817,0.6751700680272109,0.6615646258503401,0.6547619047619048,0.6445578231292517,0.6275510204081632,0.6071428571428571,0.5833333333333334,0.5629251700680272,0.5459183673469388,0.5289115646258503,0.5119047619047619,0.49489795918367346,0.4744897959183674,0.45068027210884354,0.4268707482993197,0.4064625850340136,0.3826530612244898,0.36904761904761907,0.3554421768707483,0.34523809523809523,0.33843537414965985,0.33503401360544216,0.33163265306122447,0.3282312925170068,0.3282312925170068,0.3282312925170068,0.3282312925170068,0.3282312925170068,0.32482993197278914,0.31802721088435376,0.31462585034013607,0.31462585034013607,0.3112244897959184,0.3078231292517007,0.3078231292517007,0.304421768707483,0.3010204081632653,0.3010204081632653,0.3010204081632653,0.3010204081632653,0.3010204081632653,0.3010204081632653,0.3010204081632653,0.3010204081632653,0.3010204081632653,0.2976190476190476,0.2976190476190476,0.2976190476190476,0.2976190476190476,0.2976190476190476,0.2976190476190476,0.2976190476190476,0.2976190476190476,0.2976190476190476,0.2976190476190476,0.2976190476190476,0.2976190476190476,0.2976190476190476,0.2976190476190476,0.2976190476190476,0.2976190476190476,0.2976190476190476,0.2976190476190476,0.2976190476190476,0.2976190476190476,0.2976190476190476,0.2976190476190476,0.2976190476190476,0.2976190476190476,0.2976190476190476,0.2976190476190476,0.2976190476190476,0.2976190476190476,0.2976190476190476,0.2976190476190476,0.2976190476190476,0.2976190476190476,0.2976190476190476,0.2976190476190476,0.2976190476190476,0.2976190476190476,0.2976190476190476,0.2976190476190476,0.2976190476190476,0.2976190476190476,0.2976190476190476,0.2976190476190476,0.2976190476190476,0.2976190476190476,0.2976190476190476,0.2976190476190476,0.2976190476190476,0.2976190476190476,0.2976190476190476,0.2976190476190476,0.2976190476190476,0.2976190476190476,0.2976190476190476,0.2976190476190476,0.2976190476190476,0.2976190476190476,0.2976190476190476,0.2976190476190476,0.2976190476190476,0.2976190476190476,0.2976190476190476,0.2976190476190476,0.2976190476190476,0.2976190476190476,0.2976190476190476,0.2976190476190476,0.2976190476190476,0.2976190476190476,0.2976190476190476,0.2976190476190476,0.2976190476190476,0.2976190476190476,0.2976190476190476,0.2976190476190476,0.2976190476190476,0.2976190476190476,0.2976190476190476,0.2976190476190476,0.2976190476190476,0.2976190476190476,0.2976190476190476,0.2976190476190476,0.2976190476190476,0.2976190476190476,0.2976190476190476,0.2976190476190476,0.2976190476190476,0.2976190476190476,0.2976190476190476,0.2976190476190476,0.2976190476190476,0.2976190476190476,0.2976190476190476,0.2976190476190476,0.2976190476190476,0.2976190476190476,0.2976190476190476,0.2976190476190476,0.2976190476190476,0.2976190476190476,0.2976190476190476,0.2976190476190476,0.2976190476190476,0.2976190476190476,0.2976190476190476,0.2976190476190476,0.2976190476190476,0.2976190476190476,0.2976190476190476,0.2976190476190476,0.2976190476190476,0.2976190476190476,0.2976190476190476,0.2976190476190476,0.2976190476190476,0.2976190476190476,0.2976190476190476,0.2942176870748299,0.28741496598639454,0.28061224489795916,0.27380952380952384,0.26360544217687076,0.2568027210884354,0.2465986394557823,0.23979591836734693,0.23639455782312926,0.22959183673469388,0.2261904761904762,0.2227891156462585,0.2193877551020408,0.21598639455782312,0.21598639455782312,0.21258503401360543,0.21258503401360543,0.21258503401360543,0.20918367346938777,0.20918367346938777,0.20918367346938777,0.20918367346938777,0.20918367346938777,0.20918367346938777,0.20918367346938777,0.20918367346938777,0.20918367346938777,0.20918367346938777,0.20918367346938777,0.20918367346938777,0.20918367346938777,0.20918367346938777,0.20918367346938777,0.20918367346938777,0.20918367346938777,0.20918367346938777,0.20918367346938777,0.20918367346938777,0.20918367346938777,0.20918367346938777,0.20918367346938777,0.20918367346938777,0.20918367346938777,0.20918367346938777,0.20918367346938777,0.20918367346938777,0.20918367346938777,0.20918367346938777,0.20918367346938777,0.20918367346938777,0.20918367346938777,0.20918367346938777,0.20918367346938777,0.20918367346938777,0.20918367346938777,0.20918367346938777,0.20918367346938777,0.20918367346938777,0.20918367346938777,0.20918367346938777,0.20918367346938777,0.20918367346938777,0.20918367346938777,0.20918367346938777,0.20918367346938777,0.20918367346938777,0.20918367346938777,0.20918367346938777,0.20918367346938777,0.20918367346938777,0.20918367346938777,0.20918367346938777,0.20918367346938777,0.20918367346938777,0.20918367346938777,0.20918367346938777,0.20918367346938777,0.20918367346938777,0.20918367346938777,0.20918367346938777,0.20918367346938777,0.20918367346938777,0.20918367346938777,0.20918367346938777,0.20918367346938777,0.20918367346938777,0.20918367346938777,0.20918367346938777,0.20918367346938777,0.20918367346938777,0.20918367346938777,0.20918367346938777,0.20918367346938777,0.20918367346938777,0.20918367346938777,0.21258503401360543,0.21258503401360543,0.21258503401360543,0.21598639455782312,0.21598639455782312,0.21598639455782312,0.21598639455782312,0.21598639455782312,0.21598639455782312,0.21598639455782312,0.21598639455782312,0.21258503401360543,0.21258503401360543,0.21258503401360543,0.21258503401360543,0.20918367346938777,0.20918367346938777,0.20578231292517007,0.20578231292517007,0.20238095238095238,0.1989795918367347,0.1989795918367347,0.195578231292517,0.1921768707482993,0.18877551020408162,0.18877551020408162,0.18537414965986396,0.18537414965986396,0.18537414965986396,0.18197278911564627,0.18197278911564627,0.18197278911564627,0.17857142857142858,0.17857142857142858,0.17517006802721088,0.17517006802721088,0.17517006802721088,0.1717687074829932,0.1717687074829932,0.1683673469387755,0.1649659863945578,0.1649659863945578,0.16156462585034015,0.15816326530612246,0.15816326530612246,0.15476190476190477,0.15476190476190477,0.15476190476190477,0.15476190476190477,0.15136054421768708,0.15136054421768708,0.15136054421768708,0.15136054421768708,0.14795918367346939,0.14795918367346939,0.14795918367346939,0.14795918367346939,0.1445578231292517,0.1445578231292517,0.1445578231292517,0.1445578231292517,0.1445578231292517,0.1445578231292517,0.1445578231292517,0.1445578231292517,0.1445578231292517,0.1445578231292517,0.1445578231292517,0.1445578231292517,0.1445578231292517,0.1445578231292517,0.1445578231292517,0.1445578231292517,0.1445578231292517,0.1445578231292517,0.1445578231292517,0.1445578231292517,0.1445578231292517,0.1445578231292517,0.1445578231292517,0.1445578231292517,0.1445578231292517,0.1445578231292517,0.1445578231292517,0.1445578231292517,0.1445578231292517,0.1445578231292517,0.1445578231292517,0.1445578231292517,0.1445578231292517,0.1445578231292517,0.1445578231292517,0.1445578231292517,0.1445578231292517,0.1445578231292517,0.1445578231292517,0.1445578231292517,0.1445578231292517,0.1445578231292517,0.1445578231292517,0.1445578231292517,0.1445578231292517,0.1445578231292517,0.1445578231292517,0.1445578231292517,0.1445578231292517,0.1445578231292517,0.1445578231292517,0.1445578231292517,0.1445578231292517,0.1445578231292517,0.1445578231292517,0.1445578231292517,0.1445578231292517,0.1445578231292517,0.1445578231292517,0.1445578231292517,0.1445578231292517,0.1445578231292517,0.1445578231292517,0.1445578231292517,0.1445578231292517,0.1445578231292517,0.1445578231292517,0.1445578231292517,0.1445578231292517,0.1445578231292517,0.1445578231292517,0.1445578231292517,0.1445578231292517,0.1445578231292517,0.1445578231292517,0.1445578231292517,0.1445578231292517,0.1445578231292517,0.1445578231292517,0.1445578231292517,0.1445578231292517,0.1445578231292517,0.1445578231292517,0.1445578231292517,0.1445578231292517,0.1445578231292517,0.1445578231292517,0.1445578231292517,0.1445578231292517,0.1445578231292517,0.1445578231292517,0.1445578231292517,0.1445578231292517,0.1445578231292517,0.1445578231292517,0.1445578231292517,0.1445578231292517,0.1445578231292517,0.1445578231292517,0.1445578231292517,0.1445578231292517,0.1445578231292517,0.1445578231292517,0.1445578231292517,0.1445578231292517,0.1445578231292517,0.1445578231292517,0.1445578231292517,0.1445578231292517,0.1445578231292517,0.1445578231292517,0.1445578231292517,0.1445578231292517,0.1445578231292517,0.1445578231292517,0.1445578231292517,0.1445578231292517,0.1445578231292517,0.1445578231292517,0.1445578231292517,0.1445578231292517,0.1445578231292517,0.1445578231292517,0.1445578231292517,0.1445578231292517,0.1445578231292517,0.1445578231292517,0.1445578231292517,0.1445578231292517,0.1445578231292517,0.1445578231292517,0.1445578231292517,0.1445578231292517,0.1445578231292517,0.1445578231292517,0.1445578231292517,0.1445578231292517,0.1445578231292517,0.1445578231292517,0.1445578231292517,0.1445578231292517,0.1445578231292517,0.1445578231292517,0.1445578231292517,0.1445578231292517,0.1445578231292517,0.1445578231292517,0.1445578231292517,0.1445578231292517,0.1445578231292517,0.1445578231292517,0.1445578231292517,0.1445578231292517,0.1445578231292517,0.1445578231292517,0.1445578231292517,0.1445578231292517,0.1445578231292517,0.1445578231292517,0.1445578231292517,0.1445578231292517,0.1445578231292517,0.1445578231292517,0.1445578231292517,0.1445578231292517,0.1445578231292517,0.1445578231292517,0.1445578231292517,0.1445578231292517,0.1445578231292517,0.1445578231292517,0.1445578231292517,0.1445578231292517,0.1445578231292517,0.1445578231292517,0.1445578231292517,0.1445578231292517,0.1445578231292517,0.1445578231292517,0.1445578231292517,0.1445578231292517,0.1445578231292517,0.1445578231292517,0.1445578231292517,0.1445578231292517,0.1445578231292517,0.1445578231292517,0.1445578231292517,0.1445578231292517,0.1445578231292517,0.1445578231292517,0.1445578231292517,0.1445578231292517,0.1445578231292517,0.1445578231292517,0.1445578231292517,0.1445578231292517,0.1445578231292517,0.1445578231292517,0.1445578231292517,0.1445578231292517,0.1445578231292517,0.1445578231292517,0.1445578231292517,0.1445578231292517,0.1445578231292517,0.1445578231292517,0.1445578231292517,0.1445578231292517,0.141156462585034,0.1377551020408163,0.13095238095238096,0.12755102040816327,0.12074829931972789,0.11734693877551021,0.11734693877551021,0.12414965986394558,0.13435374149659865,0.141156462585034,0.1445578231292517,0.14795918367346939,0.15136054421768708,0.15816326530612246,0.16156462585034015,0.16156462585034015,0.1649659863945578,0.1649659863945578,0.1649659863945578,0.1649659863945578,0.1649659863945578,0.16156462585034015,0.16156462585034015,0.15816326530612246,0.15816326530612246,0.15476190476190477,0.15476190476190477,0.15476190476190477,0.15476190476190477,0.15476190476190477,0.15476190476190477,0