[{"success":true,"trial_type":"fullscreen","trial_index":0,"time_elapsed":7761,"internal_node_id":"0.0-0.0","protocol_sum":"","subject_identifier":316,"subject_sum":[126,216,240,243,183,7,149,109,159,177,232,137,225,17,83,224,170,10,133,73,131,8,29,38,47,190,94,237,227,45,167,202],"subject_pair":158,"STUDY_ID":"66a0b3911f23dfc7665bb169","PROLIFIC_PID":"668ae0afbe5eedd5c5460d15","SESSION_ID":"66a13b8a813291bb194eaedb","practice_instructions":1,"leaderboard_instructions":0,"bonus":0,"reveal_word":false,"self_rating":"2","confidence":"80"},{"view_history":"[{\"page_index\":0,\"viewing_time\":5613}]","rt":5613.5,"trial_type":"instructions","trial_index":1,"time_elapsed":13377,"internal_node_id":"0.0-1.0","protocol_sum":"","subject_identifier":316,"subject_sum":[126,216,240,243,183,7,149,109,159,177,232,137,225,17,83,224,170,10,133,73,131,8,29,38,47,190,94,237,227,45,167,202],"subject_pair":158,"STUDY_ID":"66a0b3911f23dfc7665bb169","PROLIFIC_PID":"668ae0afbe5eedd5c5460d15","SESSION_ID":"66a13b8a813291bb194eaedb","practice_instructions":1,"leaderboard_instructions":0,"bonus":0,"reveal_word":false,"self_rating":"2","confidence":"80"},{"view_history":"[{\"page_index\":0,\"viewing_time\":16135.300000011921}]","rt":16136,"trial_type":"instructions","trial_index":2,"time_elapsed":29514,"internal_node_id":"0.0-2.0-0.0","protocol_sum":"","subject_identifier":316,"subject_sum":[126,216,240,243,183,7,149,109,159,177,232,137,225,17,83,224,170,10,133,73,131,8,29,38,47,190,94,237,227,45,167,202],"subject_pair":158,"STUDY_ID":"66a0b3911f23dfc7665bb169","PROLIFIC_PID":"668ae0afbe5eedd5c5460d15","SESSION_ID":"66a13b8a813291bb194eaedb","practice_instructions":1,"leaderboard_instructions":0,"bonus":0,"reveal_word":false,"self_rating":"2","confidence":"80"},{"rt":11884.5,"responses":"{\"Q0\":\"... reveal the word with as <b>few letter guesses</b> as possible\"}","question_order":"[0]","trial_type":"survey-multi-choice","trial_index":3,"time_elapsed":41401,"internal_node_id":"0.0-2.0-1.0","protocol_sum":"","subject_identifier":316,"subject_sum":[126,216,240,243,183,7,149,109,159,177,232,137,225,17,83,224,170,10,133,73,131,8,29,38,47,190,94,237,227,45,167,202],"subject_pair":158,"correct":true,"test_part":"multichoice_nonpretend","STUDY_ID":"66a0b3911f23dfc7665bb169","PROLIFIC_PID":"668ae0afbe5eedd5c5460d15","SESSION_ID":"66a13b8a813291bb194eaedb","practice_instructions":1,"leaderboard_instructions":0,"bonus":0,"reveal_word":false,"self_rating":"2","confidence":"80"},{"view_history":"[{\"page_index\":0,\"viewing_time\":1904.8999999910593}]","rt":1905.2000000029802,"trial_type":"instructions","trial_index":4,"time_elapsed":43308,"internal_node_id":"0.0-3.0","protocol_sum":"","subject_identifier":316,"subject_sum":[126,216,240,243,183,7,149,109,159,177,232,137,225,17,83,224,170,10,133,73,131,8,29,38,47,190,94,237,227,45,167,202],"subject_pair":158,"STUDY_ID":"66a0b3911f23dfc7665bb169","PROLIFIC_PID":"668ae0afbe5eedd5c5460d15","SESSION_ID":"66a13b8a813291bb194eaedb","practice_instructions":1,"leaderboard_instructions":0,"bonus":0,"reveal_word":false,"self_rating":"2","confidence":"80"},{"word":"ZEBRA","click_log":{"letter":["","A","E","B","R","Z"],"t":[0,3431.7999999970198,6799.5999999940395,11422.39999999106,14081.699999988079,15768.699999988079],"hit":[null,1,1,1,1,1],"asked":["","A","AE","AEB","AEBR","AEBRZ"],"word_state":["_____","____A","_E__A","_EB_A","_EBRA","ZEBRA"]},"hover_log":{"letter":["?","?","?","?","?","?","?","?","?","?","?","?","?","?","?","?","?","?","?","?","?","?","K","K","K","K","K","?","?","?","?","?","?","?","?","?","?","?","?","?","?","?","?","?","?","?","?","?","?","?","?","?","?","?","?","?","?","?","?","?","?","?","?","?","?","?","?","?","?","?","?","?","?","?","?","?","?","?","?","?","?","?","?","?","?","?","?","?","?","?","?","?","?","?","?","?","?","?","?","?","?","?","?","?","?","?","?","?","?","?","?","?","?","?","?","?","?","?","?","?","?","?","?","?","?","?","?","?","?","?","?","?","?","?","?","?","?","?","?","?","?","?","?","?","?","?","?","?","?","K","K","K","K","K","K","K","K","K","?","?","?","?","?","?","?","?","?","?","?","?","?","?","?","?","?","?","A","A","A","A","A","A","A","A","A","A","A","A","A","A","A","A","A","A","A","A","A","A","A","A","A","A","A","A","A","A","A","A","A","A","A","A","A","A","A","A","A","A","A","A","A","A","A","A","A","A","A","A","A","A","A","A","A","A","A","A","A","A","A","A","A","A","A","A","A","A","A","A","A","A","A","A","A","A","A","A","A","A","A","A","A","A","?","?","?","?","K","K","K","K","?","?","?","?","U","U","U","U","U","?","?","?","?","?","?","?","?","?","?","?","?","?","?","?","?","?","?","?","?","?","?","?","?","?","?","?","?","?","?","?","?","?","?","?","?","?","?","?","?","?","?","?","?","?","?","V","V","V","?","?","?","N","N","N","N","N","N","N","N","N","N","N","N","N","N","N","N","N","N","N","N","N","N","N","N","N","N","N","N","N","N","N","N","N","N","N","N","N","N","N","N","N","N","N","N","N","N","N","N","N","N","N","N","N","N","N","N","N","N","N","N","N","N","N","N","N","N","N","N","N","N","N","N","N","N","N","N","N","N","N","N","N","N","N","N","N","N","?","?","?","?","?","E","E","E","E","E","E","E","E","E","E","E","E","E","E","E","E","E","E","E","E","E","E","E","E","E","E","E","E","E","E","E","E","E","E","E","E","E","E","E","E","E","E","E","E","E","E","E","E","E","E","E","E","E","E","E","E","E","E","E","E","E","E","E","E","E","E","E","E","E","E","E","E","E","E","E","E","E","E","E","E","E","E","E","E","E","E","E","E","E","E","E","E","E","E","E","E","E","E","E","E","E","E","?","?","?","M","M","M","?","?","?","?","V","V","V","V","V","V","V","V","V","V","V","V","V","V","V","V","V","V","V","V","V","V","V","V","V","V","V","V","V","V","V","V","V","V","V","V","V","V","V","V","V","V","V","V","V","V","V","V","V","V","V","V","V","V","V","V","V","V","V","V","V","V","V","V","V","V","V","V","V","V","V","V","V","V","V","V","V","V","V","V","V","V","V","V","V","V","V","V","V","V","V","V","V","V","V","V","V","V","V","V","V","V","V","V","V","V","V","V","V","V","V","V","V","V","V","V","V","V","V","V","V","V","V","V","V","V","V","V","V","V","V","V","V","V","V","V","V","V","V","V","V","V","V","V","V","V","V","V","V","V","V","V","V","V","V","V","V","?","?","?","M","M","M","M","M","M","M","M","?","?","?","?","?","?","?","?","?","?","C","C","C","C","C","C","C","C","?","?","?","?","?","?","?","B","B","B","B","B","B","B","B","B","B","B","B","B","B","B","B","B","B","B","B","B","B","B","B","B","B","B","B","B","B","B","B","B","B","B","B","B","B","B","B","B","B","B","B","B","B","B","B","B","B","B","B","B","B","B","B","B","B","B","B","B","B","B","B","B","B","B","B","B","B","B","B","B","B","B","B","B","B","B","B","B","?","C","C","?","?","?","?","?","O","?","P","P","P","P","P","P","P","P","P","P","?","?","?","Q","Q","Q","Q","Q","Q","Q","Q","Q","Q","Q","Q","?","?","?","R","R","R","R","R","R","R","R","R","R","R","R","R","R","R","R","R","R","R","R","R","R","R","R","R","R","R","R","R","R","R","R","R","R","R","R","R","R","R","R","R","R","R","R","R","R","R","R","R","R","R","R","R","R","R","R","R","R","R","R","R","R","R","R","R","R","R","R","R","R","R","R","R","R","R","R","R","R","R","R","R","R","R","R","R","R","R","R","R","R","R","R","R","R","R","R","R","R","R","R","R","R","R","R","R","R","R","Q","?","?","N","?","M","?","?","?","?","?","?","?","?","?","?","?","?","?","?","?","?","?","?","V","V","W","W","X","X","X","?","?","?","?","?","?","Y","Y","Y","Y","Y","Y","Y","Y","Y","Y","Y","Y","Y","Y","Y","Y","Y","?","?","?","Z","Z","Z","Z","Z","Z","Z","Z","Z","Z","Z","Z","Z","Z","Z","Z","Z","Z","Z","Z","Z","Z","Z","Z","Z","Z","Z","Z","Z","Z","Z","Z","Z","Z","Z","Z","Z","Z","Z","Z","Z","Z","Z","?","?","?","?","?","?","?","?","?","?","?","?","?","?","?","?","?","?","?","?","?","?","?","?","?","?","?","?","?","?","?","?","?","?","?","?","?","?","?","?","?","?","?","?","?","?","?","?","?","?","?","?","?","?","?","?","?","?","?","?","?","?","?","?","?","?","?","?","?","?","?","?","?","?","?","?","?","?","?","?","?","?","?","?","?","?","?","?","?","?","?","?","?","?","?","?","?","?","?","?","?","?","?","?","?","?","?","?","?","?","?","?","?"],"t":[28,34,50,66,78,93,110,124,136,152,169,188,202,216,232,248,263,278,291,307,320,332,347,362,381,395,414,429,446,465,483,497,514,530,544,560,572,589,602,616,630,648,663,679,693,708,723,742,756,772,787,802,815,828,843,858,873,887,899,914,928,943,957,970,985,1000,1014,1028,1041,1055,1074,1089,1103,1118,1132,1147,1161,1174,1188,1203,1216,1231,1250,1264,1279,1293,1307,1320,1337,1352,1366,1381,1394,1408,1422,1436,1452,1465,1478,1493,1507,1523,1536,1548,1564,1578,1594,1606,1619,1634,1649,1660,1676,1689,1703,1718,1734,1752,1769,1784,1799,1815,1828,1844,1857,1870,1884,1899,1911,1928,1939,1953,1968,1983,2000,2013,2028,2041,2057,2070,2082,2097,2111,2127,2139,2152,2168,2183,2200,2215,2232,2245,2259,2276,2292,2308,2322,2338,2355,2368,2386,2402,2418,2435,2452,2470,2485,2500,2517,2532,2549,2566,2583,2599,2615,2632,2649,2663,2677,2692,2703,2716,2731,2748,2759,2776,2791,2805,2821,2837,2853,2873,2890,2907,2922,2937,2953,2967,2983,2998,3014,3029,3044,3060,3074,3090,3107,3124,3137,3152,3171,3185,3201,3216,3231,3248,3264,3279,3295,3307,3323,3342,3357,3372,3387,3400,3415,3434,3447,3463,3478,3492,3508,3524,3537,3554,3571,3585,3601,3615,3630,3643,3657,3672,3688,3704,3719,3733,3749,3762,3775,3789,3803,3817,3830,3844,3860,3876,3890,3905,3923,3941,3956,3973,3990,4005,4018,4036,4054,4071,4086,4102,4117,4133,4151,4167,4184,4200,4217,4234,4250,4266,4283,4301,4317,4333,4350,4365,4379,4395,4411,4426,4442,4457,4470,4487,4505,4519,4534,4549,4565,4578,4592,4606,4620,4635,4654,4669,4684,4699,4713,4728,4746,4761,4776,4791,4806,4819,4833,4848,4862,4878,4894,4910,4925,4940,4953,4966,4982,4997,5013,5028,5043,5058,5073,5088,5104,5120,5137,5156,5174,5188,5205,5221,5238,5254,5271,5286,5300,5316,5334,5348,5364,5378,5394,5413,5427,5443,5457,5474,5490,5505,5521,5536,5550,5566,5584,5598,5614,5628,5644,5663,5677,5693,5707,5723,5742,5756,5771,5787,5801,5817,5832,5848,5862,5878,5891,5907,5924,5940,5956,5969,5985,6003,6019,6035,6049,6062,6079,6096,6110,6126,6140,6156,6169,6182,6198,6212,6227,6246,6261,6276,6291,6304,6318,6333,6347,6363,6379,6393,6407,6420,6433,6447,6463,6479,6496,6509,6525,6546,6558,6574,6589,6605,6620,6636,6653,6668,6683,6698,6713,6729,6744,6759,6775,6790,6803,6820,6838,6852,6867,6882,6897,6912,6928,6941,6957,6975,6989,7005,7019,7033,7048,7062,7074,7088,7103,7119,7135,7151,7166,7182,7195,7211,7223,7237,7251,7265,7281,7294,7308,7322,7336,7352,7366,7377,7393,7407,7423,7436,7449,7464,7482,7497,7511,7526,7540,7553,7568,7582,7598,7611,7623,7638,7656,7674,7691,7706,7722,7738,7755,7769,7785,7798,7813,7827,7841,7856,7870,7886,7904,7919,7934,7949,7964,7978,7993,8009,8026,8040,8056,8072,8088,8105,8122,8138,8155,8172,8187,8204,8222,8238,8255,8271,8287,8305,8318,8335,8349,8363,8378,8397,8411,8425,8441,8454,8470,8486,8501,8517,8532,8546,8562,8580,8594,8610,8623,8640,8653,8666,8681,8694,8711,8730,8744,8760,8774,8790,8803,8816,8830,8845,8860,8878,8893,8908,8924,8937,8953,8971,8985,9001,9015,9031,9044,9058,9073,9086,9102,9116,9128,9143,9157,9170,9187,9203,9219,9234,9248,9264,9277,9291,9305,9323,9339,9353,9368,9381,9395,9410,9424,9439,9453,9465,9481,9495,9510,9523,9537,9551,9565,9581,9594,9607,9621,9636,9651,9665,9678,9692,9707,9720,9736,9748,9762,9776,9792,9808,9824,9840,9853,9869,9881,9895,9909,9923,9939,9952,9966,9980,9995,10010,10023,10036,10051,10064,10081,10100,10115,10131,10145,10161,10178,10197,10209,10224,10243,10260,10275,10287,10303,10317,10333,10350,10364,10380,10395,10408,10422,10436,10448,10463,10478,10494,10509,10524,10539,10554,10568,10586,10603,10618,10634,10653,10669,10687,10700,10717,10734,10750,10766,10781,10799,10816,10833,10849,10865,10884,10898,10915,10933,10948,10965,10983,11000,11015,11031,11044,11060,11076,11091,11106,11121,11136,11155,11170,11186,11199,11215,11228,11241,11256,11270,11282,11299,11314,11330,11344,11360,11373,11389,11405,11418,11434,11447,11464,11479,11494,11508,11524,11541,11556,11572,11586,11602,11619,11634,11649,11665,11679,11694,11712,11726,11743,11757,11773,11786,11800,11814,11829,11844,11858,11872,11886,11902,11915,11927,11943,11957,11972,11986,12000,12013,12026,12041,12054,12070,12087,12102,12117,12132,12147,12160,12174,12188,12203,12219,12235,12248,12264,12280,12296,12312,12326,12341,12354,12370,12382,12398,12414,12429,12446,12460,12473,12487,12503,12515,12530,12546,12562,12578,12593,12608,12622,12637,12653,12671,12687,12704,12719,12736,12753,12771,12788,12805,12821,12838,12853,12869,12886,12904,12920,12937,12952,12970,12987,13004,13020,13035,13051,13067,13084,13101,13119,13135,13148,13165,13176,13192,13207,13220,13235,13251,13268,13283,13300,13315,13331,13346,13362,13375,13391,13409,13421,13439,13454,13471,13485,13502,13516,13532,13548,13562,13578,13592,13607,13625,13640,13655,13670,13685,13705,13718,13734,13749,13762,13778,13795,13810,13826,13840,13856,13869,13886,13902,13917,13933,13949,13964,13980,13994,14011,14028,14043,14058,14074,14086,14103,14121,14136,14151,14166,14181,14200,14215,14231,14246,14260,14272,14288,14302,14318,14333,14349,14362,14379,14396,14411,14426,14440,14453,14466,14482,14499,14515,14530,14546,14561,14576,14593,14610,14627,14643,14663,14679,14695,14711,14726,14742,14756,14772,14786,14802,14814,14827,14842,14860,14876,14890,14906,14923,14938,14955,14972,14987,15004,15020,15038,15054,15070,15088,15105,15121,15139,15155,15168,15185,15199,15213,15227,15241,15254,15267,15282,15298,15314,15329,15345,15361,15375,15391,15404,15417,15431,15448,15464,15479,15494,15512,15527,15542,15558,15575,15590,15606,15620,15636,15654,15669,15683,15699,15715,15730,15747,15762,15780,15790,15807,15826,15840,15856,15870,15886,15903,15917,15934,15947,15963,15981,15994,16011,16023,16039,16054,16069,16084,16102,16118,16133,16151,16167,16185,16196,16208,16226,16242,16258,16273,16291,16306,16323,16337,16353,16366,16379,16395,16412,16428,16441,16457,16476,16490,16506,16521,16537,16552,16569,16584,16599,16615,16633,16649,16665,16678,16692,16704,16721,16736,16751,16765,16780,16795,16813,16828,16844,16857,16873,16892,16907,16923,16936,16952,16971,16986,17002,17016,17031,17050,17065,17081,17095,17110,17129,17144,17160,17174,17190,17207,17223,17239,17253,17269,17288,17302,17318,17332,17348,17366,17381,17397,17411,17425,17439,17453,17469,17485,17499,17513,17531,17547,17561,17575,17589,17603,17619,17630,17644,17660,17676,17691,17707,17722,17737,17753,17766,17784],"hit":[null],"x":[-1.727891156462585,-1.727891156462585,-1.727891156462585,-1.727891156462585,-1.727891156462585,-1.727891156462585,-1.727891156462585,-1.727891156462585,-1.727891156462585,-1.727891156462585,-1.727891156462585,-1.727891156462585,-1.727891156462585,-1.727891156462585,-1.727891156462585,-1.727891156462585,-1.727891156462585,-1.727891156462585,-1.727891156462585,-1.727891156462585,0.07142857142857142,0.08503401360544217,0.10204081632653061,0.12585034013605442,0.14625850340136054,0.16326530612244897,0.17687074829931973,0.1870748299319728,0.19047619047619047,0.19727891156462585,0.19727891156462585,0.19727891156462585,0.19727891156462585,0.19727891156462585,0.19727891156462585,0.19727891156462585,0.20068027210884354,0.20068027210884354,0.20068027210884354,0.20068027210884354,0.20068027210884354,0.20068027210884354,0.20068027210884354,0.20068027210884354,0.20068027210884354,0.20068027210884354,0.20068027210884354,0.20068027210884354,0.20068027210884354,0.20068027210884354,0.20068027210884354,0.20068027210884354,0.20068027210884354,0.20068027210884354,0.20068027210884354,0.20068027210884354,0.20068027210884354,0.20068027210884354,0.20068027210884354,0.20068027210884354,0.20068027210884354,0.20068027210884354,0.20068027210884354,0.20068027210884354,0.20068027210884354,0.20068027210884354,0.20068027210884354,0.20068027210884354,0.20068027210884354,0.20068027210884354,0.20068027210884354,0.20068027210884354,0.20068027210884354,0.20068027210884354,0.20068027210884354,0.20068027210884354,0.20068027210884354,0.20068027210884354,0.20068027210884354,0.20068027210884354,0.20068027210884354,0.20068027210884354,0.20068027210884354,0.20068027210884354,0.20068027210884354,0.20068027210884354,0.20068027210884354,0.20068027210884354,0.20068027210884354,0.20068027210884354,0.20068027210884354,0.20068027210884354,0.20068027210884354,0.20068027210884354,0.20068027210884354,0.20068027210884354,0.20068027210884354,0.20068027210884354,0.20068027210884354,0.20068027210884354,0.20068027210884354,0.20068027210884354,0.20068027210884354,0.20068027210884354,0.20068027210884354,0.20068027210884354,0.20068027210884354,0.20068027210884354,0.20068027210884354,0.20068027210884354,0.20068027210884354,0.20068027210884354,0.20068027210884354,0.20068027210884354,0.20068027210884354,0.20068027210884354,0.20068027210884354,0.20068027210884354,0.20068027210884354,0.20068027210884354,0.20068027210884354,0.20068027210884354,0.20068027210884354,0.20068027210884354,0.20068027210884354,0.20068027210884354,0.20068027210884354,0.20068027210884354,0.20068027210884354,0.20068027210884354,0.20068027210884354,0.20068027210884354,0.20068027210884354,0.20068027210884354,0.20068027210884354,0.20068027210884354,0.20068027210884354,0.20068027210884354,0.20068027210884354,0.20068027210884354,0.20068027210884354,0.20068027210884354,0.20068027210884354,0.20068027210884354,0.20068027210884354,0.20068027210884354,0.19727891156462585,0.19727891156462585,0.19727891156462585,0.19387755102040816,0.19047619047619047,0.1836734693877551,0.18027210884353742,0.17346938775510204,0.16326530612244897,0.1360544217687075,0.1292517006802721,0.11224489795918367,0.09523809523809523,0.08503401360544217,0.0782312925170068,0.06802721088435375,0.06462585034013606,0.05782312925170068,0.05102040816326531,0.04421768707482993,0.04081632653061224,0.03741496598639456,0.034013605442176874,0.030612244897959183,0.030612244897959183,0.030612244897959183,0.030612244897959183,0.030612244897959183,0.030612244897959183,0.030612244897959183,0.030612244897959183,0.027210884353741496,0.027210884353741496,0.027210884353741496,0.027210884353741496,0.027210884353741496,0.023809523809523808,0.023809523809523808,0.023809523809523808,0.023809523809523808,0.023809523809523808,0.02040816326530612,0.02040816326530612,0.02040816326530612,0.017006802721088437,0.017006802721088437,0.017006802721088437,0.017006802721088437,0.017006802721088437,0.017006802721088437,0.017006802721088437,0.017006802721088437,0.017006802721088437,0.017006802721088437,0.017006802721088437,0.017006802721088437,0.017006802721088437,0.017006802721088437,0.017006802721088437,0.017006802721088437,0.017006802721088437,0.017006802721088437,0.017006802721088437,0.017006802721088437,0.017006802721088437,0.017006802721088437,0.017006802721088437,0.017006802721088437,0.017006802721088437,0.017006802721088437,0.017006802721088437,0.017006802721088437,0.017006802721088437,0.017006802721088437,0.017006802721088437,0.017006802721088437,0.017006802721088437,0.017006802721088437,0.017006802721088437,0.017006802721088437,0.017006802721088437,0.017006802721088437,0.017006802721088437,0.017006802721088437,0.017006802721088437,0.017006802721088437,0.017006802721088437,0.017006802721088437,0.017006802721088437,0.017006802721088437,0.017006802721088437,0.017006802721088437,0.017006802721088437,0.017006802721088437,0.017006802721088437,0.017006802721088437,0.017006802721088437,0.017006802721088437,0.017006802721088437,0.017006802721088437,0.017006802721088437,0.017006802721088437,0.017006802721088437,0.017006802721088437,0.017006802721088437,0.017006802721088437,0.017006802721088437,0.017006802721088437,0.017006802721088437,0.017006802721088437,0.017006802721088437,0.017006802721088437,0.017006802721088437,0.023809523809523808,0.034013605442176874,0.04421768707482993,0.05782312925170068,0.08503401360544217,0.10204081632653061,0.11564625850340136,0.1326530612244898,0.14965986394557823,0.17346938775510204,0.19047619047619047,0.2108843537414966,0.22789115646258504,0.24489795918367346,0.2687074829931973,0.2857142857142857,0.30272108843537415,0.3197278911564626,0.3299319727891156,0.3401360544217687,0.3435374149659864,0.3469387755102041,0.3469387755102041,0.3469387755102041,0.35034013605442177,0.35034013605442177,0.35034013605442177,0.35034013605442177,0.35034013605442177,0.35034013605442177,0.35034013605442177,0.35034013605442177,0.35034013605442177,0.35034013605442177,0.35034013605442177,0.35034013605442177,0.35034013605442177,0.35034013605442177,0.35034013605442177,0.35034013605442177,0.35034013605442177,0.35034013605442177,0.35034013605442177,0.35034013605442177,0.35034013605442177,0.35034013605442177,0.35034013605442177,0.35034013605442177,0.35034013605442177,0.35034013605442177,0.35034013605442177,0.35034013605442177,0.35034013605442177,0.35034013605442177,0.35034013605442177,0.35034013605442177,0.35034013605442177,0.35034013605442177,0.35034013605442177,0.35034013605442177,0.35034013605442177,0.35034013605442177,0.35034013605442177,0.35034013605442177,0.35034013605442177,0.36054421768707484,0.3741496598639456,0.3979591836734694,0.42857142857142855,0.4489795918367347,0.4897959183673469,0.5170068027210885,0.5272108843537415,0.5408163265306123,0.5476190476190477,0.5544217687074829,0.5578231292517006,0.5578231292517006,0.5612244897959183,0.5612244897959183,0.5612244897959183,0.5612244897959183,0.5612244897959183,0.5612244897959183,0.5612244897959183,0.5612244897959183,0.5612244897959183,0.5612244897959183,0.5612244897959183,0.5612244897959183,0.5612244897959183,0.5612244897959183,0.5612244897959183,0.5612244897959183,0.5612244897959183,0.5612244897959183,0.5612244897959183,0.5612244897959183,0.5612244897959183,0.5612244897959183,0.5612244897959183,0.5612244897959183,0.5612244897959183,0.5612244897959183,0.5612244897959183,0.5612244897959183,0.5612244897959183,0.5612244897959183,0.5612244897959183,0.5612244897959183,0.5612244897959183,0.5612244897959183,0.5612244897959183,0.5612244897959183,0.5612244897959183,0.5612244897959183,0.5612244897959183,0.5612244897959183,0.5612244897959183,0.5612244897959183,0.5612244897959183,0.5612244897959183,0.5612244897959183,0.5612244897959183,0.5612244897959183,0.5612244897959183,0.5612244897959183,0.5612244897959183,0.5612244897959183,0.5612244897959183,0.5612244897959183,0.5612244897959183,0.5612244897959183,0.5612244897959183,0.5612244897959183,0.5612244897959183,0.5612244897959183,0.5612244897959183,0.5612244897959183,0.5612244897959183,0.5612244897959183,0.5612244897959183,0.5612244897959183,0.5612244897959183,0.5612244897959183,0.5612244897959183,0.5612244897959183,0.5612244897959183,0.5612244897959183,0.5612244897959183,0.5612244897959183,0.5578231292517006,0.5578231292517006,0.5578231292517006,0.5578231292517006,0.5578231292517006,0.5578231292517006,0.5578231292517006,0.5578231292517006,0.5578231292517006,0.5578231292517006,0.5578231292517006,0.5612244897959183,0.564625850340136,0.564625850340136,0.564625850340136,0.5680272108843537,0.5714285714285714,0.5714285714285714,0.5714285714285714,0.5748299319727891,0.5782312925170068,0.5782312925170068,0.5782312925170068,0.5782312925170068,0.5782312925170068,0.5782312925170068,0.5782312925170068,0.5782312925170068,0.5782312925170068,0.5782312925170068,0.5782312925170068,0.5782312925170068,0.5782312925170068,0.5782312925170068,0.5782312925170068,0.5782312925170068,0.5782312925170068,0.5782312925170068,0.5782312925170068,0.5782312925170068,0.5782312925170068,0.5782312925170068,0.5782312925170068,0.5782312925170068,0.5782312925170068,0.5782312925170068,0.5782312925170068,0.5782312925170068,0.5782312925170068,0.5782312925170068,0.5782312925170068,0.5782312925170068,0.5782312925170068,0.5782312925170068,0.5782312925170068,0.5782312925170068,0.5782312925170068,0.5782312925170068,0.5782312925170068,0.5782312925170068,0.5782312925170068,0.5782312925170068,0.5782312925170068,0.5782312925170068,0.5782312925170068,0.5782312925170068,0.5782312925170068,0.5782312925170068,0.5782312925170068,0.5782312925170068,0.5782312925170068,0.5782312925170068,0.5782312925170068,0.5782312925170068,0.5782312925170068,0.5782312925170068,0.5782312925170068,0.5782312925170068,0.5782312925170068,0.5782312925170068,0.5782312925170068,0.5782312925170068,0.5782312925170068,0.5782312925170068,0.5782312925170068,0.5782312925170068,0.5782312925170068,0.5782312925170068,0.5782312925170068,0.5782312925170068,0.5782312925170068,0.5782312925170068,0.5782312925170068,0.5782312925170068,0.5782312925170068,0.5782312925170068,0.5782312925170068,0.5782312925170068,0.5782312925170068,0.5782312925170068,0.5782312925170068,0.5782312925170068,0.5782312925170068,0.5782312925170068,0.5782312925170068,0.5782312925170068,0.5782312925170068,0.5782312925170068,0.5782312925170068,0.5782312925170068,0.5782312925170068,0.5782312925170068,0.564625850340136,0.5408163265306123,0.5136054421768708,0.5034013605442177,0.47619047619047616,0.4557823129251701,0.4387755102040816,0.42517006802721086,0.41496598639455784,0.40816326530612246,0.4013605442176871,0.3979591836734694,0.3945578231292517,0.3877551020408163,0.3877551020408163,0.3843537414965986,0.3843537414965986,0.38095238095238093,0.38095238095238093,0.38095238095238093,0.38095238095238093,0.38095238095238093,0.38095238095238093,0.38095238095238093,0.38095238095238093,0.38095238095238093,0.38095238095238093,0.38095238095238093,0.38095238095238093,0.38095238095238093,0.38095238095238093,0.38095238095238093,0.38095238095238093,0.38095238095238093,0.38095238095238093,0.38095238095238093,0.38095238095238093,0.38095238095238093,0.38095238095238093,0.38095238095238093,0.38095238095238093,0.38095238095238093,0.38095238095238093,0.38095238095238093,0.38095238095238093,0.38095238095238093,0.38095238095238093,0.38095238095238093,0.38095238095238093,0.38095238095238093,0.38095238095238093,0.38095238095238093,0.38095238095238093,0.38095238095238093,0.38095238095238093,0.38095238095238093,0.38095238095238093,0.38095238095238093,0.38095238095238093,0.38095238095238093,0.38095238095238093,0.38095238095238093,0.38095238095238093,0.38095238095238093,0.38095238095238093,0.38095238095238093,0.38095238095238093,0.38095238095238093,0.38095238095238093,0.38095238095238093,0.38095238095238093,0.38095238095238093,0.38095238095238093,0.38095238095238093,0.38095238095238093,0.38095238095238093,0.38095238095238093,0.38095238095238093,0.38095238095238093,0.38095238095238093,0.38095238095238093,0.38095238095238093,0.38095238095238093,0.38095238095238093,0.38095238095238093,0.38095238095238093,0.38095238095238093,0.38095238095238093,0.38095238095238093,0.38095238095238093,0.38095238095238093,0.38095238095238093,0.38095238095238093,0.38095238095238093,0.38095238095238093,0.38095238095238093,0.38095238095238093,0.38095238095238093,0.38095238095238093,0.38095238095238093,0.38095238095238093,0.38095238095238093,0.38095238095238093,0.38095238095238093,0.38095238095238093,0.38095238095238093,0.38095238095238093,0.38095238095238093,0.38095238095238093,0.38095238095238093,0.38095238095238093,0.38095238095238093,0.38095238095238093,0.38095238095238093,0.38095238095238093,0.38095238095238093,0.38095238095238093,0.38095238095238093,0.38095238095238093,0.38095238095238093,0.38095238095238093,0.38095238095238093,0.38095238095238093,0.38095238095238093,0.38095238095238093,0.38095238095238093,0.38095238095238093,0.38095238095238093,0.38095238095238093,0.38095238095238093,0.38095238095238093,0.38095238095238093,0.38095238095238093,0.38095238095238093,0.38095238095238093,0.38095238095238093,0.38095238095238093,0.38095238095238093,0.38095238095238093,0.38095238095238093,0.38095238095238093,0.38095238095238093,0.38095238095238093,0.38095238095238093,0.38095238095238093,0.38095238095238093,0.38095238095238093,0.38095238095238093,0.38095238095238093,0.38095238095238093,0.38095238095238093,0.38095238095238093,0.38095238095238093,0.38095238095238093,0.38095238095238093,0.38095238095238093,0.38095238095238093,0.38095238095238093,0.38095238095238093,0.38095238095238093,0.38095238095238093,0.38095238095238093,0.38095238095238093,0.38095238095238093,0.3843537414965986,0.3843537414965986,0.3877551020408163,0.391156462585034,0.3945578231292517,0.3979591836734694,0.4013605442176871,0.4013605442176871,0.4013605442176871,0.4013605442176871,0.4013605442176871,0.4013605442176871,0.4013605442176871,0.4013605442176871,0.3979591836734694,0.3945578231292517,0.3945578231292517,0.3877551020408163,0.3843537414965986,0.37755102040816324,0.3707482993197279,0.3673469387755102,0.35714285714285715,0.35034013605442177,0.3401360544217687,0.3299319727891156,0.3163265306122449,0.29931972789115646,0.2857142857142857,0.2755102040816326,0.2653061224489796,0.24829931972789115,0.23809523809523808,0.23129251700680273,0.22448979591836735,0.22108843537414966,0.21768707482993196,0.21428571428571427,0.20748299319727892,0.20748299319727892,0.20408163265306123,0.19727891156462585,0.19387755102040816,0.19047619047619047,0.1870748299319728,0.1836734693877551,0.18027210884353742,0.18027210884353742,0.18027210884353742,0.18027210884353742,0.18027210884353742,0.18027210884353742,0.18027210884353742,0.18027210884353742,0.18027210884353742,0.18027210884353742,0.18027210884353742,0.18027210884353742,0.18027210884353742,0.18027210884353742,0.18027210884353742,0.18027210884353742,0.18027210884353742,0.18027210884353742,0.18027210884353742,0.18027210884353742,0.18027210884353742,0.18027210884353742,0.18027210884353742,0.18027210884353742,0.18027210884353742,0.18027210884353742,0.18027210884353742,0.18027210884353742,0.18027210884353742,0.18027210884353742,0.18027210884353742,0.18027210884353742,0.18027210884353742,0.18027210884353742,0.18027210884353742,0.18027210884353742,0.18027210884353742,0.18027210884353742,0.18027210884353742,0.18027210884353742,0.18027210884353742,0.18027210884353742,0.18027210884353742,0.18027210884353742,0.18027210884353742,0.18027210884353742,0.18027210884353742,0.18027210884353742,0.18027210884353742,0.18027210884353742,0.18027210884353742,0.18027210884353742,0.18027210884353742,0.18027210884353742,0.18027210884353742,0.18027210884353742,0.18027210884353742,0.18027210884353742,0.18027210884353742,0.18027210884353742,0.18027210884353742,0.18027210884353742,0.18027210884353742,0.18027210884353742,0.18027210884353742,0.18027210884353742,0.18027210884353742,0.18027210884353742,0.18027210884353742,0.18027210884353742,0.18027210884353742,0.18027210884353742,0.18027210884353742,0.18027210884353742,0.1836734693877551,0.19387755102040816,0.2108843537414966,0.23809523809523808,0.2857142857142857,0.35374149659863946,0.43197278911564624,0.5102040816326531,0.5510204081632653,0.6360544217687075,0.7142857142857143,0.7755102040816326,0.8095238095238095,0.8401360544217688,0.8605442176870748,0.8707482993197279,0.8809523809523809,0.8843537414965986,0.891156462585034,0.8979591836734694,0.9047619047619048,0.9149659863945578,0.9183673469387755,0.9285714285714286,0.935374149659864,0.9421768707482994,0.9489795918367347,0.9625850340136054,0.9727891156462585,0.9795918367346939,0.9897959183673469,0.9965986394557823,1.0136054421768708,1.0204081632653061,1.034013605442177,1.0442176870748299,1.054421768707483,1.0612244897959184,1.0714285714285714,1.0782312925170068,1.08843537414966,1.08843537414966,1.0918367346938775,1.098639455782313,1.1020408163265305,1.1054421768707483,1.1088435374149659,1.1122448979591837,1.1122448979591837,1.1122448979591837,1.1122448979591837,1.1122448979591837,1.1122448979591837,1.1122448979591837,1.1122448979591837,1.1122448979591837,1.1122448979591837,1.1122448979591837,1.1122448979591837,1.1122448979591837,1.1122448979591837,1.1122448979591837,1.1122448979591837,1.1122448979591837,1.1122448979591837,1.1122448979591837,1.1122448979591837,1.1122448979591837,1.1122448979591837,1.1122448979591837,1.1156462585034013,1.1156462585034013,1.1156462585034013,1.1156462585034013,1.1156462585034013,1.119047619047619,1.119047619047619,1.119047619047619,1.119047619047619,1.119047619047619,1.119047619047619,1.119047619047619,1.119047619047619,1.119047619047619,1.119047619047619,1.1224489795918366,1.1224489795918366,1.1224489795918366,1.1224489795918366,1.1224489795918366,1.1224489795918366,1.1224489795918366,1.1224489795918366,1.1224489795918366,1.1224489795918366,1.1224489795918366,1.1224489795918366,1.1224489795918366,1.1224489795918366,1.1224489795918366,1.1224489795918366,1.1224489795918366,1.1224489795918366,1.1224489795918366,1.1224489795918366,1.1224489795918366,1.1224489795918366,1.1224489795918366,1.1224489795918366,1.1224489795918366,1.1224489795918366,1.1224489795918366,1.1224489795918366,1.1224489795918366,1.1224489795918366,1.1224489795918366,1.1224489795918366,1.1224489795918366,1.1224489795918366,1.1224489795918366,1.1224489795918366,1.1224489795918366,1.1224489795918366,1.1224489795918366,1.1224489795918366,1.1224489795918366,1.1224489795918366,1.1224489795918366,1.1224489795918366,1.1224489795918366,1.1224489795918366,1.1224489795918366,1.1224489795918366,1.1224489795918366,1.1224489795918366,1.1224489795918366,1.1224489795918366,1.1224489795918366,1.1224489795918366,1.1224489795918366,1.1224489795918366,1.1224489795918366,1.1224489795918366,1.1224489795918366,1.1224489795918366,1.1224489795918366,1.1054421768707483,1.0408163265306123,0.9251700680272109,0.7755102040816326,0.6054421768707483,0.4965986394557823,0.42517006802721086,0.36394557823129253,0.3197278911564626,0.2619047619047619,0.24489795918367346,0.22448979591836735,0.2108843537414966,0.20408163265306123,0.20408163265306123,0.20408163265306123,0.20408163265306123,0.20408163265306123,0.20408163265306123,0.20748299319727892,0.2108843537414966,0.2108843537414966,0.22448979591836735,0.25170068027210885,0.29591836734693877,0.40476190476190477,0.47959183673469385,0.5714285714285714,0.6190476190476191,0.6972789115646258,0.7278911564625851,0.7517006802721088,0.7687074829931972,0.7789115646258503,0.7891156462585034,0.7959183673469388,0.8027210884353742,0.8061224489795918,0.8095238095238095,0.8129251700680272,0.8129251700680272,0.8129251700680272,0.8129251700680272,0.8129251700680272,0.8129251700680272,0.8129251700680272,0.8163265306122449,0.8163265306122449,0.8197278911564626,0.8299319727891157,0.8435374149659864,0.8571428571428571,0.8741496598639455,0.8809523809523809,0.8979591836734694,0.9149659863945578,0.9285714285714286,0.9387755102040817,0.9489795918367347,0.95578231292517,0.9591836734693877,0.9591836734693877,0.9625850340136054,0.9625850340136054,0.9625850340136054,0.9625850340136054,0.9625850340136054,0.9625850340136054,0.9625850340136054,0.9625850340136054,0.9625850340136054,0.9625850340136054,0.9659863945578231,0.9659863945578231,0.9659863945578231,0.9659863945578231,0.9659863945578231,0.9659863945578231,0.9659863945578231,0.9659863945578231,0.9659863945578231,0.9659863945578231,0.9659863945578231,0.9659863945578231,0.9659863945578231,0.9659863945578231,0.9659863945578231,0.9659863945578231,0.9659863945578231,0.9659863945578231,0.9659863945578231,0.9659863945578231,0.9659863945578231,0.9659863945578231,0.9659863945578231,0.9659863945578231,0.9659863945578231,0.9659863945578231,0.9659863945578231,0.9659863945578231,0.95578231292517,0.935374149659864,0.8775510204081632,0.7857142857142857,0.6632653061224489,0.5850340136054422,0.46598639455782315,0.4421768707482993,0.41836734693877553,0.40476190476190477,0.4013605442176871,0.3979591836734694,0.3945578231292517,0.3945578231292517,0.391156462585034,0.3877551020408163,0.3877551020408163,0.3877551020408163,0.3877551020408163,0.3877551020408163,0.3843537414965986,0.3843537414965986,0.3843537414965986,0.3843537414965986,0.3843537414965986,0.3843537414965986,0.3843537414965986,0.3843537414965986,0.3843537414965986,0.3843537414965986,0.3843537414965986,0.3843537414965986,0.3843537414965986,0.3843537414965986,0.3843537414965986,0.3843537414965986,0.3843537414965986,0.3843537414965986,0.3843537414965986,0.3843537414965986,0.3843537414965986,0.3843537414965986,0.3843537414965986,0.3843537414965986,0.3843537414965986,0.3843537414965986,0.3843537414965986,0.3843537414965986,0.3843537414965986,0.3843537414965986,0.3843537414965986,0.3843537414965986,0.3843537414965986,0.3843537414965986,0.3843537414965986,0.3843537414965986,0.3843537414965986,0.3843537414965986,0.3843537414965986,0.3843537414965986,0.3843537414965986,0.3843537414965986,0.3843537414965986,0.3843537414965986,0.3843537414965986,0.3843537414965986,0.3843537414965986,0.3843537414965986,0.3843537414965986,0.3843537414965986,0.3843537414965986,0.3843537414965986,0.3843537414965986,0.3843537414965986,0.3843537414965986,0.3843537414965986,0.3843537414965986,0.3843537414965986,0.3843537414965986,0.3843537414965986,0.3843537414965986,0.3843537414965986,0.3843537414965986,0.3843537414965986,0.3843537414965986,0.3843537414965986,0.3843537414965986,0.3843537414965986,0.3843537414965986,0.3843537414965986,0.3843537414965986,0.3843537414965986,0.3843537414965986,0.3843537414965986,0.3843537414965986,0.3843537414965986,0.3843537414965986,0.3843537414965986,0.3843537414965986,0.3843537414965986,0.3843537414965986,0.3843537414965986,0.3843537414965986,0.3843537414965986,0.3843537414965986,0.3843537414965986,0.3843537414965986,0.3843537414965986,0.3843537414965986,0.3843537414965986,0.3843537414965986,0.3843537414965986,0.3843537414965986,0.3843537414965986],"y":[-2.869047619047619,-2.869047619047619,-2.869047619047619,-2.869047619047619,-2.869047619047619,-2.869047619047619,-2.869047619047619,-2.869047619047619,-2.869047619047619,-2.869047619047619,-2.869047619047619,-2.869047619047619,-2.869047619047619,-2.869047619047619,-2.869047619047619,-2.869047619047619,-2.869047619047619,-2.869047619047619,-2.869047619047619,-2.869047619047619,0.5928571428571429,0.5738095238095238,0.5357142857142857,0.4880952380952381,0.45,0.42142857142857143,0.39285714285714285,0.3738095238095238,0.36428571428571427,0.3547619047619048,0.3547619047619048,0.3547619047619048,0.3547619047619048,0.3547619047619048,0.3547619047619048,0.3547619047619048,0.3547619047619048,0.3547619047619048,0.3547619047619048,0.3547619047619048,0.3547619047619048,0.3547619047619048,0.3547619047619048,0.3547619047619048,0.3547619047619048,0.3547619047619048,0.3547619047619048,0.3547619047619048,0.3547619047619048,0.3547619047619048,0.3547619047619048,0.3547619047619048,0.3547619047619048,0.3547619047619048,0.3547619047619048,0.3547619047619048,0.3547619047619048,0.3547619047619048,0.3547619047619048,0.3547619047619048,0.3547619047619048,0.3547619047619048,0.3547619047619048,0.3547619047619048,0.3547619047619048,0.3547619047619048,0.3547619047619048,0.3547619047619048,0.3547619047619048,0.3547619047619048,0.3547619047619048,0.3547619047619048,0.3547619047619048,0.3547619047619048,0.3547619047619048,0.3547619047619048,0.3547619047619048,0.3547619047619048,0.3547619047619048,0.3547619047619048,0.3547619047619048,0.3547619047619048,0.3547619047619048,0.3547619047619048,0.3547619047619048,0.3547619047619048,0.3547619047619048,0.3547619047619048,0.3547619047619048,0.3547619047619048,0.3547619047619048,0.3547619047619048,0.3547619047619048,0.3547619047619048,0.3547619047619048,0.3547619047619048,0.3547619047619048,0.3547619047619048,0.3547619047619048,0.3547619047619048,0.3547619047619048,0.3547619047619048,0.3547619047619048,0.3547619047619048,0.3547619047619048,0.36428571428571427,0.36428571428571427,0.36428571428571427,0.36428571428571427,0.36428571428571427,0.36428571428571427,0.3738095238095238,0.3738095238095238,0.3738095238095238,0.3738095238095238,0.3738095238095238,0.3738095238095238,0.38333333333333336,0.38333333333333336,0.38333333333333336,0.38333333333333336,0.38333333333333336,0.38333333333333336,0.38333333333333336,0.38333333333333336,0.38333333333333336,0.38333333333333336,0.38333333333333336,0.39285714285714285,0.39285714285714285,0.39285714285714285,0.39285714285714285,0.39285714285714285,0.39285714285714285,0.39285714285714285,0.39285714285714285,0.39285714285714285,0.39285714285714285,0.4023809523809524,0.4023809523809524,0.4023809523809524,0.4023809523809524,0.4119047619047619,0.4119047619047619,0.4119047619047619,0.4119047619047619,0.42142857142857143,0.42142857142857143,0.42142857142857143,0.42142857142857143,0.42142857142857143,0.42142857142857143,0.42142857142857143,0.42142857142857143,0.4119047619047619,0.38333333333333336,0.38333333333333336,0.36428571428571427,0.34523809523809523,0.3261904761904762,0.31666666666666665,0.2976190476190476,0.28809523809523807,0.2785714285714286,0.25952380952380955,0.24047619047619048,0.22142857142857142,0.20238095238095238,0.19285714285714287,0.18333333333333332,0.1738095238095238,0.16428571428571428,0.15476190476190477,0.14523809523809525,0.14523809523809525,0.14523809523809525,0.1357142857142857,0.1357142857142857,0.1261904761904762,0.1261904761904762,0.1261904761904762,0.11666666666666667,0.11666666666666667,0.10714285714285714,0.10714285714285714,0.09761904761904762,0.0880952380952381,0.07857142857142857,0.07857142857142857,0.06904761904761905,0.05952380952380952,0.05952380952380952,0.05,0.05,0.05,0.05,0.05,0.05,0.05,0.05,0.05,0.05,0.05,0.05,0.05,0.05,0.05,0.05,0.05,0.05,0.05,0.05,0.05,0.05,0.05,0.05,0.05,0.05,0.05,0.05,0.05,0.05,0.05,0.05,0.05,0.05,0.05,0.05,0.05,0.05,0.05,0.05,0.05,0.05,0.05,0.05,0.05,0.05,0.05,0.05,0.05,0.05,0.05,0.05,0.05,0.05,0.05,0.05,0.05,0.05,0.05,0.05,0.05,0.05,0.05,0.05,0.05,0.05,0.05,0.05,0.06904761904761905,0.09761904761904762,0.1261904761904762,0.20238095238095238,0.25952380952380955,0.2976190476190476,0.3547619047619048,0.4023809523809524,0.4880952380952381,0.5357142857142857,0.6023809523809524,0.6595238095238095,0.7261904761904762,0.8023809523809524,0.85,0.9261904761904762,0.9738095238095238,1.0119047619047619,1.0404761904761906,1.05,1.0595238095238095,1.069047619047619,1.069047619047619,1.069047619047619,1.069047619047619,1.069047619047619,1.069047619047619,1.069047619047619,1.069047619047619,1.069047619047619,1.069047619047619,1.069047619047619,1.069047619047619,1.069047619047619,1.069047619047619,1.069047619047619,1.069047619047619,1.069047619047619,1.069047619047619,1.069047619047619,1.069047619047619,1.069047619047619,1.069047619047619,1.069047619047619,1.069047619047619,1.069047619047619,1.069047619047619,1.069047619047619,1.069047619047619,1.069047619047619,1.069047619047619,1.069047619047619,1.069047619047619,1.069047619047619,1.069047619047619,1.069047619047619,1.069047619047619,1.069047619047619,1.069047619047619,1.069047619047619,1.069047619047619,1.069047619047619,1.069047619047619,1.069047619047619,1.0404761904761906,1.0023809523809524,0.9452380952380952,0.8595238095238096,0.8119047619047619,0.6976190476190476,0.6309523809523809,0.5928571428571429,0.5642857142857143,0.5357142857142857,0.5261904761904762,0.5261904761904762,0.5261904761904762,0.5166666666666667,0.5166666666666667,0.5166666666666667,0.5166666666666667,0.5166666666666667,0.5166666666666667,0.5166666666666667,0.5166666666666667,0.5166666666666667,0.5166666666666667,0.5166666666666667,0.5166666666666667,0.5166666666666667,0.5166666666666667,0.5166666666666667,0.5166666666666667,0.5166666666666667,0.5166666666666667,0.5166666666666667,0.5166666666666667,0.5166666666666667,0.5166666666666667,0.5166666666666667,0.5166666666666667,0.5166666666666667,0.5166666666666667,0.5166666666666667,0.5166666666666667,0.5166666666666667,0.5166666666666667,0.5166666666666667,0.5166666666666667,0.5166666666666667,0.5166666666666667,0.5166666666666667,0.5166666666666667,0.5166666666666667,0.5166666666666667,0.5166666666666667,0.5166666666666667,0.5166666666666667,0.5166666666666667,0.5166666666666667,0.5166666666666667,0.5166666666666667,0.5166666666666667,0.5166666666666667,0.5166666666666667,0.5166666666666667,0.5166666666666667,0.5166666666666667,0.5166666666666667,0.5166666666666667,0.5166666666666667,0.5166666666666667,0.5166666666666667,0.5166666666666667,0.5166666666666667,0.5166666666666667,0.5166666666666667,0.5166666666666667,0.5166666666666667,0.5166666666666667,0.5166666666666667,0.5166666666666667,0.5166666666666667,0.5166666666666667,0.5166666666666667,0.5166666666666667,0.5166666666666667,0.5166666666666667,0.5166666666666667,0.5071428571428571,0.4976190476190476,0.4880952380952381,0.46904761904761905,0.45,0.430952380952381,0.39285714285714285,0.3547619047619048,0.30714285714285716,0.26904761904761904,0.22142857142857142,0.22142857142857142,0.1738095238095238,0.14523809523809525,0.1261904761904762,0.1261904761904762,0.10714285714285714,0.09761904761904762,0.0880952380952381,0.07857142857142857,0.05952380952380952,0.04047619047619048,0.030952380952380953,0.02142857142857143,0.02142857142857143,0.011904761904761904,0.011904761904761904,0.011904761904761904,0.011904761904761904,0.011904761904761904,0.011904761904761904,0.011904761904761904,0.011904761904761904,0.011904761904761904,0.011904761904761904,0.011904761904761904,0.011904761904761904,0.011904761904761904,0.011904761904761904,0.011904761904761904,0.011904761904761904,0.011904761904761904,0.011904761904761904,0.011904761904761904,0.011904761904761904,0.011904761904761904,0.011904761904761904,0.011904761904761904,0.011904761904761904,0.011904761904761904,0.011904761904761904,0.011904761904761904,0.011904761904761904,0.011904761904761904,0.011904761904761904,0.011904761904761904,0.011904761904761904,0.011904761904761904,0.011904761904761904,0.011904761904761904,0.011904761904761904,0.011904761904761904,0.011904761904761904,0.011904761904761904,0.011904761904761904,0.011904761904761904,0.011904761904761904,0.011904761904761904,0.011904761904761904,0.011904761904761904,0.011904761904761904,0.011904761904761904,0.011904761904761904,0.011904761904761904,0.011904761904761904,0.011904761904761904,0.011904761904761904,0.011904761904761904,0.011904761904761904,0.011904761904761904,0.011904761904761904,0.011904761904761904,0.011904761904761904,0.011904761904761904,0.011904761904761904,0.011904761904761904,0.011904761904761904,0.011904761904761904,0.011904761904761904,0.011904761904761904,0.011904761904761904,0.011904761904761904,0.011904761904761904,0.011904761904761904,0.011904761904761904,0.011904761904761904,0.011904761904761904,0.011904761904761904,0.011904761904761904,0.011904761904761904,0.011904761904761904,0.011904761904761904,0.011904761904761904,0.011904761904761904,0.011904761904761904,0.011904761904761904,0.011904761904761904,0.011904761904761904,0.011904761904761904,0.011904761904761904,0.011904761904761904,0.011904761904761904,0.011904761904761904,0.05,0.1261904761904762,0.20238095238095238,0.25952380952380955,0.3738095238095238,0.4595238095238095,0.5547619047619048,0.6404761904761904,0.7071428571428572,0.7547619047619047,0.8023809523809524,0.85,0.888095238095238,0.9452380952380952,0.9738095238095238,0.9928571428571429,1.0214285714285714,1.0309523809523808,1.0404761904761906,1.05,1.0595238095238095,1.069047619047619,1.069047619047619,1.069047619047619,1.069047619047619,1.069047619047619,1.069047619047619,1.069047619047619,1.069047619047619,1.069047619047619,1.069047619047619,1.069047619047619,1.069047619047619,1.069047619047619,1.069047619047619,1.069047619047619,1.069047619047619,1.069047619047619,1.069047619047619,1.069047619047619,1.069047619047619,1.069047619047619,1.069047619047619,1.069047619047619,1.069047619047619,1.069047619047619,1.069047619047619,1.069047619047619,1.069047619047619,1.069047619047619,1.069047619047619,1.069047619047619,1.069047619047619,1.069047619047619,1.069047619047619,1.069047619047619,1.069047619047619,1.069047619047619,1.069047619047619,1.069047619047619,1.069047619047619,1.069047619047619,1.069047619047619,1.069047619047619,1.069047619047619,1.069047619047619,1.069047619047619,1.069047619047619,1.069047619047619,1.069047619047619,1.069047619047619,1.069047619047619,1.069047619047619,1.069047619047619,1.069047619047619,1.069047619047619,1.069047619047619,1.069047619047619,1.069047619047619,1.069047619047619,1.069047619047619,1.069047619047619,1.069047619047619,1.069047619047619,1.069047619047619,1.069047619047619,1.069047619047619,1.069047619047619,1.069047619047619,1.069047619047619,1.069047619047619,1.069047619047619,1.069047619047619,1.069047619047619,1.069047619047619,1.069047619047619,1.069047619047619,1.069047619047619,1.069047619047619,1.069047619047619,1.069047619047619,1.069047619047619,1.069047619047619,1.069047619047619,1.069047619047619,1.069047619047619,1.069047619047619,1.069047619047619,1.069047619047619,1.069047619047619,1.069047619047619,1.069047619047619,1.069047619047619,1.069047619047619,1.069047619047619,1.069047619047619,1.069047619047619,1.069047619047619,1.069047619047619,1.069047619047619,1.069047619047619,1.0595238095238095,1.0595238095238095,1.0595238095238095,1.0595238095238095,1.0595238095238095,1.0595238095238095,1.0595238095238095,1.0595238095238095,1.0595238095238095,1.0595238095238095,1.0595238095238095,1.0595238095238095,1.0595238095238095,1.0595238095238095,1.0595238095238095,1.0595238095238095,1.0595238095238095,1.0595238095238095,1.0595238095238095,1.0595238095238095,1.0595238095238095,1.0595238095238095,1.0595238095238095,1.0595238095238095,1.0595238095238095,1.0595238095238095,1.0595238095238095,1.0595238095238095,1.0595238095238095,1.0595238095238095,1.0595238095238095,1.0595238095238095,1.0595238095238095,1.0595238095238095,1.0595238095238095,1.0595238095238095,1.0595238095238095,1.0595238095238095,1.0595238095238095,1.0595238095238095,1.0595238095238095,1.0595238095238095,1.05,1.05,1.0404761904761906,1.0214285714285714,0.9738095238095238,0.9166666666666666,0.8214285714285714,0.7166666666666667,0.65,0.611904761904762,0.5357142857142857,0.4976190476190476,0.4595238095238095,0.44047619047619047,0.4119047619047619,0.39285714285714285,0.36428571428571427,0.34523809523809523,0.2976190476190476,0.2785714285714286,0.25,0.23095238095238096,0.20238095238095238,0.1738095238095238,0.15476190476190477,0.1357142857142857,0.11666666666666667,0.07857142857142857,0.05952380952380952,0.030952380952380953,0.002380952380952381,-0.007142857142857143,-0.02619047619047619,-0.03571428571428571,-0.04523809523809524,-0.05476190476190476,-0.05476190476190476,-0.06428571428571428,-0.06428571428571428,-0.06428571428571428,-0.06428571428571428,-0.06428571428571428,-0.06428571428571428,-0.06428571428571428,-0.06428571428571428,-0.06428571428571428,-0.06428571428571428,-0.06428571428571428,-0.06428571428571428,-0.06428571428571428,-0.06428571428571428,-0.06428571428571428,-0.06428571428571428,-0.06428571428571428,-0.06428571428571428,-0.06428571428571428,-0.06428571428571428,-0.06428571428571428,-0.06428571428571428,-0.06428571428571428,-0.06428571428571428,-0.06428571428571428,-0.06428571428571428,-0.06428571428571428,-0.06428571428571428,-0.06428571428571428,-0.06428571428571428,-0.06428571428571428,-0.06428571428571428,-0.06428571428571428,-0.06428571428571428,-0.06428571428571428,-0.06428571428571428,-0.06428571428571428,-0.06428571428571428,-0.06428571428571428,-0.06428571428571428,-0.06428571428571428,-0.06428571428571428,-0.06428571428571428,-0.06428571428571428,-0.06428571428571428,-0.06428571428571428,-0.06428571428571428,-0.06428571428571428,-0.06428571428571428,-0.06428571428571428,-0.06428571428571428,-0.06428571428571428,-0.06428571428571428,-0.06428571428571428,-0.06428571428571428,-0.06428571428571428,-0.06428571428571428,-0.06428571428571428,-0.06428571428571428,-0.06428571428571428,-0.06428571428571428,-0.06428571428571428,-0.06428571428571428,-0.06428571428571428,-0.06428571428571428,-0.06428571428571428,-0.06428571428571428,-0.06428571428571428,-0.06428571428571428,-0.06428571428571428,-0.06428571428571428,-0.06428571428571428,-0.06428571428571428,-0.06428571428571428,-0.06428571428571428,-0.06428571428571428,-0.06428571428571428,-0.06428571428571428,-0.06428571428571428,-0.06428571428571428,-0.06428571428571428,-0.06428571428571428,-0.06428571428571428,-0.06428571428571428,-0.05476190476190476,-0.02619047619047619,0.002380952380952381,0.04047619047619048,0.0880952380952381,0.16428571428571428,0.24047619047619048,0.30714285714285716,0.3357142857142857,0.39285714285714285,0.44047619047619047,0.4785714285714286,0.4880952380952381,0.5071428571428571,0.5166666666666667,0.5166666666666667,0.5166666666666667,0.5166666666666667,0.5166666666666667,0.5166666666666667,0.5166666666666667,0.5166666666666667,0.5166666666666667,0.5166666666666667,0.5071428571428571,0.4976190476190476,0.4976190476190476,0.4785714285714286,0.4785714285714286,0.4785714285714286,0.46904761904761905,0.46904761904761905,0.46904761904761905,0.46904761904761905,0.46904761904761905,0.46904761904761905,0.46904761904761905,0.4785714285714286,0.4785714285714286,0.4880952380952381,0.4976190476190476,0.4976190476190476,0.4976190476190476,0.5071428571428571,0.5071428571428571,0.5071428571428571,0.5071428571428571,0.5071428571428571,0.5071428571428571,0.5071428571428571,0.5071428571428571,0.5071428571428571,0.5071428571428571,0.5071428571428571,0.5071428571428571,0.5071428571428571,0.5071428571428571,0.5071428571428571,0.5071428571428571,0.5071428571428571,0.5071428571428571,0.5071428571428571,0.5071428571428571,0.5071428571428571,0.5071428571428571,0.5071428571428571,0.5071428571428571,0.5071428571428571,0.5071428571428571,0.5071428571428571,0.5071428571428571,0.5071428571428571,0.5071428571428571,0.5071428571428571,0.5071428571428571,0.5071428571428571,0.5071428571428571,0.4976190476190476,0.4976190476190476,0.4976190476190476,0.4976190476190476,0.4976190476190476,0.4976190476190476,0.4976190476190476,0.4976190476190476,0.4976190476190476,0.4976190476190476,0.4976190476190476,0.4976190476190476,0.4976190476190476,0.4976190476190476,0.4976190476190476,0.4976190476190476,0.4976190476190476,0.4976190476190476,0.4976190476190476,0.4976190476190476,0.4976190476190476,0.4976190476190476,0.4976190476190476,0.4976190476190476,0.4976190476190476,0.4976190476190476,0.4976190476190476,0.4976190476190476,0.4976190476190476,0.4976190476190476,0.4976190476190476,0.4976190476190476,0.4976190476190476,0.4976190476190476,0.4976190476190476,0.4976190476190476,0.4976190476190476,0.4976190476190476,0.4976190476190476,0.4976190476190476,0.4976190476190476,0.4976190476190476,0.4976190476190476,0.4976190476190476,0.4976190476190476,0.4976190476190476,0.4976190476190476,0.4976190476190476,0.4976190476190476,0.4976190476190476,0.4976190476190476,0.4976190476190476,0.4976190476190476,0.4976190476190476,0.4976190476190476,0.4976190476190476,0.4976190476190476,0.4976190476190476,0.4976190476190476,0.4976190476190476,0.4976190476190476,0.4976190476190476,0.4976190476190476,0.4976190476190476,0.4976190476190476,0.4976190476190476,0.4976190476190476,0.4976190476190476,0.4976190476190476,0.4976190476190476,0.4976190476190476,0.4976190476190476,0.5357142857142857,0.5928571428571429,0.6214285714285714,0.65,0.6785714285714286,0.6976190476190476,0.7166666666666667,0.7261904761904762,0.7357142857142858,0.7452380952380953,0.7452380952380953,0.7547619047619047,0.7547619047619047,0.7547619047619047,0.7547619047619047,0.7547619047619047,0.7547619047619047,0.7547619047619047,0.7547619047619047,0.7547619047619047,0.7547619047619047,0.7833333333333333,0.8595238095238096,0.9166666666666666,0.9642857142857143,1.0023809523809524,1.05,1.0595238095238095,1.0785714285714285,1.0785714285714285,1.088095238095238,1.088095238095238,1.088095238095238,1.088095238095238,1.088095238095238,1.088095238095238,1.088095238095238,1.088095238095238,1.088095238095238,1.088095238095238,1.088095238095238,1.088095238095238,1.088095238095238,1.088095238095238,1.0785714285714285,1.0785714285714285,1.069047619047619,1.069047619047619,1.0595238095238095,1.0595238095238095,1.0595238095238095,1.0595238095238095,1.0595238095238095,1.0595238095238095,1.0595238095238095,1.0595238095238095,1.0595238095238095,1.0595238095238095,1.0595238095238095,1.0595238095238095,1.0595238095238095,1.0595238095238095,1.0595238095238095,1.0595238095238095,1.0595238095238095,1.0595238095238095,1.0595238095238095,1.0595238095238095,1.0595238095238095,1.0595238095238095,1.0595238095238095,1.0595238095238095,1.0595238095238095,1.0595238095238095,1.0595238095238095,1.0595238095238095,1.0595238095238095,1.0595238095238095,1.0595238095238095,1.0595238095238095,1.0595238095238095,1.0595238095238095,1.0595238095238095,1.0595238095238095,1.0595238095238095,1.0595238095238095,1.0595238095238095,1.0595238095238095,1.0595238095238095,1.0595238095238095,1.0595238095238095,1.0595238095238095,1.0595238095238095,1.0595238095238095,1.0595238095238095,1.0595238095238095,1.0595238095238095,1.0595238095238095,1.0976190476190477,1.230952380952381,1.430952380952381,1.7166666666666666,1.9166666666666667,2.25,2.3261904761904764,2.4023809523809523,2.4309523809523808,2.4404761904761907,2.45,2.4595238095238097,2.469047619047619,2.469047619047619,2.4785714285714286,2.4785714285714286,2.4785714285714286,2.4785714285714286,2.4785714285714286,2.4785714285714286,2.4785714285714286,2.4785714285714286,2.4785714285714286,2.4785714285714286,2.4785714285714286,2.4785714285714286,2.4785714285714286,2.4785714285714286,2.4785714285714286,2.4785714285714286,2.4785714285714286,2.4785714285714286,2.4785714285714286,2.4785714285714286,2.4785714285714286,2.4785714285714286,2.4785714285714286,2.4785714285714286,2.4785714285714286,2.4785714285714286,2.4785714285714286,2.4785714285714286,2.4785714285714286,2.4785714285714286,2.4785714285714286,2.4785714285714286,2.4785714285714286,2.4785714285714286,2.4785714285714286,2.4785714285714286,2.4785714285714286,2.4785714285714286,2.4785714285714286,2.4785714285714286,2.4785714285714286,2.4785714285714286,2.4785714285714286,2.4785714285714286,2.4785714285714286,2.4785714285714286,2.4785714285714286,2.4785714285714286,2.4785714285714286,2.4785714285714286,2.4785714285714286,2.4785714285714286,2.4785714285714286,2.4785714285714286,2.4785714285714286,2.4785714285714286,2.4785714285714286,2.4785714285714286,2.4785714285714286,2.4785714285714286,2.4785714285714286,2.4785714285714286,2.4785714285714286,2.4785714285714286,2.4785714285714286,2.4785714285714286,2.4785714285714286,2.4785714285714286,2.4785714285714286,2.4785714285714286,2.4785714285714286,2.4785714285714286,2.4785714285714286,2.4785714285714286,2.4785714285714286,2.4785714285714286,2.4785714285714286,2.4785714285714286,2.4785714285714286,2.4785714285714286,2.4785714285714286,2.4785714285714286,2.4785714285714286,2.4785714285714286,2.4785714285714286,2.4785714285714286,2.4785714285714286,2.4785714285714286,2.4785714285714286,2.4785714285714286,2.4785714285714286,2.4785714285714286,2.4785714285714286,2.4785714285714286,2.4785714285714286,2.4785714285714286,2.4785714285714286,2.4785714285714286,2.4785714285714286]},"final_keyboard_state":["A","E","B","R","Z"],"num_clicks":5,"points":15,"cheat":false,"trial_type":"Hangman","trial_index":5,"time_elapsed":61097,"internal_node_id":"0.0-4.0","protocol_sum":"","subject_identifier":316,"subject_sum":[126,216,240,243,183,7,149,109,159,177,232,137,225,17,83,224,170,10,133,73,131,8,29,38,47,190,94,237,227,45,167,202],"subject_pair":158,"STUDY_ID":"66a0b3911f23dfc7665bb169","PROLIFIC_PID":"668ae0afbe5eedd5c5460d15","SESSION_ID":"66a13b8a813291bb194eaedb","practice_instructions":1,"leaderboard_instructions":0,"bonus":0,"reveal_word":false,"self_rating":"2","confidence":"80"},{"view_history":"[{\"page_index\":0,\"viewing_time\":3244.9000000059605},{\"page_index\":1,\"viewing_time\":20127.29999999702}]","rt":23372.90000000596,"trial_type":"instructions","trial_index":6,"time_elapsed":84472,"internal_node_id":"0.0-5.0","protocol_sum":"","subject_identifier":316,"subject_sum":[126,216,240,243,183,7,149,109,159,177,232,137,225,17,83,224,170,10,133,73,131,8,29,38,47,190,94,237,227,45,167,202],"subject_pair":158,"STUDY_ID":"66a0b3911f23dfc7665bb169","PROLIFIC_PID":"668ae0afbe5eedd5c5460d15","SESSION_ID":"66a13b8a813291bb194eaedb","practice_instructions":1,"leaderboard_instructions":0,"bonus":0,"reveal_word":false,"self_rating":"2","confidence":"80"},{"rt":9591.89999999106,"responses":"{\"Q0\":\"...from <b>a previous session</b> that is not part of the upcoming tournament.\"}","question_order":"[0]","trial_type":"survey-multi-choice","trial_index":7,"time_elapsed":94065,"internal_node_id":"0.0-6.0","protocol_sum":"","subject_identifier":316,"subject_sum":[126,216,240,243,183,7,149,109,159,177,232,137,225,17,83,224,170,10,133,73,131,8,29,38,47,190,94,237,227,45,167,202],"subject_pair":158,"correct":true,"test_part":"multichoice_leaderboard","STUDY_ID":"66a0b3911f23dfc7665bb169","PROLIFIC_PID":"668ae0afbe5eedd5c5460d15","SESSION_ID":"66a13b8a813291bb194eaedb","practice_instructions":1,"leaderboard_instructions":0,"bonus":0,"reveal_word":false,"self_rating":"2","confidence":"80"},{"view_history":"[{\"page_index\":0,\"viewing_time\":25536.29999999702}]","rt":25536.59999999404,"trial_type":"instructions","trial_index":8,"time_elapsed":119603,"internal_node_id":"0.0-8.0","protocol_sum":"","subject_identifier":316,"subject_sum":[126,216,240,243,183,7,149,109,159,177,232,137,225,17,83,224,170,10,133,73,131,8,29,38,47,190,94,237,227,45,167,202],"subject_pair":158,"STUDY_ID":"66a0b3911f23dfc7665bb169","PROLIFIC_PID":"668ae0afbe5eedd5c5460d15","SESSION_ID":"66a13b8a813291bb194eaedb","practice_instructions":1,"leaderboard_instructions":0,"bonus":0,"reveal_word":false,"self_rating":"2","confidence":"80"},{"rt":9171.89999999106,"responses":"{\"Q0\":\"...players' leaderboard position (in terms of <b>points</b>) in an <b>upcoming tournament.</b>\"}","question_order":"[0]","trial_type":"survey-multi-choice","trial_index":9,"time_elapsed":128777,"internal_node_id":"0.0-9.0","protocol_sum":"","subject_identifier":316,"subject_sum":[126,216,240,243,183,7,149,109,159,177,232,137,225,17,83,224,170,10,133,73,131,8,29,38,47,190,94,237,227,45,167,202],"subject_pair":158,"correct":true,"test_part":"multichoice_tournament","STUDY_ID":"66a0b3911f23dfc7665bb169","PROLIFIC_PID":"668ae0afbe5eedd5c5460d15","SESSION_ID":"66a13b8a813291bb194eaedb","practice_instructions":1,"leaderboard_instructions":0,"bonus":0,"reveal_word":false,"self_rating":"2","confidence":"80"},{"view_history":"[{\"page_index\":0,\"viewing_time\":10101.699999988079}]","rt":10102.199999988079,"trial_type":"instructions","trial_index":10,"time_elapsed":138880,"internal_node_id":"0.0-11.0","protocol_sum":"","subject_identifier":316,"subject_sum":[126,216,240,243,183,7,149,109,159,177,232,137,225,17,83,224,170,10,133,73,131,8,29,38,47,190,94,237,227,45,167,202],"subject_pair":158,"STUDY_ID":"66a0b3911f23dfc7665bb169","PROLIFIC_PID":"668ae0afbe5eedd5c5460d15","SESSION_ID":"66a13b8a813291bb194eaedb","practice_instructions":1,"leaderboard_instructions":0,"bonus":0,"reveal_word":false,"self_rating":"2","confidence":"80"},{"view_history":"[{\"page_index\":0,\"viewing_time\":9668.5}]","rt":9668.79999999702,"trial_type":"instructions","trial_index":11,"time_elapsed":148551,"internal_node_id":"0.0-12.0-0.0","protocol_sum":"","subject_identifier":316,"subject_sum":[126,216,240,243,183,7,149,109,159,177,232,137,225,17,83,224,170,10,133,73,131,8,29,38,47,190,94,237,227,45,167,202],"subject_pair":158,"STUDY_ID":"66a0b3911f23dfc7665bb169","PROLIFIC_PID":"668ae0afbe5eedd5c5460d15","SESSION_ID":"66a13b8a813291bb194eaedb","practice_instructions":1,"leaderboard_instructions":0,"bonus":0,"reveal_word":false,"self_rating":"2","confidence":"80"},{"word":"THIRTY FOUR","click_log":{"letter":["","E","I","O","M","N","T","H","R","Y","F","U"],"t":[0,3418.7000000029802,5604.20000000298,8210.5,11226.39999999106,12626,14398.59999999404,19096.5,21147,23951.79999999702,25490.29999999702,27148.89999999106],"hit":[null,0,1,1,0,0,2,1,2,1,1,1],"asked":["","E","EI","EIO","EIOM","EIOMN","EIOMNT","EIOMNTH","EIOMNTHR","EIOMNTHRY","EIOMNTHRYF","EIOMNTHRYFU"],"word_state":["______ ____","______ ____","__I___ ____","__I___ _O__","__I___ _O__","__I___ _O__","T_I_T_ _O__","THI_T_ _O__","THIRT_ _O_R","THIRTY _O_R","THIRTY FO_R","THIRTY FOUR"]},"hover_log":{"letter":["?","?","?","?","?","?","?","?","?","?","?","?","?","?","?","?","?","?","?","?","?","?","?","?","?","?","?","?","?","?","?","?","?","?","?","?","?","?","?","?","?","?","?","?","?","?","?","?","?","?","?","?","?","?","?","?","?","?","?","?","?","?","?","?","?","?","?","?","?","?","?","?","?","?","?","?","?","?","?","?","?","?","?","?","?","?","?","?","?","?","?","?","?","?","?","?","?","?","?","?","?","?","?","?","?","?","?","?","?","?","?","?","?","?","?","?","?","?","?","?","?","?","?","?","?","?","?","?","?","?","?","?","?","?","?","?","?","?","?","?","?","?","?","?","?","?","?","?","?","?","?","?","?","?","?","?","?","?","?","?","?","?","?","?","?","?","?","?","?","?","?","?","?","?","?","?","?","?","?","?","?","?","?","?","?","?","?","?","?","?","?","?","?","?","?","?","?","?","?","?","?","?","?","?","?","?","?","?","?","?","?","?","?","?","?","?","?","?","?","?","?","?","?","?","?","?","?","?","?","?","?","?","?","?","?","?","?","?","?","?","?","?","?","?","?","?","?","?","?","?","?","?","?","?","?","?","?","?","?","?","?","?","?","?","?","?","?","?","?","?","?","?","?","?","?","?","?","?","?","?","?","?","?","?","?","?","?","?","?","?","?","?","?","?","?","?","?","?","?","?","?","?","?","?","?","?","?","?","?","?","?","?","?","?","?","?","?","?","?","?","?","?","?","?","?","?","?","?","?","?","?","?","?","?","?","?","?","?","?","?","?","?","?","?","?","?","?","?","?","?","?","?","?","?","?","?","?","?","?","?","?","?","?","?","?","?","?","?","?","?","?","?","?","?","?","?","?","?","?","?","?","?","?","?","?","?","?","?","?","?","?","?","?","?","?","?","?","?","?","?","?","?","?","?","?","?","?","?","?","?","?","?","?","?","?","?","?","?","?","?","?","?","?","?","?","?","?","?","?","?","?","?","?","?","?","?","?","?","?","?","?","?","?","?","?","?","?","?","?","?","?","?","?","?","?","?","?","?","?","?","?","?","?","?","?","?","?","?","?","?","?","?","?","?","?","?","?","?","?","?","?","?","?","?","?","?","?","?","?","?","?","?","?","?","?","?","?","?","?","?","?","?","?","?","?","?","?","?","?","?","?","?","?","?","?","?","?","?","?","?","?","?","?","?","?","?","?","?","?","?","?","?","?","?","?","?","?","?","?","?","?","?","?","?","?","?","?","?","?","?","?","?","?","?","?","?","?","?","?","?","?","?","?","?","S","?","?","?","?","?","?","?","?","?","?","?","?","?","?","?","?","?","?","?","?","?","?","?","?","?","?","?","?","?","?","?","?","?","?","?","?","?","?","?","?","?","?","?","?","?","?","?","?","?","?","?","?","?","?","?","?","?","?","?","?","?","?","?","?","?","?","?","?","?","?","?","?","?","?","?","?","?","?","?","?","?","?","?","?","?","?","?","?","?","?","?","?","?","?","?","?","?","?","?","?","?","?","?","?","?","?","?","?","?","?","?","?","?","?","?","?","?","?","?","?","?","?","?","?","?","?","?","?","?","?","?","?","?","?","?","?","?","?","?","?","?","?","?","?","?","?","?","?","?","?","?","?","?","?","?","?","?","?","?","?","?","?","?","?","?","?","?","?","?","?","?","?","?","?","?","?","?","?","?","?","?","?","?","?","?","?","?","?","?","?","?","?","?","?","?","?","?","?","?","?","?","?","?","?","?","?","?","?","?","?","?","?","?","?","?","?","?","?","?","?","?","?","?","?","?","?","?","?","?","?","?","?","?","?","?","?","?","?","?","?","?","?","?","?","?","?","?","?","?","?","?","?","?","?","?","?","?","?","?","?","?","?","?","?","?","?","?","?","?","?","?","?","?","?","?","?","?","?","?","?","?","?","?","?","?","?","?","?","?","?","?","?","?","?","?","?","?","?","?","?","?","?","?","?","?","?","?","?","?","?","?","?","?","?","?","?","?","?","?","?","?","?","?","?","?","?","?","?","?","?","?","?","?","?","?","?","?","?","?","?","?","?","?","?","?","?","?","?","?","?","?","?","?","?","?","?","?","?","?","?","?","?","?","?","?","?","?","?","?","?","?","?","?","?","?","?","?","?","?","?","?","?","?","?","?","?","?","?","?","?","?","?","?","?","?","?","?","?","?","?","?","?","?","?","?","?","?","?","?","?","?","?","?","?","?","?","?","?","?","?","?","?","?","?","?","?","?","?","?","?","?","?","?","?","?","?","?","?","?","?","?","?","?","?","?","?","?","?","?","?","?","?","?","?","?","?","?","?","?","?","?","?","?","?","?","?","?","?","?","?","?","?","?","?","?","?","?","?","?","?","?","?","?","?","?","?","?","?","?","?","?","?","?","?","?","?","?","?","?","?","?","?","?","?","?","?","?","?","?","?","?","?","?","?","?","?","?","?","?","?","?","?","?","?","?","?","?","?","?","?","?","?","?","?","?","?","?","?","?","?","?","?","?","?","?","?","?","?","?","?","?","?","?","?","?","?","?","?","?","?","?","?","?","?","?","?","?","?","?","?","?","?","?","?","?","?","?","?","?","?","?","?","?","?","?","?","?","?","?","?","?","?","?","?","?","?","?","?","?","?","?","?","?","?","?","?","?","?","?","?","?","?","?","?","?","?","?","?","?","?","?","?","?","?","?","?","?","?","?","?","?","?","?","?","?","?","?","?","?","?","?","?","?","?","?","?","?","?","?","?","?","?","?","?","?","?","?","?","?","?","?","?","?","?","?","?","?","?","?","?","?","?","?","?","?","?","?","?","?","?","?","?","?","?","?","?","?","?","?","?","?","?","?","?","?","?","?","?","?","?","?","?","?","?","?","?","?","?","?","?","?","?","?","?","?","?","?","?","?","?","?","?","?","?","?","?","?","?","?","?","?","?","?","?","?","?","?","?","?","?","?","?","?","?","?","?","?","?","?","?","?","?","?","?","?","?","?","?","?","?","?","?","?","?","?","?","?","?","?","?","?","?","?","?","?","?","?","?","?","?","?","?","?","?","?","?","?","?","?","?","?","?","?","?","?","?","?","?","?","?","?","?","?","?","?","?","?","?","?","?","?","?","?","?","?","?","?","?","?","?","?","?","?","?","?","?","?","?","?","?","?","?","?","?","?","?","?","?","?","?","?","?","?","?","?","?","?","?","?","?","?","?","?","?","?","?","?","?","?","?","?","?","?","?","?","?","?","?","?","?","?","?","?","?","?","?","?","?","?","?","?","?","?","?","?","?","?","?","?","?","?","?","?","?","?","?","?","?","?","?","?","?","?","?","?","?","?","?","?","?","?","?","?","?","?","?","?","?","?","?","?","?","?","?","?","?","?","?","?","?","?","?","?","?","?","?","?","?","?","?","?","?","?","?","?","?","?","?","?","?","?","?","?","?","?","?","?","?","?","?","?","?","?","?","?","?","?","?","?","?","?","?","?","?","?","?","?","?","?","?","?","?","?","?","?","?","?","?","?","?","?","?","?","?","?","?","?","?","?","?","?","?","?","?","?","?","?","?","?","?","?","?","?","?","?","?","?","?","?","?","?","?","?","?","?","?","?","?","?","?","?","?","?","?","?","?","?","?","?","?","?","?","?","?","?","?","?","?","?","?","?","?","?","?","?","?","?","?","?","?","?","?","?","?","?","?","?","?","?","?","?","?","?","?","?","?","?","?","?","?","?","?","?","?","?","?","?","?","?","?","?","?","?","?","?","?","?","?","?","?","?","?","?","?","?","?","?","?","?","?","?","?","?","?","?","?","?","?","?","?","?","?","?","?","?","?","?","?","?","?","?","?","?","?","?","?","?","?","?","?","?","?","?","?","?","?","?","?","?","?","?","?","?","?","?","?","?","?","?","?","?","?","?","?","?","?","?","?","?","?","?","?","?","?","?","?","?","?","?","?","?","?","?","?","?","?","?","?","?","?","?","?","?","?","?","?","?","?","?","?","?","?","?","?","?","?","?","?","?","?","?","?","?","?","?","?","?","?","?","?","?","?","?","?","?","?","?","?","?","?","?","?","?","?","?","?","?","?","?","?","?","?","?","?","?","?","?","?","?","?","?","?","?","?","?","?","?","?","?","?","?","?","?","?","?","?","?","?","?","?","?","?","?","?","?","?","?","?","?","?","?","?","?","?","?","?","?","?","?","?","?","?","?","?","?","?","?","?","?","?","?","?","?","?","?","?","?","?","?","?","?","?","?","?","?","?","?","?","?","?","?","?","?","?","?","?","?","?","?","?","?","?","?","?","?","?","?","?","?","?","?","?","?","?","?","?","?","?","?","?","?","?","?","?","?","?","?","?","?","?","?","?","?","?","?","?","?","?","?","?","?","?","?","?","?","?","?","?","?","?","?","?","?","?","?","?","?","?","?","?","?","?","?","?","?","?","?","?","?","?","?","?","?","?","?","?","?","?","?","?","?","?","?","?","?","?","?","?","?","?","?","?","?","?","?","?","?","?","?","?","?","?","?","?","?","?","?","?","?","?","?","?","?","?","?","?","?","?","?","?","?","?","?","?","?","?","?","?","?","?","?","?","?","?","?","?","?","?","?","?","?","?","?","?","?","?","?","?","?","?","?","?","?","?","?","?","?","?","?","?","?","?","?","?","?","?","?","?","?","?","?","?","?","?","?","?","?","?","?","?","?","?","?","?","?","?","?","?","?","?","?","?","?","?","?","?","?","?","?","?","?","?","?","?","?","?","?","?","?","?","?","?","?","?","?","?","?","?","?","?","?","?","?","?","?","?","?","?","?","?","?","?","?","?","?","?","?","?","?","?","?","?","?","?","?","?","?","?","?","?","?","?","?","?","?","?","?","?","?","?","?","?","?","?","?","?","?","?","?","?","?","?","?","?","?","?","?","?","?","?","?","?","?","?","?","?","?","?","?","?","?","?","?","?","?","?","?","?","?","?","?","?","?","?","?","?","?","?","?","?","?","?","?","?","?","?","?","?","?","?","?","?","?","?","?","?","?","?","?","?","?","?","?","?","?","?","?","?","?","?","?","?","?","?","?","?","?","?","?","?","?","?","?","?","?","?","?","?","?","?","?","?","?","?","?","?","?","?","?","?","?","?","?","?","?","?","?","?","?","?","?","?","?","?","?","?","?","?","?","?","?","?","?","?","?","?","?","?","?","?","?","?","?","?","?","?","?","?","?","?","?","?","?","?","?","?","?","?","?","?","?","?","?","?","?","?","?","?","?","?","?","?","?","?","?","?","?","?","?","?","?","?","?","?","?","?","?","?","?","?","?","?","?","?","?","?","?","?","?","?","?","?","?","?","?","?","?","?","?","?","?","?","?","?","?","?","?","?","?","?","?","?","?","?","?","?","?","?","?","?","?","?","?","?","?","?","?","?","?","?","?","?","?","?","?","?","?","?","?","?","?","?","?","?","?","?","?","?","?","?","?","?","?","?","?","?","?","?","?","?","?","?","?","?","?","?","?","?","?","?","?","?","?","?","?","?","?","?","?","?","?","?","?","?","?","?","?","?","?","?","?","?","?","?","?","?","?","?","?","?","?","?","?","?","?","?","?","?","?","?","?","?","?","?","?","?","?","?","?","?","?","?","?","?","?","?","?","?","?","?","?","?","?","?","?","?","?","?","?","?","?","?","?","?","?","?","?","?","?","?","?","?","?","?","?","?","?","?","?","?","?","?","?","?","?","?","?","?","?","?","?","?","?","?","?","?","?","?","?","?","?","?","?","?","?","?","?","?","?","?","?","?","?","?","?","?","?","?","?","?","?","?","?","?","?","?","?","?","?","?","?","?","?","?","?","?","?","?","?","?","?","?","?","?","?","?","?","?","?","?","?","?","?","?","?","?","?","?","?","?","?","?","?","?","?","?","?","?","?","?","?","?","?","?","?","?","?","?","?","?","?","?","?","?","?","?","?","?","?","?","?","?","?","?","?","?","?","?","?","?","?","?","?","?","?","?","?","?","?","?","?","?","?","?","?","?","?","?","?","?","?","?","?","?","?","?","?","?","?","?","?","?","?","?","?","?","?","?","?","?","?","?","?","?","?","?","?","?","?","?","?","?","?","?","?","?","?","?","?","?","?","?","?","?","?","?","?","?","?","?","?","?","?","?","?","?","?","?","?","?","?","?","?","?","?","?","?","?","?","?","?","?","?","?","?","?","?","?","?","?","?","?","?","?","?","?","?","?","?","?","?","?","?","?","?","?","?","?","?","?","?","?","?","?","?","?","?","?","?","?","?","?","?","?","?","?","?","?","?","?","?","?","?","?","?","?","?","?","?","?","?","?","?","?","?","?","?","?","?","?","?","?","?","?","?","?","?","?","?","?","?","?","?","?","?","?","?","?","?","?","?","?","?","?","?","?","?","?","?","?","?","?","?","?","?","?","?","?","?","?","?","?","?","?","?","?","?","?","?","?","?","?","?","?","?","?","?","?","?","?","?","?","?","?","?","?","?","?","?","?","?","?","?","?","?","?","?","?","?","?","?","?","?","?","?","?","?","?","?","?","?","?","?","?","?","?","?","?","?","?","?","?","?","?","?","?","?","?","?","?","?","?","?","?","?","?","?","?","?","?","?","?","?","?","?","?","?","?","?","?","?","?","?","?","?","?","?","?","?","?","?","?","?","?","?","?","?","?","?","?","?","?","?","?","?","?","?","?","?","?","?","?","?","?","?","?","?","?","?","?","?","?","?","?","?","?","?","?","?","?","?","?","?","?","?","?","?","?","?","?","?","?","?","?","?","?","?","?","?","?","?","?","?","?","?","?","?","?","?","?","?","?","?","?","?","?","?","?","?","?","?","?","?","?","?","?","?","?","?","?","?","?","?","?","?","?","?","?","?","?","?","?","?","?","?","?","?","?","?","?","?","?","?","?","?","?","?","?","?","?","?","?","?","?","?","?","?","?","?","?","?","?","?","?","?","?","?","?","?","?","?","?","?","?","?","?","?","?","?","?","?","?","?","?","?","?","?","?","?","?","?","?","?","?","?","?","?","?","?","?","?","?","?","?","?","?","?","?","?","?","?","?","?","?","?","?","?","?","?","?","?","?","?","?","?","?","?","?","?","?","?","?","?","?","?","?","?","?","?","?","?","?","?","?","?","?","?","?","?","?","?","?","?","?","?","?","?","?","?","?","?","?","?","?","?","?","?","?","?","?","?","?","?","?","?","?","?","?","?","?","?","?","?","?","?","?","?","?","?","?","?","?","?","?","?","?","?","?","?","?","?","?","?","?","?","?","?","?","?","?","?","?","?","?","?","?","?","?","?","?","?","?","?","?","?","?","?","?","?","?","?","?","?","?","?","?","?","?","?","?","?","?","?","?","?","?","?","?","?","?","?","?","?","?","?","?","?","?","?","?","?","?","?","?","?","?","?","?","?","?","?","?","?","?","?","?","?","?","?","?","?","?","?","?","?","?","?","?","?","?","?","?","?","?","?","?","?","?","?","?","?","?","?","?","?","?","?","?","?","?","?","?","?","?","?","?","?","?","?","?","?","?","?","?","?","?","?","?","?","?","?","?","?","?","?","?","?","?","?","?","?","?","?","?","?","?","?","?","?","?","?","?","?","?","?","?","?","?","?","?","?","?","?","?","?","?","?","?","?","?","?","?","?","?","?","?","?","?","?","?","?","?","?","?","?","?","?","?","?","?","?","?","?","?","?","?","?","?","?","?","?","?","?","?","?","?","?","?","?","?","?","?","?","?","?","?","?","?","?","?","?","?","?","?","?","?","?","?","?","?","?","?","?","?","?","?","?","?","?","?","?","?","?","?","?","?","?","?","?","?","?","?","?","?","?","?","?","?","?","?","?","?","?","?","?","?","?","?","?","?","?","?","?","?","?","?","?","?","?","?","?","?","?","?","?","?","?","?","?","?","?","?","?","?","?","?","?","?","?","?","?","?","?","?","?","?","?","?","?","?","?","?","?","?","?","?","?","?","?","?","?","?","?","?","?","?","?","?","?","?","?","?","?","?","?","?","?","?","?","?","?","?","?","?","?","?","?","?","?","?","?","?","?","?","?","?","?","?","?","?","?","?","?","?","?","?","?","?","?","?","?","?","?","?","?","?","?","?","?","?","?","?","?","?","?","?","?","?","?","?","?","?","?","?","?","?","?","?","?","?","?","?","?","?","?","?","?","?","?","?","?","?","?","?","?","?","?","?","?","?","?","?","?","?","?","?","?","?","?","?","?","?","?","?","?","?","?","?","?","?","?","?","?","?","?","?","?","?","?","?","?","?","?","?","?","?","?","?","?","?","?","?","?","?","?","?","?","?","?","?","?","?","?","?","?","?","?","?","?","?","?","?","?","?","?","?","?","?","?","?","?","?","?","?","?","?","?","?","?","?","?","?","?","?","?","?","?","?","?","?","?","?","?","?","?","?","?","?","?","?","?","?","?","?","?","?","?","?","?","?","?","?","?","?","?","?","?","?","?","?","?","?","?","?","?","?","?","?","?","?","?","?","?","?","?","?","?","?","?","?","?","?","?","?","?","?","?","?","?","?","?","?","?","?","?","?","?","?","?","?","?","?","?","?","?","?","?","?","?","?","?","?","?","?","?","?","?","?","?","?","?","?","?","?","?","?","?","?","?","?","?","?","?","?","?","?","?","?","?","?","?","?","?","?","?","?","?","?","?","?","?","?","?","?","?","?","?","?","?","?","?","?","?","?","?","?","?","?","?","?","?","?","?","?","?","?","?","?","?","?","?","?","?","?","?","?","?","?","?","?","?","?","?","?","?","?","?","?","?","?","?","?","?","?","?","?","?","?","?","?","?","?","?","?","?","?","?","?","?","?","?","?","?","?","?","?","?","?","?","?","?","?","?","?","?","?","?","?","?","?","?","?","?","?","?","?","?","?","?","?","?","?","?","?","?","?","?","?","?","?","?","?","?","?","?","?","?","?","?","?","?","?","?","?","?","?","?","?","?","?","?","?","?","?","?","?","?","?","?","?","?","?","?","?","?","?","?","?","?","?","?","?","?","?","?","?","?","?","?","?","?","?","?","?","?","?","?","?","?","?","?","?","?","?","?","?","?","?","?","?","?","?","?","?","?","?","?","?","?","?","?","?","?","?","?","?","?","?","?","?","?","?","?","?","?","?","?","?","?","?","?","?","?","?","?","?","?","?","?","?","?","?","?","?","?","?","?","?","?","?","?","?","?","?","?","?","?","?","?","?","?","?","?","?","?","?","?","?","?","?","?","?","?","?","?","?","?","?","?","?","?","?","?","?","?","?","?","?","?","?","?","?","?","?","?","?","?","?","?","?","?","?","?","?","?","?","?","?","?","?","?","?","?","?","?","?","?","?","?","?","?","?","?","?","?","?","?","?","?","?","?","?","?","?","?","?","?","?","?","?","?","?","?","?","?","?","?","?","?","?","?","?","?","?","?","?","?","?","?","?","?","?","?","?","?","?","?","?","?","?","?","?","?","?","?","?","?","?","?","?","?","?","?","?","?","?","?","?","?","?","?","?","?","?","?","?","?","?","?","?","?","?","?","?","?","?","?","?","?","?","?","?","?","?","?","?","?","?","?","?","?","?","?","?","?","?","?","?","?","?","?","?","?","?","?","?","?","?","?","?","?","?","?","?","?","?","?","?","?","?","?","?","?","?","?","?","?","?","?","?","?","?","?","?","?","?","?","?","?","?","?","?","?","?","?","?","?","?","?","?","?","?","?","?","?","?","?","?","?","?","?","?","?","?","?","?","?","?","?","?","?","?","?","?","?","?","?","?","?","?","?","?","?","?","?","?","?","?","?","?","?","?","?","?","?","?","?","?","?","?","?","?","?","?","?","?","?","?","?","?","?","?","?","?","?","?","?","?","?","?","?","?","?","?","?","?","?","?","?","?","?","?","?","?","?","?","?","?","?","?","?","?","?","?","?","?","?","?","?","?","?","?","?","?","?","?","?","?","?","?","?","?","?","?","?","?","?","?","?","?","?","?","?","?","?","?","?","?","?","?","?","?","?","?","?","?","?","?","?","?","?","?","?","?","?","?","?","?","?","?","?","?","?","?","?","?","?","?","?","?","?","?","?","?","?","?","?","?","?","?","?","?","?","?","?","?","?","?","?","?","?","?","?","?","?","?","?","?","?","?","?","?","?","?","?","?","?","?","?","?","?","?","?","?","?","?","?","?","?","?","?","?","?","?","?","?","?","?","?","?","?","?","?","?","?","?","?","?","?","?","?","?","?","?","?","?","?","?","?","?","?","?","?","?","?","?","?","?","?","?","?","?","?","?","?","?","?","?","?","?","?","?","?","?","?","?","?","?","?","?","?","?","?","?","?","?","?","?","?","?","?","?","?","?","?","?","?","?","?","?","?","?","?","?","?","?","?","?","?","?","?","?","?","?","?","?","?","?","?","?","?","?","?","?","?","?","?","?","?","?","?","?","?","?","?","?","?","?","?","?","?","?","?","?","?","?","?","?","?","?","?","?","?","?","?","?","?","?","?","?","?","?","?","?","?","?","?","?","?","?","?","?","?","?","?","?","?","?","?","?","?","?","?","?","?","?","?","?","?","?","?","?","?","?","?","?","?","?","?","?","?","?","?","?","?","?","?","?","?","?","?","?","?","?","?","?","?","?","?","?","?","?","?","?","?","?","?","?","?","?","?","?","?","?","?","?","?","?","?","?","?","?","?","?","?","?","?","?","?","?","?","?","?","?","?","?","?","?","?","?","?","?","?","?","?","?","?","?","?","?","?","?","?","?","?","?","?","?","?","?","?","?","?","?","?","?","?","?","?","?","?","?","?","?","?","?","?","?","?","?","?","?","?","?","?","?","?","?","?","?","?","?","?","?","?","?","?","?","?","?","?","?","?","?","?","?","?","?","?","?","?","?","?","?","?","?","?","?","?","?","?","?","?","?","?","?","?","?","?","?","?","?","?","?","?","?","?","?","?","?","?","?","?","?","?","?","?","?","?","?","?","?","?","?","?","?","?","?","?","?","?","?","?","?","?","?","?","?","?","?","?","?","?","?","?","?","?","?","?","?","?","?","?","?","?","?","?","?","?","?","?","?","?","?","?","?","?","?","?","?","?","?","?","?","?","?","?","?","?","?","?","?","?","?","?","?","?","?","?","?","?","?","?","?","?","?","?","?","?","?","?","?","?","?","?","?","?","?","?","?","?","?","?","?","?","?","?","?","?","?","?","?","?","?","?","?","?","?","?","?","?","?","?","?","?","?","?","?","?","?","?","?","?","?","?","?","?","?","?","?","?","?","?","?","?","?","?","?","?","?","?","?","?","?","?","?","?","?","?","?","?","?","?","?","?","?","?","?","?","?","?","?","?","?","?","?","?","?","?","?","?","?","?","?","?","?","?","?","?","?","?","?","?","?","?","?","?","?","?","?","?","?","?","?","?","?","?","?","?","?","?","?","?","?","?","?","?","?","?","?","?","?","?","?","?","?","?","?","?","?","?","?","?","?","?","?","?","?","?","?","?","?","?","?","?","?","?","?","?","?","?","?","?","?","?","?","?","?","?","?","?","?","?","?","?","?","?","?","?","?","?","?","?","?","?","?","?","?","?","?","?","?","?","?","?","?","?","?","?","?","?","?","?","?","?","?","?","?","?","?","?","?","?","?","?","?","?","?","?","?","?","?","?","?","?","?","?","?","?","?","?","?","?","?","?","?","?","?","?","?","?","?","?","?","?","?","?","?","?","?","?","?","?","?","?","?","?","?","?","?","?","?","?","?","?","?","?","?","?","?","?","?","?","?","?","?","?","?","?","?","?","?","?","?","?","?","?","?","?","?","?","?","?","?","?","?","?","?","?","?","?","?","?","?","?","?","?","?","?","?","?","?","?","?","?","?","?","?","?","?","?","?","?","?","?","?","?","?","?","?","?","?","?","?","?","?","?","?","?","?","?","?","?","?","?","?","?","?","?","?","?","?","?","?","?","?","?","?","?","?","?","?","?","?","?","?","?","?","?","?","?","?","?","?","?","?","?","?","?","?","?","?","?","?","?","?","?","?","?","?","?","?","?","?","?","?","?","?","?","?","?","?","?","?","?","?","?","?","?","?","?","?","?","?","?","?","?","?","?","?","?","?","?","?","?","?","?","?","?","?","?","?","?","?","?","?","?","?","?","?","?","?","?","?","?","?","?","?","?","?","?","?","?","?","?","?","?","?","?","?","?","?","?","?","?","?","?","?","?","?","?","?","?","?","?","?","?","?","?","?","?","?","?","?","?","?","?","?","?","?","?","?","?","?","?","?","?","?","?","?","?","?","?","?","?","?","?","?","?","?","?","?","?","?","?","?","?","?","?","?","?","?","?","?","?","?","?","?","?","?","?","?","?","?","?","?","?","?","?","?","?","?","?","?","?","?","?","?","?","?","?","?","?","?","?","?","?","?","?","?","?","?","?","?","?","?","?","?","?","?","?","?","?","?","?","?","?","?","?","?","?","?","?","?","?","?","?","?","?","?","?","?","?","?","?","?","?","?","?","?","?","?","?","?","?","?","?","?","?","?","?","?","?","?","?","?","?","?","?","?","?","?","?","?","?","?","?","?","?","?","?","?","?","?","?","?","?","?","?","?","?","?","?","?","?","?","?","?","?","?","?","?","?","?","?","?","?","?","?","?","?","?","?","?","?","?","?","?","?","?","?","?","?","?","?","?","?","?","?","?","?","?","?","?","?","?","?","?","?","?","?","?","?","?","?","?","?","?","?","?","?","?","?","?","?","?","?","?","?","?","?","?","?","?","?","?","?","?","?","?","?","?","?","?","?","?","?","?","?","?","?","?","?","?","?","?","?","?","?","?","?","?","?","?","?","?","?","?","?","?","?","?","?","?","?","?","?","?","?","?","?","?","?","?","?","?","?","?","?","?","?","?","?","?","?","?","?","?","?","?","?","?","?","?","?","?","?","?","?","?","?","?","?","?","?","?","?","?","?","?","?","?","?","?","?","?","?","?","?","?","?","?","?","?","?","?","?","?","?","?","?","?","?","?","?","?","?","?","?","?","?","?","?","?","?","?","?","?","?","?","?","?","?","?","?","?","?","?","?","?","?","?","?","?","?","?","?","?","?","?","?","?","?","?","?","?","?","?","?","?","?","?","?","?","?","?","?","?","?","?","?","?","?","?","?","?","?","?","?","?","?","?","?","?","?","?","?","?","?","?","?","?","?","?","?","?","?","?","?","?","?","?","?","?","?","?","?","?","?","?","?","?","?","?","?","?","?","?","?","?","?","?","?","?","?","?","?","?","?","?","?","?","?","?","?","?","?","?","?","?","?","?","?","?","?","?","?","?","?","?","?","?","?","?","?","?","?","?","?","?","?","?","?","?","?","?","?","?","?","?","?","?","?","?","?","?","?","?","?","?","?","?","?","?","?","?","?","?","?","?","?","?","?","?","?","?","?","?","?","?","?","?","?","?","?","?","?","?","?","?","?","?","?","?","?","?","?","?","?","?","?","?","?","?","?","?","?","?","?","?","?","?","?","?","?","?","?","?","?","?","?","?","?","?","?","?","?","?","?","?","?","?","?","?","?","?","?","?","?","?","?","?","?","?","?","?","?","?","?","?","?","?","?","?","?","?","?","?","?","?","?","?","?","?","?","?","?","?","?","?","?","?","?","?","?","?","?","?","?","?","?","?","?","?","?","?","?","?","?","?","?","?","?","?","?","?","?","?","?","?","?","?","?","?","?","?","?","?","?","?","?","?","?","?","?","?","?","?","?","?","?","?","?","?","?","?","?","?","?","?","?","?","?","?","?","?","?","?","?","?","?","?","?","?","?","?","?","?","?","?","?","?","?","?","?","?","?","?","?","?","?","?","?","?","?","?","?","?","?","?","?","?","?","?","?","?","?","?","?","?","?","?","?","?","?","?","?","?","?","?","?","?","?","?","?","?","?","?","?","?","?","?","?","?","?","?","?","?","?","?","?","?","?","?","?","?","?","?","?","?","?","?","?","?","?","?","?","?","?","?","?","?","?","?","?","?","?","?","?","?","?","?","?","?","?","?","?","?","?","?","?","?","?","?","?","?","?","?","?","?","?","?","?","?","?","?","?","?","?","?","?","?","?","?","?","?","?","?","?","?","?","?","?","?","?","?","?","?","?","?","?","?","?","?","?","?","?","?","?","?","?","?","?","?","?","?","?","?","?","?","?","?","?","?","?","?","?","?","?","?","?","?","?","?","?","?","?","?","?","?","?","?","?","?","?","?","?","?","?","?","?","?","?","?","?","?","?","?","?","?","?","?","?","?","?","?","?","?","?","?","?","?","?","?","?","?","?","?","?","?","?","?","?","?","?","?","?","?","?","?","?","?","?","?","?","?","?","?","?","?","?","?","?","?","?","?","?","?","?","?","?","?","?","?","?","?","?","?","?","?","?","?","?","?","?","?","?","?","?","?","?","?","?","?","?","?","?","?","?","?","?","?","?","?","?","?","?","?","?","?","?","?","?","?","?","?","?","?","?","?","?","?","?","?","?","?","?","?","?","?","?","?","?","?","?","?","?","?","?","?","?","?","?","?","?","?","?","?","?","?","?","?","?","?","?","?","?","?","?","?","?","?","?","?","?","?","?","?","?","?","?","?","?","?","?","?","?","?","?","?","?","?","?","?","?","?","?","?","?","?","?","?","?","?","?","?","?","?","?","?","?","?","?","?","?","?","?","?","?","?","?","?","?","?","?","?","?","?","?","?","?","?","?","?","?","?","?","?","?","?","?","?","?","?","?","?","?","?","?","?","?","?","?","?","?","?","?","?","?","?","?","?","?","?","?","?","?","?","?","?","?","?","?","?","?","?","?","?","?","?","?","?","?","?","?","?","?","?","?","?","?","?","?","?","?","?","?","?","?","?","?","?","?","?","?","?","?","?","?","?","?","?","?","?","?","?","?","?","?","?","?","?","?","?","?","?","?","?","?","?","?","?","?","?","?","?","?","?","?","?","?","?","?","?","?","?","?","?","?","?","?","?","?","?","?","?","?","?","?","?","?","?","?","?","?","?","?","?","?","?","?","?","?","?","?","?","?","?","?","?","?","?","?","?","?","?","?","?","?","?","?","?","?","?","?","?","?","?","?","?","?","?","?","?","?","?","?","?","?","?","?","?","?","?","?","?","?","?","?","?","?","?","?","?","?","?","?","?","?","?","?","?","?","?","?","?","?","?","?","?","?","?","?","?","?","?","?","?","?","?","?","?","?","?","?","?","?","?","?","?","?","?","?","?","?","?","?","?","?","?","?","?","?","?","?","?","?","?","?","?","?","?","?","?","?","?","?","?","?","?","?","?","?","?","?","?","?","?","?","?","?","?","?","?","?","?","?","?","?","?","?","?","?","?","?","?","?","?","?","?","?","?","?","?","?","?","?","?","?","?","?","?","?","?","?","?","?","?","?","?","?","?","?","?","?","?","?","?","?","?","?","?","?","?","?","?","?","?","?","?","?","?","?","?","?","?","?","?","?","?","?","?","?","?","?","?","?","?","?","?","?","?","?","?","?","?","?","?","?","?","?","?","?","?","?","?","?","?","?","?","?","?","?","?","?","?","?","?","?","?","?","?","?","?","?","?","?","?","?","?","?","?","?","?","?","?","?","?","?","?","?","?","?","?","?","?","?","?","?","?","?","?","?","?","?","?","?","?","?","?","?","?","?","?","?","?","?","?","?","?","?","?","?","?","?","?","?","?","?","?","?","?","?","?","?","?","?","?","?","?","?","?","?","?","?","?","?","?","?","?","?","?","?","?","?","?","?","?","?","?","?","?","?","?","?","?","?","?","?","?","?","?","?","?","?","?","?","?","?","?","?","?","?","?","?","?","?","?","?","?","?","?","?","?","?","?","?","?","?","?","?","?","?","?","?","?","?","?","?","?","?","?","?","?","?","?","?","?","?","?","?","?","?","?","?","?","?","?","?","?","?","?","?","?","?","?","?","?","?","?","?","?","?","?","?","?","?","?","?","?","?","?","?","?","?","?","?","?","?","?","?","?","?","?","?","?","?","?","?","?","?","?","?","?","?","?","?","?","?","?","?","?","?","?","?","?","?","?","?","?","?","?","?","?","?","?","?","?","?","?","?","?","?","?","?","?","?","?","?","?","?","?","?","?","?","?","?","?","?","?","?","?","?","?","?","?","?","?","?","?","?","?","?","?","?","?","?","?","?","?","?","?","?","?","?","?","?","?","?","?","?","?","?","?","?","?","?","?","?","?","?","?","?","?","?","?","?","?","?","?","?","?","?","?","?","?","?","?","?","?","?","?","?","?","?","?","?","?","?","?","?","?","?","?","?","?","?","?","?","?","?","?","?","?","?","?","?","?","?","?","?","?","?","?","?","?","?","?","?","?","?","?","?","?","?","?","?","?","?","?","?","?","?","?","?","?","?","?","?","?","?","?","?","?","?","?","?","?","?","?","?","?","?","?","?","?","?","?","?","?","?","?","?","?","?","?","?","?","?","?","?","?","?","?","?","?","?","?","?","?","?","?","?","?","?","?","?","?","?","?","?","?","?","?","?","?","?","?","?","?","?","?","?","?","?","?","?","?","?","?","?","?","?","?","?","?","?","?","?","?","?","?","?","?","?","?","?","?","?","?","?","?","?","?","?","?","?","?","?","?","?","?","?","?","?","?","?","?","?","?","?","?","?","?","?","?","?","?","?","?","?","?","?","?","?","?","?","?","?","?","?","?","?","?","?","?","?","?","?","?","?","?","?","?","?","?","?","?","?","?","?","?","?","?","?","?","?","?","?","?","?","?","?","?","?","?","?","?","?","?","?","?","?","?","?","?","?","?","?","?","?","?","?","?","?","?","?","?","?","?","?","?","?","?","?","?","?","?","?","?","?","?","?","?","?","?","?","?","?","?","?","?","?","?","?","?","?","?","?","?","?","?","?","?","?","?","?","?","?","?","?","?","?","?","?","?","?","?","?","?","?","?","?","?","?","?","?","?","?","?","?","?","?","?","?","?","?","?","?","?","?","?","?","?","?","?","?","?","?","?","?","?","?","?","?","?","?","?","?","?","?","?","?","?","?","?","?","?","?","?","?","?","?","?","?","?","?","?","?","?","?","?","?","?","?","?","?","?","?","?","?","?","?","?","?","?","?","?","?","?","?","?","?","?","?","?","?","?","?","?","?","?","?","?","?","?","?","?","?","?","?","?","?","?","?","?","?","?","?","?","?","?","?","?","?","?","?","?","?","?","?","?","?","?","?","?","?","?","?","?","?","?","?","?","?","?","?","?","?","?","?","?","?","?","?","?","?","?","?","?","?","?","?","?","?","?","?","?","?","?","?","?","?","?","?","?","?","?","?","?","?","?","?","?","?","?","?","?","?","?","?","?","?","?","?","?","?","?","?","?","?","?","?","?","?","?","?","?","?","?","?","?","?","?","?","?","?","?","?","?","?","?","?","?","?","?","?","?","?","?","?","?","?","?","?","?","?","?","?","?","?","?","?","?","?","?","?","?","?","?","?","?","?","?","?","?","?","?","?","?","?","?","?","?","?","?","?","?","?","?","?","?","?","?","?","?","?","?","?","?","?","?","?","?","?","?","?","?","?","?","?","?","?","?","?","?","?","?","?","?","?","?","?","?","?","?","?","?","?","?","?","?","?","?","?","?","?","?","?","?","?","?","?","?","?","?","?","?","?","?","?","?","?","?","?","?","?","?","?","?","?","?","?","?","?","?","?","?","?","?","?","?","?","?","?","?","?","?","?","?","?","?","?","?","?","?","?","?","?","?","?","?","?","?","?","?","?","?","?","?","?","?","?","?","?","?","?","?","?","?","?","?","?","?","?","?","?","?","?","?","?","?","?","?","?","?","?","?","?","?","?","?","?","?","?","?","?","?","?","?","?","?","?","?","?","?","?","?","?","?","?","?","?","?","?","?","?","?","?","?","?","?","?","?","?","?","?","?","?","?","?","?","?","?","?","?","?","?","?","?","?","?","?","?","?","?","?","?","?","?","?","?","?","?","?","?","?","?","?","?","?","?","?","?","?","?","?","?","?","?","?","?","?","?","?","?","?","?","?","?","?","?","?","?","?","?","?","?","?","?","?","?","?","?","?","?","?","?","?","?","?","?","?","?","?","?","?","?","?","?","?","?","?","?","?","?","?","?","?","?","?","?","?","?","?","?","?","?","?","?","?","?","?","?","?","?","?","?","?","?","?","?","?","?","?","?","?","?","?","?","?","?","?","?","?","?","?","?","?","?","?","?","?","?","?","?","?","?","?","?","?","?","?","?","?","?","?","?","?","?","?","?","?","?","?","?","?","?","?","?","?","?","?","?","?","?","?","?","?","?","?","?","?","?","?","?","?","?","?","?","?","?","?","?","?","?","?","?","?","?","?","?","?","?","?","?","?","?","?","?","?","?","?","?","?","?","?","?","?","?","?","?","?","?","?","?","?","?","?","?","?","?","?","?","?","?","?","?","?","?","?","?","?","?","?","?","?","?","?","?","?","?","?","?","?","?","?","?","?","?","?","?","?","?","?","?","?","?","?","?","?","?","?","?","?","?","?","?","?","?","?","?","?","?","?","?","?","?","?","?","?","?","?","?","?","?","?","?","?","?","?","?","?","?","?","?","?","?","?","?","?","?","?","?","?","?","?","?","?","?","?","?","?","?","?","?","?","?","?","?","?","?","?","?","?","?","?","?","?","?","?","?","?","?","?","?","?","?","?","?","?","?","?","?","?","?","?","?","?","?","?","?","?","?","?","?","?","?","?","?","?","?","?","?","?","?","?","?","?","?","?","?","?","?","?","?","?","?","?","?","?","?","?","?","?","?","?","?","?","?","?","?","?","?","?","?","?","?","?","?","?","?","?","?","?","?","?","?","?","?","?","?","?","?","?","?","?","?","?","?","?","?","?","?","?","?","?","?","?","?","?","?","?","?","?","?","?","?","?","?","?","?","?","?","?","?","?","?","?","?","?","?","?","?","?","?","?","?","?","?","?","?","?","?","?","?","?","?","?","?","?","?","?","?","?","?","?","?","?","?","?","?","?","?","?","?","?","?","?","?","?","?","?","?","?","?","?","?","?","?","?","?","?","?","?","?","?","?","?","?","?","?","?","?","?","?","?","?","?","?","?","?","?","?","?","?","?","?","?","?","?","?","?","?","?","?","?","?","?","?","?","?","?","?","?","?","?","?","?","?","?","?","?","?","?","?","?","?","?","?","?","?","?","?","?","?","?","?","?","?","?","?","?","?","?","?","?","?","?","?","?","?","?","?","?","?","?","?","?","?","?","?","?","?","?","?","?","?","?","?","?","?","?","?","?","?","?","?","?","?","?","?","?","?","?","?","?","?","?","?","?","?","?","?","?","?","?","?","?","?","?","?","?","?","?","?","?","?","?","?","?","?","?","?","?","?","?","?","?","?","?","?","?","?","?","?","?","?","?","?","?","?","?","?","?","?","?","?","?","?","?","?","?","?","?","?","?","?","?","?","?","?","?","?","?","?","?","?","?","?","?","?","?","?","?","?","?","?","?","?","?","?","?","?","?","?","?","?","?","?","?","?","?","?","?","?","?","?","?","?","?","?","?","?","?","?","?","?","?","?","?","?","?","?","?","?","?","?","?","?","?","?","?","?","?","?","?","?","?","?","?","?","?","?","?","?","?","?","?","?","?","?","?","?","?","?","?","?","?","?","?","?","?","?","?","?","?","?","?","?","?","?","?","?","?","?","?","?","?","?","?","?","?","?","?","?","?","?","?","?","?","?","?","?","?","?","?","?","?","?","?","?","?","?","?","?","?","?","?","?","?","?","?","?","?","?","?","?","?","?","?","?","?","?","?","?","?","?","?","?","?","?","?","?","?","?","?","?","?","?","?","?","?","?","?","?","?","?","?","?","?","?","?","?","?","?","?","?","?","?","?","?","?","?","?","?","?","?","?","?","?","?","?","?","?","?","?","?","?","?","?","?","?","?","?","?","?","?","?","?","?","?","?","?","?","?","?","?","?","?","?","?","?","?","?","?","?","?","?","?","?","?","?","?","?","?","?","?","?","?","?","?","?","?","?","?","?","?","?","?","?","?","?","?","?","?","?","?","?","?","?","?","?","?","?","?","?","?","?","?","?","?","?","?","?","?","?","?","?","?","?","?","?","?","?","?","?","?","?","?","?","?","?","?","?","?","?","?","?","?","?","?","?","?","?","?","?","?","?","?","?","?","?","?","?","?","?","?","?","?","?","?","?","?","?","?","?","?","?","?","?","?","?","?","?","?","?","?","?","?","?","?","?","?","?","?","?","?","?","?","?","?","?","?","?","?","?","?","?","?","?","?","?","?","?","?","?","?","?","?","?","?","?","?","?","?","?","?","?","?","?","?","?","?","?","?","?","?","?","?","?","?","?","?","?","?","?","?","?","?","?","?","?","?","?","?","?","?","?","?","?","?","?","?","?","?","?","?","?","?"