[{"success":true,"trial_type":"fullscreen","trial_index":0,"time_elapsed":3293,"internal_node_id":"0.0-0.0","protocol_sum":"","subject_identifier":304,"subject_sum":[4,48,102,218,242,16,149,35,167,73,13,75,250,212,118,109,165,113,153,80,162,181,249,109,25,47,192,83,126,132,243,42],"subject_pair":152,"STUDY_ID":"66a0b3911f23dfc7665bb169","PROLIFIC_PID":"65d5cccd58b48e4435f18b34","SESSION_ID":"66a10c38e926c720d450ed0d","practice_instructions":1,"leaderboard_instructions":1,"bonus":0,"reveal_word":false,"self_rating":"3","confidence":"58"},{"view_history":"[{\"page_index\":0,\"viewing_time\":4489.4000000059605}]","rt":4489.600000023842,"trial_type":"instructions","trial_index":1,"time_elapsed":7784,"internal_node_id":"0.0-1.0","protocol_sum":"","subject_identifier":304,"subject_sum":[4,48,102,218,242,16,149,35,167,73,13,75,250,212,118,109,165,113,153,80,162,181,249,109,25,47,192,83,126,132,243,42],"subject_pair":152,"STUDY_ID":"66a0b3911f23dfc7665bb169","PROLIFIC_PID":"65d5cccd58b48e4435f18b34","SESSION_ID":"66a10c38e926c720d450ed0d","practice_instructions":1,"leaderboard_instructions":1,"bonus":0,"reveal_word":false,"self_rating":"3","confidence":"58"},{"view_history":"[{\"page_index\":0,\"viewing_time\":13640.299999982119}]","rt":13640.5,"trial_type":"instructions","trial_index":2,"time_elapsed":21425,"internal_node_id":"0.0-2.0-0.0","protocol_sum":"","subject_identifier":304,"subject_sum":[4,48,102,218,242,16,149,35,167,73,13,75,250,212,118,109,165,113,153,80,162,181,249,109,25,47,192,83,126,132,243,42],"subject_pair":152,"STUDY_ID":"66a0b3911f23dfc7665bb169","PROLIFIC_PID":"65d5cccd58b48e4435f18b34","SESSION_ID":"66a10c38e926c720d450ed0d","practice_instructions":1,"leaderboard_instructions":1,"bonus":0,"reveal_word":false,"self_rating":"3","confidence":"58"},{"rt":7601.4000000059605,"responses":"{\"Q0\":\"... reveal the word with as <b>few letter guesses</b> as possible\"}","question_order":"[0]","trial_type":"survey-multi-choice","trial_index":3,"time_elapsed":29029,"internal_node_id":"0.0-2.0-1.0","protocol_sum":"","subject_identifier":304,"subject_sum":[4,48,102,218,242,16,149,35,167,73,13,75,250,212,118,109,165,113,153,80,162,181,249,109,25,47,192,83,126,132,243,42],"subject_pair":152,"correct":true,"test_part":"multichoice_nonpretend","STUDY_ID":"66a0b3911f23dfc7665bb169","PROLIFIC_PID":"65d5cccd58b48e4435f18b34","SESSION_ID":"66a10c38e926c720d450ed0d","practice_instructions":1,"leaderboard_instructions":1,"bonus":0,"reveal_word":false,"self_rating":"3","confidence":"58"},{"view_history":"[{\"page_index\":0,\"viewing_time\":1555.300000011921}]","rt":1555.5,"trial_type":"instructions","trial_index":4,"time_elapsed":30586,"internal_node_id":"0.0-3.0","protocol_sum":"","subject_identifier":304,"subject_sum":[4,48,102,218,242,16,149,35,167,73,13,75,250,212,118,109,165,113,153,80,162,181,249,109,25,47,192,83,126,132,243,42],"subject_pair":152,"STUDY_ID":"66a0b3911f23dfc7665bb169","PROLIFIC_PID":"65d5cccd58b48e4435f18b34","SESSION_ID":"66a10c38e926c720d450ed0d","practice_instructions":1,"leaderboard_instructions":1,"bonus":0,"reveal_word":false,"self_rating":"3","confidence":"58"},{"word":"ZEBRA","click_log":{"letter":["","A","L","M","E","R","T","S","P","D","C","B","Z"],"t":[0,2355.2000000178814,9779,11688.200000017881,14366.300000011921,19234.30000001192,24978.70000001788,26506.90000000596,30901.20000001788,44112,45224.10000002384,46353.5,48311.20000001788],"hit":[null,1,0,0,1,1,0,0,0,0,0,1,1],"asked":["","A","AL","ALM","ALME","ALMER","ALMERT","ALMERTS","ALMERTSP","ALMERTSPD","ALMERTSPDC","ALMERTSPDCB","ALMERTSPDCBZ"],"word_state":["_____","____A","____A","____A","_E__A","_E_RA","_E_RA","_E_RA","_E_RA","_E_RA","_E_RA","_EBRA","ZEBRA"]},"hover_log":{"letter":["?","?","?","?","?","?","?","?","?","?","?","?","?","?","?","?","?","?","?","?","?","?","?","?","?","?","?","?","?","?","?","?","?","?","?","?","?","?","?","?","?","?","?","?","?","?","?","?","?","?","?","?","?","?","?","?","?","?","?","?","?","?","?","?","?","J","J","J","J","?","?","?","?","?","?","?","?","?","?","?","?","?","?","?","?","?","?","?","?","?","?","?","?","C","?","?","B","B","B","B","?","?","?","A","A","A","A","A","A","A","A","A","A","A","A","A","A","A","A","A","A","A","A","A","A","A","A","A","A","A","A","A","A","A","A","A","A","A","A","A","A","A","A","A","A","A","A","A","A","A","A","A","A","A","A","A","A","A","A","A","A","A","A","A","A","A","A","A","A","A","A","A","A","A","A","A","A","A","A","A","A","A","A","A","A","A","A","A","A","A","A","A","A","A","A","A","A","A","A","A","A","A","A","A","A","A","A","A","A","A","A","A","A","A","A","A","A","A","A","A","A","A","A","A","A","A","A","A","A","A","A","A","A","A","A","A","A","A","A","A","A","A","A","A","A","A","?","?","?","B","B","B","B","B","B","B","B","B","B","B","B","B","?","?","?","?","?","?","?","?","?","?","?","?","?","?","?","?","?","?","?","?","?","?","?","?","?","?","?","?","?","L","L","L","L","L","L","L","L","L","L","L","L","L","L","L","L","L","L","L","L","L","L","L","L","L","L","L","L","L","L","L","L","L","L","L","L","L","L","L","L","L","L","L","L","L","L","L","L","L","L","L","L","L","L","L","L","L","L","L","L","L","L","L","L","L","L","L","L","L","L","L","L","L","L","L","L","L","L","L","L","L","L","L","L","L","L","L","L","L","L","?","?","?","?","?","M","M","M","M","M","M","M","M","M","M","M","M","M","M","M","M","M","M","M","M","M","M","M","M","M","M","M","M","M","M","M","M","M","M","M","M","M","M","M","M","M","M","M","M","M","M","M","M","M","M","M","M","M","M","M","M","M","M","M","M","M","M","M","M","M","M","M","M","M","M","M","M","M","M","M","M","M","M","M","M","M","M","M","M","M","M","M","M","M","M","M","M","M","M","M","M","M","M","M","M","M","M","M","M","M","M","M","M","M","M","M","M","M","M","M","M","M","M","M","M","M","M","M","M","M","M","M","M","M","M","M","M","M","M","M","M","M","M","M","M","M","M","M","M","M","M","M","M","M","M","M","M","M","?","?","?","?","L","L","L","L","L","L","L","L","L","L","L","L","L","L","L","L","L","L","L","L","L","L","L","L","L","L","L","L","L","L","L","L","L","L","L","L","L","L","L","L","L","L","L","L","L","L","L","L","L","L","L","L","L","L","L","L","L","L","L","L","L","L","L","L","L","L","L","L","L","L","L","L","L","L","L","L","L","L","L","L","L","L","L","L","L","L","L","L","?","?","?","?","?","?","?","?","?","?","?","?","?","?","?","?","?","?","?","?","?","?","?","?","?","?","?","?","?","?","?","?","?","?","?","?","?","M","M","M","M","M","M","M","M","M","M","M","M","M","M","M","M","M","M","M","M","M","M","M","M","M","M","M","M","M","M","M","M","M","M","M","M","M","M","M","M","M","M","M","M","M","M","M","M","M","M","M","M","M","M","M","M","M","M","M","M","M","M","M","M","M","M","M","M","M","M","M","M","M","M","M","M","M","M","M","M","M","M","M","M","M","M","M","M","M","M","M","M","M","M","M","M","M","?","?","?","?","?","?","?","?","?","?","?","?","?","?","E","E","E","E","E","E","E","E","E","E","E","E","E","E","E","E","E","E","E","E","E","E","E","E","E","E","E","E","E","E","E","E","E","E","E","E","E","E","E","E","E","E","E","E","E","E","E","E","E","E","E","E","E","E","E","E","E","E","E","E","E","E","E","E","E","E","E","E","E","E","E","E","E","E","E","E","E","E","E","E","E","E","E","E","E","E","E","E","E","E","E","E","E","E","E","E","E","E","E","E","E","E","E","E","E","E","E","E","E","E","E","E","E","E","E","E","E","E","E","E","E","E","E","E","E","E","E","E","E","E","E","E","E","E","E","E","E","E","E","E","E","E","E","E","E","E","E","E","E","E","E","E","E","E","E","E","E","E","E","E","E","E","E","E","E","E","E","E","E","E","E","E","E","E","E","E","E","E","E","E","E","E","E","E","E","E","E","E","E","E","E","E","E","E","E","E","E","E","E","E","E","E","E","E","E","E","E","E","E","E","E","E","E","E","E","E","E","E","E","E","E","E","E","E","E","E","E","?","?","?","?","?","?","I","I","I","I","I","I","I","I","I","I","I","I","I","I","I","I","I","?","?","?","?","?","?","?","?","?","?","?","?","?","?","?","?","?","?","?","?","?","?","?","?","?","?","?","?","?","?","?","?","?","?","?","?","?","?","?","?","?","?","?","?","?","?","?","?","?","?","?","?","?","?","?","?","?","?","?","?","?","?","?","?","?","?","?","?","?","?","R","R","R","R","R","R","R","R","R","R","R","R","R","R","R","R","R","R","R","R","R","R","R","R","R","R","R","R","R","R","R","R","R","R","R","R","R","R","R","R","R","R","R","R","R","R","R","R","R","R","R","R","R","R","R","R","R","R","R","R","R","R","R","R","R","R","R","R","R","R","R","R","R","R","R","R","R","R","R","R","R","R","R","R","R","R","R","R","R","R","R","R","R","R","R","R","R","R","R","R","R","R","R","R","R","R","R","R","R","R","R","R","R","R","R","R","R","R","R","R","R","R","R","R","R","R","R","R","R","R","R","R","R","R","R","R","R","R","R","R","R","R","R","R","R","R","R","R","R","R","R","R","R","R","R","R","R","R","R","R","R","R","R","R","R","R","R","R","R","R","R","R","R","R","R","R","R","R","R","R","R","R","R","R","R","R","R","R","R","R","R","R","R","R","R","R","R","R","R","R","R","R","R","R","R","R","R","R","R","R","R","R","R","R","R","R","R","R","R","R","R","R","R","R","?","Q","Q","Q","?","?","?","?","?","?","?","W","W","?","V","V","V","?","U","U","U","U","U","U","U","U","U","U","U","U","U","U","U","U","U","U","U","U","U","U","U","U","U","U","U","U","U","U","U","U","U","?","T","T","T","T","T","T","T","T","T","T","T","T","T","T","T","T","T","T","T","T","T","T","T","T","T","T","T","T","T","T","T","T","T","T","T","T","T","T","T","T","T","T","T","T","T","T","T","T","T","T","T","T","T","T","T","T","T","T","T","T","T","T","T","T","T","T","T","T","T","T","T","T","T","T","T","T","T","T","T","T","T","T","T","T","T","T","T","T","T","T","T","T","T","T","T","T","T","T","T","T","T","T","T","T","T","T","T","T","T","T","T","T","T","T","T","T","T","T","T","T","T","T","T","T","T","T","T","T","T","T","T","T","T","T","T","T","T","T","T","T","T","T","T","T","T","T","T","T","T","T","T","T","T","T","T","T","T","T","T","T","T","T","T","T","T","T","T","T","T","T","T","T","T","T","T","T","?","?","S","S","S","S","S","S","S","S","S","S","S","S","S","S","S","S","S","S","S","S","S","S","S","S","S","S","S","S","S","S","S","S","S","S","S","S","S","S","S","S","S","S","S","S","S","S","S","S","S","S","S","S","S","S","S","S","S","S","S","S","S","S","S","S","S","?","?","?","K","?","?","L","?","M","?","?","?","?","?","?","?","?","?","?","?","?","?","?","?","?","?","?","?","?","?","?","?","?","?","?","?","?","?","?","?","?","?","?","?","?","?","?","Y","Y","Y","Y","Y","Y","Y","Y","Y","Y","Y","Y","Y","Y","Y","Y","Y","Y","Y","Y","Y","Y","Y","?","?","?","?","?","?","?","P","P","P","P","P","P","P","P","P","P","P","?","?","?","?","?","?","?","?","?","?","?","?","?","?","?","?","?","?","?","P","P","P","P","P","P","P","P","P","P","P","P","P","P","P","P","P","P","P","P","P","P","P","P","P","P","P","P","P","P","P","P","P","P","P","P","P","P","P","P","P","P","P","P","P","P","P","P","P","P","P","P","P","P","P","P","P","P","P","P","P","P","P","P","P","P","P","P","P","P","P","P","P","P","P","P","P","P","P","P","P","P","P","P","P","P","P","P","P","P","P","P","P","P","P","P","P","P","P","P","P","P","P","P","P","P","P","P","P","P","P","P","P","P","P","P","P","P","P","P","P","P","P","P","P","P","P","P","P","P","P","P","P","P","P","P","P","P","P","P","P","P","P","P","P","P","P","P","P","P","P","P","P","P","P","P","P","P","P","P","P","P","P","P","P","P","P","P","P","P","P","P","P","P","P","P","P","P","P","P","P","P","P","P","P","P","P","P","P","P","P","P","P","P","P","?","?","?","?","?","?","?","?","?","?","?","?","?","?","?","?","?","?","?","?","?","?","F","F","F","F","F","F","F","F","F","F","F","F","F","F","F","F","F","F","F","F","F","F","F","F","F","F","F","F","F","F","F","F","F","F","F","F","F","F","F","F","F","F","F","F","F","F","F","F","F","F","F","F","F","F","F","F","F","F","F","F","F","F","F","F","?","?","?","?","?","?","?","?","?","?","?","?","?","?","?","?","?","?","?","?","?","?","?","?","?","?","?","?","?","?","?","?","?","?","?","?","?","?","?","?","?","?","?","?","?","?","?","?","?","?","?","?","?","?","?","?","?","?","?","?","?","?","?","?","?","?","?","?","?","?","?","?","?","?","?","?","?","?","?","?","?","?","I","I","I","I","I","I","?","?","?","H","H","H","H","H","H","H","H","H","H","H","H","H","H","H","H","H","H","H","H","H","H","H","H","H","H","H","H","H","H","H","H","H","H","H","H","H","H","H","H","H","H","H","H","H","H","H","H","H","H","H","H","H","H","?","G","F","E","D","?","?","?","?","?","?","?","?","?","?","?","?","?","?","?","?","?","?","?","?","?","?","?","?","?","?","?","?","?","?","?","?","?","?","?","?","?","?","?","?","?","?","?","?","?","?","?","?","?","?","?","?","?","?","?","?","?","?","?","?","?","?","?","?","?","?","?","B","B","B","B","B","B","B","B","B","B","B","B","B","B","B","B","B","B","B","B","B","B","B","B","B","B","B","B","B","B","B","B","B","B","B","B","B","B","B","B","B","B","B","B","B","B","B","B","B","B","B","?","?","?","?","?","?","?","?","?","?","?","?","?","?","?","?","?","?","?","?","?","?","?","?","?","?","C","C","C","C","C","C","C","C","C","C","C","C","C","C","C","C","C","C","C","C","C","C","C","C","C","C","C","C","C","C","C","C","C","C","C","C","C","C","C","C","C","C","C","C","C","C","C","C","C","C","C","C","C","C","C","C","C","C","C","C","C","C","C","C","C","C","C","C","C","C","C","C","C","C","C","C","C","C","C","C","C","C","C","C","C","C","C","C","C","C","C","C","C","C","C","C","C","C","C","C","C","C","C","C","C","C","C","C","C","C","C","C","C","C","C","C","C","C","C","C","?","?","?","D","D","D","D","D","D","D","D","D","D","D","D","D","D","D","D","D","D","D","D","D","D","D","D","D","D","D","D","D","D","D","D","D","D","D","D","D","D","D","D","D","D","D","D","D","D","D","D","D","D","D","D","D","D","D","D","D","D","D","D","D","D","D","D","D","D","D","D","D","D","D","D","D","D","D","D","D","D","D","D","D","D","D","D","D","D","D","D","D","D","D","D","D","D","D","D","D","D","D","D","D","D","D","D","D","D","D","D","?","?","?","?","?","?","?","?","?","K","K","K","K","K","K","K","?","?","?","?","?","?","?","?","?","?","?","?","?","K","K","K","K","K","K","K","K","K","K","K","K","K","K","K","K","K","K","K","K","K","K","K","K","K","K","K","K","K","K","K","K","K","K","K","K","K","K","K","K","K","K","?","?","?","?","?","C","C","C","C","C","C","C","C","C","C","C","C","?","?","D","D","D","D","D","D","D","D","D","D","D","D","D","D","D","D","D","D","D","D","D","D","D","D","D","D","D","D","D","D","D","D","D","D","D","D","D","D","D","D","D","D","D","D","D","D","D","D","D","D","D","D","D","D","D","D","D","D","?","?","?","C","C","C","C","C","C","C","C","C","C","C","C","C","C","C","C","C","C","C","C","C","C","C","C","C","C","C","C","C","C","C","C","C","C","C","C","C","C","C","C","C","C","C","C","C","C","C","C","C","C","C","C","C","C","C","C","C","C","C","C","C","C","C","C","C","C","C","C","C","?","?","B","B","B","B","B","B","B","B","B","B","B","B","B","B","B","B","B","B","B","B","B","B","B","B","B","B","B","B","B","B","B","B","B","B","B","B","B","B","B","B","B","B","B","B","B","B","B","B","B","B","B","B","B","B","B","B","B","B","B","B","B","B","B","B","B","B","B","B","B","B","?","?","?","?","?","?","?","?","?","?","?","?","?","?","?","?","?","?","?","?","?","?","?","?","?","Z","Z","?","?","?","?","?","?","?","?","?","?","?","?","?","?","?","?","?","?","?","?","?","Z","Z","Z","Z","Z","Z","Z","Z","Z","Z","Z","Z","Z","Z","Z","Z","Z","Z","Z","Z","Z","Z","Z","Z","Z","Z","Z","Z","Z","Z","Z","Z","Z","Z","Z","Z","Z","Z","Z","Z","Z","Z","Z","Z","Z","Z","Z","Z","Z","Z","Z","Z","Z","Z","Z","Z","Z","Z","Z","Z","Z","Z","Z","Z","Z","Z","Z","Z","Z","Z","Z","Z","Z","Z","Z","Z","Z","Z","Z","Z","Z","Z","Z","Z","Z","Z","Z","Z","Z","Z","Z","Z","Z","Z","Z","Z","Z","Z","Z","Z","Z","Z","Z","Z","Z","Z","Z","Z","Z","Z","Z","Z","Z","Z","Z","Z","Z","Z","Z","Z","Z","Z","Z","Z","Z","Z","Z","Z","Z","Z","Z","Z","Z","Z","Z","Z","Z","Z","Z","Z","Z","Z","Z","Z","Z","Z","Z","Z","Z"],"t":[34,51,60,76,92,109,126,143,161,178,193,209,227,243,259,276,293,310,327,343,360,377,393,411,427,443,459,476,492,509,526,543,560,576,592,609,625,643,661,675,692,708,725,742,759,776,793,809,827,843,860,877,893,910,926,943,960,977,993,1010,1027,1043,1060,1076,1093,1115,1128,1144,1161,1177,1194,1211,1228,1245,1260,1277,1294,1310,1327,1345,1360,1376,1393,1409,1426,1443,1462,1476,1492,1509,1526,1542,1559,1575,1592,1609,1625,1642,1660,1675,1692,1709,1725,1741,1759,1775,1791,1813,1826,1842,1858,1874,1891,1908,1925,1942,1958,1976,1992,2009,2025,2042,2059,2075,2092,2109,2126,2142,2160,2176,2193,2209,2227,2243,2259,2276,2293,2310,2326,2343,2359,2376,2392,2408,2425,2442,2459,2476,2493,2510,2526,2543,2560,2576,2593,2609,2626,2643,2660,2676,2694,2710,2726,2743,2759,2776,2793,2810,2826,2843,2859,2875,2891,2908,2924,2941,2958,2975,2992,3009,3025,3042,3059,3075,3092,3109,3125,3142,3159,3175,3193,3209,3225,3242,3259,3275,3292,3309,3326,3342,3359,3376,3392,3409,3426,3442,3459,3476,3492,3509,3525,3542,3558,3575,3592,3609,3626,3642,3657,3674,3690,3707,3723,3740,3757,3773,3790,3807,3824,3840,3857,3874,3891,3908,3926,3943,3959,3976,3993,4009,4026,4044,4061,4074,4090,4107,4123,4140,4157,4173,4192,4207,4223,4240,4257,4274,4290,4307,4323,4340,4357,4374,4390,4407,4424,4440,4457,4473,4490,4507,4524,4540,4557,4574,4591,4607,4624,4640,4657,4674,4690,4707,4724,4740,4757,4774,4790,4807,4824,4841,4857,4875,4890,4907,4924,4941,4957,4974,4991,5007,5024,5041,5057,5074,5091,5107,5124,5141,5157,5174,5191,5207,5224,5241,5257,5274,5290,5306,5323,5342,5358,5374,5390,5407,5424,5440,5457,5474,5490,5508,5524,5541,5558,5574,5591,5608,5624,5641,5657,5673,5689,5707,5723,5740,5756,5773,5791,5809,5824,5839,5856,5873,5889,5906,5922,5940,5956,5972,5989,6006,6024,6040,6057,6074,6090,6107,6124,6140,6157,6174,6190,6207,6223,6240,6257,6274,6291,6307,6324,6341,6357,6375,6391,6407,6424,6441,6457,6474,6491,6507,6524,6541,6557,6573,6590,6607,6624,6640,6657,6673,6690,6707,6724,6739,6756,6772,6789,6806,6822,6839,6856,6872,6889,6906,6922,6939,6956,6972,6989,7006,7022,7039,7056,7072,7089,7106,7122,7139,7157,7173,7190,7207,7223,7240,7256,7273,7289,7306,7323,7340,7357,7373,7388,7405,7422,7438,7455,7472,7489,7505,7522,7538,7555,7572,7588,7605,7622,7638,7656,7671,7688,7705,7722,7739,7755,7773,7790,7807,7823,7840,7856,7873,7890,7906,7923,7940,7956,7972,7988,8005,8021,8038,8054,8072,8088,8105,8122,8138,8156,8173,8190,8207,8221,8239,8254,8271,8288,8305,8321,8339,8355,8372,8389,8407,8424,8441,8457,8474,8490,8505,8521,8538,8555,8571,8588,8605,8621,8638,8655,8671,8688,8705,8722,8739,8756,8772,8789,8806,8822,8839,8856,8872,8889,8905,8922,8940,8955,8972,8989,9005,9022,9039,9055,9071,9088,9105,9121,9138,9155,9171,9188,9204,9221,9238,9255,9271,9288,9306,9322,9339,9356,9371,9389,9405,9422,9439,9456,9472,9489,9505,9522,9539,9555,9572,9589,9605,9622,9638,9659,9672,9689,9705,9722,9739,9755,9772,9789,9805,9821,9838,9855,9872,9888,9905,9922,9938,9954,9971,9988,10004,10021,10038,10055,10073,10088,10105,10120,10137,10154,10171,10187,10204,10221,10237,10255,10272,10289,10305,10322,10339,10355,10372,10389,10406,10422,10440,10455,10472,10488,10505,10521,10538,10556,10572,10588,10605,10621,10638,10655,10671,10688,10705,10721,10739,10755,10771,10789,10805,10822,10838,10855,10871,10888,10905,10921,10938,10955,10971,10988,11005,11022,11038,11055,11072,11088,11105,11122,11138,11155,11172,11189,11205,11221,11238,11255,11272,11288,11305,11321,11337,11353,11370,11387,11404,11422,11438,11454,11471,11488,11504,11521,11537,11554,11570,11587,11604,11621,11638,11654,11671,11688,11704,11720,11737,11753,11770,11787,11804,11821,11837,11854,11871,11887,11904,11920,11937,11954,11970,11987,12004,12020,12037,12054,12070,12087,12104,12120,12137,12154,12170,12186,12203,12219,12236,12252,12270,12286,12303,12320,12337,12354,12371,12387,12404,12421,12438,12454,12471,12487,12504,12520,12537,12554,12571,12587,12604,12621,12637,12654,12670,12687,12704,12719,12736,12752,12769,12785,12803,12819,12836,12853,12870,12886,12903,12919,12936,12953,12970,12986,13004,13019,13037,13054,13070,13087,13105,13120,13136,13153,13170,13186,13203,13219,13236,13253,13270,13287,13303,13320,13337,13354,13370,13387,13404,13420,13437,13453,13470,13487,13503,13520,13537,13554,13570,13587,13603,13620,13637,13653,13670,13687,13703,13720,13737,13753,13770,13786,13803,13820,13836,13853,13870,13887,13903,13920,13936,13953,13970,13987,14003,14020,14036,14052,14068,14085,14102,14119,14138,14154,14171,14188,14202,14219,14235,14252,14269,14286,14303,14319,14335,14352,14368,14385,14402,14419,14437,14454,14471,14487,14504,14520,14537,14554,14570,14587,14604,14620,14637,14652,14669,14686,14702,14720,14737,14755,14771,14787,14803,14820,14837,14853,14870,14887,14903,14920,14936,14952,14969,14986,15003,15019,15035,15052,15069,15085,15103,15119,15136,15152,15169,15186,15203,15219,15236,15253,15269,15286,15303,15319,15337,15353,15369,15386,15403,15419,15436,15452,15469,15486,15503,15519,15536,15552,15569,15585,15601,15618,15635,15652,15669,15685,15702,15719,15735,15753,15769,15785,15803,15820,15837,15853,15870,15886,15903,15920,15937,15953,15970,15986,16003,16020,16037,16053,16070,16086,16103,16120,16137,16153,16169,16185,16202,16219,16236,16252,16268,16285,16301,16320,16337,16353,16370,16387,16404,16420,16437,16454,16470,16487,16503,16520,16537,16553,16570,16587,16603,16620,16637,16654,16670,16687,16704,16720,16736,16753,16770,16786,16801,16817,16834,16851,16867,16884,16901,16917,16934,16950,16967,16984,17001,17017,17034,17051,17068,17084,17101,17117,17134,17152,17167,17184,17201,17218,17234,17251,17268,17284,17301,17318,17334,17351,17368,17385,17401,17418,17434,17451,17468,17485,17501,17518,17535,17551,17568,17585,17602,17618,17634,17651,17668,17685,17701,17720,17734,17750,17767,17784,17800,17817,17834,17850,17867,17884,17901,17918,17935,17952,17969,17985,18002,18019,18036,18052,18069,18085,18102,18118,18136,18150,18168,18184,18200,18217,18233,18250,18267,18283,18300,18316,18334,18350,18367,18383,18400,18417,18434,18451,18469,18486,18502,18519,18536,18553,18569,18586,18602,18619,18635,18653,18670,18685,18702,18719,18736,18752,18770,18785,18802,18818,18834,18851,18867,18884,18901,18917,18934,18950,18967,18984,19000,19017,19034,19051,19067,19084,19101,19117,19134,19151,19167,19184,19200,19217,19234,19250,19267,19283,19300,19317,19333,19350,19367,19383,19401,19417,19434,19451,19467,19484,19501,19517,19534,19551,19567,19584,19601,19617,19634,19650,19667,19684,19701,19717,19734,19751,19767,19783,19799,19816,19833,19850,19868,19885,19901,19918,19935,19952,19968,19985,20000,20017,20034,20050,20067,20083,20100,20117,20133,20150,20167,20183,20200,20216,20233,20250,20267,20283,20300,20317,20333,20350,20367,20383,20400,20417,20433,20450,20467,20483,20500,20517,20533,20549,20566,20583,20599,20616,20633,20649,20667,20685,20701,20718,20734,20752,20768,20783,20799,20815,20832,20849,20866,20882,20900,20917,20933,20949,20965,20982,20999,21016,21034,21051,21068,21084,21102,21118,21132,21149,21165,21182,21199,21215,21233,21251,21267,21284,21301,21318,21334,21351,21368,21384,21401,21417,21432,21448,21465,21482,21499,21517,21534,21551,21568,21584,21601,21618,21634,21651,21668,21684,21701,21717,21734,21751,21767,21784,21801,21817,21834,21851,21868,21884,21901,21917,21934,21951,21967,21984,22001,22017,22034,22052,22066,22083,22099,22115,22131,22148,22164,22181,22198,22217,22232,22248,22265,22281,22298,22314,22331,22351,22369,22382,22399,22416,22433,22449,22467,22481,22498,22515,22531,22548,22565,22583,22599,22616,22633,22649,22666,22683,22699,22716,22733,22749,22766,22783,22800,22816,22833,22849,22866,22884,22900,22916,22933,22949,22965,22982,22999,23015,23032,23049,23065,23082,23098,23115,23132,23149,23165,23181,23198,23215,23231,23251,23267,23283,23300,23317,23333,23350,23367,23383,23401,23415,23432,23448,23467,23482,23499,23515,23532,23549,23565,23581,23599,23615,23632,23648,23665,23682,23699,23715,23732,23748,23764,23781,23798,23814,23831,23848,23864,23881,23898,23915,23932,23948,23965,23982,23999,24015,24032,24049,24065,24082,24098,24115,24132,24148,24165,24182,24198,24215,24232,24248,24265,24282,24298,24315,24332,24348,24365,24382,24398,24415,24432,24448,24464,24482,24497,24513,24530,24547,24563,24580,24597,24614,24631,24648,24665,24681,24698,24715,24731,24748,24764,24781,24798,24814,24831,24848,24865,24881,24898,24914,24931,24948,24964,24982,24997,25014,25030,25047,25064,25080,25097,25114,25130,25147,25165,25182,25197,25215,25229,25246,25263,25280,25297,25315,25332,25349,25365,25382,25399,25415,25431,25448,25465,25482,25499,25515,25532,25548,25565,25582,25598,25615,25632,25649,25665,25682,25698,25715,25732,25749,25765,25782,25801,25814,25830,25847,25863,25880,25898,25913,25930,25947,25963,25980,25997,26013,26031,26048,26064,26081,26098,26114,26131,26148,26164,26181,26198,26214,26231,26247,26264,26280,26297,26314,26331,26347,26364,26381,26397,26414,26431,26447,26464,26482,26497,26513,26529,26546,26564,26580,26596,26613,26629,26646,26663,26680,26697,26714,26730,26747,26764,26780,26797,26814,26830,26847,26863,26880,26897,26914,26930,26947,26963,26980,26996,27012,27030,27046,27062,27079,27096,27113,27129,27146,27162,27179,27195,27212,27228,27245,27262,27279,27296,27312,27330,27347,27363,27380,27396,27413,27430,27447,27463,27480,27497,27513,27530,27547,27564,27580,27597,27613,27630,27647,27663,27680,27696,27713,27729,27746,27764,27779,27795,27812,27828,27845,27862,27879,27896,27912,27929,27945,27962,27980,27997,28013,28030,28046,28063,28080,28097,28113,28132,28145,28161,28178,28195,28212,28228,28245,28262,28278,28295,28312,28329,28346,28363,28380,28397,28413,28430,28446,28463,28480,28496,28513,28529,28546,28563,28579,28596,28613,28629,28647,28663,28679,28696,28713,28729,28746,28763,28779,28796,28813,28829,28846,28864,28881,28896,28912,28929,28946,28963,28979,28996,29012,29029,29046,29062,29079,29095,29113,29128,29144,29161,29178,29195,29212,29230,29247,29263,29280,29296,29312,29329,29345,29362,29379,29396,29412,29429,29446,29463,29479,29496,29512,29529,29546,29562,29579,29596,29612,29629,29646,29662,29679,29696,29712,29731,29746,29762,29779,29796,29812,29829,29846,29862,29879,29896,29912,29929,29945,29963,29979,29996,30012,30029,30045,30060,30078,30094,30111,30128,30145,30160,30177,30194,30214,30230,30245,30262,30279,30295,30312,30328,30345,30362,30378,30395,30412,30428,30445,30462,30479,30495,30512,30529,30545,30563,30580,30596,30612,30630,30644,30661,30678,30694,30712,30729,30745,30762,30778,30795,30812,30828,30845,30862,30878,30895,30910,30927,30944,30961,30976,30993,31010,31027,31044,31060,31077,31096,31112,31129,31146,31162,31178,31194,31210,31227,31245,31262,31279,31296,31312,31329,31346,31362,31379,31396,31412,31429,31446,31463,31479,31493,31510,31527,31543,31561,31579,31596,31613,31629,31646,31663,31679,31696,31712,31729,31746,31763,31780,31796,31813,31828,31845,31861,31878,31894,31911,31928,31944,31961,31978,31994,32010,32027,32043,32060,32076,32093,32110,32126,32144,32160,32177,32194,32210,32227,32243,32260,32277,32293,32310,32326,32344,32360,32377,32393,32410,32427,32443,32460,32476,32493,32510,32527,32544,32561,32578,32594,32611,32627,32644,32661,32677,32694,32711,32727,32745,32760,32776,32793,32810,32826,32844,32861,32878,32894,32911,32927,32944,32961,32977,32994,33011,33028,33044,33061,33078,33094,33111,33128,33144,33161,33178,33194,33211,33228,33242,33259,33276,33292,33310,33329,33343,33359,33376,33393,33409,33426,33442,33459,33476,33493,33510,33526,33543,33559,33576,33593,33610,33626,33642,33659,33675,33692,33709,33726,33742,33760,33776,33792,33809,33827,33844,33860,33877,33894,33911,33927,33944,33961,33977,33994,34011,34027,34044,34062,34079,34094,34112,34127,34142,34159,34176,34193,34209,34225,34241,34262,34278,34294,34313,34326,34342,34358,34375,34392,34409,34425,34442,34459,34475,34492,34510,34527,34543,34560,34577,34593,34610,34627,34643,34660,34676,34692,34709,34725,34742,34758,34775,34792,34813,34828,34842,34859,34876,34893,34909,34926,34942,34959,34976,34992,35010,35026,35043,35059,35076,35093,35109,35126,35143,35159,35176,35192,35209,35226,35242,35259,35276,35293,35309,35327,35342,35359,35375,35392,35409,35426,35442,35459,35476,35492,35509,35526,35542,35559,35575,35592,35609,35626,35642,35659,35675,35693,35709,35726,35742,35759,35776,35792,35809,35825,35841,35858,35875,35892,35908,35925,35942,35958,35975,35994,36008,36024,36042,36058,36075,36091,36108,36125,36142,36159,36175,36192,36209,36225,36242,36258,36275,36292,36310,36325,36342,36358,36374,36391,36408,36424,36441,36458,36474,36491,36508,36525,36541,36560,36577,36594,36611,36627,36642,36659,36675,36692,36709,36725,36742,36759,36775,36792,36809,36825,36842,36859,36876,36892,36908,36925,36942,36959,36975,36992,37008,37025,37042,37059,37075,37091,37107,37124,37141,37158,37175,37192,37208,37225,37242,37259,37275,37292,37309,37325,37342,37357,37374,37390,37407,37424,37441,37460,37477,37494,37510,37527,37544,37563,37575,37592,37609,37625,37642,37658,37675,37692,37708,37725,37742,37759,37775,37791,37808,37825,37840,37857,37874,37891,37907,37923,37940,37957,37974,37991,38007,38024,38041,38057,38074,38091,38107,38124,38141,38157,38174,38191,38207,38224,38241,38258,38275,38291,38308,38325,38341,38358,38375,38391,38408,38425,38442,38458,38475,38490,38507,38523,38540,38557,38574,38591,38609,38625,38642,38659,38676,38693,38708,38723,38740,38757,38774,38791,38807,38823,38839,38857,38873,38890,38906,38923,38939,38956,38973,38990,39007,39026,39042,39059,39076,39090,39107,39123,39140,39157,39173,39190,39207,39223,39240,39257,39274,39290,39307,39324,39340,39357,39374,39390,39407,39424,39440,39457,39474,39490,39507,39524,39541,39557,39574,39590,39607,39624,39640,39657,39674,39690,39707,39725,39739,39756,39772,39789,39807,39824,39841,39857,39873,39890,39907,39923,39940,39957,39973,39990,40006,40023,40040,40057,40073,40090,40106,40123,40140,40157,40175,40190,40207,40224,40240,40257,40273,40290,40307,40323,40339,40356,40372,40389,40406,40422,40439,40455,40472,40490,40506,40523,40539,40556,40573,40591,40605,40622,40638,40655,40672,40689,40708,40724,40741,40757,40774,40791,40808,40824,40841,40858,40874,40891,40908,40924,40941,40957,40973,40989,41006,41022,41039,41056,41073,41089,41106,41123,41140,41156,41173,41189,41206,41223,41240,41256,41273,41289,41306,41322,41339,41356,41372,41390,41405,41422,41439,41455,41472,41489,41506,41522,41539,41556,41573,41590,41606,41623,41640,41657,41673,41690,41706,41723,41739,41756,41773,41790,41806,41822,41839,41856,41873,41889,41906,41923,41939,41956,41973,41990,42006,42023,42039,42056,42073,42089,42106,42123,42139,42156,42173,42189,42206,42223,42239,42256,42272,42288,42305,42322,42338,42355,42371,42388,42404,42421,42438,42454,42471,42488,42505,42521,42538,42554,42571,42588,42604,42621,42638,42655,42671,42688,42704,42721,42738,42755,42772,42788,42804,42821,42837,42855,42870,42887,42904,42921,42937,42955,42971,42987,43004,43021,43037,43055,43071,43087,43104,43121,43137,43154,43171,43188,43204,43221,43238,43254,43272,43288,43305,43322,43338,43355,43372,43388,43405,43421,43437,43454,43471,43487,43504,43521,43537,43554,43571,43588,43604,43621,43637,43654,43671,43688,43704,43721,43738,43754,43771,43788,43804,43821,43838,43854,43871,43888,43905,43921,43938,43954,43971,43991,44005,44021,44038,44055,44071,44088,44106,44123,44137,44154,44171,44187,44203,44221,44237,44254,44271,44287,44304,44320,44338,44355,44371,44388,44404,44421,44437,44455,44471,44488,44505,44522,44538,44554,44571,44588,44605,44622,44638,44655,44672,44688,44705,44722,44737,44754,44771,44787,44804,44821,44838,44854,44871,44887,44904,44921,44938,44954,44971,44988,45004,45021,45038,45054,45071,45088,45104,45121,45137,45154,45171,45188,45204,45221,45238,45253,45270,45287,45304,45320,45337,45353,45370,45387,45405,45421,45438,45455,45471,45488,45504,45520,45536,45553,45570,45586,45603,45620,45637,45654,45671,45688,45705,45721,45738,45757,45772,45788,45804,45821,45837,45854,45871,45887,45904,45920,45936,45953,45970,45987,46004,46022,46037,46054,46071,46087,46104,46121,46138,46154,46171,46188,46204,46221,46238,46254,46271,46288,46304,46321,46338,46353,46370,46387,46403,46421,46437,46454,46470,46487,46504,46521,46537,46554,46570,46587,46604,46620,46637,46655,46671,46687,46704,46721,46737,46753,46771,46788,46804,46820,46837,46853,46869,46886,46903,46919,46936,46953,46969,46987,47004,47020,47036,47053,47070,47086,47103,47119,47135,47152,47169,47185,47202,47219,47235,47252,47269,47286,47302,47319,47339,47355,47369,47386,47402,47419,47436,47452,47469,47486,47502,47519,47536,47552,47569,47586,47602,47619,47635,47652,47670,47686,47703,47720,47737,47755,47770,47786,47803,47820,47837,47854,47870,47887,47903,47920,47936,47953,47970,47987,48003,48020,48036,48053,48070,48087,48103,48119,48136,48153,48169,48185,48202,48218,48236,48253,48270,48286,48305,48324,48336,48352,48369,48386,48402,48419,48436,48452,48470,48486,48503,48520,48536,48553,48570,48586,48603,48620,48636,48653,48669,48685,48701,48718,48735,48752,48770,48788,48802,48818,48835,48852,48870,48886,48902,48919,48936,48953,48969,48986,49002,49019,49036,49052,49069,49086,49102,49119,49136,49153,49169,49186,49203,49219,49235,49253,49269,49286,49303,49319,49336,49352,49369,49385,49403,49419,49435,49451,49468,49485,49502,49519,49536,49553,49570,49586,49603,49620,49635,49651,49668,49684,49702,49720,49736,49753,49770,49786,49803,49818,49835,49852,49869,49886,49904,49921,49937,49954,49970,49987,50004,50020,50037,50054,50070,50087,50104,50121,50137,50154,50170,50187,50204,50220,50237,50253,50270,50287,50303,50324],"hit":[null],"x":[-2.0408163265306123,-2.0408163265306123,-2.0408163265306123,-2.0408163265306123,-2.0408163265306123,-2.0408163265306123,-2.0408163265306123,-2.0408163265306123,-2.0408163265306123,-2.0408163265306123,-2.0408163265306123,-2.0408163265306123,-2.0408163265306123,-2.0408163265306123,-2.0408163265306123,-2.0408163265306123,-2.0408163265306123,-2.0408163265306123,-2.0408163265306123,-2.0408163265306123,-2.0408163265306123,-2.0408163265306123,-2.0408163265306123,-2.0408163265306123,-2.0408163265306123,-2.0408163265306123,-2.0408163265306123,-2.0408163265306123,-2.0408163265306123,-2.0408163265306123,-2.0408163265306123,-2.0408163265306123,-2.0408163265306123,-2.0408163265306123,-2.0408163265306123,-2.0408163265306123,-2.0408163265306123,-2.0408163265306123,-2.0408163265306123,-2.0408163265306123,-2.0408163265306123,-2.0408163265306123,-2.0408163265306123,-2.0408163265306123,-2.0408163265306123,-2.0408163265306123,-2.0408163265306123,-2.0408163265306123,-2.0408163265306123,-2.0408163265306123,-2.0408163265306123,-2.0408163265306123,-2.0408163265306123,-2.0408163265306123,-2.0408163265306123,-2.0408163265306123,-2.0408163265306123,-2.0408163265306123,-2.0408163265306123,-2.0408163265306123,-2.0408163265306123,-2.0408163265306123,-2.0408163265306123,-2.0408163265306123,-2.0408163265306123,-0.01020408163265306,0,0,0.02040816326530612,0.03741496598639456,0.05442176870748299,0.07482993197278912,0.1054421768707483,0.11904761904761904,0.1360544217687075,0.16326530612244897,0.17687074829931973,0.1870748299319728,0.20408163265306123,0.21428571428571427,0.22108843537414966,0.24149659863945577,0.24829931972789115,0.2585034013605442,0.2585034013605442,0.2619047619047619,0.2653061224489796,0.2653061224489796,0.2687074829931973,0.2687074829931973,0.2653061224489796,0.2585034013605442,0.25510204081632654,0.24489795918367346,0.23129251700680273,0.21428571428571427,0.19047619047619047,0.16326530612244897,0.14285714285714285,0.10884353741496598,0.08843537414965986,0.07482993197278912,0.06802721088435375,0.04421768707482993,0.04081632653061224,0.030612244897959183,0.027210884353741496,0.02040816326530612,0.017006802721088437,0.017006802721088437,0.013605442176870748,0.013605442176870748,0.013605442176870748,0.013605442176870748,0.01020408163265306,0.01020408163265306,0.006802721088435374,0.006802721088435374,0.006802721088435374,0.006802721088435374,0.006802721088435374,0.006802721088435374,0.006802721088435374,0.006802721088435374,0.006802721088435374,0.006802721088435374,0.006802721088435374,0.006802721088435374,0.006802721088435374,0.006802721088435374,0.006802721088435374,0.006802721088435374,0.006802721088435374,0.006802721088435374,0.006802721088435374,0.006802721088435374,0.006802721088435374,0.006802721088435374,0.006802721088435374,0.006802721088435374,0.006802721088435374,0.006802721088435374,0.006802721088435374,0.006802721088435374,0.006802721088435374,0.006802721088435374,0.006802721088435374,0.006802721088435374,0.006802721088435374,0.006802721088435374,0.006802721088435374,0.006802721088435374,0.006802721088435374,0.006802721088435374,0.006802721088435374,0.006802721088435374,0.006802721088435374,0.006802721088435374,0.006802721088435374,0.006802721088435374,0.006802721088435374,0.006802721088435374,0.006802721088435374,0.006802721088435374,0.006802721088435374,0.006802721088435374,0.006802721088435374,0.006802721088435374,0.006802721088435374,0.006802721088435374,0.006802721088435374,0.006802721088435374,0.006802721088435374,0.006802721088435374,0.006802721088435374,0.006802721088435374,0.006802721088435374,0.006802721088435374,0.006802721088435374,0.006802721088435374,0.006802721088435374,0.006802721088435374,0.006802721088435374,0.006802721088435374,0.006802721088435374,0.006802721088435374,0.006802721088435374,0.006802721088435374,0.006802721088435374,0.006802721088435374,0.006802721088435374,0.006802721088435374,0.006802721088435374,0.006802721088435374,0.006802721088435374,0.006802721088435374,0.006802721088435374,0.006802721088435374,0.006802721088435374,0.006802721088435374,0.006802721088435374,0.006802721088435374,0.006802721088435374,0.006802721088435374,0.006802721088435374,0.006802721088435374,0.006802721088435374,0.006802721088435374,0.006802721088435374,0.006802721088435374,0.006802721088435374,0.006802721088435374,0.006802721088435374,0.006802721088435374,0.006802721088435374,0.006802721088435374,0.006802721088435374,0.006802721088435374,0.006802721088435374,0.006802721088435374,0.006802721088435374,0.006802721088435374,0.006802721088435374,0.006802721088435374,0.006802721088435374,0.006802721088435374,0.006802721088435374,0.006802721088435374,0.006802721088435374,0.006802721088435374,0.006802721088435374,0.006802721088435374,0.006802721088435374,0.006802721088435374,0.006802721088435374,0.006802721088435374,0.006802721088435374,0.006802721088435374,0.006802721088435374,0.006802721088435374,0.006802721088435374,0.01020408163265306,0.013605442176870748,0.027210884353741496,0.034013605442176874,0.04421768707482993,0.06802721088435375,0.07482993197278912,0.08163265306122448,0.09523809523809523,0.09863945578231292,0.1054421768707483,0.12244897959183673,0.12585034013605442,0.1326530612244898,0.14965986394557823,0.15306122448979592,0.1598639455782313,0.16666666666666666,0.17687074829931973,0.17687074829931973,0.1836734693877551,0.1870748299319728,0.19047619047619047,0.19047619047619047,0.19727891156462585,0.2108843537414966,0.22789115646258504,0.24489795918367346,0.25510204081632654,0.2619047619047619,0.2687074829931973,0.272108843537415,0.2755102040816326,0.2789115646258503,0.2857142857142857,0.2857142857142857,0.2891156462585034,0.2925170068027211,0.2925170068027211,0.29591836734693877,0.29931972789115646,0.29931972789115646,0.29931972789115646,0.30612244897959184,0.30612244897959184,0.30612244897959184,0.30612244897959184,0.30612244897959184,0.30952380952380953,0.30952380952380953,0.3129251700680272,0.3129251700680272,0.3129251700680272,0.3129251700680272,0.3163265306122449,0.3163265306122449,0.3197278911564626,0.3197278911564626,0.3197278911564626,0.3197278911564626,0.3197278911564626,0.3197278911564626,0.3197278911564626,0.3231292517006803,0.3231292517006803,0.3231292517006803,0.3231292517006803,0.3231292517006803,0.3231292517006803,0.3231292517006803,0.3231292517006803,0.3231292517006803,0.3231292517006803,0.3231292517006803,0.3231292517006803,0.3231292517006803,0.3231292517006803,0.3231292517006803,0.3231292517006803,0.3231292517006803,0.3231292517006803,0.3231292517006803,0.3231292517006803,0.3231292517006803,0.3231292517006803,0.3231292517006803,0.3231292517006803,0.3231292517006803,0.3231292517006803,0.3231292517006803,0.3231292517006803,0.3231292517006803,0.3231292517006803,0.3231292517006803,0.3231292517006803,0.3231292517006803,0.3231292517006803,0.3231292517006803,0.3231292517006803,0.3231292517006803,0.3231292517006803,0.3231292517006803,0.3231292517006803,0.3231292517006803,0.3231292517006803,0.3231292517006803,0.3231292517006803,0.3231292517006803,0.3231292517006803,0.3231292517006803,0.3231292517006803,0.3231292517006803,0.3231292517006803,0.3231292517006803,0.3231292517006803,0.3231292517006803,0.3231292517006803,0.3231292517006803,0.3231292517006803,0.3231292517006803,0.3231292517006803,0.3231292517006803,0.3231292517006803,0.3231292517006803,0.3231292517006803,0.3231292517006803,0.3231292517006803,0.3231292517006803,0.3231292517006803,0.3231292517006803,0.3231292517006803,0.3231292517006803,0.3231292517006803,0.3231292517006803,0.3231292517006803,0.3231292517006803,0.3231292517006803,0.32653061224489793,0.3333333333333333,0.3401360544217687,0.3469387755102041,0.35374149659863946,0.35714285714285715,0.3673469387755102,0.3707482993197279,0.38095238095238093,0.3877551020408163,0.391156462585034,0.3945578231292517,0.40476190476190477,0.40816326530612246,0.41496598639455784,0.41836734693877553,0.4217687074829932,0.4217687074829932,0.4217687074829932,0.4217687074829932,0.4217687074829932,0.4217687074829932,0.4217687074829932,0.4217687074829932,0.4217687074829932,0.42857142857142855,0.42857142857142855,0.42857142857142855,0.42857142857142855,0.42857142857142855,0.42857142857142855,0.42857142857142855,0.42857142857142855,0.42857142857142855,0.42857142857142855,0.42857142857142855,0.42857142857142855,0.42857142857142855,0.42857142857142855,0.42857142857142855,0.42857142857142855,0.42857142857142855,0.42857142857142855,0.42857142857142855,0.42857142857142855,0.42857142857142855,0.42857142857142855,0.42857142857142855,0.42857142857142855,0.42857142857142855,0.42857142857142855,0.42857142857142855,0.42857142857142855,0.42857142857142855,0.42857142857142855,0.42857142857142855,0.42857142857142855,0.42857142857142855,0.42857142857142855,0.42857142857142855,0.42857142857142855,0.42857142857142855,0.42857142857142855,0.42857142857142855,0.42857142857142855,0.42857142857142855,0.42857142857142855,0.42857142857142855,0.42857142857142855,0.42857142857142855,0.42857142857142855,0.42857142857142855,0.42857142857142855,0.42857142857142855,0.42857142857142855,0.42857142857142855,0.42857142857142855,0.42857142857142855,0.42857142857142855,0.42857142857142855,0.42857142857142855,0.42857142857142855,0.42857142857142855,0.42857142857142855,0.42857142857142855,0.42857142857142855,0.42857142857142855,0.42857142857142855,0.42857142857142855,0.42857142857142855,0.42857142857142855,0.42857142857142855,0.42857142857142855,0.42857142857142855,0.42857142857142855,0.42857142857142855,0.42857142857142855,0.42857142857142855,0.42857142857142855,0.42857142857142855,0.42857142857142855,0.42857142857142855,0.42857142857142855,0.42857142857142855,0.42857142857142855,0.42857142857142855,0.42857142857142855,0.42857142857142855,0.42857142857142855,0.42857142857142855,0.42857142857142855,0.42857142857142855,0.42857142857142855,0.42857142857142855,0.42857142857142855,0.42857142857142855,0.42857142857142855,0.42857142857142855,0.42857142857142855,0.42857142857142855,0.42857142857142855,0.42857142857142855,0.42857142857142855,0.42857142857142855,0.42857142857142855,0.42857142857142855,0.42857142857142855,0.42857142857142855,0.42857142857142855,0.42857142857142855,0.42857142857142855,0.42857142857142855,0.42857142857142855,0.42857142857142855,0.4217687074829932,0.4217687074829932,0.41836734693877553,0.41156462585034015,0.40816326530612246,0.40816326530612246,0.40476190476190477,0.4013605442176871,0.4013605442176871,0.4013605442176871,0.4013605442176871,0.4013605442176871,0.4013605442176871,0.4013605442176871,0.4013605442176871,0.4013605442176871,0.4013605442176871,0.4013605442176871,0.4013605442176871,0.4013605442176871,0.4013605442176871,0.4013605442176871,0.4013605442176871,0.4013605442176871,0.3979591836734694,0.391156462585034,0.38095238095238093,0.3741496598639456,0.36394557823129253,0.35374149659863946,0.3469387755102041,0.336734693877551,0.3299319727891156,0.32653061224489793,0.3129251700680272,0.30272108843537415,0.29931972789115646,0.2891156462585034,0.2857142857142857,0.2789115646258503,0.2755102040816326,0.272108843537415,0.2653061224489796,0.2653061224489796,0.2653061224489796,0.2653061224489796,0.2653061224489796,0.2653061224489796,0.2653061224489796,0.2653061224489796,0.2653061224489796,0.2653061224489796,0.2653061224489796,0.2653061224489796,0.2653061224489796,0.2653061224489796,0.2653061224489796,0.2653061224489796,0.2653061224489796,0.2653061224489796,0.2653061224489796,0.2653061224489796,0.2653061224489796,0.2653061224489796,0.2653061224489796,0.2653061224489796,0.2653061224489796,0.2653061224489796,0.2653061224489796,0.2653061224489796,0.2653061224489796,0.2653061224489796,0.2653061224489796,0.2653061224489796,0.2653061224489796,0.2653061224489796,0.2653061224489796,0.2653061224489796,0.2653061224489796,0.2653061224489796,0.2653061224489796,0.2653061224489796,0.2653061224489796,0.2653061224489796,0.2653061224489796,0.2653061224489796,0.2653061224489796,0.2653061224489796,0.2653061224489796,0.2653061224489796,0.2653061224489796,0.2653061224489796,0.2653061224489796,0.2653061224489796,0.2653061224489796,0.2653061224489796,0.2653061224489796,0.2653061224489796,0.2653061224489796,0.2653061224489796,0.2653061224489796,0.2653061224489796,0.2653061224489796,0.2653061224489796,0.2653061224489796,0.2653061224489796,0.2653061224489796,0.2653061224489796,0.2653061224489796,0.2687074829931973,0.2857142857142857,0.29931972789115646,0.30272108843537415,0.3129251700680272,0.3231292517006803,0.3299319727891156,0.3333333333333333,0.3401360544217687,0.3401360544217687,0.3469387755102041,0.35374149659863946,0.35374149659863946,0.35714285714285715,0.36054421768707484,0.36054421768707484,0.36054421768707484,0.36054421768707484,0.36394557823129253,0.36394557823129253,0.36394557823129253,0.36394557823129253,0.36394557823129253,0.36394557823129253,0.36394557823129253,0.36394557823129253,0.36394557823129253,0.36394557823129253,0.36394557823129253,0.36394557823129253,0.36394557823129253,0.36394557823129253,0.36394557823129253,0.36394557823129253,0.36394557823129253,0.36394557823129253,0.36394557823129253,0.36394557823129253,0.36394557823129253,0.36394557823129253,0.36394557823129253,0.36394557823129253,0.36394557823129253,0.36394557823129253,0.36394557823129253,0.36394557823129253,0.3673469387755102,0.38095238095238093,0.391156462585034,0.40476190476190477,0.41156462585034015,0.41836734693877553,0.4217687074829932,0.4217687074829932,0.4217687074829932,0.4217687074829932,0.4217687074829932,0.4217687074829932,0.4217687074829932,0.4217687074829932,0.4217687074829932,0.4217687074829932,0.4217687074829932,0.4217687074829932,0.4217687074829932,0.4217687074829932,0.4217687074829932,0.4217687074829932,0.4217687074829932,0.4217687074829932,0.4217687074829932,0.4217687074829932,0.4217687074829932,0.4217687074829932,0.4217687074829932,0.4217687074829932,0.4217687074829932,0.4217687074829932,0.4217687074829932,0.4217687074829932,0.4217687074829932,0.4217687074829932,0.4217687074829932,0.4217687074829932,0.4217687074829932,0.4217687074829932,0.4217687074829932,0.4217687074829932,0.4217687074829932,0.4217687074829932,0.4217687074829932,0.4217687074829932,0.4217687074829932,0.4217687074829932,0.4217687074829932,0.4217687074829932,0.4217687074829932,0.4217687074829932,0.4217687074829932,0.4217687074829932,0.4217687074829932,0.4217687074829932,0.4217687074829932,0.4217687074829932,0.4217687074829932,0.4217687074829932,0.4217687074829932,0.4217687074829932,0.4217687074829932,0.4217687074829932,0.4217687074829932,0.4217687074829932,0.4217687074829932,0.4217687074829932,0.4217687074829932,0.4217687074829932,0.4217687074829932,0.4217687074829932,0.4217687074829932,0.4217687074829932,0.4217687074829932,0.4217687074829932,0.4217687074829932,0.4217687074829932,0.4217687074829932,0.4217687074829932,0.4217687074829932,0.4217687074829932,0.4217687074829932,0.4217687074829932,0.4217687074829932,0.4217687074829932,0.4217687074829932,0.4217687074829932,0.4217687074829932,0.4217687074829932,0.4217687074829932,0.4217687074829932,0.4217687074829932,0.4217687074829932,0.4217687074829932,0.42517006802721086,0.43537414965986393,0.4489795918367347,0.46258503401360546,0.47619047619047616,0.48639455782312924,0.4897959183673469,0.4897959183673469,0.4897959183673469,0.4965986394557823,0.5034013605442177,0.5034013605442177,0.5068027210884354,0.5068027210884354,0.5068027210884354,0.5068027210884354,0.5068027210884354,0.5136054421768708,0.5136054421768708,0.5170068027210885,0.5170068027210885,0.5170068027210885,0.5204081632653061,0.5204081632653061,0.5238095238095238,0.5238095238095238,0.5238095238095238,0.5272108843537415,0.5306122448979592,0.5306122448979592,0.5306122448979592,0.5306122448979592,0.5306122448979592,0.5306122448979592,0.5306122448979592,0.5306122448979592,0.5306122448979592,0.5306122448979592,0.5306122448979592,0.5306122448979592,0.5306122448979592,0.5306122448979592,0.5306122448979592,0.5306122448979592,0.5306122448979592,0.5306122448979592,0.5306122448979592,0.5306122448979592,0.5306122448979592,0.5306122448979592,0.5306122448979592,0.5306122448979592,0.5306122448979592,0.5306122448979592,0.5306122448979592,0.5306122448979592,0.5306122448979592,0.5306122448979592,0.5306122448979592,0.5306122448979592,0.5306122448979592,0.5306122448979592,0.5306122448979592,0.5306122448979592,0.5306122448979592,0.5306122448979592,0.5306122448979592,0.5306122448979592,0.5306122448979592,0.5306122448979592,0.5306122448979592,0.5306122448979592,0.5306122448979592,0.5306122448979592,0.5306122448979592,0.5306122448979592,0.5306122448979592,0.5306122448979592,0.5306122448979592,0.5306122448979592,0.5306122448979592,0.5306122448979592,0.5306122448979592,0.5306122448979592,0.5306122448979592,0.5306122448979592,0.5306122448979592,0.5306122448979592,0.5306122448979592,0.5306122448979592,0.5306122448979592,0.5306122448979592,0.5306122448979592,0.5306122448979592,0.5306122448979592,0.5306122448979592,0.5306122448979592,0.5306122448979592,0.5306122448979592,0.5306122448979592,0.5306122448979592,0.5306122448979592,0.5306122448979592,0.5306122448979592,0.5306122448979592,0.5306122448979592,0.5306122448979592,0.5306122448979592,0.5306122448979592,0.5306122448979592,0.5306122448979592,0.5306122448979592,0.5306122448979592,0.5306122448979592,0.5306122448979592,0.5306122448979592,0.5306122448979592,0.5306122448979592,0.5306122448979592,0.5306122448979592,0.5306122448979592,0.5306122448979592,0.5306122448979592,0.5306122448979592,0.5306122448979592,0.5306122448979592,0.5306122448979592,0.5306122448979592,0.5306122448979592,0.5306122448979592,0.5306122448979592,0.5306122448979592,0.5306122448979592,0.5306122448979592,0.5306122448979592,0.5306122448979592,0.5306122448979592,0.5306122448979592,0.5306122448979592,0.5306122448979592,0.5306122448979592,0.5306122448979592,0.5306122448979592,0.5306122448979592,0.5306122448979592,0.5306122448979592,0.5306122448979592,0.5306122448979592,0.5306122448979592,0.5306122448979592,0.5306122448979592,0.5306122448979592,0.5306122448979592,0.5306122448979592,0.5306122448979592,0.5306122448979592,0.5306122448979592,0.5306122448979592,0.5306122448979592,0.5306122448979592,0.5306122448979592,0.5306122448979592,0.5306122448979592,0.5306122448979592,0.5306122448979592,0.5306122448979592,0.5306122448979592,0.5306122448979592,0.5306122448979592,0.5306122448979592,0.5306122448979592,0.5306122448979592,0.5306122448979592,0.5306122448979592,0.5306122448979592,0.5306122448979592,0.5306122448979592,0.5306122448979592,0.5306122448979592,0.5306122448979592,0.5306122448979592,0.5306122448979592,0.5306122448979592,0.5306122448979592,0.5306122448979592,0.5306122448979592,0.5306122448979592,0.5306122448979592,0.5306122448979592,0.5306122448979592,0.5306122448979592,0.5306122448979592,0.5306122448979592,0.5306122448979592,0.5306122448979592,0.5306122448979592,0.5306122448979592,0.5306122448979592,0.5306122448979592,0.5306122448979592,0.5306122448979592,0.5306122448979592,0.5306122448979592,0.5306122448979592,0.5306122448979592,0.5306122448979592,0.5306122448979592,0.5306122448979592,0.5306122448979592,0.5306122448979592,0.5306122448979592,0.5306122448979592,0.5306122448979592,0.5306122448979592,0.5306122448979592,0.5306122448979592,0.5306122448979592,0.5306122448979592,0.5306122448979592,0.5306122448979592,0.5306122448979592,0.5306122448979592,0.5306122448979592,0.5306122448979592,0.5306122448979592,0.5306122448979592,0.5306122448979592,0.5306122448979592,0.5306122448979592,0.5306122448979592,0.5306122448979592,0.5306122448979592,0.5306122448979592,0.5306122448979592,0.5306122448979592,0.5306122448979592,0.5306122448979592,0.5306122448979592,0.5306122448979592,0.5306122448979592,0.5306122448979592,0.5306122448979592,0.54421768707483,0.6020408163265306,0.6938775510204082,0.7891156462585034,0.8979591836734694,0.9591836734693877,1.034013605442177,1.0782312925170068,1.1326530612244898,1.1564625850340136,1.1768707482993197,1.183673469387755,1.183673469387755,1.183673469387755,1.183673469387755,1.183673469387755,1.183673469387755,1.183673469387755,1.183673469387755,1.1870748299319729,1.1870748299319729,1.1870748299319729,1.1870748299319729,1.1870748299319729,1.1870748299319729,1.183673469387755,1.183673469387755,1.183673469387755,1.183673469387755,1.1802721088435375,1.1802721088435375,1.1768707482993197,1.1734693877551021,1.1734693877551021,1.1700680272108843,1.1700680272108843,1.1700680272108843,1.1700680272108843,1.1700680272108843,1.1700680272108843,1.1700680272108843,1.1700680272108843,1.1700680272108843,1.1700680272108843,1.1700680272108843,1.1700680272108843,1.1700680272108843,1.1700680272108843,1.1700680272108843,1.1700680272108843,1.1700680272108843,1.1700680272108843,1.1700680272108843,1.1700680272108843,1.1700680272108843,1.1700680272108843,1.1700680272108843,1.1700680272108843,1.1700680272108843,1.1700680272108843,1.1700680272108843,1.1700680272108843,1.1700680272108843,1.1700680272108843,1.1700680272108843,1.1700680272108843,1.1700680272108843,1.1700680272108843,1.1700680272108843,1.1700680272108843,1.1700680272108843,1.1700680272108843,1.1700680272108843,1.1700680272108843,1.1700680272108843,1.1700680272108843,1.1700680272108843,1.1700680272108843,1.1700680272108843,1.1700680272108843,1.1700680272108843,1.1700680272108843,1.1700680272108843,1.1700680272108843,1.1700680272108843,1.1700680272108843,1.1700680272108843,1.1666666666666667,1.163265306122449,1.1598639455782314,1.1598639455782314,1.1598639455782314,1.1564625850340136,1.1564625850340136,1.1564625850340136,1.153061224489796,1.1496598639455782,1.1496598639455782,1.1496598639455782,1.1496598639455782,1.1496598639455782,1.1496598639455782,1.1496598639455782,1.1496598639455782,1.1496598639455782,1.1496598639455782,1.1496598639455782,1.1496598639455782,1.1462585034013606,1.1462585034013606,1.1462585034013606,1.1462585034013606,1.1462585034013606,1.1462585034013606,1.1462585034013606,1.1428571428571428,1.1428571428571428,1.1428571428571428,1.1428571428571428,1.1428571428571428,1.1428571428571428,1.1428571428571428,1.1428571428571428,1.1428571428571428,1.1428571428571428,1.1428571428571428,1.1428571428571428,1.1428571428571428,1.1428571428571428,1.1428571428571428,1.1428571428571428,1.1428571428571428,1.1428571428571428,1.1428571428571428,1.1428571428571428,1.1428571428571428,1.1428571428571428,1.1428571428571428,1.1428571428571428,1.1428571428571428,1.1428571428571428,1.1428571428571428,1.1428571428571428,1.1428571428571428,1.1428571428571428,1.1428571428571428,1.1428571428571428,1.1428571428571428,1.1428571428571428,1.1428571428571428,1.1428571428571428,1.1428571428571428,1.1428571428571428,1.1428571428571428,1.1428571428571428,1.1428571428571428,1.1428571428571428,1.1428571428571428,1.1428571428571428,1.1428571428571428,1.1428571428571428,1.1428571428571428,1.1428571428571428,1.1428571428571428,1.1428571428571428,1.1428571428571428,1.1428571428571428,1.1428571428571428,1.1428571428571428,1.1428571428571428,1.1428571428571428,1.1428571428571428,1.1428571428571428,1.1428571428571428,1.1428571428571428,1.1428571428571428,1.1428571428571428,1.1428571428571428,1.1428571428571428,1.1428571428571428,1.1428571428571428,1.1428571428571428,1.1428571428571428,1.1428571428571428,1.1428571428571428,1.1428571428571428,1.1428571428571428,1.1428571428571428,1.1428571428571428,1.1428571428571428,1.1428571428571428,1.1428571428571428,1.1428571428571428,1.1428571428571428,1.1428571428571428,1.1428571428571428,1.1428571428571428,1.1428571428571428,1.1428571428571428,1.1428571428571428,1.1428571428571428,1.1428571428571428,1.1428571428571428,1.1428571428571428,1.1428571428571428,1.1428571428571428,1.1428571428571428,1.1428571428571428,1.1428571428571428,1.1428571428571428,1.1428571428571428,1.1428571428571428,1.1428571428571428,1.1428571428571428,1.1428571428571428,1.1428571428571428,1.1428571428571428,1.1428571428571428,1.1428571428571428,1.1428571428571428,1.1428571428571428,1.1428571428571428,1.1428571428571428,1.1428571428571428,1.1428571428571428,1.1428571428571428,1.1428571428571428,1.1428571428571428,1.1428571428571428,1.1428571428571428,1.1428571428571428,1.1428571428571428,1.1428571428571428,1.1428571428571428,1.1428571428571428,1.1428571428571428,1.1428571428571428,1.1428571428571428,1.1428571428571428,1.1428571428571428,1.1428571428571428,1.1428571428571428,1.1428571428571428,1.1428571428571428,1.1428571428571428,1.1428571428571428,1.1428571428571428,1.1428571428571428,1.1428571428571428,1.1428571428571428,1.1428571428571428,1.1428571428571428,1.1428571428571428,1.1428571428571428,1.1428571428571428,1.1428571428571428,1.1428571428571428,1.1428571428571428,1.1428571428571428,1.1428571428571428,1.1428571428571428,1.1428571428571428,1.1428571428571428,1.1428571428571428,1.1428571428571428,1.1428571428571428,1.1428571428571428,1.1428571428571428,1.1428571428571428,1.1428571428571428,1.1428571428571428,1.1428571428571428,1.1428571428571428,1.1428571428571428,1.1428571428571428,1.1428571428571428,1.1428571428571428,1.1428571428571428,1.1428571428571428,1.1428571428571428,1.1428571428571428,1.1428571428571428,1.1428571428571428,1.1428571428571428,1.1428571428571428,1.1428571428571428,1.1428571428571428,1.1428571428571428,1.1428571428571428,1.1428571428571428,1.1428571428571428,1.1428571428571428,1.1428571428571428,1.1428571428571428,1.1428571428571428,1.1428571428571428,1.1428571428571428,1.1428571428571428,1.1428571428571428,1.1428571428571428,1.1428571428571428,1.1428571428571428,1.1428571428571428,1.1428571428571428,1.1428571428571428,1.1428571428571428,1.1428571428571428,1.1428571428571428,1.1428571428571428,1.1428571428571428,1.1428571428571428,1.1428571428571428,1.1428571428571428,1.1428571428571428,1.1428571428571428,1.1428571428571428,1.1428571428571428,1.1428571428571428,1.1020408163265305,1.064625850340136,1.0170068027210883,0.9931972789115646,0.9659863945578231,0.9319727891156463,0.8945578231292517,0.8605442176870748,0.8197278911564626,0.7551020408163265,0.7040816326530612,0.6326530612244898,0.608843537414966,0.5748299319727891,0.5068027210884354,0.46938775510204084,0.42857142857142855,0.3741496598639456,0.35034013605442177,0.3197278911564626,0.29931972789115646,0.282312925170068,0.2653061224489796,0.2585034013605442,0.25510204081632654,0.25170068027210885,0.24489795918367346,0.24489795918367346,0.24489795918367346,0.24489795918367346,0.24489795918367346,0.24489795918367346,0.24489795918367346,0.24489795918367346,0.24489795918367346,0.24489795918367346,0.24489795918367346,0.24489795918367346,0.24489795918367346,0.24489795918367346,0.24489795918367346,0.24489795918367346,0.24489795918367346,0.24489795918367346,0.24489795918367346,0.24489795918367346,0.24489795918367346,0.24489795918367346,0.24489795918367346,0.24489795918367346,0.24489795918367346,0.22789115646258504,0.20408163265306123,0.19047619047619047,0.18027210884353742,0.17687074829931973,0.17346938775510204,0.17006802721088435,0.16326530612244897,0.1598639455782313,0.1564625850340136,0.15306122448979592,0.15306122448979592,0.15306122448979592,0.15306122448979592,0.15306122448979592,0.15306122448979592,0.15306122448979592,0.15306122448979592,0.15306122448979592,0.15306122448979592,0.15306122448979592,0.15306122448979592,0.15306122448979592,0.15306122448979592,0.15306122448979592,0.15306122448979592,0.15306122448979592,0.15306122448979592,0.14965986394557823,0.14965986394557823,0.14965986394557823,0.14965986394557823,0.14965986394557823,0.14965986394557823,0.14965986394557823,0.14965986394557823,0.14965986394557823,0.14965986394557823,0.14965986394557823,0.14965986394557823,0.14965986394557823,0.14965986394557823,0.14965986394557823,0.14965986394557823,0.14965986394557823,0.14965986394557823,0.14965986394557823,0.14965986394557823,0.14965986394557823,0.14965986394557823,0.14965986394557823,0.14965986394557823,0.14965986394557823,0.14965986394557823,0.14965986394557823,0.14965986394557823,0.14965986394557823,0.14965986394557823,0.14965986394557823,0.14965986394557823,0.14965986394557823,0.14965986394557823,0.14965986394557823,0.14965986394557823,0.14965986394557823,0.14965986394557823,0.14965986394557823,0.14965986394557823,0.14965986394557823,0.14965986394557823,0.14965986394557823,0.14965986394557823,0.14965986394557823,0.14965986394557823,0.14965986394557823,0.14965986394557823,0.14965986394557823,0.14965986394557823,0.14965986394557823,0.14965986394557823,0.14965986394557823,0.14965986394557823,0.14965986394557823,0.14965986394557823,0.14965986394557823,0.14965986394557823,0.14965986394557823,0.14965986394557823,0.14965986394557823,0.14965986394557823,0.14965986394557823,0.14625850340136054,0.14625850340136054,0.14625850340136054,0.14625850340136054,0.14625850340136054,0.14625850340136054,0.14625850340136054,0.14625850340136054,0.14625850340136054,0.14625850340136054,0.14625850340136054,0.14625850340136054,0.14625850340136054,0.14625850340136054,0.14625850340136054,0.14625850340136054,0.14625850340136054,0.14625850340136054,0.14625850340136054,0.14625850340136054,0.14625850340136054,0.14625850340136054,0.14625850340136054,0.14625850340136054,0.14625850340136054,0.14625850340136054,0.14625850340136054,0.14625850340136054,0.14625850340136054,0.14625850340136054,0.14625850340136054,0.14625850340136054,0.14625850340136054,0.14625850340136054,0.14625850340136054,0.14625850340136054,0.14625850340136054,0.14625850340136054,0.14625850340136054,0.14625850340136054,0.14625850340136054,0.14625850340136054,0.14625850340136054,0.14625850340136054,0.14625850340136054,0.14625850340136054,0.14625850340136054,0.14625850340136054,0.14625850340136054,0.14625850340136054,0.14625850340136054,0.14625850340136054,0.14625850340136054,0.14625850340136054,0.14625850340136054,0.14625850340136054,0.14625850340136054,0.14625850340136054,0.14625850340136054,0.14625850340136054,0.14625850340136054,0.14625850340136054,0.14625850340136054,0.14625850340136054,0.14625850340136054,0.14625850340136054,0.14625850340136054,0.14625850340136054,0.14625850340136054,0.14625850340136054,0.14625850340136054,0.14625850340136054,0.14625850340136054,0.14625850340136054,0.14625850340136054,0.14625850340136054,0.14625850340136054,0.14625850340136054,0.14625850340136054,0.14625850340136054,0.13945578231292516,0.13945578231292516,0.1360544217687075,0.1292517006802721,0.11564625850340136,0.09863945578231292,0.08503401360544217,0.0782312925170068,0.06802721088435375,0.05102040816326531,0.034013605442176874,0.02040816326530612,0.017006802721088437,0.013605442176870748,0.01020408163265306,0.01020408163265306,0.01020408163265306,0.01020408163265306,0.01020408163265306,0.01020408163265306,0.01020408163265306,0.01020408163265306,0.01020408163265306,0.01020408163265306,0.01020408163265306,0.006802721088435374,0.006802721088435374,0.006802721088435374,0.006802721088435374,0.006802721088435374,0.006802721088435374,0.006802721088435374,0.006802721088435374,0.006802721088435374,0.006802721088435374,0.006802721088435374,0.006802721088435374,0.006802721088435374,0.006802721088435374,0.006802721088435374,0.006802721088435374,0.006802721088435374,0.006802721088435374,0.006802721088435374,0.006802721088435374,0.006802721088435374,0.006802721088435374,0.006802721088435374,0.006802721088435374,0.006802721088435374,0.006802721088435374,0.006802721088435374,0.006802721088435374,0.006802721088435374,0.006802721088435374,0.006802721088435374,0.006802721088435374,0.006802721088435374,0.006802721088435374,0.006802721088435374,0.006802721088435374,0.006802721088435374,0.006802721088435374,0.006802721088435374,0.006802721088435374,0.006802721088435374,0.006802721088435374,0.006802721088435374,0.006802721088435374,0.006802721088435374,0.006802721088435374,0.006802721088435374,0.01020408163265306,0.02040816326530612,0.030612244897959183,0.04081632653061224,0.09523809523809523,0.14625850340136054,0.1836734693877551,0.23809523809523808,0.3299319727891156,0.37755102040816324,0.41496598639455784,0.5170068027210885,0.5612244897959183,0.6054421768707483,0.6258503401360545,0.6632653061224489,0.7142857142857143,0.7619047619047619,0.7721088435374149,0.7857142857142857,0.7925170068027211,0.7925170068027211,0.7925170068027211,0.7925170068027211,0.7925170068027211,0.7925170068027211,0.7925170068027211,0.7925170068027211,0.7925170068027211,0.7925170068027211,0.7925170068027211,0.7925170068027211,0.7925170068027211,0.7925170068027211,0.7925170068027211,0.7925170068027211,0.7925170068027211,0.7925170068027211,0.7925170068027211,0.7925170068027211,0.7925170068027211,0.7925170068027211,0.7925170068027211,0.7925170068027211,0.7925170068027211,0.7925170068027211,0.7925170068027211,0.7925170068027211,0.7925170068027211,0.8129251700680272,0.8163265306122449,0.8231292517006803,0.8299319727891157,0.8333333333333334,0.8401360544217688,0.8401360544217688,0.8435374149659864,0.8435374149659864,0.8435374149659864,0.8435374149659864,0.8435374149659864,0.8435374149659864,0.8435374149659864,0.8435374149659864,0.8435374149659864,0.8435374149659864,0.8435374149659864,0.8435374149659864,0.8435374149659864,0.8435374149659864,0.8435374149659864,0.8435374149659864,0.8435374149659864,0.8333333333333334,0.8299319727891157,0.8299319727891157,0.826530612244898,0.826530612244898,0.826530612244898,0.826530612244898,0.826530612244898,0.826530612244898,0.826530612244898,0.826530612244898,0.826530612244898,0.826530612244898,0.826530612244898,0.826530612244898,0.8197278911564626,0.8129251700680272,0.8027210884353742,0.7993197278911565,0.7925170068027211,0.7925170068027211,0.7891156462585034,0.7891156462585034,0.7891156462585034,0.7891156462585034,0.7891156462585034,0.7891156462585034,0.7891156462585034,0.7891156462585034,0.7891156462585034,0.7891156462585034,0.7891156462585034,0.7891156462585034,0.7891156462585034,0.7891156462585034,0.7959183673469388,0.7993197278911565,0.8027210884353742,0.8027210884353742,0.8027210884353742,0.8061224489795918,0.8095238095238095,0.8095238095238095,0.8129251700680272,0.8163265306122449,0.8163265306122449,0.8197278911564626,0.8197278911564626,0.8231292517006803,0.826530612244898,0.8299319727891157,0.8299319727891157,0.8299319727891157,0.8299319727891157,0.8299319727891157,0.8299319727891157,0.8299319727891157,0.8299319727891157,0.8299319727891157,0.8299319727891157,0.8299319727891157,0.8299319727891157,0.8299319727891157,0.8299319727891157,0.8299319727891157,0.8299319727891157,0.8299319727891157,0.8299319727891157,0.8299319727891157,0.8299319727891157,0.8299319727891157,0.8299319727891157,0.8299319727891157,0.8299319727891157,0.8299319727891157,0.8299319727891157,0.8299319727891157,0.8299319727891157,0.8299319727891157,0.8299319727891157,0.8299319727891157,0.8299319727891157,0.8299319727891157,0.8299319727891157,0.8299319727891157,0.8299319727891157,0.8299319727891157,0.8299319727891157,0.8299319727891157,0.8299319727891157,0.8299319727891157,0.8299319727891157,0.8299319727891157,0.8299319727891157,0.8299319727891157,0.8299319727891157,0.8299319727891157,0.8299319727891157,0.8299319727891157,0.8299319727891157,0.8299319727891157,0.8299319727891157,0.8299319727891157,0.8299319727891157,0.8299319727891157,0.8299319727891157,0.8299319727891157,0.8299319727891157,0.8299319727891157,0.8299319727891157,0.8299319727891157,0.8299319727891157,0.8299319727891157,0.8299319727891157,0.8299319727891157,0.8299319727891157,0.8299319727891157,0.8299319727891157,0.8299319727891157,0.8299319727891157,0.8299319727891157,0.8299319727891157,0.8299319727891157,0.8299319727891157,0.8299319727891157,0.8299319727891157,0.8299319727891157,0.8299319727891157,0.8299319727891157,0.8299319727891157,0.8299319727891157,0.8299319727891157,0.8299319727891157,0.8299319727891157,0.8299319727891157,0.8299319727891157,0.8299319727891157,0.8299319727891157,0.8299319727891157,0.8299319727891157,0.8299319727891157,0.8299319727891157,0.8299319727891157,0.8299319727891157,0.8299319727891157,0.8299319727891157,0.8299319727891157,0.8299319727891157,0.8299319727891157,0.8299319727891157,0.8299319727891157,0.8299319727891157,0.8299319727891157,0.8299319727891157,0.8299319727891157,0.8299319727891157,0.8299319727891157,0.8299319727891157,0.8299319727891157,0.8299319727891157,0.8299319727891157,0.8299319727891157,0.8299319727891157,0.8299319727891157,0.8299319727891157,0.8299319727891157,0.8299319727891157,0.8299319727891157,0.8299319727891157,0.8299319727891157,0.8299319727891157,0.8299319727891157,0.8299319727891157,0.8299319727891157,0.8299319727891157,0.8299319727891157,0.8299319727891157,0.8299319727891157,0.8299319727891157,0.8299319727891157,0.8299319727891157,0.8299319727891157,0.8299319727891157,0.8299319727891157,0.8299319727891157,0.8299319727891157,0.8299319727891157,0.8299319727891157,0.8299319727891157,0.8299319727891157,0.8299319727891157,0.8299319727891157,0.8299319727891157,0.8299319727891157,0.8299319727891157,0.8299319727891157,0.8299319727891157,0.8299319727891157,0.8299319727891157,0.8299319727891157,0.8299319727891157,0.8299319727891157,0.8299319727891157,0.8299319727891157,0.8299319727891157,0.8299319727891157,0.8299319727891157,0.8299319727891157,0.8299319727891157,0.8299319727891157,0.8299319727891157,0.8299319727891157,0.8299319727891157,0.8299319727891157,0.8299319727891157,0.8299319727891157,0.8299319727891157,0.8299319727891157,0.8299319727891157,0.8299319727891157,0.8299319727891157,0.8299319727891157,0.8299319727891157,0.8299319727891157,0.8299319727891157,0.8299319727891157,0.8299319727891157,0.8299319727891157,0.8299319727891157,0.8299319727891157,0.8299319727891157,0.8231292517006803,0.8163265306122449,0.8129251700680272,0.8095238095238095,0.8061224489795918,0.8027210884353742,0.8027210884353742,0.7993197278911565,0.7993197278911565,0.7959183673469388,0.7891156462585034,0.7891156462585034,0.7891156462585034,0.7891156462585034,0.7891156462585034,0.7857142857142857,0.782312925170068,0.7789115646258503,0.7755102040816326,0.7755102040816326,0.7755102040816326,0.7653061224489796,0.7448979591836735,0.7278911564625851,0.717687074829932,0.7006802721088435,0.6938775510204082,0.6938775510204082,0.6938775510204082,0.6870748299319728,0.6870748299319728,0.6870748299319728,0.6870748299319728,0.6870748299319728,0.6870748299319728,0.6870748299319728,0.6870748299319728,0.6870748299319728,0.6870748299319728,0.6870748299319728,0.6870748299319728,0.6870748299319728,0.6870748299319728,0.6870748299319728,0.6870748299319728,0.6870748299319728,0.6870748299319728,0.6870748299319728,0.6870748299319728,0.6870748299319728,0.6870748299319728,0.6870748299319728,0.6870748299319728,0.6870748299319728,0.6870748299319728,0.6870748299319728,0.6870748299319728,0.6870748299319728,0.6870748299319728,0.6870748299319728,0.6870748299319728,0.6870748299319728,0.6870748299319728,0.6870748299319728,0.6870748299319728,0.6870748299319728,0.6870748299319728,0.6870748299319728,0.6870748299319728,0.6870748299319728,0.6870748299319728,0.6870748299319728,0.6870748299319728,0.6870748299319728,0.6870748299319728,0.6870748299319728,0.6870748299319728,0.6870748299319728,0.6870748299319728,0.6870748299319728,0.6870748299319728,0.6836734693877551,0.6836734693877551,0.6802721088435374,0.6768707482993197,0.6700680272108843,0.6700680272108843,0.6666666666666666,0.6598639455782312,0.6598639455782312,0.6598639455782312,0.6598639455782312,0.6598639455782312,0.6598639455782312,0.6632653061224489,0.673469387755102,0.6802721088435374,0.6938775510204082,0.7006802721088435,0.7074829931972789,0.7108843537414966,0.7142857142857143,0.717687074829932,0.7210884353741497,0.7210884353741497,0.7210884353741497,0.7210884353741497,0.7210884353741497,0.7210884353741497,0.7210884353741497,0.7210884353741497,0.7210884353741497,0.7210884353741497,0.7210884353741497,0.7210884353741497,0.7210884353741497,0.7210884353741497,0.7210884353741497,0.7210884353741497,0.7210884353741497,0.7210884353741497,0.7210884353741497,0.6938775510204082,0.6666666666666666,0.6496598639455783,0.6122448979591837,0.5918367346938775,0.54421768707483,0.5068027210884354,0.4897959183673469,0.46258503401360546,0.43197278911564624,0.4217687074829932,0.41496598639455784,0.40816326530612246,0.40816326530612246,0.40816326530612246,0.40816326530612246,0.40816326530612246,0.4489795918367347,0.5510204081632653,0.8673469387755102,1.054421768707483,1.1462585034013606,1.2619047619047619,1.3061224489795917,1.3401360544217686,1.3605442176870748,1.3741496598639455,1.3741496598639455,1.3741496598639455,1.3741496598639455,1.3741496598639455,1.3741496598639455,1.3741496598639455,1.3775510204081634,1.3775510204081634,1.3775510204081634,1.3775510204081634,1.370748299319728,1.346938775510204,1.3231292517006803,1.2925170068027212,1.2619047619047619,1.248299319727891,1.2210884353741496,1.1972789115646258,1.1904761904761905,1.1802721088435375,1.163265306122449,1.1462585034013606,1.1224489795918366,1.098639455782313,1.08843537414966,1.0782312925170068,1.0612244897959184,1.054421768707483,1.0476190476190477,1.0408163265306123,1.0408163265306123,1.0408163265306123,1.034013605442177,1.030612244897959,1.0272108843537415,1.0272108843537415,1.0272108843537415,1.0272108843537415,1.0272108843537415,1.0272108843537415,1.0272108843537415,1.0272108843537415,1.0272108843537415,1.0272108843537415,1.0272108843537415,1.0272108843537415,1.0272108843537415,1.0272108843537415,1.0272108843537415,1.0272108843537415,1.0272108843537415,1.0272108843537415,1.0272108843537415,1.0272108843537415,1.0272108843537415,1.0272108843537415,1.0272108843537415,1.0272108843537415,1.0272108843537415,1.0272108843537415,1.0272108843537415,1.0272108843537415,1.0272108843537415,1.0272108843537415,1.0272108843537415,1.0272108843537415,1.0272108843537415,1.0272108843537415,1.0272108843537415,1.0272108843537415,1.0272108843537415,1.0272108843537415,1.0272108843537415,1.0272108843537415,1.0272108843537415,1.0272108843537415,1.0272108843537415,1.0272108843537415,1.0272108843537415,1.0272108843537415,1.0272108843537415,1.0204081632653061,0.9285714285714286,0.8129251700680272,0.7244897959183674,0.5272108843537415,0.445578231292517,0.36054421768707484,0.2585034013605442,0.22108843537414966,0.19727891156462585,0.17687074829931973,0.17006802721088435,0.1564625850340136,0.14285714285714285,0.1326530612244898,0.1292517006802721,0.12585034013605442,0.12585034013605442,0.12585034013605442,0.12585034013605442,0.12585034013605442,0.12585034013605442,0.12585034013605442,0.12585034013605442,0.12585034013605442,0.12585034013605442,0.12585034013605442,0.1360544217687075,0.15306122448979592,0.17687074829931973,0.1870748299319728,0.20068027210884354,0.22108843537414966,0.23129251700680273,0.23469387755102042,0.23809523809523808,0.23809523809523808,0.23809523809523808,0.23809523809523808,0.24149659863945577,0.24149659863945577,0.24149659863945577,0.23469387755102042,0.22108843537414966,0.21768707482993196,0.2108843537414966,0.20408163265306123,0.20068027210884354,0.19387755102040816,0.19047619047619047,0.19047619047619047,0.19047619047619047,0.19047619047619047,0.19047619047619047,0.19047619047619047,0.19047619047619047,0.19047619047619047,0.19047619047619047,0.19047619047619047,0.19047619047619047,0.19047619047619047,0.19047619047619047,0.19047619047619047,0.19047619047619047,0.19047619047619047,0.19047619047619047,0.19047619047619047,0.19047619047619047,0.19047619047619047,0.19047619047619047,0.19047619047619047,0.19047619047619047,0.19047619047619047,0.17687074829931973,0.17346938775510204,0.17006802721088435,0.16326530612244897,0.16326530612244897,0.16326530612244897,0.16326530612244897,0.16326530612244897,0.16326530612244897,0.16326530612244897,0.16326530612244897,0.16326530612244897,0.16326530612244897,0.16326530612244897,0.16326530612244897,0.16326530612244897,0.16326530612244897,0.16326530612244897,0.16326530612244897,0.16326530612244897,0.16326530612244897,0.16326530612244897,0.16326530612244897,0.16326530612244897,0.16326530612244897,0.16326530612244897,0.16326530612244897,0.16326530612244897,0.16326530612244897,0.16326530612244897,0.16326530612244897,0.16326530612244897,0.16326530612244897,0.16326530612244897,0.16326530612244897,0.16326530612244897,0.16326530612244897,0.16326530612244897,0.16326530612244897,0.16326530612244897,0.16326530612244897,0.16326530612244897,0.16326530612244897,0.16326530612244897,0.16326530612244897,0.16326530612244897,0.16326530612244897,0.16326530612244897,0.16326530612244897,0.16326530612244897,0.17687074829931973,0.19387755102040816,0.23129251700680273,0.2653061224489796,0.282312925170068,0.2857142857142857,0.29931972789115646,0.29931972789115646,0.30272108843537415,0.30612244897959184,0.30952380952380953,0.3129251700680272,0.3129251700680272,0.3197278911564626,0.3197278911564626,0.3197278911564626,0.32653061224489793,0.32653061224489793,0.32653061224489793,0.32653061224489793,0.32653061224489793,0.32653061224489793,0.32653061224489793,0.32653061224489793,0.32653061224489793,0.32653061224489793,0.32653061224489793,0.32653061224489793,0.32653061224489793,0.32653061224489793,0.32653061224489793,0.32653061224489793,0.32653061224489793,0.32653061224489793,0.3231292517006803,0.3231292517006803,0.3197278911564626,0.3197278911564626,0.3197278911564626,0.3197278911564626,0.3197278911564626,0.3163265306122449,0.3163265306122449,0.3163265306122449,0.3163265306122449,0.3163265306122449,0.3163265306122449,0.3163265306122449,0.3163265306122449,0.3163265306122449,0.3163265306122449,0.3163265306122449,0.3163265306122449,0.3163265306122449,0.3163265306122449,0.3163265306122449,0.3163265306122449,0.3163265306122449,0.3163265306122449,0.3163265306122449,0.3163265306122449,0.3163265306122449,0.3163265306122449,0.3163265306122449,0.3163265306122449,0.3163265306122449,0.3163265306122449,0.3163265306122449,0.3163265306122449,0.3163265306122449,0.3163265306122449,0.3163265306122449,0.3163265306122449,0.3163265306122449,0.3163265306122449,0.3163265306122449,0.3163265306122449,0.3163265306122449,0.3163265306122449,0.3163265306122449,0.3163265306122449,0.3231292517006803,0.3231292517006803,0.32653061224489793,0.32653061224489793,0.32653061224489793,0.3299319727891156,0.3299319727891156,0.3299319727891156,0.3333333333333333,0.336734693877551,0.336734693877551,0.3401360544217687,0.3401360544217687,0.3401360544217687,0.3401360544217687,0.3401360544217687,0.3401360544217687,0.3401360544217687,0.3401360544217687,0.3401360544217687,0.3401360544217687,0.3401360544217687,0.3401360544217687,0.3401360544217687,0.3401360544217687,0.3401360544217687,0.3401360544217687,0.3401360544217687,0.3401360544217687,0.3401360544217687,0.3401360544217687,0.3401360544217687,0.3401360544217687,0.3401360544217687,0.3401360544217687,0.3401360544217687,0.3401360544217687,0.3401360544217687,0.3401360544217687,0.3401360544217687,0.3401360544217687,0.3401360544217687,0.3401360544217687,0.3401360544217687,0.3401360544217687,0.3401360544217687,0.3401360544217687,0.3401360544217687,0.3401360544217687,0.3401360544217687,0.3401360544217687,0.3401360544217687,0.3401360544217687,0.3401360544217687,0.3401360544217687,0.3401360544217687,0.3401360544217687,0.3401360544217687,0.3401360544217687,0.3401360544217687,0.3401360544217687,0.3401360544217687,0.3401360544217687,0.3401360544217687,0.3401360544217687,0.3401360544217687,0.35374149659863946,0.35714285714285715,0.36394557823129253,0.3741496598639456,0.3741496598639456,0.37755102040816324,0.3843537414965986,0.391156462585034,0.391156462585034,0.3945578231292517,0.3945578231292517,0.3979591836734694,0.3979591836734694,0.3979591836734694,0.3979591836734694,0.3979591836734694,0.3979591836734694,0.4013605442176871,0.4013605442176871,0.4013605442176871,0.4013605442176871,0.4013605442176871,0.4013605442176871,0.4013605442176871,0.4013605442176871,0.4013605442176871,0.4013605442176871,0.4013605442176871,0.4013605442176871,0.4013605442176871,0.4013605442176871,0.4013605442176871,0.4013605442176871,0.4013605442176871,0.4013605442176871,0.4013605442176871,0.4013605442176871,0.4013605442176871,0.4013605442176871,0.4013605442176871,0.4013605442176871,0.4013605442176871,0.4013605442176871,0.4013605442176871,0.4013605442176871,0.4013605442176871,0.4013605442176871,0.4013605442176871,0.4013605442176871,0.4013605442176871,0.4013605442176871,0.4013605442176871,0.4013605442176871,0.4013605442176871,0.4013605442176871,0.4013605442176871,0.4013605442176871,0.4013605442176871,0.4013605442176871,0.4013605442176871,0.4013605442176871,0.4013605442176871,0.4013605442176871,0.4013605442176871,0.4013605442176871,0.4013605442176871,0.4013605442176871,0.4013605442176871,0.4013605442176871,0.4013605442176871,0.4013605442176871,0.4013605442176871,0.4013605442176871,0.4013605442176871,0.4013605442176871,0.4013605442176871,0.4013605442176871,0.4013605442176871,0.4013605442176871,0.4013605442176871,0.4013605442176871,0.4013605442176871,0.4013605442176871,0.4013605442176871,0.4013605442176871,0.4013605442176871,0.4013605442176871,0.4013605442176871,0.4013605442176871,0.4013605442176871,0.4013605442176871,0.4013605442176871,0.4013605442176871,0.4013605442176871,0.4013605442176871,0.4013605442176871,0.4013605442176871,0.4013605442176871,0.4013605442176871,0.4013605442176871,0.4013605442176871,0.4013605442176871,0.4013605442176871,0.4013605442176871,0.4013605442176871,0.4013605442176871,0.4013605442176871,0.4013605442176871,0.4013605442176871,0.3979591836734694,0.3945578231292517,0.3673469387755102,0.3163265306122449,0.29931972789115646,0.2857142857142857,0.2653061224489796,0.24829931972789115,0.23129251700680273,0.20408163265306123,0.19047619047619047,0.17687074829931973,0.16326530612244897,0.14965986394557823,0.13945578231292516,0.12244897959183673,0.1054421768707483,0.09183673469387756,0.08163265306122448,0.07482993197278912,0.06802721088435375,0.06462585034013606,0.061224489795918366,0.061224489795918366,0.061224489795918366,0.061224489795918366,0.061224489795918366,0.061224489795918366,0.06462585034013606,0.06802721088435375,0.08163265306122448,0.09863945578231292,0.11904761904761904,0.12585034013605442,0.1360544217687075,0.1360544217687075,0.1360544217687075,0.1360544217687075,0.1360544217687075,0.1360544217687075,0.1360544217687075,0.1360544217687075,0.1360544217687075,0.1360544217687075,0.1360544217687075,0.1360544217687075,0.1360544217687075,0.1360544217687075,0.1360544217687075,0.1360544217687075,0.1360544217687075,0.1360544217687075,0.1360544217687075,0.1360544217687075,0.1360544217687075,0.1360544217687075,0.1360544217687075,0.1360544217687075,0.1360544217687075,0.1360544217687075,0.1360544217687075,0.1360544217687075,0.1360544217687075,0.1360544217687075,0.1360544217687075,0.1360544217687075,0.1360544217687075,0.1360544217687075,0.1360544217687075,0.1360544217687075,0.1360544217687075,0.1360544217687075,0.14965986394557823,0.17687074829931973,0.19387755102040816,0.22108843537414966,0.24489795918367346,0.2585034013605442,0.2789115646258503,0.2857142857142857,0.2857142857142857,0.2925170068027211,0.2925170068027211,0.2925170068027211,0.2925170068027211,0.29931972789115646,0.30612244897959184,0.3129251700680272,0.3163265306122449,0.32653061224489793,0.35374149659863946,0.3673469387755102,0.391156462585034,0.3945578231292517,0.41496598639455784,0.41496598639455784,0.4217687074829932,0.4217687074829932,0.4217687074829932,0.4217687074829932,0.4217687074829932,0.4217687074829932,0.4217687074829932,0.4217687074829932,0.4217687074829932,0.4217687074829932,0.4217687074829932,0.4217687074829932,0.4217687074829932,0.4217687074829932,0.4217687074829932,0.4217687074829932,0.4217687074829932,0.4217687074829932,0.4217687074829932,0.4217687074829932,0.4217687074829932,0.4217687074829932,0.4217687074829932,0.4217687074829932,0.4217687074829932,0.4217687074829932,0.4217687074829932,0.4217687074829932,0.4217687074829932,0.4217687074829932,0.4217687074829932,0.4217687074829932,0.4217687074829932,0.4217687074829932,0.4217687074829932,0.4217687074829932,0.4217687074829932,0.4217687074829932,0.4217687074829932,0.4217687074829932,0.4217687074829932,0.4217687074829932,0.4217687074829932,0.4217687074829932,0.4217687074829932,0.4217687074829932,0.4217687074829932,0.4217687074829932,0.4217687074829932,0.4217687074829932,0.4217687074829932,0.41496598639455784,0.3979591836734694,0.3945578231292517,0.3707482993197279,0.35714285714285715,0.3401360544217687,0.3163265306122449,0.30272108843537415,0.29591836734693877,0.2857142857142857,0.2755102040816326,0.2687074829931973,0.2653061224489796,0.2585034013605442,0.2585034013605442,0.2585034013605442,0.2585034013605442,0.2585034013605442,0.2585034013605442,0.2585034013605442,0.2585034013605442,0.2585034013605442,0.2585034013605442,0.2585034013605442,0.2585034013605442,0.2585034013605442,0.2585034013605442,0.2585034013605442,0.2585034013605442,0.2585034013605442,0.2585034013605442,0.2585034013605442,0.2585034013605442,0.2585034013605442,0.2585034013605442,0.2585034013605442,0.2585034013605442,0.2585034013605442,0.2585034013605442,0.2585034013605442,0.2585034013605442,0.2585034013605442,0.2585034013605442,0.2585034013605442,0.2585034013605442,0.2585034013605442,0.2585034013605442,0.2585034013605442,0.2585034013605442,0.2585034013605442,0.2585034013605442,0.2585034013605442,0.2585034013605442,0.2585034013605442,0.2585034013605442,0.2585034013605442,0.2585034013605442,0.2585034013605442,0.2585034013605442,0.2585034013605442,0.2585034013605442,0.2585034013605442,0.2585034013605442,0.2585034013605442,0.2585034013605442,0.2585034013605442,0.2585034013605442,0.2585034013605442,0.2585034013605442,0.2585034013605442,0.25170068027210885,0.24829931972789115,0.24149659863945577,0.23469387755102042,0.23129251700680273,0.21768707482993196,0.2108843537414966,0.20068027210884354,0.19047619047619047,0.1836734693877551,0.1836734693877551,0.1836734693877551,0.1836734693877551,0.1836734693877551,0.1836734693877551,0.17687074829931973,0.17687074829931973,0.17687074829931973,0.17687074829931973,0.17687074829931973,0.17687074829931973,0.17687074829931973,0.17687074829931973,0.17687074829931973,0.17687074829931973,0.17687074829931973,0.17687074829931973,0.17687074829931973,0.17687074829931973,0.17687074829931973,0.17687074829931973,0.17687074829931973,0.17687074829931973,0.17687074829931973,0.17687074829931973,0.17687074829931973,0.17687074829931973,0.17687074829931973,0.17687074829931973,0.17687074829931973,0.17687074829931973,0.17687074829931973,0.17687074829931973,0.17687074829931973,0.17687074829931973,0.17687074829931973,0.17687074829931973,0.17687074829931973,0.17687074829931973,0.17687074829931973,0.17687074829931973,0.17687074829931973,0.17687074829931973,0.17687074829931973,0.17687074829931973,0.17687074829931973,0.17687074829931973,0.17687074829931973,0.17687074829931973,0.17687074829931973,0.17687074829931973,0.17687074829931973,0.17687074829931973,0.17687074829931973,0.17687074829931973,0.17687074829931973,0.17687074829931973,0.17687074829931973,0.17687074829931973,0.17687074829931973,0.17687074829931973,0.17687074829931973,0.17687074829931973,0.17687074829931973,0.17687074829931973,0.17687074829931973,0.18027210884353742,0.20408163265306123,0.22789115646258504,0.2585034013605442,0.29931972789115646,0.3197278911564626,0.3299319727891156,0.35714285714285715,0.38095238095238093,0.4013605442176871,0.41496598639455784,0.4217687074829932,0.42517006802721086,0.43197278911564624,0.43537414965986393,0.43537414965986393,0.445578231292517,0.4489795918367347,0.46258503401360546,0.4931972789115646,0.5408163265306123,0.608843537414966,0.7074829931972789,0.8027210884353742,0.8741496598639455,0.9149659863945578,0.9965986394557823,1.034013605442177,1.0612244897959184,1.064625850340136,1.0680272108843538,1.0680272108843538,1.0748299319727892,1.0850340136054422,1.0952380952380953,1.1054421768707483,1.1156462585034013,1.1156462585034013,1.119047619047619,1.119047619047619,1.119047619047619,1.119047619047619,1.1156462585034013,1.1122448979591837,1.0918367346938775,1.08843537414966,1.0748299319727892,1.0612244897959184,1.0510204081632653,1.0442176870748299,1.0374149659863945,1.034013605442177,1.034013605442177,1.034013605442177,1.034013605442177,1.034013605442177,1.034013605442177,1.034013605442177,1.034013605442177,1.034013605442177,1.034013605442177,1.034013605442177,1.034013605442177,1.034013605442177,1.034013605442177,1.034013605442177,1.034013605442177,1.034013605442177,1.034013605442177,1.034013605442177,1.034013605442177,1.034013605442177,1.034013605442177,1.034013605442177,1.034013605442177,1.034013605442177,1.034013605442177,1.034013605442177,1.034013605442177,1.034013605442177,1.034013605442177,1.034013605442177,1.034013605442177,1.034013605442177,1.034013605442177,1.034013605442177,1.034013605442177,1.034013605442177,1.034013605442177,1.034013605442177,1.034013605442177,1.034013605442177,1.034013605442177,1.034013605442177,1.034013605442177,1.034013605442177,1.034013605442177,1.034013605442177,1.034013605442177,1.034013605442177,1.034013605442177,1.034013605442177,1.034013605442177,1.034013605442177,1.034013605442177,1.034013605442177,1.034013605442177,1.034013605442177,1.034013605442177,1.034013605442177,1.034013605442177,1.034013605442177,1.034013605442177,1.034013605442177,1.034013605442177,1.034013605442177,1.034013605442177,1.034013605442177,1.034013605442177,1.034013605442177,1.034013605442177,1.034013605442177,1.034013605442177,1.034013605442177,1.034013605442177,1.034013605442177,1.034013605442177,1.034013605442177,1.034013605442177,1.034013605442177,1.034013605442177,1.034013605442177,1.034013605442177,1.034013605442177,1.034013605442177,1.034013605442177,1.034013605442177,1.034013605442177,1.034013605442177,1.034013605442177,1.034013605442177,1.034013605442177,1.034013605442177,1.034013605442177,1.034013605442177,1.034013605442177,1.034013605442177,1.034013605442177,1.034013605442177,1.034013605442177,1.034013605442177,1.034013605442177,1.034013605442177,1.034013605442177,1.034013605442177,1.034013605442177,1.034013605442177,1.034013605442177,1.034013605442177,1.034013605442177,1.034013605442177,1.034013605442177,1.034013605442177,1.034013605442177,1.034013605442177,1.034013605442177,1.034013605442177,1.034013605442177,1.034013605442177,1.034013605442177,1.034013605442177,1.034013605442177,1.034013605442177,1.034013605442177,1.034013605442177,1.034013605442177,1.034013605442177,1.034013605442177,1.034013605442177,1.034013605442177,1.034013605442177,1.034013605442177,1.034013605442177,1.034013605442177,1.034013605442177,1.034013605442177,1.034013605442177,1.034013605442177,1.034013605442177,1.034013605442177,1.034013605442177,1.034013605442177,1.034013605442177,1.034013605442177,1.034013605442177,1.034013605442177,1.034013605442177,1.034013605442177],"y":[-3.4285714285714284,-3.4285714285714284,-3.4285714285714284,-3.4285714285714284,-3.4285714285714284,-3.4285714285714284,-3.4285714285714284,-3.4285714285714284,-3.4285714285714284,-3.4285714285714284,-3.4285714285714284,-3.4285714285714284,-3.4285714285714284,-3.4285714285714284,-3.4285714285714284,-3.4285714285714284,-3.4285714285714284,-3.4285714285714284,-3.4285714285714284,-3.4285714285714284,-3.4285714285714284,-3.4285714285714284,-3.4285714285714284,-3.4285714285714284,-3.4285714285714284,-3.4285714285714284,-3.4285714285714284,-3.4285714285714284,-3.4285714285714284,-3.4285714285714284,-3.4285714285714284,-3.4285714285714284,-3.4285714285714284,-3.4285714285714284,-3.4285714285714284,-3.4285714285714284,-3.4285714285714284,-3.4285714285714284,-3.4285714285714284,-3.4285714285714284,-3.4285714285714284,-3.4285714285714284,-3.4285714285714284,-3.4285714285714284,-3.4285714285714284,-3.4285714285714284,-3.4285714285714284,-3.4285714285714284,-3.4285714285714284,-3.4285714285714284,-3.4285714285714284,-3.4285714285714284,-3.4285714285714284,-3.4285714285714284,-3.4285714285714284,-3.4285714285714284,-3.4285714285714284,-3.4285714285714284,-3.4285714285714284,-3.4285714285714284,-3.4285714285714284,-3.4285714285714284,-3.4285714285714284,-3.4285714285714284,-3.4285714285714284,0.3761904761904762,0.3761904761904762,0.3761904761904762,0.36666666666666664,0.36666666666666664,0.3476190476190476,0.32857142857142857,0.3,0.2904761904761905,0.2904761904761905,0.28095238095238095,0.28095238095238095,0.28095238095238095,0.28095238095238095,0.28095238095238095,0.28095238095238095,0.2714285714285714,0.2619047619047619,0.2619047619047619,0.2619047619047619,0.2619047619047619,0.2619047619047619,0.2619047619047619,0.24285714285714285,0.22380952380952382,0.18571428571428572,0.16666666666666666,0.14761904761904762,0.11904761904761904,0.09047619047619047,0.08095238095238096,0.08095238095238096,0.07142857142857142,0.07142857142857142,0.07142857142857142,0.07142857142857142,0.08095238095238096,0.09047619047619047,0.10952380952380952,0.11904761904761904,0.11904761904761904,0.12857142857142856,0.12857142857142856,0.12857142857142856,0.12857142857142856,0.12857142857142856,0.12857142857142856,0.12857142857142856,0.12857142857142856,0.11904761904761904,0.10952380952380952,0.10952380952380952,0.10952380952380952,0.1,0.1,0.1,0.1,0.1,0.1,0.1,0.1,0.1,0.1,0.1,0.1,0.1,0.1,0.1,0.1,0.1,0.1,0.1,0.1,0.1,0.1,0.1,0.1,0.1,0.1,0.1,0.1,0.1,0.1,0.1,0.1,0.1,0.1,0.1,0.1,0.1,0.1,0.1,0.1,0.1,0.1,0.1,0.1,0.1,0.1,0.1,0.1,0.1,0.1,0.1,0.1,0.1,0.1,0.1,0.1,0.1,0.1,0.1,0.1,0.1,0.1,0.1,0.1,0.1,0.1,0.1,0.1,0.1,0.1,0.1,0.1,0.1,0.1,0.1,0.1,0.1,0.1,0.1,0.1,0.1,0.1,0.1,0.1,0.1,0.1,0.1,0.1,0.1,0.1,0.1,0.1,0.1,0.1,0.1,0.1,0.1,0.1,0.1,0.1,0.1,0.1,0.1,0.1,0.1,0.1,0.1,0.1,0.1,0.1,0.1,0.1,0.1,0.1,0.1,0.1,0.1,0.1,0.1,0.1,0.1,0.1,0.1,0.09047619047619047,0.07142857142857142,0.06190476190476191,0.04285714285714286,0.03333333333333333,0.03333333333333333,0.03333333333333333,0.03333333333333333,0.03333333333333333,0.03333333333333333,0.03333333333333333,0.05238095238095238,0.05238095238095238,0.07142857142857142,0.08095238095238096,0.09047619047619047,0.1,0.1,0.11904761904761904,0.11904761904761904,0.11904761904761904,0.12857142857142856,0.1380952380952381,0.1380952380952381,0.14761904761904762,0.15714285714285714,0.15714285714285714,0.16666666666666666,0.1761904761904762,0.18571428571428572,0.18571428571428572,0.19523809523809524,0.19523809523809524,0.21428571428571427,0.22380952380952382,0.22380952380952382,0.23333333333333334,0.2523809523809524,0.2619047619047619,0.2619047619047619,0.2619047619047619,0.2714285714285714,0.2904761904761905,0.3,0.30952380952380953,0.319047619047619,0.32857142857142857,0.32857142857142857,0.32857142857142857,0.3380952380952381,0.36666666666666664,0.36666666666666664,0.3761904761904762,0.38571428571428573,0.38571428571428573,0.40476190476190477,0.40476190476190477,0.40476190476190477,0.40476190476190477,0.4142857142857143,0.4142857142857143,0.4142857142857143,0.4142857142857143,0.4238095238095238,0.4238095238095238,0.43333333333333335,0.43333333333333335,0.44285714285714284,0.44285714285714284,0.44285714285714284,0.44285714285714284,0.44285714285714284,0.44285714285714284,0.44285714285714284,0.44285714285714284,0.44285714285714284,0.44285714285714284,0.44285714285714284,0.44285714285714284,0.44285714285714284,0.44285714285714284,0.44285714285714284,0.44285714285714284,0.44285714285714284,0.44285714285714284,0.44285714285714284,0.44285714285714284,0.44285714285714284,0.44285714285714284,0.44285714285714284,0.44285714285714284,0.44285714285714284,0.44285714285714284,0.44285714285714284,0.44285714285714284,0.44285714285714284,0.44285714285714284,0.44285714285714284,0.44285714285714284,0.44285714285714284,0.44285714285714284,0.44285714285714284,0.44285714285714284,0.44285714285714284,0.44285714285714284,0.44285714285714284,0.44285714285714284,0.44285714285714284,0.44285714285714284,0.44285714285714284,0.44285714285714284,0.44285714285714284,0.44285714285714284,0.44285714285714284,0.44285714285714284,0.44285714285714284,0.44285714285714284,0.44285714285714284,0.44285714285714284,0.44285714285714284,0.44285714285714284,0.44285714285714284,0.44285714285714284,0.44285714285714284,0.44285714285714284,0.44285714285714284,0.44285714285714284,0.44285714285714284,0.44285714285714284,0.44285714285714284,0.44285714285714284,0.44285714285714284,0.44285714285714284,0.44285714285714284,0.44285714285714284,0.44285714285714284,0.44285714285714284,0.44285714285714284,0.44285714285714284,0.44285714285714284,0.44285714285714284,0.44285714285714284,0.44285714285714284,0.44285714285714284,0.44285714285714284,0.44285714285714284,0.44285714285714284,0.44285714285714284,0.44285714285714284,0.44285714285714284,0.44285714285714284,0.44285714285714284,0.44285714285714284,0.44285714285714284,0.44285714285714284,0.44285714285714284,0.44285714285714284,0.44285714285714284,0.44285714285714284,0.44285714285714284,0.44285714285714284,0.44285714285714284,0.44285714285714284,0.44285714285714284,0.44285714285714284,0.44285714285714284,0.44285714285714284,0.44285714285714284,0.44285714285714284,0.44285714285714284,0.44285714285714284,0.44285714285714284,0.44285714285714284,0.44285714285714284,0.44285714285714284,0.44285714285714284,0.44285714285714284,0.44285714285714284,0.44285714285714284,0.44285714285714284,0.44285714285714284,0.44285714285714284,0.44285714285714284,0.44285714285714284,0.44285714285714284,0.44285714285714284,0.44285714285714284,0.44285714285714284,0.44285714285714284,0.44285714285714284,0.44285714285714284,0.44285714285714284,0.44285714285714284,0.44285714285714284,0.44285714285714284,0.44285714285714284,0.44285714285714284,0.44285714285714284,0.44285714285714284,0.44285714285714284,0.44285714285714284,0.44285714285714284,0.44285714285714284,0.44285714285714284,0.44285714285714284,0.44285714285714284,0.44285714285714284,0.44285714285714284,0.44285714285714284,0.44285714285714284,0.44285714285714284,0.44285714285714284,0.44285714285714284,0.44285714285714284,0.44285714285714284,0.44285714285714284,0.44285714285714284,0.44285714285714284,0.44285714285714284,0.44285714285714284,0.44285714285714284,0.44285714285714284,0.44285714285714284,0.44285714285714284,0.44285714285714284,0.44285714285714284,0.44285714285714284,0.44285714285714284,0.44285714285714284,0.44285714285714284,0.44285714285714284,0.44285714285714284,0.44285714285714284,0.44285714285714284,0.44285714285714284,0.44285714285714284,0.44285714285714284,0.44285714285714284,0.44285714285714284,0.44285714285714284,0.44285714285714284,0.44285714285714284,0.44285714285714284,0.44285714285714284,0.44285714285714284,0.44285714285714284,0.44285714285714284,0.44285714285714284,0.44285714285714284,0.44285714285714284,0.44285714285714284,0.44285714285714284,0.44285714285714284,0.44285714285714284,0.44285714285714284,0.44285714285714284,0.44285714285714284,0.44285714285714284,0.44285714285714284,0.44285714285714284,0.44285714285714284,0.44285714285714284,0.44285714285714284,0.44285714285714284,0.44285714285714284,0.44285714285714284,0.44285714285714284,0.44285714285714284,0.44285714285714284,0.44285714285714284,0.44285714285714284,0.44285714285714284,0.44285714285714284,0.44285714285714284,0.44285714285714284,0.43333333333333335,0.43333333333333335,0.43333333333333335,0.43333333333333335,0.43333333333333335,0.43333333333333335,0.43333333333333335,0