[{"success":true,"trial_type":"fullscreen","trial_index":0,"time_elapsed":4041,"internal_node_id":"0.0-0.0","protocol_sum":"","subject_identifier":412,"subject_sum":[92,244,226,107,211,216,125,165,224,63,128,164,58,100,241,34,10,31,75,169,225,214,52,140,174,168,60,6,53,60,63,57],"subject_pair":206,"STUDY_ID":"66a22c0758a3d5c9d26873c6","PROLIFIC_PID":"668d5a454e51f2df12027e26","SESSION_ID":"66a28245b4eca8f9777ee25b","practice_instructions":1,"leaderboard_instructions":0,"bonus":0,"reveal_word":false,"self_rating":"2","confidence":"66"},{"view_history":"[{\"page_index\":0,\"viewing_time\":8854.699999999255}]","rt":8855.099999997765,"trial_type":"instructions","trial_index":1,"time_elapsed":12898,"internal_node_id":"0.0-1.0","protocol_sum":"","subject_identifier":412,"subject_sum":[92,244,226,107,211,216,125,165,224,63,128,164,58,100,241,34,10,31,75,169,225,214,52,140,174,168,60,6,53,60,63,57],"subject_pair":206,"STUDY_ID":"66a22c0758a3d5c9d26873c6","PROLIFIC_PID":"668d5a454e51f2df12027e26","SESSION_ID":"66a28245b4eca8f9777ee25b","practice_instructions":1,"leaderboard_instructions":0,"bonus":0,"reveal_word":false,"self_rating":"2","confidence":"66"},{"view_history":"[{\"page_index\":0,\"viewing_time\":12330.89999999851}]","rt":12331.199999999255,"trial_type":"instructions","trial_index":2,"time_elapsed":25229,"internal_node_id":"0.0-2.0-0.0","protocol_sum":"","subject_identifier":412,"subject_sum":[92,244,226,107,211,216,125,165,224,63,128,164,58,100,241,34,10,31,75,169,225,214,52,140,174,168,60,6,53,60,63,57],"subject_pair":206,"STUDY_ID":"66a22c0758a3d5c9d26873c6","PROLIFIC_PID":"668d5a454e51f2df12027e26","SESSION_ID":"66a28245b4eca8f9777ee25b","practice_instructions":1,"leaderboard_instructions":0,"bonus":0,"reveal_word":false,"self_rating":"2","confidence":"66"},{"rt":48803.39999999851,"responses":"{\"Q0\":\"... reveal the word with as <b>few letter guesses</b> as possible\"}","question_order":"[0]","trial_type":"survey-multi-choice","trial_index":3,"time_elapsed":74034,"internal_node_id":"0.0-2.0-1.0","protocol_sum":"","subject_identifier":412,"subject_sum":[92,244,226,107,211,216,125,165,224,63,128,164,58,100,241,34,10,31,75,169,225,214,52,140,174,168,60,6,53,60,63,57],"subject_pair":206,"correct":true,"test_part":"multichoice_nonpretend","STUDY_ID":"66a22c0758a3d5c9d26873c6","PROLIFIC_PID":"668d5a454e51f2df12027e26","SESSION_ID":"66a28245b4eca8f9777ee25b","practice_instructions":1,"leaderboard_instructions":0,"bonus":0,"reveal_word":false,"self_rating":"2","confidence":"66"},{"view_history":"[{\"page_index\":0,\"viewing_time\":1885.5999999977648}]","rt":1885.699999999255,"trial_type":"instructions","trial_index":4,"time_elapsed":75921,"internal_node_id":"0.0-3.0","protocol_sum":"","subject_identifier":412,"subject_sum":[92,244,226,107,211,216,125,165,224,63,128,164,58,100,241,34,10,31,75,169,225,214,52,140,174,168,60,6,53,60,63,57],"subject_pair":206,"STUDY_ID":"66a22c0758a3d5c9d26873c6","PROLIFIC_PID":"668d5a454e51f2df12027e26","SESSION_ID":"66a28245b4eca8f9777ee25b","practice_instructions":1,"leaderboard_instructions":0,"bonus":0,"reveal_word":false,"self_rating":"2","confidence":"66"},{"word":"ZEBRA","click_log":{"letter":["","A","D","O","S","C","R","B","K","Z","E"],"t":[0,9252.400000002235,10880.199999999255,30659.800000000745,37593.5,45216.60000000149,52429.800000000745,78259.30000000075,81764.19999999925,90795.60000000149,92207],"hit":[null,1,0,0,0,0,1,1,0,1,1],"asked":["","A","AD","ADO","ADOS","ADOSC","ADOSCR","ADOSCRB","ADOSCRBK","ADOSCRBKZ","ADOSCRBKZE"],"word_state":["_____","____A","____A","____A","____A","____A","___RA","__BRA","__BRA","Z_BRA","ZEBRA"]},"hover_log":{"letter":["?","?","?","?","?","?","?","?","?","?","?","?","?","?","?","?","?","?","?","?","?","?","?","?","?","?","?","?","?","?","?","?","?","?","?","?","?","?","?","?","?","?","?","?","?","?","?","?","?","?","?","?","?","?","?","?","?","?","?","?","?","?","?","?","?","?","?","?","?","?","?","?","?","?","?","?","?","?","?","?","?","?","?","?","?","?","?","?","?","?","?","?","?","?","?","?","?","?","?","?","?","?","?","?","?","?","?","?","?","?","?","?","?","?","?","?","?","?","?","?","?","?","J","J","J","J","J","J","?","?","?","?","?","?","?","?","?","?","?","A","A","A","A","A","A","A","A","A","A","A","A","A","A","A","A","A","A","A","A","A","A","A","A","A","A","A","A","A","A","A","A","A","A","A","A","A","A","A","A","A","A","A","A","A","A","A","B","B","C","C","D","?","?","?","?","O","O","O","O","O","?","?","W","W","V","V","U","U","?","?","?","K","K","K","K","K","K","?","?","?","?","?","?","?","?","?","?","?","?","M","M","M","M","M","M","M","M","M","M","M","M","M","M","M","M","M","M","M","M","M","M","M","?","?","?","?","?","?","?","?","D","D","?","?","?","?","?","?","?","?","?","?","?","?","?","?","?","?","?","?","?","?","?","?","?","?","?","?","?","?","?","?","?","?","?","?","?","?","?","?","?","?","?","?","?","?","?","?","?","?","?","?","?","?","?","?","?","?","?","?","?","?","?","?","?","?","?","?","?","?","?","?","?","?","?","?","?","?","?","?","?","?","?","?","?","?","?","?","?","?","?","?","?","?","?","?","?","?","?","?","?","?","?","?","?","?","?","?","?","?","?","?","?","?","?","?","?","?","?","?","?","?","?","?","?","?","?","?","?","?","?","?","?","?","?","?","?","?","?","?","?","?","?","?","?","?","?","?","?","?","?","?","?","?","?","?","?","?","?","?","?","?","?","?","?","?","?","?","?","?","?","?","?","?","?","?","?","?","?","?","?","?","?","?","?","?","?","?","?","?","?","?","?","?","?","?","?","?","?","?","?","?","?","?","?","?","?","?","?","?","?","?","?","?","?","?","?","?","?","?","?","?","?","?","?","?","?","?","?","?","?","?","?","?","?","?","?","?","A","?","?","?","?","?","?","?","?","?","?","?","?","?","?","?","?","?","?","?","A","A","A","A","A","A","A","A","A","A","A","A","A","A","A","A","A","A","A","A","A","A","A","A","A","A","A","A","A","A","A","A","A","A","A","A","A","A","A","A","A","A","A","A","A","A","A","A","A","A","A","A","A","A","A","A","A","A","A","A","A","A","A","A","A","A","A","A","A","A","A","A","A","A","A","A","A","A","A","A","A","A","A","A","A","A","A","A","A","B","B","B","?","C","C","C","C","C","C","C","?","?","?","?","D","D","D","D","D","D","D","D","D","D","D","D","D","D","D","D","D","D","D","D","D","D","D","D","D","D","D","D","D","D","D","D","D","D","D","D","D","D","D","D","D","D","D","D","D","D","D","D","D","D","D","D","D","D","D","D","D","D","D","D","D","D","D","D","D","D","D","D","D","D","D","D","D","D","D","D","D","D","D","D","D","D","D","D","D","D","D","D","D","D","D","D","D","D","D","D","D","D","D","D","D","D","D","D","D","D","D","D","D","D","D","D","D","D","D","D","D","D","D","D","D","D","D","D","D","D","D","D","D","D","D","D","D","D","D","D","D","D","D","D","D","D","D","D","D","D","D","D","D","D","D","D","D","D","D","D","D","D","D","D","D","D","D","D","D","D","D","D","D","D","D","D","D","D","D","D","D","D","D","D","D","D","D","D","D","D","D","D","D","D","D","D","D","D","D","D","D","D","D","D","D","D","D","D","D","D","D","D","D","D","D","D","D","D","D","D","D","D","D","D","D","D","D","D","D","D","D","D","D","D","D","D","D","D","D","D","D","D","D","D","D","D","D","D","D","D","D","D","D","D","D","D","D","D","D","D","D","D","D","D","D","D","D","D","D","D","D","D","D","D","D","D","D","D","D","D","D","D","D","D","D","D","D","D","D","D","D","D","D","D","D","D","D","D","D","D","D","D","D","D","D","D","D","D","D","D","D","D","D","D","D","D","D","D","D","D","D","D","D","D","D","D","D","D","D","D","D","D","D","D","D","D","D","D","D","D","D","D","D","D","D","D","D","D","D","D","D","D","D","D","D","D","D","D","D","D","D","D","D","D","D","D","D","D","D","D","D","D","D","D","D","D","D","D","D","D","D","D","D","D","D","D","D","D","D","D","D","D","D","D","D","D","D","D","D","D","D","D","D","D","D","D","D","D","D","D","D","D","D","D","D","D","D","D","D","D","D","D","D","D","D","D","D","D","D","?","?","?","?","?","?","?","?","?","?","?","?","?","?","?","?","?","?","?","?","?","?","?","?","?","?","?","?","?","?","?","?","?","?","?","?","?","?","?","?","?","?","?","?","?","?","?","?","?","?","?","?","?","?","?","?","?","?","?","?","?","?","?","?","?","?","?","?","?","?","?","?","?","?","?","?","?","?","?","?","?","?","?","?","?","?","?","?","?","?","?","?","?","?","?","?","?","?","?","?","?","?","?","?","?","?","?","?","?","?","?","?","?","?","?","?","?","?","?","?","?","?","?","?","?","?","?","?","?","?","?","?","?","?","?","?","?","?","?","?","?","?","?","?","?","?","?","?","?","?","?","?","?","?","?","?","?","?","?","?","?","?","?","?","?","?","?","?","?","?","?","?","?","?","?","?","?","?","?","?","?","?","?","?","?","?","?","?","?","?","?","?","?","?","?","?","?","?","?","?","?","?","?","?","?","?","?","?","?","?","?","?","?","?","?","?","?","?","?","?","?","?","?","?","?","H","H","H","H","?","?","?","?","?","?","?","?","?","P","P","P","P","P","P","P","P","P","P","P","P","P","P","P","P","P","P","P","P","P","P","P","P","P","P","P","P","P","P","P","P","P","P","P","P","P","P","P","P","P","P","P","P","P","P","P","P","P","P","P","P","P","P","P","P","P","P","P","P","P","P","P","P","P","P","P","P","P","P","P","P","P","P","P","P","P","P","P","P","P","P","P","P","?","?","?","?","?","?","?","?","?","?","?","?","?","?","?","?","?","?","?","?","Q","Q","Q","Q","Q","Q","Q","Q","Q","Q","?","?","P","P","P","?","?","?","F","F","?","?","?","?","?","?","?","?","?","?","?","?","?","?","?","?","?","?","?","H","H","?","?","Q","Q","?","P","P","P","P","P","?","?","?","O","O","O","O","O","O","O","O","O","O","O","O","O","O","?","?","?","?","?","N","N","N","?","?","?","?","?","?","?","?","?","?","?","?","?","?","?","?","?","?","?","?","?","?","?","?","?","?","?","?","?","?","?","?","?","?","?","?","?","?","?","?","?","?","?","?","?","?","?","?","?","?","?","?","?","?","?","?","?","?","?","?","?","?","?","?","?","?","?","?","?","?","?","?","?","?","?","?","?","?","?","?","?","?","?","?","?","?","?","?","?","?","?","?","?","?","?","?","?","?","?","?","?","?","?","?","?","?","?","?","?","?","?","?","?","?","?","?","?","?","?","?","?","?","?","?","?","?","?","?","?","?","?","?","?","?","?","?","?","?","?","?","?","?","?","?","?","?","?","?","?","?","?","?","?","?","?","?","?","?","?","?","?","?","?","?","?","?","?","?","?","?","?","?","?","?","?","?","?","?","?","?","?","?","?","?","?","?","?","?","?","?","?","?","?","?","?","?","?","?","?","?","?","?","?","?","?","?","?","?","?","?","?","?","?","?","?","?","?","?","?","?","?","?","?","?","?","?","?","?","?","?","?","?","?","?","?","?","?","?","?","?","?","?","?","?","?","?","?","?","?","?","?","?","?","?","?","?","?","?","?","?","?","?","?","?","?","?","?","?","?","?","?","?","?","?","?","?","?","?","?","?","?","C","C","C","C","C","C","C","?","?","?","?","?","?","?","?","?","?","?","?","?","?","?","?","?","?","?","?","?","?","?","?","?","?","?","?","?","?","?","?","?","?","?","?","?","?","?","?","?","?","?","?","?","O","?","?","O","O","O","O","O","O","O","O","O","O","O","O","O","O","O","O","O","O","O","O","O","O","O","O","O","O","O","O","O","O","O","O","O","O","O","O","O","O","O","O","O","O","O","O","O","O","O","O","O","O","O","O","O","O","O","O","O","O","O","O","O","O","O","O","O","O","O","O","O","O","O","O","O","O","O","O","O","O","O","O","O","O","O","O","O","O","O","O","O","O","O","O","O","O","O","O","O","O","O","O","O","O","O","O","O","O","O","O","O","O","O","O","O","O","O","O","O","O","O","O","O","O","O","O","O","O","O","O","O","O","O","O","O","O","O","O","O","O","O","O","O","O","O","O","O","O","O","O","O","O","O","O","O","O","O","O","O","O","O","O","O","O","O","O","O","O","O","O","O","O","O","O","O","O","O","O","O","O","O","O","O","O","O","O","O","O","O","O","O","O","O","O","O","O","O","O","O","O","O","O","O","O","O","O","O","O","O","O","O","O","O","O","O","O","O","O","O","O","O","O","O","O","O","O","O","O","O","O","O","O","O","O","O","O","O","O","O","O","O","O","O","O","O","O","O","O","O","O","O","O","O","O","O","O","O","O","O","O","O","O","O","O","O","O","O","O","O","O","O","?","?","?","?","?","?","?","?","?","?","?","?","?","Q","Q","Q","Q","Q","Q","Q","Q","Q","Q","Q","Q","Q","Q","Q","?","?","?","?","?","?","?","Z","Z","Z","Z","Z","?","?","Y","Y","Y","Y","?","X","X","X","?","?","?","?","?","?","?","?","?","N","N","N","N","N","N","N","N","N","N","N","N","N","N","N","N","N","N","N","N","N","N","N","N","N","N","N","N","N","N","N","N","N","N","N","N","N","N","N","N","N","N","N","N","N","N","?","?","?","M","M","M","M","M","M","M","?","?","?","?","?","?","?","?","?","?","?","?","?","?","?","?","?","?","?","?","?","?","?","?","?","?","?","T","T","T","T","?","S","S","S","S","S","S","S","S","S","S","S","S","S","S","S","S","S","S","S","S","S","S","S","S","S","S","S","S","S","S","S","S","S","S","S","S","S","S","S","S","S","S","S","S","S","S","S","S","S","S","S","S","S","S","S","S","S","S","S","S","S","S","S","S","S","S","S","S","S","S","S","S","S","S","S","S","S","S","S","S","S","S","S","S","S","S","S","S","S","S","S","S","S","S","S","S","S","S","S","S","S","S","S","S","S","S","S","S","S","S","S","S","S","S","S","S","S","S","S","S","S","S","S","S","S","S","S","S","S","S","S","S","S","S","S","S","S","S","S","S","S","S","S","S","S","S","S","S","S","S","S","S","S","S","S","S","S","S","S","S","S","S","S","S","S","S","S","S","S","S","S","S","S","S","S","S","S","S","S","S","S","S","S","S","S","S","S","S","S","S","S","S","S","S","S","S","S","S","S","S","S","S","S","S","S","S","S","?","?","?","?","K","K","K","K","K","K","?","?","L","L","L","L","L","?","?","M","M","?","?","?","?","?","?","?","?","?","?","?","?","?","?","?","?","?","?","?","?","?","?","?","?","?","?","?","?","?","?","?","?","?","?","?","?","?","?","?","F","F","F","F","F","F","F","F","F","F","F","F","F","F","F","F","F","F","F","F","F","F","F","F","F","F","F","F","F","F","F","F","F","F","F","F","F","F","F","F","F","F","F","F","F","F","F","F","F","F","F","F","F","F","F","F","F","F","F","F","F","F","F","F","F","F","F","F","F","F","F","F","F","F","F","F","F","F","F","F","F","F","F","F","F","F","F","F","F","F","F","F","F","F","F","F","F","F","F","F","F","F","F","F","F","F","F","F","F","F","F","F","F","F","F","F","F","F","F","F","F","F","F","F","F","F","F","F","F","F","F","F","F","F","F","F","F","F","F","F","F","F","F","F","F","F","F","F","F","F","F","F","F","F","F","F","F","F","F","F","F","F","?","E","E","?","D","D","?","?","?","C","C","C","C","C","C","C","C","?","C","C","C","C","C","C","C","C","C","C","C","C","C","C","C","C","C","C","C","C","C","C","C","C","C","C","C","C","C","C","C","C","C","C","C","C","C","C","C","C","C","C","C","C","C","C","C","C","C","C","C","C","C","C","C","C","C","C","C","C","C","C","C","C","C","C","C","C","C","C","C","C","C","C","C","C","C","C","C","C","C","C","C","C","C","C","C","C","C","C","C","C","C","C","C","C","C","C","C","C","C","C","C","C","C","C","C","C","C","C","C","C","C","C","C","C","C","C","C","C","C","C","C","C","C","C","C","C","C","C","C","C","C","C","C","C","C","C","C","C","C","C","C","C","C","C","C","C","C","C","C","C","C","C","C","C","C","C","C","C","C","C","C","C","C","C","C","C","C","C","C","C","C","C","C","C","C","C","C","C","C","C","C","C","C","C","C","C","C","C","C","C","C","C","C","C","C","C","C","C","C","C","C","C","C","C","C","C","C","C","C","C","C","C","?","?","?","?","?","?","?","N","N","N","?","O","O","O","?","?","?","?","?","?","?","?","?","?","?","?","?","?","?","?","?","?","?","?","?","?","?","?","?","Z","Z","Z","Z","Z","Z","Z","Z","Z","Z","Z","Z","Z","Z","Z","Z","Z","Z","Z","Z","Z","Z","Z","Z","Z","Z","Z","Z","Z","Z","Z","Z","Z","Z","Z","Z","Z","Z","Z","Z","Z","Z","Z","Z","Z","Z","Z","Z","Z","Z","Z","Z","Z","Z","Z","Z","Z","Z","Z","Z","Z","Z","Z","Z","Z","Z","Z","Z","Z","Z","Z","Z","Z","Z","Z","Z","Z","Z","Z","Z","Z","Z","Z","Z","Z","Z","Z","Z","Z","Z","Z","Z","Z","Z","Z","Z","Z","Z","Z","Z","Z","Z","Z","Z","Z","Z","Z","Z","Z","Z","Z","Z","Z","Z","Z","Z","Z","Z","Z","Z","Z","Z","Z","Z","Z","Z","Z","Z","Z","Z","Z","Z","Z","Z","Z","Z","Z","Z","Z","Z","Z","Z","Z","Z","Z","Z","Z","Z","Z","Z","Z","Z","Z","Z","Z","Z","Z","Z","Z","Z","Z","Z","Z","Z","Z","Z","Z","Z","Z","Z","?","?","Y","Y","Y","Y","Y","?","?","Q","?","R","R","R","?","?","?","?","?","R","R","R","R","R","R","R","R","R","R","R","R","R","R","R","R","R","R","R","R","R","R","R","R","R","R","R","R","R","R","R","R","R","R","R","R","R","R","R","R","R","R","R","R","R","R","R","R","R","R","R","R","R","R","R","R","R","R","R","R","R","R","R","R","R","R","R","R","R","R","R","R","R","R","R","R","R","R","R","R","R","R","R","R","R","R","R","R","R","R","R","R","R","R","R","R","R","R","R","R","R","R","R","R","R","R","R","R","R","R","R","R","R","R","R","R","R","R","R","R","R","R","R","R","R","R","R","R","R","R","R","R","R","R","R","R","R","R","R","R","R","R","R","R","R","R","R","R","R","R","R","R","R","R","R","R","R","R","R","R","R","R","R","R","R","R","R","R","R","R","R","R","R","R","R","R","R","R","R","R","R","R","R","R","R","R","R","R","R","R","R","R","R","R","R","R","R","R","R","R","R","R","R","R","R","R","R","R","R","R","R","R","R","R","R","R","R","R","R","R","R","R","R","R","R","R","R","R","R","R","R","R","R","R","R","R","R","R","R","R","R","R","R","R","R","R","R","R","R","R","R","R","R","R","R","R","R","R","R","R","R","R","R","R","R","R","R","R","R","R","R","R","R","R","R","R","R","R","R","R","R","R","R","R","R","R","R","R","R","R","R","R","R","R","R","R","R","R","R","R","R","R","R","R","R","R","R","R","R","R","R","R","R","R","Q","Q","Q","Q","Q","Q","Q","Q","?","R","R","?","?","?","?","?","?","?","?","?","?","Q","P","?","O","?","?","?","?","?","?","?","?","?","?","?","?","?","?","?","?","?","?","?","?","?","?","?","?","?","?","?","?","?","?","?","?","?","?","?","?","?","?","?","?","?","?","?","?","F","F","?","?","?","?","?","?","?","?","?","?","?","?","?","?","?","H","H","H","H","H","H","H","H","H","H","H","H","H","H","H","H","H","H","H","H","H","H","H","H","H","H","H","H","H","H","H","H","H","H","H","H","H","H","H","H","H","H","H","H","H","H","H","H","H","H","H","H","H","H","H","H","H","H","H","H","H","H","H","H","H","H","H","H","H","H","H","H","H","H","H","H","H","H","H","H","H","H","H","H","H","H","H","H","H","H","H","H","H","H","H","H","H","H","H","H","H","H","H","H","H","H","H","H","H","H","H","H","H","H","H","H","H","H","H","H","H","H","H","H","H","H","H","H","H","H","H","H","H","H","H","H","H","H","H","H","H","H","H","H","H","H","H","H","H","H","H","H","H","H","H","H","H","H","H","H","H","H","H","H","H","H","H","H","H","H","H","H","H","H","H","H","H","H","H","H","H","H","H","H","H","H","H","H","H","H","H","H","H","H","H","H","H","H","H","H","H","H","H","H","H","?","?","?","?","?","?","?","?","?","?","?","?","?","?","?","?","?","?","?","?","?","?","?","?","?","?","?","?","?","?","?","?","?","?","?","?","?","?","?","?","?","?","?","?","?","?","?","?","?","?","?","?","?","?","?","?","?","?","?","?","?","?","?","?","?","?","?","?","?","?","?","?","?","?","?","?","?","?","?","?","?","?","?","?","?","?","?","?","?","?","?","?","?","?","?","?","?","?","?","?","?","?","?","?","?","?","?","?","?","?","?","?","?","?","?","?","?","?","?","?","?","?","?","?","?","?","?","?","?","?","?","?","?","?","?","?","?","?","?","?","?","?","?","?","?","?","?","?","?","?","?","?","?","?","?","?","?","?","?","?","?","?","?","?","?","?","?","?","?","?","?","?","?","?","?","?","?","?","?","?","?","?","?","?","?","?","?","?","?","?","?","?","?","?","?","?","?","?","?","?","?","?","?","?","?","?","?","?","?","?","?","?","?","?","?","?","?","?","?","?","?","?","?","?","?","?","?","?","?","?","?","?","?","?","?","?","?","?","?","?","?","?","?","?","?","?","?","?","?","?","?","?","?","?","?","?","?","?","?","?","?","?","?","?","?","?","?","?","?","?","?","?","?","?","?","?","?","?","?","?","?","?","?","?","?","I","I","I","I","I","I","I","I","?","?","?","?","?","H","H","H","H","H","H","H","H","H","H","H","H","H","H","H","H","H","H","H","H","H","H","H","H","H","H","H","H","H","H","H","H","H","H","H","H","H","H","H","H","H","H","H","H","H","H","H","H","H","H","H","H","H","H","H","H","H","?","?","?","G","G","?","?","?","?","?","O","O","O","O","O","O","O","O","O","O","O","O","?","?","?","?","?","?","?","?","?","?","?","?","?","?","?","?","?","?","?","?","W","W","W","W","W","W","W","W","W","W","W","W","W","W","W","W","W","W","W","W","W","W","W","W","W","W","W","W","W","W","W","W","W","W","W","W","W","W","W","W","W","W","W","W","?","?","V","V","V","V","?","?","?","?","?","?","?","?","?","?","?","?","L","L","L","L","L","L","L","L","L","L","L","L","L","L","L","L","L","L","L","L","L","L","L","L","L","L","L","L","L","L","L","L","L","L","L","L","L","L","L","L","L","L","L","L","L","L","L","L","L","L","L","L","L","L","L","L","L","L","L","L","L","L","L","L","L","L","L","L","L","L","L","L","L","L","L","L","L","L","L","L","L","L","L","L","L","L","L","L","L","L","L","L","L","L","L","L","L","L","L","L","L","L","L","L","L","L","L","L","L","L","L","L","L","L","L","L","L","L","L","L","?","?","?","?","D","D","?","E","E","E","E","E","?","?","?","F","F","F","F","F","F","F","F","F","F","F","F","F","F","F","F","F","F","F","F","F","F","F","F","F","F","F","F","F","F","F","F","?","E","E","?","?","?","?","?","?","?","?","?","?","?","?","?","?","?","?","?","?","?","?","?","?","?","?","?","K","K","K","K","K","K","K","K","K","K","K","K","K","K","K","K","K","K","K","K","K","K","K","K","K","K","K","K","K","K","K","K","K","K","K","K","K","K","K","K","K","K","K","K","K","K","K","K","K","K","K","K","K","?","?","?","?","?","?","?","?","J","J","J","J","J","J","J","J","J","J","J","?","?","?","K","K","K","K","?","?","?","?","?","?","?","D","?","?","?","E","E","?","?","?","?","?","?","?","?","?","?","?","?","?","?","?","?","?","?","?","?","?","?","?","?","?","?","?","?","?","?","?","?","?","?","?","?","?","?","?","?","?","?","?","?","?","?","?","?","?","?","?","?","?","?","?","?","?","?","?","?","?","?","?","?","?","?","?","?","?","?","?","?","?","?","?","?","?","?","?","?","?","?","?","?","?","?","?","?","?","?","?","D","D","D","D","D","?","?","?","?","?","?","?","?","?","?","?","?","?","?","?","D","D","?","E","?","F","F","G","G","G","?","H","H","H","H","H","H","H","H","?","?","?","?","?","?","?","?","?","?","?","Q","Q","Q","Q","Q","Q","Q","Q","Q","Q","Q","Q","Q","?","?","?","P","P","P","P","?","?","?","O","O","O","O","O","O","O","O","O","?","?","?","?","?","?","?","?","?","?","?","?","?","?","?","?","?","?","?","?","?","?","?","?","?","?","?","?","C","C","C","C","C","C","?","?","?","?","?","?","?","?","?","?","?","B","B","B","B","B","B","B","B","B","B","B","B","B","B","B","B","B","B","B","B","B","B","B","B","B","B","B","B","B","B","B","B","B","B","B","B","B","B","B","B","B","B","B","B","B","B","B","B","B","B","B","B","B","B","B","B","B","B","B","B","B","B","B","B","B","B","B","B","B","B","B","B","B","B","B","B","B","B","B","B","B","B","B","B","B","B","B","B","B","B","B","B","B","B","B","B","B","B","B","B","B","B","B","B","B","B","B","B","B","B","B","B","B","B","B","B","B","B","B","B","B","B","B","B","B","B","B","?","?","?","C","C","C","C","C","C","?","?","?","?","?","?","?","?","?","?","?","?","K","K","K","K","K","K","K","K","K","K","K","K","K","K","K","K","K","K","K","K","K","K","K","K","K","K","K","K","K","K","K","K","K","K","K","K","K","K","K","K","K","K","K","K","K","K","K","K","K","K","K","K","K","K","K","K","K","K","K","K","K","K","K","K","K","K","K","K","K","K","K","K","K","K","K","K","K","K","K","K","K","K","K","K","K","K","K","K","K","K","K","K","K","K","K","K","K","K","K","K","K","K","K","K","K","K","K","K","K","K","K","K","K","K","K","K","K","K","K","K","K","K","K","K","K","K","K","K","K","K","K","K","K","K","K","K","K","K","K","K","K","K","K","K","K","K","K","K","K","K","K","K","K","K","K","K","K","K","K","K","K","K","K","K","K","K","?","?","?","C","C","C","?","D","?","?","?","?","?","?","?","?","?","?","?","?","?","?","?","?","?","?","?","?","?","?","?","?","?","?","?","?","?","?","?","?","?","?","?","?","?","?","?","?","?","?","?","?","?","?","?","?","?","?","?","?","?","?","?","?","?","?","?","?","?","?","?","?","?","?","?","?","?","?","?","?","?","?","?","?","?","?","?","?","?","?","?","?","?","?","?","?","?","?","?","?","?","?","?","?","?","?","?","?","?","?","?","?","?","?","?","?","?","?","?","?","?","?","?","?","?","?","?","?","?","?","?","?","?","?","?","?","?","?","?","?","?","?","?","?","?","?","?","?","?","?","?","?","?","?","?","?","?","?","?","?","?","?","?","?","?","?","?","?","?","?","?","?","?","?","?","?","?","?","?","?","?","?","?","?","?","?","?","?","?","?","?","?","?","?","?","?","?","?","?","?","?","?","?","?","?","?","?","?","?","?","?","?","?","?","?","?","?","?","?","?","?","?","?","?","?","?","?","?","?","?","?","?","?","?","?","?","?","?","?","?","?","?","?","?","?","?","?","?","?","?","?","?","?","?","?","?","?","?","?","?","?","?","?","?","?","?","?","?","?","?","?","?","?","?","?","?","?","?","?","?","?","?","?","?","?","?","?","?","?","?","?","?","?","?","?","?","?","?","?","?","?","?","?","?","?","?","?","?","?","?","?","?","?","?","?","?","?","?","?","?","?","?","?","?","?","?","?","?","?","?","?","?","?","?","?","?","?","?","?","?","?","?","?","?","?","?","?","?","?","?","?","?","?","?","?","?","?","?","?","?","?","?","I","I","I","I","I","I","I","I","?","?","?","?","?","?","?","?","?","?","Q","Q","Q","Q","Q","Q","Q","?","?","?","?","?","?","?","?","?","Z","Z","Z","Z","Z","Z","Z","Z","Z","Z","Z","Z","Z","Z","Z","Z","Z","Z","Z","Z","Z","Z","Z","Z","Z","Z","Z","Z","Z","Z","Z","Z","Z","Z","Z","Z","Z","Z","Z","Z","Z","Z","Z","Z","Z","Z","Z","Z","Z","Z","Z","Z","Z","Z","Z","Z","Z","Z","Z","Z","Z","Z","Z","Z","Z","Z","Z","Z","Z","Z","Z","Z","Z","Z","Z","Z","Z","Z","Z","Z","Z","Z","Z","Z","Z","Z","Z","Z","Z","Z","Z","Z","Z","Z","Z","Z","Z","Z","Z","Z","Z","Z","Z","Z","Z","Z","Z","Z","Z","Z","Z","Z","Z","Z","?","?","P","P","O","O","?","?","?","?","?","?","?","?","?","?","?","?","?","E","E","E","E","E","E","E","E","E","E","E","E","E","E","E","E","E","E","E","E","E","E","E","E","E","E","E","E","E","E","E","E","E","E","E","E","E","E","E","E","E","E","E","E","E","E","E","E","E","E","E","E","E","E","E","E","E","E","E","E","E","E","E","E","E","E","E","E","E","E","E","E","E","E","E","E","E","E","E","E","E","E","E","E","E","E","E","E","E","E","E","E","E","E","E","E","E","E","E","E","E","E","E","E","E","E","E","E","E","E","E","E","E","E","E","E","E","E","E","E","E","E","E","E","E","E","E","E","E","E","E","E","E","E","?","?","?","?","?","?","?","?","?","?"],"t":[41,114,131,148,165,180,210,214,230,247,263,282,297,313,331,347,364,381,396,414,430,446,463,480,496,514,530,546,562,580,596,612,629,646,662,679,696,713,729,746,763,779,796,813,828,846,862,879,896,913,928,944,961,978,995,1012,1029,1044,1061,1078,1095,1111,1128,1146,1162,1179,1195,1211,1228,1245,1262,1277,1294,1311,1328,1344,1361,1378,1394,1410,1428,1443,1461,1478,1494,1512,1528,1544,1560,1577,1594,1611,1626,1646,1661,1677,1694,1710,1727,1743,1760,1777,1793,1810,1827,1843,1859,1877,1894,1910,1926,1943,1959,1975,1992,2009,2026,2043,2061,2077,2094,2110,2128,2142,2159,2175,2192,2209,2226,2242,2259,2275,2292,2309,2326,2343,2358,2375,2392,2409,2425,2441,2458,2475,2491,2509,2525,2542,2559,2575,2592,2607,2624,2641,2658,2675,2692,2708,2725,2741,2757,2775,2792,2808,2825,2840,2858,2875,2890,2907,2924,2941,2957,2974,2991,3006,3024,3041,3057,3074,3091,3106,3123,3140,3156,3173,3191,3207,3223,3240,3256,3273,3289,3307,3323,3340,3357,3372,3389,3405,3422,3439,3455,3473,3490,3507,3523,3540,3556,3573,3590,3606,3622,3639,3655,3671,3688,3705,3722,3739,3756,3772,3789,3806,3823,3839,3854,3871,3888,3905,3921,3938,3954,3971,3988,4004,4021,4038,4054,4072,4088,4104,4121,4137,4154,4170,4188,4204,4221,4237,4254,4271,4288,4304,4320,4337,4353,4371,4387,4403,4420,4437,4454,4469,4487,4504,4521,4537,4554,4571,4586,4603,4619,4636,4652,4669,4687,4702,4719,4737,4753,4770,4786,4803,4819,4836,4852,4870,4886,4902,4919,4936,4952,4968,4985,5003,5019,5035,5052,5068,5085,5102,5118,5135,5151,5169,5185,5202,5219,5235,5252,5268,5284,5302,5318,5335,5351,5367,5384,5401,5418,5435,5451,5468,5485,5501,5518,5534,5550,5567,5584,5600,5617,5634,5651,5668,5683,5701,5718,5734,5750,5767,5783,5801,5817,5834,5850,5867,5883,5900,5916,5934,5950,5967,5983,6000,6017,6033,6049,6066,6082,6100,6116,6132,6150,6166,6183,6199,6217,6232,6249,6265,6283,6300,6315,6332,6349,6366,6383,6398,6416,6433,6449,6466,6482,6498,6515,6532,6549,6565,6582,6598,6616,6631,6649,6666,6682,6698,6714,6731,6748,6764,6781,6797,6815,6831,6849,6864,6881,6898,6914,6932,6947,6964,6980,6997,7015,7032,7048,7064,7080,7098,7114,7131,7148,7164,7180,7197,7213,7229,7246,7266,7280,7297,7313,7331,7347,7364,7380,7396,7413,7430,7446,7463,7479,7497,7514,7530,7547,7562,7579,7596,7613,7630,7646,7662,7679,7695,7712,7729,7745,7763,7779,7796,7812,7828,7846,7862,7878,7896,7912,7929,7944,7961,7979,7995,8012,8029,8045,8062,8079,8096,8112,8128,8145,8161,8178,8194,8210,8228,8245,8262,8278,8295,8312,8328,8345,8360,8377,8394,8411,8427,8444,8461,8478,8494,8511,8527,8545,8560,8576,8593,8610,8626,8643,8660,8676,8693,8710,8727,8744,8759,8776,8793,8810,8826,8843,8861,8877,8893,8910,8925,8942,8960,8976,8993,9010,9026,9042,9059,9076,9093,9109,9128,9143,9160,9175,9193,9210,9227,9242,9259,9276,9292,9309,9326,9343,9359,9376,9393,9408,9426,9442,9459,9475,9492,9509,9525,9542,9558,9575,9592,9609,9626,9642,9658,9674,9691,9709,9725,9741,9757,9774,9791,9807,9824,9841,9858,9874,9891,9907,9924,9941,9958,9975,9991,10007,10024,10040,10057,10074,10090,10106,10123,10140,10157,10173,10190,10207,10223,10240,10256,10272,10289,10306,10323,10340,10357,10374,10390,10406,10423,10439,10457,10473,10489,10506,10522,10538,10556,10572,10590,10605,10622,10639,10656,10672,10688,10706,10722,10739,10755,10772,10789,10804,10822,10839,10855,10872,10889,10904,10922,10939,10956,10973,10989,11005,11022,11038,11054,11072,11088,11105,11122,11138,11154,11172,11188,11204,11221,11238,11255,11271,11288,11304,11322,11338,11355,11370,11388,11404,11419,11437,11455,11470,11487,11503,11521,11537,11554,11571,11587,11603,11621,11637,11654,11670,11686,11703,11719,11737,11754,11770,11787,11804,11820,11836,11853,11870,11886,11903,11920,11937,11952,11970,11986,12002,12019,12035,12053,12069,12085,12102,12118,12136,12152,12170,12186,12202,12218,12236,12252,12269,12286,12303,12319,12336,12351,12369,12385,12402,12418,12436,12451,12468,12485,12502,12518,12534,12551,12567,12584,12601,12618,12635,12651,12668,12684,12701,12718,12735,12750,12768,12785,12801,12818,12834,12851,12867,12884,12901,12918,12934,12950,12967,12983,13000,13017,13033,13051,13066,13082,13100,13117,13134,13150,13167,13183,13199,13217,13233,13250,13266,13283,13299,13316,13332,13350,13366,13383,13400,13416,13432,13449,13465,13482,13499,13516,13533,13549,13566,13582,13599,13615,13632,13649,13666,13682,13699,13715,13732,13749,13765,13782,13798,13815,13832,13848,13865,13882,13898,13915,13931,13947,13964,13981,13998,14015,14030,14048,14065,14081,14097,14114,14131,14148,14164,14181,14197,14213,14230,14248,14264,14280,14298,14314,14330,14347,14364,14381,14397,14414,14430,14447,14463,14480,14496,14512,14529,14547,14563,14580,14596,14614,14630,14646,14663,14680,14696,14713,14730,14747,14763,14779,14795,14813,14829,14845,14863,14879,14896,14913,14929,14946,14962,14980,14996,15013,15028,15045,15062,15079,15095,15112,15128,15145,15162,15178,15195,15212,15228,15245,15262,15278,15295,15311,15327,15345,15362,15378,15394,15411,15427,15445,15461,15478,15494,15510,15528,15544,15560,15577,15595,15611,15628,15644,15661,15677,15694,15711,15728,15744,15760,15777,15794,15810,15827,15844,15861,15876,15894,15910,15927,15943,15960,15977,15994,16010,16027,16042,16060,16077,16093,16109,16127,16143,16159,16175,16192,16209,16227,16243,16259,16276,16292,16309,16326,16343,16359,16375,16391,16409,16424,16442,16459,16476,16492,16508,16526,16542,16559,16575,16592,16608,16625,16642,16659,16675,16692,16708,16725,16741,16758,16774,16791,16808,16825,16841,16858,16875,16891,16908,16924,16941,16958,16974,16990,17008,17024,17041,17057,17074,17091,17107,17124,17141,17157,17174,17191,17206,17224,17240,17257,17274,17289,17307,17323,17340,17356,17372,17390,17407,17423,17440,17456,17472,17490,17506,17522,17540,17555,17573,17590,17606,17623,17640,17655,17672,17689,17706,17722,17740,17755,17772,17788,17806,17821,17839,17856,17872,17888,17904,17922,17938,17955,17971,17988,18004,18022,18039,18055,18072,18088,18105,18123,18137,18155,18170,18188,18204,18221,18238,18255,18271,18288,18305,18321,18337,18353,18371,18387,18404,18421,18437,18454,18471,18487,18504,18521,18538,18554,18570,18587,18603,18620,18637,18653,18669,18686,18703,18720,18737,18753,18769,18787,18804,18820,18837,18853,18870,18886,18903,18920,18936,18952,18970,18986,19003,19019,19036,19053,19069,19085,19102,19119,19136,19152,19169,19186,19202,19219,19236,19252,19268,19284,19302,19318,19335,19352,19369,19385,19402,19419,19435,19452,19468,19485,19501,19519,19534,19551,19568,19585,19601,19618,19635,19652,19667,19684,19700,19717,19733,19751,19767,19784,19801,19817,19835,19851,19868,19884,19900,19918,19934,19950,19967,19984,19999,20017,20033,20049,20067,20084,20101,20117,20134,20149,20166,20182,20200,20215,20232,20249,20265,20283,20300,20317,20333,20350,20366,20382,20399,20416,20433,20449,20465,20483,20498,20516,20533,20549,20566,20582,20598,20615,20632,20648,20665,20681,20698,20716,20732,20749,20765,20781,20799,20814,20832,20847,20865,20882,20898,20915,20932,20948,20964,20981,20999,21015,21031,21048,21064,21080,21097,21115,21131,21147,21164,21181,21198,21213,21231,21248,21263,21280,21296,21313,21330,21347,21364,21380,21397,21414,21431,21448,21464,21480,21497,21514,21530,21546,21564,21580,21596,21613,21630,21646,21663,21680,21695,21713,21730,21746,21763,21780,21796,21813,21829,21845,21863,21879,21895,21912,21929,21945,21962,21980,21996,22012,22029,22046,22062,22079,22095,22112,22129,22145,22162,22179,22195,22211,22229,22245,22262,22278,22294,22312,22328,22345,22361,22378,22395,22411,22428,22445,22461,22478,22495,22511,22528,22544,22561,22578,22594,22611,22627,22644,22661,22677,22695,22711,22726,22744,22760,22778,22794,22811,22828,22844,22860,22876,22893,22910,22926,22943,22960,22976,22992,23010,23027,23044,23059,23076,23093,23110,23126,23142,23159,23176,23192,23209,23226,23243,23258,23276,23292,23310,23325,23342,23359,23375,23391,23408,23425,23442,23458,23476,23493,23509,23525,23542,23558,23574,23591,23607,23624,23642,23659,23675,23692,23709,23725,23741,23758,23775,23791,23808,23824,23841,23857,23874,23891,23908,23925,23941,23958,23974,23991,24007,24024,24040,24057,24074,24091,24106,24127,24141,24157,24174,24191,24206,24224,24240,24256,24273,24290,24307,24324,24340,24356,24372,24390,24406,24424,24439,24457,24474,24490,24506,24522,24540,24556,24572,24590,24605,24622,24639,24656,24673,24689,24705,24722,24739,24756,24772,24789,24806,24823,24838,24855,24873,24889,24905,24922,24939,24956,24971,24989,25004,25022,25039,25055,25072,25088,25105,25122,25138,25156,25171,25188,25204,25221,25237,25254,25270,25287,25304,25321,25338,25355,25370,25388,25403,25420,25437,25454,25470,25486,25503,25521,25538,25554,25571,25587,25603,25621,25637,25654,25670,25686,25703,25719,25737,25753,25770,25787,25804,25821,25837,25854,25870,25886,25904,25920,25937,25953,25970,25986,26003,26020,26036,26052,26069,26086,26103,26119,26136,26153,26169,26186,26203,26218,26236,26252,26268,26286,26301,26319,26336,26352,26368,26384,26402,26419,26435,26452,26468,26485,26502,26518,26535,26552,26567,26585,26601,26618,26635,26651,26668,26685,26702,26718,26735,26751,26767,26785,26801,26818,26833,26851,26867,26884,26901,26918,26934,26951,26967,26984,27001,27017,27033,27050,27067,27083,27100,27116,27133,27150,27167,27183,27200,27217,27234,27250,27267,27283,27300,27316,27332,27349,27367,27382,27399,27416,27433,27450,27466,27483,27500,27516,27532,27548,27566,27582,27599,27616,27632,27649,27666,27682,27699,27715,27732,27749,27765,27782,27799,27815,27832,27848,27865,27882,27898,27915,27932,27948,27965,27981,27998,28015,28031,28048,28065,28081,28097,28114,28131,28148,28164,28181,28197,28214,28231,28247,28265,28280,28297,28314,28331,28348,28364,28381,28397,28414,28429,28447,28463,28480,28497,28513,28530,28547,28563,28580,28597,28613,28630,28647,28664,28680,28696,28712,28730,28746,28762,28780,28796,28813,28828,28846,28862,28880,28896,28912,28929,28946,28962,28979,28995,29012,29028,29046,29062,29079,29096,29112,29128,29146,29161,29178,29194,29211,29228,29244,29261,29279,29295,29312,29328,29345,29361,29378,29395,29411,29428,29445,29462,29478,29495,29511,29528,29544,29560,29578,29594,29611,29628,29644,29661,29677,29693,29710,29729,29744,29760,29777,29793,29810,29826,29844,29860,29876,29893,29910,29927,29944,29960,29976,29994,30011,30027,30044,30060,30076,30092,30110,30126,30142,30160,30176,30193,30210,30226,30243,30259,30276,30293,30309,30326,30343,30359,30376,30392,30409,30426,30443,30460,30475,30492,30509,30525,30542,30559,30574,30592,30609,30625,30642,30659,30675,30691,30709,30725,30742,30758,30775,30791,30808,30825,30842,30858,30875,30891,30907,30924,30942,30958,30975,30991,31008,31024,31042,31057,31074,31091,31108,31124,31141,31158,31174,31191,31208,31224,31240,31257,31274,31291,31306,31323,31340,31357,31373,31390,31407,31423,31439,31456,31473,31490,31507,31523,31540,31557,31574,31589,31607,31623,31640,31655,31673,31690,31705,31723,31740,31756,31772,31790,31806,31822,31838,31856,31872,31889,31906,31922,31940,31955,31972,31989,32005,32022,32039,32055,32072,32088,32105,32122,32139,32156,32172,32188,32205,32221,32238,32255,32271,32288,32304,32321,32338,32355,32371,32387,32405,32422,32437,32454,32471,32488,32504,32521,32538,32555,32571,32588,32604,32621,32637,32654,32670,32686,32704,32720,32737,32753,32771,32787,32803,32819,32836,32853,32870,32887,32904,32921,32937,32953,32970,32986,33003,33020,33036,33052,33070,33086,33103,33120,33136,33153,33169,33185,33203,33219,33235,33252,33269,33285,33303,33319,33336,33352,33369,33386,33401,33418,33436,33452,33469,33486,33502,33518,33535,33552,33567,33585,33602,33618,33635,33651,33667,33685,33702,33717,33735,33751,33767,33784,33800,33818,33834,33851,33868,33885,33900,33917,33934,33951,33968,33984,34001,34018,34033,34051,34067,34084,34101,34118,34133,34150,34167,34184,34200,34217,34234,34250,34266,34283,34300,34317,34333,34351,34366,34383,34400,34417,34432,34450,34466,34483,34500,34516,34533,34549,34565,34582,34599,34615,34633,34649,34666,34681,34699,34715,34733,34749,34766,34782,34798,34815,34832,34848,34865,34882,34899,34915,34932,34947,34966,34982,34998,35014,35031,35048,35064,35082,35097,35115,35132,35148,35165,35182,35198,35214,35230,35247,35264,35280,35297,35315,35331,35348,35364,35381,35397,35414,35431,35448,35464,35480,35496,35513,35530,35546,35564,35580,35597,35613,35631,35647,35663,35680,35696,35713,35730,35747,35763,35780,35796,35813,35829,35846,35863,35880,35896,35913,35930,35946,35963,35979,35996,36013,36029,36046,36062,36079,36096,36112,36129,36146,36162,36179,36195,36211,36229,36245,36261,36279,36294,36312,36328,36345,36362,36379,36396,36412,36428,36444,36461,36478,36495,36511,36528,36545,36561,36578,36595,36611,36628,36644,36661,36677,36694,36710,36727,36745,36760,36778,36795,36811,36828,36844,36861,36878,36895,36910,36927,36943,36961,36977,36993,37011,37027,37043,37059,37076,37094,37110,37126,37143,37159,37177,37193,37210,37226,37243,37260,37277,37292,37310,37326,37342,37360,37376,37392,37409,37426,37443,37461,37476,37492,37509,37526,37542,37559,37576,37592,37608,37626,37642,37658,37675,37692,37709,37726,37742,37759,37775,37792,37808,37825,37841,37858,37875,37892,37908,37925,37941,37957,37975,37991,38008,38025,38041,38058,38075,38091,38108,38124,38140,38158,38175,38190,38208,38224,38241,38256,38274,38291,38307,38323,38341,38357,38374,38391,38407,38424,38440,38457,38473,38490,38507,38524,38540,38556,38573,38590,38607,38623,38640,38657,38673,38690,38706,38723,38739,38757,38772,38789,38805,38823,38839,38856,38873,38889,38906,38923,38938,38956,38972,38989,39006,39023,39039,39056,39072,39089,39105,39122,39139,39156,39171,39188,39205,39222,39238,39255,39271,39287,39305,39322,39338,39355,39371,39388,39404,39420,39438,39455,39471,39488,39505,39520,39538,39554,39571,39587,39604,39620,39639,39654,39670,39687,39703,39721,39737,39754,39771,39787,39804,39820,39837,39853,39870,39887,39903,39920,39937,39953,39970,39987,40004,40020,40036,40052,40070,40086,40103,40120,40136,40153,40170,40186,40203,40220,40236,40251,40269,40286,40302,40319,40336,40352,40368,40385,40402,40418,40435,40452,40469,40485,40502,40519,40535,40552,40568,40584,40601,40618,40634,40651,40668,40684,40701,40718,40734,40752,40768,40785,40801,40818,40834,40850,40867,40884,40901,40917,40934,40951,40967,40985,41001,41018,41034,41050,41067,41084,41101,41117,41133,41150,41167,41184,41200,41217,41233,41249,41267,41283,41300,41316,41332,41350,41367,41383,41400,41416,41433,41449,41467,41482,41499,41516,41532,41549,41566,41583,41599,41616,41633,41649,41666,41683,41699,41716,41732,41750,41765,41782,41798,41816,41832,41849,41866,41882,41899,41915,41932,41949,41966,41982,41998,42015,42031,42048,42065,42082,42099,42114,42131,42148,42165,42181,42199,42215,42231,42247,42265,42281,42298,42315,42332,42347,42364,42380,42398,42414,42431,42448,42465,42480,42497,42514,42531,42547,42563,42581,42598,42614,42630,42648,42664,42681,42697,42714,42730,42746,42764,42780,42796,42814,42830,42846,42863,42879,42897,42913,42930,42946,42963,42979,42996,43013,43029,43046,43063,43079,43096,43112,43129,43146,43162,43179,43195,43213,43229,43246,43262,43278,43296,43313,43329,43346,43362,43379,43395,43413,43429,43446,43461,43478,43495,43511,43528,43545,43562,43578,43594,43612,43628,43645,43661,43678,43694,43712,43727,43744,43761,43778,43795,43811,43827,43843,43861,43877,43894,43911,43928,43944,43961,43977,43994,44011,44027,44044,44060,44076,44094,44110,44126,44142,44160,44177,44193,44209,44227,44242,44260,44277,44294,44310,44326,44342,44359,44376,44392,44408,44426,44442,44459,44476,44493,44510,44525,44542,44558,44576,44592,44609,44625,44642,44659,44675,44693,44709,44725,44742,44758,44775,44792,44809,44826,44842,44858,44875,44892,44907,44925,44941,44958,44975,44992,45008,45024,45041,45057,45077,45091,45108,45124,45140,45158,45174,45192,45208,45224,45240,45258,45275,45291,45308,45324,45341,45357,45374,45391,45407,45424,45441,45457,45473,45490,45507,45524,45540,45556,45573,45589,45607,45624,45641,45657,45674,45690,45707,45723,45740,45757,45772,45790,45806,45823,45839,45856,45873,45890,45906,45923,45938,45956,45972,45989,46006,46023,46038,46056,46072,46089,46106,46121,46139,46155,46172,46189,46205,46222,46239,46255,46272,46288,46305,46322,46338,46355,46371,46388,46404,46421,46438,46453,46471,46488,46504,46521,46537,46555,46571,46588,46605,46621,46638,46654,46671,46688,46704,46720,46737,46755,46770,46787,46804,46821,46837,46853,46871,46886,46903,46920,46937,46954,46971,46986,47004,47021,47037,47054,47070,47087,47104,47120,47136,47152,47170,47186,47203,47219,47237,47253,47269,47286,47303,47319,47336,47353,47369,47386,47403,47419,47436,47452,47469,47485,47502,47519,47536,47552,47569,47586,47601,47619,47635,47652,47669,47685,47702,47719,47735,47752,47768,47785,47802,47818,47835,47852,47867,47884,47901,47917,47934,47951,47967,47985,48001,48018,48035,48051,48067,48084,48100,48117,48134,48150,48167,48183,48200,48217,48234,48251,48266,48284,48301,48317,48334,48350,48366,48383,48400,48416,48433,48450,48467,48483,48500,48517,48534,48550,48566,48582,48599,48616,48632,48649,48665,48683,48699,48716,48733,48749,48766,48782,48799,48816,48832,48849,48866,48882,48899,48916,48933,48949,48965,48982,48999,49015,49032,49048,49066,49081,49098,49115,49132,49148,49165,49181,49198,49215,49231,49248,49265,49281,49298,49315,49331,49348,49365,49381,49398,49414,49432,49447,49463,49481,49497,49514,49531,49548,49565,49581,49597,49614,49631,49647,49664,49680,49697,49713,49729,49747,49764,49780,49797,49813,49831,49847,49862,49880,49896,49914,49930,49947,49963,49980,49996,50013,50030,50046,50063,50079,50096,50113,50129,50146,50163,50179,50195,50213,50229,50246,50262,50279,50295,50313,50328,50346,50362,50379,50395,50412,50429,50445,50462,50478,50495,50512,50529,50546,50562,50579,50595,50612,50628,50645,50661,50678,50695,50710,50728,50744,50761,50778,50794,50812,50827,50845,50861,50878,50895,50911,50928,50943,50961,50977,50994,51011,51027,51043,51061,51077,51094,51110,51127,51143,51161,51177,51194,51209,51227,51243,51259,51276,51294,51310,51326,51343,51359,51377,51393,51410,51427,51443,51460,51476,51492,51509,51526,51543,51559,51576,51593,51609,51626,51643,51660,51676,51692,51708,51725,51742,51759,51775,51791,51809,51826,51842,51859,51876,51892,51908,51924,51941,51959,51974,51991,52009,52025,52040,52057,52075,52092,52108,52124,52142,52158,52174,52191,52207,52225,52241,52258,52273,52290,52308,52323,52341,52357,52374,52390,52408,52424,52441,52456,52474,52491,52507,52524,52541,52557,52574,52590,52606,52623,52641,52657,52674,52690,52707,52723,52740,52756,52773,52789,52806,52823,52840,52857,52873,52890,52907,52923,52939,52956,52973,52988,53006,53023,53038,53056,53073,53089,53106,53123,53138,53155,53171,53189,53205,53222,53238,53255,53271,53288,53305,53322,53338,53356,53372,53388,53405,53422,53438,53455,53472,53488,53505,53522,53538,53555,53571,53588,53605,53622,53638,53655,53671,53688,53704,53721,53737,53754,53771,53788,53804,53821,53837,53854,53871,53887,53904,53920,53937,53954,53970,53986,54004,54020,54037,54053,54069,54087,54103,54119,54137,54153,54169,54186,54202,54220,54237,54253,54270,54286,54303,54319,54337,54352,54370,54385,54403,54419,54436,54453,54470,54486,54503,54519,54536,54552,54569,54585,54602,54618,54635,54652,54669,54686,54702,54719,54735,54751,54768,54785,54801,54818,54835,54852,54868,54885,54901,54918,54935,54951,54967,54984,55001,55018,55034,55051,55067,55085,55102,55118,55134,55151,55167,55184,55201,55218,55234,55251,55267,55284,55300,55317,55333,55350,55367,55384,55400,55417,55434,55451,55466,55484,55500,55517,55533,55550,55567,55584,55599,55616,55633,55650,55666,55683,55699,55715,55732,55749,55766,55782,55799,55816,55832,55849,55866,55882,55899,55916,55932,55949,55966,55982,55999,56015,56032,56049,56065,56081,56099,56115,56132,56148,56165,56181,56199,56215,56231,56248,56265,56281,56298,56315,56331,56348,56365,56381,56398,56415,56431,56447,56464,56480,56498,56514,56531,56548,56565,56580,56598,56614,56631,56647,56664,56680,56697,56714,56729,56747,56764,56781,56797,56814,56829,56847,56864,56880,56896,56913,56930,56946,56962,56979,56996,57013,57030,57046,57062,57080,57097,57113,57129,57145,57162,57180,57196,57212,57230,57245,57263,57278,57296,57313,57329,57345,57362,57379,57395,57411,57429,57446,57462,57478,57496,57512,57529,57545,57562,57579,57595,57612,57628,57645,57661,57678,57695,57711,57728,57745,57761,57778,57795,57811,57827,57845,57861,57878,57895,57910,57927,57945,57961,57977,57994,58011,58027,58043,58061,58077,58093,58111,58128,58144,58161,58177,58194,58210,58226,58243,58259,58277,58293,58310,58326,58344,58360,58377,58392,58409,58427,58443,58459,58475,58494,58510,58525,58543,58560,58576,58593,58609,58626,58643,58659,58676,58692,58708,58725,58743,58759,58776,58792,58809,58825,58843,58858,58875,58892,58908,58925,58941,58958,58975,58992,59009,59024,59041,59057,59075,59092,59108,59125,59141,59158,59175,59191,59208,59224,59241,59257,59274,59291,59307,59324,59340,59356,59374,59391,59407,59424,59440,59457,59473,59489,59507,59524,59540,59557,59574,59590,59606,59623,59641,59657,59673,59690,59707,59723,59740,59757,59773,59790,59807,59823,59839,59857,59874,59890,59906,59923,59939,59956,59973,59989,60006,60022,60039,60056,60072,60090,60106,60122,60139,60156,60172,60189,60205,60223,60238,60255,60272,60289,60305,60322,60339,60356,60372,60389,60405,60422,60438,60455,60472,60489,60505,60521,60538,60555,60572,60588,60604,60620,60638,60655,60671,60688,60704,60721,60738,60754,60771,60788,60804,60821,60837,60854,60871,60887,60904,60920,60937,60953,60971,60987,61003,61020,61037,61054,61070,61086,61103,61120,61136,61153,61170,61187,61203,61220,61236,61253,61270,61286,61303,61320,61335,61353,61369,61386,61403,61419,61436,61453,61469,61486,61502,61519,61536,61552,61569,61585,61602,61619,61635,61653,61668,61685,61701,61718,61734,61751,61769,61786,61802,61818,61835,61852,61869,61884,61901,61918,61934,61951,61968,61985,62001,62017,62035,62051,62068,62084,62101,62118,62135,62151,62167,62184,62201,62217,62234,62250,62268,62284,62301,62318,62334,62350,62367,62383,62400,62417,62433,62449,62467,62484,62500,62516,62533,62550,62567,62583,62600,62617,62633,62649,62667,62684,62699,62716,62732,62750,62766,62783,62799,62816,62833,62850,62866,62883,62900,62916,62933,62949,62966,62982,62999,63016,63033,63049,63065,63081,63098,63115,63131,63148,63164,63182,63199,63215,63233,63249,63266,63281,63298,63314,63331,63347,63364,63381,63398,63414,63431,63448,63464,63482,63498,63515,63531,63547,63564,63580,63598,63614,63631,63647,63663,63681,63697,63714,63731,63747,63764,63781,63797,63814,63830,63847,63864,63880,63896,63913,63930,63946,63963,63980,63996,64014,64030,64046,64064,64080,64096,64112,64129,64147,64163,64180,64196,64213,64229,64246,64263,64279,64296,64313,64329,64346,64362,64379,64395,64412,64429,64446,64462,64479,64495,64513,64528,64545,64561,64578,64594,64611,64628,64646,64661,64677,64695,64711,64729,64744,64761,64778,64795,64812,64828,64844,64860,64878,64894,64911,64928,64943,64961,64977,64994,65011,65028,65043,65061,65078,65094,65111,65128,65144,65161,65177,65193,65210,65227,65243,65260,65277,65294,65310,65327,65344,65361,65377,65393,65410,65427,65443,65460,65476,65492,65509,65526,65542,65560,65576,65593,65610,65627,65642,65659,65676,65692,65709,65725,65742,65759,65776,65792,65809,65826,65842,65859,65875,65891,65908,65925,65941,65958,65975,65992,66008,66026,66042,66059,66075,66091,66109,66124,66140,66157,66174,66190,66208,66224,66241,66257,66274,66290,66308,66324,66341,66357,66374,66390,66406,66424,66440,66458,66473,66491,66506,66524,66541,66557,66573,66590,66607,66623,66640,66657,66673,66690,66706,66723,66740,66757,66773,66791,66807,66823,66839,66856,66873,66889,66906,66923,66939,66957,66973,66989,67007,67023,67038,67056,67073,67089,67106,67123,67139,67156,67173,67189,67206,67223,67239,67256,67272,67289,67306,67322,67339,67356,67372,67389,67405,67422,67439,67455,67472,67488,67505,67522,67538,67555,67572,67589,67605,67622,67638,67654,67671,67688,67705,67722,67738,67755,67771,67787,67804,67821,67837,67853,67871,67887,67904,67921,67938,67954,67970,67987,68003,68020,68036,68053,68070,68086,68104,68121,68137,68153,68171,68186,68203,68219,68236,68253,68269,68286,68303,68319,68335,68353,68370,68386,68403,68419,68436,68453,68469,68485,68502,68519,68535,68553,68569,68586,68603,68619,68636,68652,68669,68685,68702,68719,68736,68752,68769,68785,68802,68819,68835,68852,68869,68884,68902,68918,68935,68952,68969,68985,69002,69018,69035,69052,69069,69085,69101,69118,69134,69150,69167,69184,69200,69217,69234,69251,69268,69284,69301,69318,69334,69351,69367,69383,69400,69417,69434,69450,69467,69484,69500,69517,69534,69551,69566,69584,69600,69617,69633,69649,69667,69684,69699,69716,69733,69750,69767,69784,69799,69816,69833,69849,69866,69883,69899,69916,69933,69949,69966,69983,69999,70016,70033,70050,70065,70083,70099,70116,70132,70149,70166,70183,70199,70215,70232,70249,70264,70282,70298,70315,70332,70348,70365,70382,70399,70415,70432,70448,70465,70481,70498,70515,70531,70547,70564,70581,70598,70614,70631,70648,70664,70681,70698,70714,70730,70747,70764,70781,70797,70814,70831,70847,70864,70881,70898,70914,70930,70947,70963,70980,70997,71013,71030,71047,71064,71080,71097,71114,71130,71147,71163,71180,71196,71213,71230,71247,71262,71279,71296,71313,71329,71346,71362,71378,71396,71413,71430,71446,71463,71478,71495,71512,71528,71545,71562,71579,71595,71612,71629,71646,71662,71679,71695,71711,71728,71745,71762,71779,71795,71812,71828,71845,71862,71877,71894,71911,71928,71944,71961,71978,71995,72011,72027,72044,72060,72078,72094,72111,72127,72144,72161,72177,72193,72211,72227,72244,72260,72278,72294,72311,72326,72343,72359,72377,72393,72410,72427,72443,72460,72477,72493,72510,72527,72543,72559,72576,72593,72609,72625,72643,72659,72676,72692,72710,72725,72743,72760,72777,72792,72809,72825,72842,72859,72875,72892,72909,72926,72943,72958,72976,72993,73009,73026,73042,73059,73076,73092,73108,73125,73142,73158,73175,73192,73209,73225,73241,73259,73275,73291,73308,73325,73342,73357,73374,73391,73408,73424,73441,73458,73475,73491,73507,73525,73541,73557,73573,73591,73607,73623,73640,73656,73674,73690,73708,73724,73740,73757,73773,73790,73807,73824,73840,73856,73874,73890,73906,73922,73940,73956,73973,73989,74006,74023,74039,74056,74073,74090,74106,74123,74140,74156,74173,74189,74205,74222,74239,74255,74272,74289,74306,74322,74339,74356,74372,74389,74406,74421,74439,74455,74471,74488,74505,74521,74538,74555,74572,74588,74605,74622,74638,74655,74672,74689,74705,74722,74738,74755,74771,74788,74804,74822,74838,74855,74871,74888,74904,74921,74938,74955,74971,74988,75004,75021,75037,75054,75070,75088,75104,75121,75137,75154,75171,75188,75203,75221,75237,75254,75270,75287,75304,75319,75337,75354,75370,75386,75404,75420,75437,75453,75470,75486,75503,75519,75537,75552,75569,75585,75602,75619,75635,75652,75669,75685,75701,75718,75735,75752,75769,75784,75803,75819,75835,75851,75868,75885,75901,75919,75935,75952,75968,75985,76002,76018,76035,76051,76068,76084,76101,76117,76134,76150,76167,76184,76201,76218,76235,76250,76268,76284,76301,76317,76334,76350,76367,76384,76400,76416,76434,76450,76468,76483,76500,76517,76533,76550,76567,76583,76599,76617,76634,76650,76667,76684,76701,76716,76733,76749,76766,76783,76799,76816,76833,76849,76866,76883,76900,76917,76933,76950,76967,76983,76999,77015,77033,77050,77067,77082,77099,77116,77133,77150,77166,77183,77200,77215,77232,77248,77265,77282,77298,77316,77331,77349,77366,77383,77399,77415,77431,77448,77465,77482,77498,77515,77531,77547,77565,77582,77598,77615,77631,77647,77664,77681,77697,77713,77731,77747,77764,77780,77797,77814,77831,77848,77865,77881,77897,77913,77930,77946,77963,77980,77997,78014,78030,78046,78063,78080,78097,78113,78129,78146,78163,78179,78197,78213,78229,78246,78262,78279,78297,78313,78330,78346,78363,78380,78395,78412,78429,78446,78463,78480,78496,78513,78529,78545,78563,78579,78596,78613,78630,78645,78661,78679,78695,78712,78728,78745,78762,78778,78795,78812,78828,78845,78861,78878,78894,78912,78928,78945,78962,78979,78995,79012,79028,79045,79061,79078,79095,79112,79128,79145,79161,79178,79194,79211,79228,79244,79261,79278,79294,79310,79327,79344,79361,79377,79394,79410,79427,79444,79461,79477,79493,79510,79527,79543,79560,79577,79594,79611,79627,79643,79659,79676,79692,79710,79727,79743,79759,79777,79793,79810,79825,79843,79859,79875,79893,79910,79926,79943,79959,79975,79992,80008,80025,80041,80058,80076,80091,80108,80126,80142,80159,80175,80191,80208,80225,80242,80258,80274,80291,80308,80324,80342,80358,80374,80392,80408,80424,80441,80458,80473,80491,80508,80524,80541,80557,80574,80590,80608,80624,80641,80657,80673,80690,80708,80724,80740,80757,80773,80789,80807,80824,80840,80857,80873,80890,80907,80923,80940,80957,80973,80989,81007,81023,81040,81057,81073,81089,81107,81123,81139,81158,81173,81190,81205,81223,81240,81256,81272,81289,81306,81323,81339,81355,81372,81389,81406,81422,81439,81455,81471,81489,81506,81522,81539,81555,81572,81588,81606,81622,81639,81655,81672,81688,81705,81722,81739,81755,81772,81789,81805,81822,81837,81855,81871,81888,81905,81922,81938,81955,81970,81988,82004,82021,82038,82054,82070,82087,82104,82121,82137,82154,82171,82188,82203,82221,82236,82254,82271,82288,82303,82320,82337,82354,82370,82387,82404,82420,82436,82452,82470,82486,82503,82520,82537,82553,82570,82587,82602,82620,82636,82652,82669,82687,82703,82720,82736,82753,82769,82786,82802,82818,82836,82852,82869,82886,82903,82918,82936,82952,82968,82985,83002,83018,83035,83052,83068,83085,83102,83118,83135,83152,83168,83185,83201,83217,83234,83250,83267,83284,83300,83318,83335,83352,83368,83385,83401,83417,83433,83450,83467,83483,83501,83517,83533,83551,83568,83585,83601,83617,83633,83650,83668,83684,83699,83716,83733,83749,83767,83783,83800,83816,83834,83850,83867,83884,83899,83916,83932,83949,83966,83983,84000,84017,84033,84049,84066,84082,84099,84116,84133,84150,84166,84183,84199,84216,84233,84249,84266,84282,84299,84315,84332,84348,84366,84382,84399,84415,84432,84449,84465,84482,84499,84515,84532,84547,84565,84581,84598,84616,84632,84648,84665,84681,84698,84714,84732,84748,84764,84780,84798,84814,84831,84848,84865,84880,84898,84914,84931,84947,84964,84981,84997,85014,85031,85047,85064,85080,85097,85114,85130,85147,85164,85180,85197,85213,85231,85246,85264,85280,85297,85313,85330,85347,85364,85379,85396,85413,85429,85446,85463,85479,85496,85513,85529,85546,85563,85580,85596,85613,85629,85646,85662,85679,85696,85712,85729,85745,85762,85779,85795,85812,85828,85846,85862,85879,85895,85911,85927,85945,85962,85978,85994,86012,86028,86045,86061,86079,86095,86112,86128,86145,86161,86178,86194,86211,86228,86243,86261,86277,86294,86310,86327,86344,86361,86376,86394,86411,86426,86444,86460,86477,86493,86511,86527,86544,86561,86577,86593,86610,86627,86643,86660,86677,86693,86709,86726,86743,86760,86776,86793,86809,86826,86843,86859,86875,86893,86910,86926,86943,86959,86975,86992,87009,87026,87043,87060,87076,87093,87109,87126,87141,87159,87176,87192,87209,87226,87242,87259,87275,87292,87309,87325,87342,87359,87375,87391,87408,87425,87442,87458,87475,87492,87508,87525,87541,87558,87575,87591,87608,87624,87641,87658,87674,87691,87707,87724,87741,87758,87774,87791,87808,87824,87841,87857,87873,87890,87908,87924,87940,87957,87974,87990,88007,88023,88040,88057,88074,88090,88107,88123,88139,88157,88172,88190,88206,88223,88240,88256,88272,88289,88307,88323,88338,88356,88372,88389,88406,88423,88439,88456,88472,88489,88506,88522,88539,88555,88572,88589,88605,88621,88639,88655,88671,88689,88704,88722,88739,88754,88772,88788,88805,88822,88839,88856,88871,88888,88904,88921,88938,88954,88971,88988,89005,89021,89037,89054,89071,89087,89103,89120,89137,89153,89170,89187,89204,89221,89237,89253,89271,89288,89304,89320,89338,89354,89369,89386,89404,89420,89436,89452,89470,89486,89504,89520,89537,89553,89569,89586,89603,89620,89636,89652,89669,89686,89703,89719,89736,89753,89769,89785,89803,89819,89836,89852,89869,89886,89903,89918,89935,89952,89969,89986,90002,90019,90035,90052,90068,90085,90102,90119,90136,90152,90168,90185,90202,90218,90235,90251,90268,90285,90301,90317,90334,90352,90368,90385,90401,90418,90434,90452,90468,90483,90500,90518,90534,90551,90567,90584,90601,90616,90634,90651,90668,90684,90700,90717,90734,90751,90766,90782,90800,90817,90833,90849,90867,90883,90900,90917,90933,90950,90966,90983,91000,91016,91033,91050,91066,91083,91100,91116,91133,91150,91166,91182,91199,91216,91233,91249,91266,91281,91299,91315,91332,91350,91366,91383,91399,91415,91431,91449,91465,91482,91499,91516,91533,91548,91565,91581,91598,91615,91631,91648,91665,91682,91698,91715,91732,91749,91765,91782,91797,91814,91831,91848,91864,91881,91898,91915,91930,91948,91963,91981,91998,92014,92030,92047,92063,92081,92096,92114,92130,92147,92164,92180,92197,92215,92231,92248,92264,92281,92297,92314,92330,92348,92364,92380,92397,92413,92430,92447,92464,92480,92496,92513,92530,92546,92563,92579,92597,92612,92630,92646,92663,92679,92696,92712,92729,92745,92763,92779,92796,92813,92830,92846,92863,92879,92895,92912,92929,92946,92963,92979,92995,93012,93029,93045,93061,93079,93095,93111,93129,93145,93161,93177,93195,93212,93228,93244,93261,93278,93295,93312,93327,93345,93361,93378,93393,93411,93428,93445,93461,93478,93494,93511,93527,93544,93560,93578,93594,93610,93627,93644,93661,93678,93694,93710,93726,93744,93760,93777,93794,93810,93827,93843,93860,93876,93893,93910,93927,93943,93960,93976,93993,94009,94026,94043,94060,94076,94093,94108,94125,94142,94158,94176,94192,94208,94227],"hit":[null],"x":[-1.6054421768707483,-1.6054421768707483,-1.6054421768707483,-1.6054421768707483,-1.6054421768707483,-1.6054421768707483,-1.6054421768707483,-1.6054421768707483,-1.6054421768707483,-1.6054421768707483,-1.6054421768707483,-1.6054421768707483,-1.6054421768707483,-1.6054421768707483,-1.6054421768707483,-1.6054421768707483,-1.6054421768707483,-1.6054421768707483,-1.6054421768707483,-1.6054421768707483,-1.6054421768707483,-1.6054421768707483,-1.6054421768707483,-1.6054421768707483,-1.6054421768707483,-1.6054421768707483,-1.6054421768707483,-1.6054421768707483,-1.6054421768707483,-1.6054421768707483,-1.6054421768707483,-1.6054421768707483,-1.6054421768707483,-1.6054421768707483,-1.6054421768707483,-1.6054421768707483,-1.6054421768707483,-1.6054421768707483,-1.6054421768707483,-1.6054421768707483,-1.6054421768707483,-1.6054421768707483,-1.6054421768707483,-1.6054421768707483,-1.6054421768707483,-1.6054421768707483,-1.6054421768707483,-1.6054421768707483,-1.6054421768707483,-1.6054421768707483,-1.6054421768707483,-1.6054421768707483,-1.6054421768707483,-1.6054421768707483,-1.6054421768707483,-1.6054421768707483,-1.6054421768707483,-1.6054421768707483,-1.6054421768707483,-1.6054421768707483,-1.6054421768707483,-1.6054421768707483,-1.6054421768707483,-1.6054421768707483,-1.6054421768707483,-1.6054421768707483,-1.6054421768707483,-1.6054421768707483,-1.6054421768707483,-1.6054421768707483,-1.6054421768707483,-1.6054421768707483,-1.6054421768707483,-1.6054421768707483,-1.6054421768707483,-1.6054421768707483,-1.6054421768707483,-1.6054421768707483,-1.6054421768707483,-1.6054421768707483,-1.6054421768707483,-1.6054421768707483,-1.6054421768707483,-1.6054421768707483,-1.6054421768707483,-1.6054421768707483,-1.6054421768707483,-1.6054421768707483,-1.6054421768707483,-1.6054421768707483,-1.6054421768707483,-1.6054421768707483,-1.6054421768707483,-1.6054421768707483,-1.6054421768707483,-1.6054421768707483,-1.6054421768707483,-1.6054421768707483,-1.6054421768707483,-1.6054421768707483,-1.6054421768707483,-1.6054421768707483,-1.6054421768707483,-1.6054421768707483,-1.6054421768707483,-1.6054421768707483,-1.6054421768707483,-1.6054421768707483,-1.6054421768707483,-1.6054421768707483,-1.6054421768707483,-1.6054421768707483,-1.6054421768707483,-1.6054421768707483,-1.6054421768707483,-1.6054421768707483,-1.6054421768707483,-1.6054421768707483,0.034013605442176874,0.034013605442176874,0.034013605442176874,0.030612244897959183,0.027210884353741496,0.027210884353741496,0.023809523809523808,0.023809523809523808,0.02040816326530612,0.02040816326530612,0.02040816326530612,0.02040816326530612,0.02040816326530612,0.017006802721088437,0.017006802721088437,0.017006802721088437,0.017006802721088437,0.017006802721088437,0.017006802721088437,0.017006802721088437,0.017006802721088437,0.017006802721088437,0.017006802721088437,0.017006802721088437,0.017006802721088437,0.017006802721088437,0.02040816326530612,0.02040816326530612,0.023809523809523808,0.023809523809523808,0.023809523809523808,0.027210884353741496,0.027210884353741496,0.027210884353741496,0.027210884353741496,0.027210884353741496,0.027210884353741496,0.027210884353741496,0.027210884353741496,0.027210884353741496,0.027210884353741496,0.027210884353741496,0.027210884353741496,0.023809523809523808,0.023809523809523808,0.02040816326530612,0.013605442176870748,0.013605442176870748,0.006802721088435374,0.006802721088435374,0.003401360544217687,0,0,-0.003401360544217687,-0.003401360544217687,-0.003401360544217687,-0.003401360544217687,-0.003401360544217687,-0.003401360544217687,-0.003401360544217687,-0.003401360544217687,-0.003401360544217687,-0.003401360544217687,0,0.006802721088435374,0.017006802721088437,0.04081632653061224,0.05442176870748299,0.11224489795918367,0.17346938775510204,0.24489795918367346,0.3299319727891156,0.41836734693877553,0.5136054421768708,0.5952380952380952,0.6462585034013606,0.6972789115646258,0.7312925170068028,0.7448979591836735,0.7585034013605442,0.7619047619047619,0.7585034013605442,0.7040816326530612,0.6496598639455783,0.5850340136054422,0.5170068027210885,0.4387755102040816,0.38095238095238093,0.30272108843537415,0.25170068027210885,0.22108843537414966,0.1836734693877551,0.1598639455782313,0.14625850340136054,0.1326530612244898,0.12585034013605442,0.12585034013605442,0.12244897959183673,0.12244897959183673,0.1360544217687075,0.14965986394557823,0.17006802721088435,0.1870748299319728,0.21768707482993196,0.24149659863945577,0.2619047619047619,0.2857142857142857,0.30952380952380953,0.336734693877551,0.36054421768707484,0.3843537414965986,0.3979591836734694,0.41156462585034015,0.4217687074829932,0.43197278911564624,0.43537414965986393,0.4387755102040816,0.4421768707482993,0.4421768707482993,0.4421768707482993,0.4421768707482993,0.4421768707482993,0.4421768707482993,0.4421768707482993,0.4387755102040816,0.4387755102040816,0.4387755102040816,0.4387755102040816,0.4387755102040816,0.4421768707482993,0.4489795918367347,0.45918367346938777,0.46598639455782315,0.47278911564625853,0.47619047619047616,0.47959183673469385,0.48299319727891155,0.48299319727891155,0.48299319727891155,0.48299319727891155,0.48299319727891155,0.47619047619047616,0.4523809523809524,0.43197278911564624,0.41496598639455784,0.391156462585034,0.3741496598639456,0.36054421768707484,0.35034013605442177,0.3401360544217687,0.3333333333333333,0.32653061224489793,0.3197278911564626,0.3163265306122449,0.3129251700680272,0.30952380952380953,0.30612244897959184,0.30612244897959184,0.30272108843537415,0.29591836734693877,0.2891156462585034,0.282312925170068,0.2755102040816326,0.2687074829931973,0.2619047619047619,0.2619047619047619,0.2585034013605442,0.2585034013605442,0.2585034013605442,0.2585034013605442,0.2585034013605442,0.2585034013605442,0.2585034013605442,0.2585034013605442,0.2585034013605442,0.2585034013605442,0.2585034013605442,0.2653061224489796,0.2789115646258503,0.30272108843537415,0.32653061224489793,0.35374149659863946,0.38095238095238093,0.3945578231292517,0.41156462585034015,0.41836734693877553,0.4217687074829932,0.4217687074829932,0.4217687074829932,0.4217687074829932,0.4217687074829932,0.4217687074829932,0.4217687074829932,0.4217687074829932,0.4217687074829932,0.41836734693877553,0.41836734693877553,0.41836734693877553,0.41836734693877553,0.41836734693877553,0.41496598639455784,0.41496598639455784,0.41496598639455784,0.41496598639455784,0.41496598639455784,0.41496598639455784,0.41496598639455784,0.41496598639455784,0.41496598639455784,0.41836734693877553,0.43197278911564624,0.4489795918367347,0.46938775510204084,0.4965986394557823,0.5136054421768708,0.5238095238095238,0.5272108843537415,0.5340136054421769,0.5374149659863946,0.5374149659863946,0.5374149659863946,0.5374149659863946,0.5374149659863946,0.5374149659863946,0.5374149659863946,0.5374149659863946,0.5374149659863946,0.5374149659863946,0.5374149659863946,0.5374149659863946,0.5374149659863946,0.5476190476190477,0.5714285714285714,0.6054421768707483,0.6462585034013606,0.6938775510204082,0.7210884353741497,0.7448979591836735,0.7585034013605442,0.7653061224489796,0.7687074829931972,0.7721088435374149,0.7721088435374149,0.7721088435374149,0.7721088435374149,0.7721088435374149,0.7721088435374149,0.7721088435374149,0.7721088435374149,0.7721088435374149,0.7721088435374149,0.7721088435374149,0.7721088435374149,0.7687074829931972,0.7687074829931972,0.7687074829931972,0.7687074829931972,0.7721088435374149,0.8027210884353742,0.8673469387755102,0.9183673469387755,0.9795918367346939,1.0136054421768708,1.0408163265306123,1.054421768707483,1.0578231292517006,1.0612244897959184,1.0476190476190477,1.030612244897959,0.9591836734693877,0.8299319727891157,0.6700680272108843,0.5850340136054422,0.48639455782312924,0.41836734693877553,0.3469387755102041,0.29591836734693877,0.272108843537415,0.24829931972789115,0.23129251700680273,0.22108843537414966,0.21428571428571427,0.20068027210884354,0.19387755102040816,0.19047619047619047,0.18027210884353742,0.17346938775510204,0.16326530612244897,0.1564625850340136,0.15306122448979592,0.15306122448979592,0.15306122448979592,0.15306122448979592,0.15306122448979592,0.1564625850340136,0.1598639455782313,0.16326530612244897,0.16666666666666666,0.17006802721088435,0.17006802721088435,0.17006802721088435,0.17006802721088435,0.17006802721088435,0.17346938775510204,0.18027210884353742,0.20068027210884354,0.23129251700680273,0.2653061224489796,0.2925170068027211,0.32653061224489793,0.3435374149659864,0.3707482993197279,0.38095238095238093,0.391156462585034,0.3945578231292517,0.3945578231292517,0.3945578231292517,0.3979591836734694,0.3979591836734694,0.3979591836734694,0.3979591836734694,0.3979591836734694,0.3979591836734694,0.3979591836734694,0.3979591836734694,0.3979591836734694,0.3979591836734694,0.3979591836734694,0.3979591836734694,0.3979591836734694,0.3979591836734694,0.3979591836734694,0.3979591836734694,0.3979591836734694,0.3979591836734694,0.40816326530612246,0.42517006802721086,0.445578231292517,0.47959183673469385,0.5136054421768708,0.5544217687074829,0.5748299319727891,0.5884353741496599,0.5986394557823129,0.5986394557823129,0.6020408163265306,0.6020408163265306,0.6020408163265306,0.6020408163265306,0.6020408163265306,0.6020408163265306,0.6020408163265306,0.6020408163265306,0.6020408163265306,0.6020408163265306,0.6122448979591837,0.6428571428571429,0.6870748299319728,0.7380952380952381,0.7891156462585034,0.8129251700680272,0.8367346938775511,0.8503401360544217,0.8537414965986394,0.8537414965986394,0.8571428571428571,0.8571428571428571,0.8673469387755102,0.8775510204081632,0.9149659863945578,0.9387755102040817,0.9591836734693877,0.9727891156462585,0.9829931972789115,0.9829931972789115,0.9319727891156463,0.7653061224489796,0.5408163265306123,0.282312925170068,0.09183673469387756,-0.05442176870748299,-0.1564625850340136,-0.24829931972789115,-0.2789115646258503,-0.2925170068027211,-0.29591836734693877,-0.29591836734693877,-0.29591836734693877,-0.29591836734693877,-0.29591836734693877,-0.29591836734693877,-0.29591836734693877,-0.2789115646258503,-0.25510204081632654,-0.22108843537414966,-0.1870748299319728,-0.14965986394557823,-0.09183673469387756,-0.07142857142857142,-0.05102040816326531,-0.04081632653061224,-0.034013605442176874,-0.023809523809523808,-0.017006802721088437,-0.01020408163265306,-0.006802721088435374,0,0.003401360544217687,0.003401360544217687,0.003401360544217687,0.003401360544217687,0.003401360544217687,0.003401360544217687,0.003401360544217687,0.003401360544217687,0.003401360544217687,0.003401360544217687,0.003401360544217687,0.003401360544217687,0.003401360544217687,0.003401360544217687,0.003401360544217687,0.003401360544217687,0.003401360544217687,0.003401360544217687,0.003401360544217687,0.003401360544217687,0.003401360544217687,0.003401360544217687,0.003401360544217687,0.003401360544217687,0.003401360544217687,0.003401360544217687,0.003401360544217687,0.003401360544217687,0.003401360544217687,0.003401360544217687,0.003401360544217687,0.003401360544217687,0.003401360544217687,0.003401360544217687,0.003401360544217687,0.003401360544217687,0.003401360544217687,0.003401360544217687,0.003401360544217687,0.003401360544217687,0.003401360544217687,0.003401360544217687,0.003401360544217687,0.003401360544217687,0.003401360544217687,0.003401360544217687,0.003401360544217687,0.003401360544217687,0.003401360544217687,0.003401360544217687,0.003401360544217687,0.003401360544217687,0.003401360544217687,0.003401360544217687,0.003401360544217687,0.003401360544217687,0.003401360544217687,0.003401360544217687,0.003401360544217687,0.003401360544217687,0.003401360544217687,0.003401360544217687,0.003401360544217687,0.003401360544217687,0.003401360544217687,0.003401360544217687,0.003401360544217687,0.003401360544217687,0.003401360544217687,0.003401360544217687,0.003401360544217687,0.003401360544217687,0.003401360544217687,0.003401360544217687,0.003401360544217687,0.003401360544217687,0.003401360544217687,0.003401360544217687,0.003401360544217687,0.006802721088435374,0.027210884353741496,0.05442176870748299,0.08843537414965986,0.1292517006802721,0.16666666666666666,0.20068027210884354,0.23469387755102042,0.25170068027210885,0.2619047619047619,0.272108843537415,0.282312925170068,0.29591836734693877,0.3129251700680272,0.3333333333333333,0.35374149659863946,0.3741496598639456,0.391156462585034,0.40816326530612246,0.41836734693877553,0.42517006802721086,0.42517006802721086,0.42857142857142855,0.43197278911564624,0.43197278911564624,0.43197278911564624,0.43537414965986393,0.43537414965986393,0.43537414965986393,0.43537414965986393,0.43537414965986393,0.43537414965986393,0.43537414965986393,0.43537414965986393,0.43537414965986393,0.43537414965986393,0.43537414965986393,0.43537414965986393,0.43537414965986393,0.43537414965986393,0.43537414965986393,0.43537414965986393,0.43537414965986393,0.43537414965986393,0.43537414965986393,0.43537414965986393,0.43537414965986393,0.43537414965986393,0.43537414965986393,0.43537414965986393,0.43537414965986393,0.43537414965986393,0.43537414965986393,0.43537414965986393,0.43537414965986393,0.43537414965986393,0.43537414965986393,0.43537414965986393,0.43537414965986393,0.43537414965986393,0.43537414965986393,0.43537414965986393,0.43537414965986393,0.43537414965986393,0.43537414965986393,0.43537414965986393,0.43537414965986393,0.43537414965986393,0.43537414965986393,0.43537414965986393,0.43537414965986393,0.43537414965986393,0.43537414965986393,0.43537414965986393,0.43537414965986393,0.43537414965986393,0.43537414965986393,0.43537414965986393,0.43537414965986393,0.43537414965986393,0.43537414965986393,0.43537414965986393,0.43537414965986393,0.43537414965986393,0.43537414965986393,0.43537414965986393,0.43537414965986393,0.43537414965986393,0.43537414965986393,0.43537414965986393,0.43537414965986393,0.43537414965986393,0.43537414965986393,0.43537414965986393,0.43537414965986393,0.43537414965986393,0.43537414965986393,0.43537414965986393,0.43537414965986393,0.43537414965986393,0.43537414965986393,0.43537414965986393,0.43537414965986393,0.43537414965986393,0.43537414965986393,0.43537414965986393,0.43537414965986393,0.43537414965986393,0.43537414965986393,0.43537414965986393,0.43537414965986393,0.43537414965986393,0.43537414965986393,0.43537414965986393,0.43537414965986393,0.43537414965986393,0.43537414965986393,0.43537414965986393,0.43537414965986393,0.43537414965986393,0.43537414965986393,0.43537414965986393,0.43537414965986393,0.43537414965986393,0.43537414965986393,0.43537414965986393,0.43537414965986393,0.43537414965986393,0.43537414965986393,0.43537414965986393,0.43537414965986393,0.43537414965986393,0.43537414965986393,0.43537414965986393,0.43537414965986393,0.43537414965986393,0.43537414965986393,0.43537414965986393,0.43537414965986393,0.43537414965986393,0.43537414965986393,0.43537414965986393,0.43537414965986393,0.43537414965986393,0.43537414965986393,0.43537414965986393,0.43537414965986393,0.43537414965986393,0.43537414965986393,0.43537414965986393,0.43537414965986393,0.43537414965986393,0.43537414965986393,0.43537414965986393,0.43537414965986393,0.43537414965986393,0.43537414965986393,0.43537414965986393,0.43537414965986393,0.43537414965986393,0.43537414965986393,0.43537414965986393,0.43537414965986393,0.43537414965986393,0.43537414965986393,0.43537414965986393,0.43537414965986393,0.43537414965986393,0.43537414965986393,0.43537414965986393,0.43537414965986393,0.43537414965986393,0.43537414965986393,0.43537414965986393,0.43537414965986393,0.43537414965986393,0.43537414965986393,0.43537414965986393,0.43537414965986393,0.43537414965986393,0.43537414965986393,0.43537414965986393,0.43537414965986393,0.43537414965986393,0.43537414965986393,0.43537414965986393,0.43537414965986393,0.43537414965986393,0.43537414965986393,0.43537414965986393,0.43537414965986393,0.43537414965986393,0.43537414965986393,0.43537414965986393,0.43537414965986393,0.43537414965986393,0.43537414965986393,0.43537414965986393,0.43537414965986393,0.43537414965986393,0.43537414965986393,0.43537414965986393,0.43537414965986393,0.43537414965986393,0.43537414965986393,0.43537414965986393,0.43537414965986393,0.43537414965986393,0.43537414965986393,0.43537414965986393,0.43537414965986393,0.43537414965986393,0.43537414965986393,0.43537414965986393,0.43537414965986393,0.43537414965986393,0.43537414965986393,0.43537414965986393,0.43537414965986393,0.43537414965986393,0.43537414965986393,0.43537414965986393,0.43537414965986393,0.43537414965986393,0.43537414965986393,0.43537414965986393,0.43537414965986393,0.43537414965986393,0.43537414965986393,0.43537414965986393,0.43537414965986393,0.43537414965986393,0.43537414965986393,0.43537414965986393,0.43537414965986393,0.43537414965986393,0.43537414965986393,0.43537414965986393,0.43537414965986393,0.43537414965986393,0.43537414965986393,0.43537414965986393,0.43537414965986393,0.43537414965986393,0.43537414965986393,0.43537414965986393,0.43537414965986393,0.43537414965986393,0.43537414965986393,0.43537414965986393,0.43537414965986393,0.43537414965986393,0.43537414965986393,0.43537414965986393,0.43537414965986393,0.43537414965986393,0.43537414965986393,0.43537414965986393,0.43537414965986393,0.43537414965986393,0.43537414965986393,0.43537414965986393,0.43537414965986393,0.43537414965986393,0.43537414965986393,0.43537414965986393,0.43537414965986393,0.43537414965986393,0.43537414965986393,0.43537414965986393,0.43537414965986393,0.43537414965986393,0.43537414965986393,0.43537414965986393,0.43537414965986393,0.43537414965986393,0.43537414965986393,0.43537414965986393,0.43537414965986393,0.43537414965986393,0.43537414965986393,0.43537414965986393,0.43537414965986393,0.43537414965986393,0.43537414965986393,0.43537414965986393,0.43537414965986393,0.43537414965986393,0.43537414965986393,0.43537414965986393,0.43537414965986393,0.43537414965986393,0.43537414965986393,0.43537414965986393,0.43537414965986393,0.43537414965986393,0.43537414965986393,0.43537414965986393,0.43537414965986393,0.43537414965986393,0.43537414965986393,0.43537414965986393,0.43537414965986393,0.43537414965986393,0.43537414965986393,0.43537414965986393,0.43537414965986393,0.43537414965986393,0.43537414965986393,0.43537414965986393,0.43537414965986393,0.43537414965986393,0.43537414965986393,0.43537414965986393,0.43537414965986393,0.43537414965986393,0.43537414965986393,0.43537414965986393,0.43537414965986393,0.43537414965986393,0.43537414965986393,0.43537414965986393,0.43537414965986393,0.43537414965986393,0.43537414965986393,0.43537414965986393,0.43537414965986393,0.43537414965986393,0.43537414965986393,0.43537414965986393,0.43537414965986393,0.43537414965986393,0.43537414965986393,0.43537414965986393,0.43537414965986393,0.43537414965986393,0.43537414965986393,0.43537414965986393,0.43537414965986393,0.43537414965986393,0.43537414965986393,0.43537414965986393,0.43537414965986393,0.43537414965986393,0.43537414965986393,0.43537414965986393,0.43537414965986393,0.43537414965986393,0.43537414965986393,0.43537414965986393,0.43537414965986393,0.43537414965986393,0.43537414965986393,0.43537414965986393,0.43537414965986393,0.43537414965986393,0.43537414965986393,0.43537414965986393,0.43537414965986393,0.43537414965986393,0.43537414965986393,0.43537414965986393,0.43537414965986393,0.43537414965986393,0.43537414965986393,0.43537414965986393,0.43537414965986393,0.43537414965986393,0.43537414965986393,0.43537414965986393,0.43537414965986393,0.43537414965986393,0.43537414965986393,0.43537414965986393,0.43537414965986393,0.43537414965986393,0.43537414965986393,0.43537414965986393,0.43537414965986393,0.43537414965986393,0.43537414965986393,0.43537414965986393,0.43537414965986393,0.43537414965986393,0.43537414965986393,0.43537414965986393,0.43537414965986393,0.43537414965986393,0.43537414965986393,0.43537414965986393,0.43537414965986393,0.43537414965986393,0.43537414965986393,0.43537414965986393,0.43537414965986393,0.43537414965986393,0.43537414965986393,0.43537414965986393,0.43537414965986393,0.43537414965986393,0.43537414965986393,0.43537414965986393,0.43537414965986393,0.43537414965986393,0.43537414965986393,0.43537414965986393,0.43537414965986393,0.43537414965986393,0.43537414965986393,0.43537414965986393,0.43537414965986393,0.43537414965986393,0.43537414965986393,0.43537414965986393,0.43537414965986393,0.43537414965986393,0.43537414965986393,0.43537414965986393,0.43537414965986393,0.43537414965986393,0.43537414965986393,0.43537414965986393,0.43537414965986393,0.43537414965986393,0.43537414965986393,0.43537414965986393,0.43537414965986393,0.43537414965986393,0.43537414965986393,0.43537414965986393,0.43537414965986393,0.43537414965986393,0.43537414965986393,0.43537414965986393,0.43537414965986393,0.43537414965986393,0.43537414965986393,0.43537414965986393,0.43537414965986393,0.43537414965986393,0.43537414965986393,0.43537414965986393,0.43537414965986393,0.43537414965986393,0.43537414965986393,0.4421768707482993,0.4523809523809524,0.45918367346938777,0.46258503401360546,0.46598639455782315,0.46938775510204084,0.46938775510204084,0.46938775510204084,0.46938775510204084,0.46938775510204084,0.46938775510204084,0.46938775510204084,0.46938775510204084,0.46938775510204084,0.46258503401360546,0.4523809523809524,0.43537414965986393,0.41836734693877553,0.4013605442176871,0.3843537414965986,0.3673469387755102,0.35714285714285715,0.35034013605442177,0.3469387755102041,0.3435374149659864,0.3435374149659864,0.3435374149659864,0.3435374149659864,0.3435374149659864,0.3401360544217687,0.3401360544217687,0.336734693877551,0.336734693877551,0.336734693877551,0.3333333333333333,0.3333333333333333,0.3299319727891156,0.3299319727891156,0.3299319727891156,0.32653061224489793,0.3231292517006803,0.3163265306122449,0.3129251700680272,0.30612244897959184,0.30272108843537415,0.29591836734693877,0.2925170068027211,0.2891156462585034,0.2857142857142857,0.2857142857142857,0.2857142857142857,0.2857142857142857,0.2857142857142857,0.2857142857142857,0.2857142857142857,0.2857142857142857,0.2857142857142857,0.2857142857142857,0.2857142857142857,0.2857142857142857,0.2857142857142857,0.2857142857142857,0.2857142857142857,0.2857142857142857,0.2857142857142857,0.2857142857142857,0.2857142857142857,0.2857142857142857,0.2857142857142857,0.2857142857142857,0.2857142857142857,0.2857142857142857,0.2857142857142857,0.2857142857142857,0.2857142857142857,0.2857142857142857,0.2857142857142857,0.2857142857142857,0.2857142857142857,0.2857142857142857,0.2857142857142857,0.2857142857142857,0.2857142857142857,0.2857142857142857,0.2857142857142857,0.2857142857142857,0.2857142857142857,0.2857142857142857,0.2857142857142857,0.2857142857142857,0.2857142857142857,0.2857142857142857,0.2857142857142857,0.2857142857142857,0.2857142857142857,0.2857142857142857,0.2857142857142857,0.2857142857142857,0.2857142857142857,0.2857142857142857,0.2857142857142857,0.2857142857142857,0.2857142857142857,0.2857142857142857,0.2857142857142857,0.2891156462585034,0.29591836734693877,0.3129251700680272,0.32653061224489793,0.336734693877551,0.35034013605442177,0.35714285714285715,0.36394557823129253,0.3707482993197279,0.3741496598639456,0.3741496598639456,0.37755102040816324,0.37755102040816324,0.37755102040816324,0.37755102040816324,0.37755102040816324,0.37755102040816324,0.37755102040816324,0.37755102040816324,0.37755102040816324,0.37755102040816324,0.37755102040816324,0.38095238095238093,0.3877551020408163,0.3979591836734694,0.41496598639455784,0.43197278911564624,0.46938775510204084,0.4965986394557823,0.5272108843537415,0.5578231292517006,0.5850340136054422,0.6054421768707483,0.6258503401360545,0.6428571428571429,0.6598639455782312,0.6768707482993197,0.6904761904761905,0.7040816326530612,0.7278911564625851,0.7380952380952381,0.7517006802721088,0.7653061224489796,0.782312925170068,0.7959183673469388,0.8095238095238095,0.8231292517006803,0.8333333333333334,0.8435374149659864,0.8503401360544217,0.8537414965986394,0.8605442176870748,0.8639455782312925,0.8673469387755102,0.8741496598639455,0.8809523809523809,0.8843537414965986,0.891156462585034,0.8979591836734694,0.9081632653061225,0.9149659863945578,0.9217687074829932,0.9285714285714286,0.935374149659864,0.9421768707482994,0.9455782312925171,0.9523809523809523,0.95578231292517,0.9591836734693877,0.9727891156462585,0.9795918367346939,0.9897959183673469,1,1.010204081632653,1.0204081632653061,1.0272108843537415,1.0374149659863945,1.0476190476190477,1.0510204081632653,1.0578231292517006,1.064625850340136,1.0748299319727892,1.0816326530612246,1.08843537414966,1.098639455782313,1.1054421768707483,1.1088435374149659,1.1088435374149659,1.1088435374149659,1.1088435374149659,1.1088435374149659,1.1088435374149659,1.1088435374149659,1.1088435374149659,1.1088435374149659,1.1088435374149659,1.1088435374149659,1.1088435374149659,1.1088435374149659,1.1088435374149659,1.1088435374149659,1.1088435374149659,1.1088435374149659,1.1088435374149659,1.1088435374149659,1.1088435374149659,1.1088435374149659,1.1088435374149659,1.1088435374149659,1.1088435374149659,1.1088435374149659,1.1088435374149659,1.1088435374149659,1.1020408163265305,1.08843537414966,1.064625850340136,1.0442176870748299,1.0204081632653061,1.0034013605442176,0.9931972789115646,0.9761904761904762,0.9625850340136054,0.9523809523809523,0.9421768707482994,0.9387755102040817,0.9319727891156463,0.9285714285714286,0.9217687074829932,0.9183673469387755,0.9149659863945578,0.9115646258503401,0.9081632653061225,0.9081632653061225,0.9047619047619048,0.9047619047619048,0.9013605442176871,0.9013605442176871,0.9013605442176871,0.9013605442176871,0.9013605442176871,0.9013605442176871,0.9013605442176871,0.9013605442176871,0.9013605442176871,0.9013605442176871,0.9013605442176871,0.9013605442176871,0.9013605442176871,0.9013605442176871,0.9013605442176871,0.9013605442176871,0.9013605442176871,0.9013605442176871,0.9013605442176871,0.9013605442176871,0.9013605442176871,0.9013605442176871,0.9013605442176871,0.9013605442176871,0.9013605442176871,0.9013605442176871,0.9013605442176871,0.9013605442176871,0.9013605442176871,0.9013605442176871,0.9013605442176871,0.9013605442176871,0.9013605442176871,0.9013605442176871,0.9013605442176871,0.9013605442176871,0.9013605442176871,0.9013605442176871,0.9013605442176871,0.9013605442176871,0.9013605442176871,0.9013605442176871,0.9013605442176871,0.9013605442176871,0.9013605442176871,0.9013605442176871,0.9013605442176871,0.9013605442176871,0.9013605442176871,0.9013605442176871,0.9013605442176871,0.9013605442176871,0.9013605442176871,0.9013605442176871,0.9013605442176871,0.9013605442176871,0.9013605442176871,0.9013605442176871,0.9013605442176871,0.9013605442176871,0.9013605442176871,0.9013605442176871,0.9013605442176871,0.9013605442176871,0.9013605442176871,0.9013605442176871,0.9013605442176871,0.9013605442176871,0.9013605442176871,0.9013605442176871,0.9013605442176871,0.9013605442176871,0.9013605442176871,0.9013605442176871,0.9013605442176871,0.9013605442176871,0.9013605442176871,0.9013605442176871,0.9013605442176871,0.9047619047619048,0.9081632653061225,0.9149659863945578,0.9251700680272109,0.935374149659864,0.9421768707482994,0.9489795918367347,0.9523809523809523,0.95578231292517,0.9625850340136054,0.9659863945578231,0.9693877551020408,0.9761904761904762,0.9795918367346939,0.9829931972789115,0.9863945578231292,0.9897959183673469,0.9897959183673469,0.9931972789115646,0.9931972789115646,0.9931972789115646,0.9931972789115646,0.9897959183673469,0.9829931972789115,0.9761904761904762,0.9727891156462585,0.9659863945578231,0.9625850340136054,0.95578231292517,0.9489795918367347,0.9421768707482994,0.9319727891156463,0.9183673469387755,0.891156462585034,0.8673469387755102,0.8401360544217688,0.7993197278911565,0.7585034013605442,0.717687074829932,0.6938775510204082,0.6666666666666666,0.6530612244897959,0.6428571428571429,0.6428571428571429,0.6428571428571429,0.6666666666666666,0.7006802721088435,0.7278911564625851,0.7653061224489796,0.7993197278911565,0.8333333333333334,0.8707482993197279,0.9047619047619048,0.9421768707482994,0.9795918367346939,1,1.030612244897959,1.0374149659863945,1.0442176870748299,1.0442176870748299,1.0408163265306123,1.0238095238095237,1.0068027210884354,0.9897959183673469,0.9727891156462585,0.95578231292517,0.9319727891156463,0.9081632653061225,0.8877551020408163,0.8673469387755102,0.8435374149659864,0.8197278911564626,0.7959183673469388,0.782312925170068,0.7687074829931972,0.7517006802721088,0.7414965986394558,0.7346938775510204,0.7278911564625851,0.7210884353741497,0.717687074829932,0.7142857142857143,0.7108843537414966,0.7074829931972789,0.7074829931972789,0.7040816326530612,0.7006802721088435,0.6938775510204082,0.6870748299319728,0.673469387755102,0.6632653061224489,0.6462585034013606,0.6292517006802721,0.608843537414966,0.5884353741496599,0.564625850340136,0.5476190476190477,0.5272108843537415,0.5102040816326531,0.5,0.4931972789115646,0.4897959183673469,0.4897959183673469,0.4897959183673469,0.4897959183673469,0.4897959183673469,0.4897959183673469,0.4897959183673469,0.4897959183673469,0.4897959183673469,0.4897959183673469,0.4897959183673469,0.4897959183673469,0.4897959183673469,0.4897959183673469,0.4897959183673469,0.4897959183673469,0.4897959183673469,0.4897959183673469,0.4897959183673469,0.4897959183673469,0.4897959183673469,0.4897959183673469,0.4897959183673469,0.4897959183673469,0.4897959183673469,0.4897959183673469,0.4897959183673469,0.4897959183673469,0.4897959183673469,0.4897959183673469,0.4897959183673469,0.4897959183673469,0.4897959183673469,0.4897959183673469,0.4897959183673469,0.4897959183673469,0.4897959183673469,0.4897959183673469,0.4897959183673469,0.4897959183673469,0.4897959183673469,0.4897959183673469,0.4897959183673469,0.4897959183673469,0.4897959183673469,0.4897959183673469,0.48639455782312924,0.47619047619047616,0.46598639455782315,0.4523809523809524,0.4421768707482993,0.43197278911564624,0.42517006802721086,0.41496598639455784,0.40816326530612246,0.40476190476190477,0.3945578231292517,0.3843537414965986,0.38095238095238093,0.3673469387755102,0.36054421768707484,0.35374149659863946,0.35034013605442177,0.3435374149659864,0.3401360544217687,0.336734693877551,0.3333333333333333,0.3333333333333333,0.3299319727891156,0.32653061224489793,0.3231292517006803,0.3197278911564626,0.30952380952380953,0.30612244897959184,0.30272108843537415,0.29591836734693877,0.2891156462585034,0.282312925170068,0.2755102040816326,0.2687074829931973,0.2653061224489796,0.2619047619047619,0.2619047619047619,0.2585034013605442,0.2585034013605442,0.2585034013605442,0.2585034013605442,0.2585034013605442,0.2585034013605442,0.2585034013605442,0.2585034013605442,0.2585034013605442,0.2585034013605442,0.2585034013605442,0.2585034013605442,0.2585034013605442,0.2585034013605442,0.2585034013605442,0.2619047619047619,0.2619047619047619,0.2687074829931973,0.272108843537415,0.282312925170068,0.2925170068027211,0.30612244897959184,0.3197278911564626,0.3401360544217687,0.35374149659863946,0.3741496598639456,0.3877551020408163,0.3979591836734694,0.40476190476190477,0.41156462585034015,0.41156462585034015,0.41496598639455784,0.41496598639455784,0.41496598639455784,0.41496598639455784,0.41496598639455784,0.41496598639455784,0.41496598639455784,0.41496598639455784,0.41496598639455784,0.41496598639455784,0.41496598639455784,0.41496598639455784,0.41496598639455784,0.41496598639455784,0.41496598639455784,0.41836734693877553,0.43197278911564624,0.4523809523809524,0.47959183673469385,0.5068027210884354,0.5272108843537415,0.54421768707483,0.5578231292517006,0.5612244897959183,0.564625850340136,0.5680272108843537,0.5680272108843537,0.5680272108843537,0.5680272108843537,0.5680272108843537,0.5680272108843537,0.5680272108843537,0.5680272108843537,0.5680272108843537,0.5680272108843537,0.5680272108843537,0.5680272108843537,0.5748299319727891,0.5884353741496599,0.6054421768707483,0.6292517006802721,0.6564625850340136,0.673469387755102,0.6836734693877551,0.6904761904761905,0.6904761904761905,0.6938775510204082,0.6938775510204082,0.6938775510204082,0.6938775510204082,0.6938775510204082,0.6938775510204082,0.6938775510204082,0.6938775510204082,0.6938775510204082,0.6938775510204082,0.6972789115646258,0.717687074829932,0.7551020408163265,0.7857142857142857,0.8299319727891157,0.8673469387755102,0.9013605442176871,0.9217687074829932,0.9387755102040817,0.9489795918367347,0.95578231292517,0.9591836734693877,0.9625850340136054,0.9625850340136054,0.9625850340136054,0.9625850340136054,0.9625850340136054,0.9625850340136054,0.9625850340136054,0.9625850340136054,0.9625850340136054,0.9625850340136054,0.9625850340136054,0.9625850340136054,0.9625850340136054,0.9625850340136054,0.9625850340136054,0.9625850340136054,0.9625850340136054,0.9625850340136054,0.9625850340136054,0.9625850340136054,0.9625850340136054,0.9625850340136054,0.9625850340136054,0.9625850340136054,0.9625850340136054,0.9625850340136054,0.9625850340136054,0.9625850340136054,0.9625850340136054,0.9625850340136054,0.9625850340136054,0.9625850340136054,0.9625850340136054,0.9625850340136054,0.9625850340136054,0.9625850340136054,0.9625850340136054,0.9625850340136054,0.9625850340136054,0.9625850340136054,0.9625850340136054,0.9625850340136054,0.9625850340136054,0.9625850340136054,0.9625850340136054,0.9625850340136054,0.9625850340136054,0.9625850340136054,0.9625850340136054,0.9625850340136054,0.9625850340136054,0.9625850340136054,0.9625850340136054,0.9625850340136054,0.9625850340136054,0.9625850340136054,0.9625850340136054,0.9625850340136054,0.9625850340136054,0.9625850340136054,0.9625850340136054,0.9625850340136054,0.9625850340136054,0.9625850340136054,0.9625850340136054,0.9625850340136054,0.9625850340136054,0.9591836734693877,0.95578231292517,0.9523809523809523,0.9455782312925171,0.9387755102040817,0.9183673469387755,0.8979591836734694,0.8741496598639455,0.8401360544217688,0.8027210884353742,0.7721088435374149,0.7414965986394558,0.7074829931972789,0.6768707482993197,0.6360544217687075,0.6020408163265306,0.5748299319727891,0.5306122448979592,0.5034013605442177,0.47278911564625853,0.4489795918367347,0.42857142857142855,0.41156462585034015,0.3945578231292517,0.38095238095238093,0.3673469387755102,0.35714285714285715,0.3435374149659864,0.336734693877551,0.32653061224489793,0.3163265306122449,0.30952380952380953,0.30272108843537415,0.29931972789115646,0.29591836734693877,0.29591836734693877,0.29591836734693877,0.2925170068027211,0.2925170068027211,0.2925170068027211,0.2925170068027211,0.2925170068027211,0.2925170068027211,0.2925170068027211,0.2925170068027211,0.2925170068027211,0.2925170068027211,0.2925170068027211,0.2925170068027211,0.2925170068027211,0.2925170068027211,0.2925170068027211,0.2925170068027211,0.2925170068027211,0.2925170068027211,0.2925170068027211,0.2925170068027211,0.2925170068027211,0.2925170068027211,0.2925170068027211,0.2925170068027211,0.2925170068027211,0.2925170068027211,0.2925170068027211,0.2925170068027211,0.2925170068027211,0.30612244897959184,0.3299319727891156,0.36394557823129253,0.40816326530612246,0.4489795918367347,0.4931972789115646,0.5578231292517006,0.5918367346938775,0.6292517006802721,0.6632653061224489,0.6938775510204082,0.7108843537414966,0.7278911564625851,0.7380952380952381,0.7414965986394558,0.7448979591836735,0.7482993197278912,0.7482993197278912,0.7482993197278912,0.7482993197278912,0.7448979591836735,0.7414965986394558,0.7346938775510204,0.7312925170068028,0.7312925170068028,0.7278911564625851,0.7278911564625851,0.7278911564625851,0.7278911564625851,0.7278911564625851,0.7278911564625851,0.7278911564625851,0.7278911564625851,0.7278911564625851,0.7278911564625851,0.7278911564625851,0.7278911564625851,0.7278911564625851,0.7278911564625851,0.7278911564625851,0.7278911564625851,0.7278911564625851,0.7278911564625851,0.7278911564625851,0.7278911564625851,0.7278911564625851,0.7278911564625851,0.7278911564625851,0.7278911564625851,0.7278911564625851,0.7278911564625851,0.7278911564625851,0.7278911564625851,0.7278911564625851,0.7278911564625851,0.7278911564625851,0.7278911564625851,0.7278911564625851,0.7278911564625851,0.7278911564625851,0.7278911564625851,0.7278911564625851,0.7278911564625851,0.7278911564625851,0.7278911564625851,0.7278911564625851,0.7278911564625851,0.7278911564625851,0.7278911564625851,0.7278911564625851,0.7278911564625851,0.7278911564625851,0.7278911564625851,0.7278911564625851,0.7278911564625851,0.7278911564625851,0.7278911564625851,0.7278911564625851,0.7278911564625851,0.7278911564625851,0.7278911564625851,0.7278911564625851,0.7278911564625851,0.7278911564625851,0.7278911564625851,0.7278911564625851,0.7278911564625851,0.7278911564625851,0.7278911564625851,0.7278911564625851,0.7278911564625851,0.7278911564625851,0.7278911564625851,0.7278911564625851,0.7278911564625851,0.7278911564625851,0.7278911564625851,0.7278911564625851,0.7278911564625851,0.7278911564625851,0.7278911564625851,0.7278911564625851,0.7278911564625851,0.7278911564625851,0.7278911564625851,0.7278911564625851,0.7278911564625851,0.7278911564625851,0.7278911564625851,0.7278911564625851,0.7278911564625851,0.7278911564625851,0.7278911564625851,0.7278911564625851,0.7278911564625851,0.7278911564625851,0.7278911564625851,0.7278911564625851,0.7278911564625851,0.7278911564625851,0.7278911564625851,0.7278911564625851,0.7278911564625851,0.7278911564625851,0.7278911564625851,0.7278911564625851,0.7278911564625851,0.7278911564625851,0.7278911564625851,0.7278911564625851,0.7278911564625851,0.7278911564625851,0.7278911564625851,0.7278911564625851,0.7278911564625851,0.7278911564625851,0.7278911564625851,0.7278911564625851,0.7278911564625851,0.7278911564625851,0.7278911564625851,0.7278911564625851,0.7278911564625851,0.7278911564625851,0.7278911564625851,0.7278911564625851,0.7278911564625851,0.7278911564625851,0.7278911564625851,0.7278911564625851,0.7278911564625851,0.7278911564625851,0.7278911564625851,0.7278911564625851,0.7278911564625851,0.7278911564625851,0.7278911564625851,0.7278911564625851,0.7278911564625851,0.7278911564625851,0.7278911564625851,0.7278911564625851,0.7278911564625851,0.7278911564625851,0.7278911564625851,0.7278911564625851,0.7278911564625851,0.7278911564625851,0.7278911564625851,0.7278911564625851,0.7278911564625851,0.7278911564625851,0.7278911564625851,0.7278911564625851,0.7278911564625851,0.7278911564625851,0.7278911564625851,0.7278911564625851,0.7278911564625851,0.7278911564625851,0.7278911564625851,0.7278911564625851,0.7278911564625851,0.7278911564625851,0.7278911564625851,0.7278911564625851,0.7278911564625851,0.7278911564625851,0.7278911564625851,0.7278911564625851,0.7278911564625851,0.7278911564625851,0.7278911564625851,0.7278911564625851,0.7278911564625851,0.7278911564625851,0.7278911564625851,0.7278911564625851,0.7278911564625851,0.7278911564625851,0.7278911564625851,0.7278911564625851,0.7278911564625851,0.7278911564625851,0.7278911564625851,0.7278911564625851,0.7278911564625851,0.7278911564625851,0.7278911564625851,0.7278911564625851,0.7278911564625851,0.7278911564625851,0.7278911564625851,0.7278911564625851,0.7278911564625851,0.7278911564625851,0.7278911564625851,0.7278911564625851,0.7278911564625851,0.7278911564625851,0.7278911564625851,0.7278911564625851,0.7278911564625851,0.7278911564625851,0.7278911564625851,0.7278911564625851,0.7278911564625851,0.7278911564625851,0.7278911564625851,0.7278911564625851,0.7278911564625851,0.7278911564625851,0.7278911564625851,0.7278911564625851,0.7278911564625851,0.7278911564625851,0.7278911564625851,0.7278911564625851,0.7278911564625851,0.7278911564625851,0.7278911564625851,0.7278911564625851,0.7278911564625851,0.7278911564625851,0.7278911564625851,0.7278911564625851,0.7278911564625851,0.7278911564625851,0.7278911564625851,0.7278911564625851,0.7278911564625851,0.7278911564625851,0.7278911564625851,0.7278911564625851,0.7278911564625851,0.7278911564625851,0.7278911564625851,0.7278911564625851,0.7278911564625851,0.7278911564625851,0.7278911564625851,0.7278911564625851,0.7278911564625851,0.7278911564625851,0.7278911564625851,0.7278911564625851,0.7278911564625851,0.7278911564625851,0.7278911564625851,0.7278911564625851,0.7278911564625851,0.7278911564625851,0.7278911564625851,0.7278911564625851,0.7278911564625851,0.7278911564625851,0.7278911564625851,0.7278911564625851,0.7278911564625851,0.7278911564625851,0.7278911564625851,0.7278911564625851,0.7278911564625851,0.7278911564625851,0.7312925170068028,0.7482993197278912,0.7653061224489796,0.7857142857142857,0.8027210884353742,0.8197278911564626,0.8367346938775511,0.860