[{"success":true,"trial_type":"fullscreen","trial_index":0,"time_elapsed":4058,"internal_node_id":"0.0-0.0","protocol_sum":"","subject_identifier":334,"subject_sum":[115,211,241,186,6,37,133,188,229,31,119,215,10,38,190,136,196,75,85,215,15,129,184,189,126,45,237,3,12,164,69,74],"subject_pair":167,"STUDY_ID":"66a0b3911f23dfc7665bb169","PROLIFIC_PID":"660b2346862ff2a3da9cfe3e","SESSION_ID":"66a17025308e9682050a0a92","practice_instructions":1,"leaderboard_instructions":0,"bonus":1,"reveal_word":false,"self_rating":"3","confidence":"72"},{"view_history":"[{\"page_index\":0,\"viewing_time\":6454.69999999553}]","rt":6454.89999999851,"trial_type":"instructions","trial_index":1,"time_elapsed":10515,"internal_node_id":"0.0-1.0","protocol_sum":"","subject_identifier":334,"subject_sum":[115,211,241,186,6,37,133,188,229,31,119,215,10,38,190,136,196,75,85,215,15,129,184,189,126,45,237,3,12,164,69,74],"subject_pair":167,"STUDY_ID":"66a0b3911f23dfc7665bb169","PROLIFIC_PID":"660b2346862ff2a3da9cfe3e","SESSION_ID":"66a17025308e9682050a0a92","practice_instructions":1,"leaderboard_instructions":0,"bonus":1,"reveal_word":false,"self_rating":"3","confidence":"72"},{"view_history":"[{\"page_index\":0,\"viewing_time\":26778.89999999851}]","rt":26779.20000000298,"trial_type":"instructions","trial_index":2,"time_elapsed":37294,"internal_node_id":"0.0-2.0-0.0","protocol_sum":"","subject_identifier":334,"subject_sum":[115,211,241,186,6,37,133,188,229,31,119,215,10,38,190,136,196,75,85,215,15,129,184,189,126,45,237,3,12,164,69,74],"subject_pair":167,"STUDY_ID":"66a0b3911f23dfc7665bb169","PROLIFIC_PID":"660b2346862ff2a3da9cfe3e","SESSION_ID":"66a17025308e9682050a0a92","practice_instructions":1,"leaderboard_instructions":0,"bonus":1,"reveal_word":false,"self_rating":"3","confidence":"72"},{"rt":48286.39999999851,"responses":"{\"Q0\":\"... reveal the word with as <b>few letter guesses</b> as possible\"}","question_order":"[0]","trial_type":"survey-multi-choice","trial_index":3,"time_elapsed":85583,"internal_node_id":"0.0-2.0-1.0","protocol_sum":"","subject_identifier":334,"subject_sum":[115,211,241,186,6,37,133,188,229,31,119,215,10,38,190,136,196,75,85,215,15,129,184,189,126,45,237,3,12,164,69,74],"subject_pair":167,"correct":true,"test_part":"multichoice_nonpretend","STUDY_ID":"66a0b3911f23dfc7665bb169","PROLIFIC_PID":"660b2346862ff2a3da9cfe3e","SESSION_ID":"66a17025308e9682050a0a92","practice_instructions":1,"leaderboard_instructions":0,"bonus":1,"reveal_word":false,"self_rating":"3","confidence":"72"},{"view_history":"[{\"page_index\":0,\"viewing_time\":1727.6000000014901}]","rt":1727.8000000044703,"trial_type":"instructions","trial_index":4,"time_elapsed":87312,"internal_node_id":"0.0-3.0","protocol_sum":"","subject_identifier":334,"subject_sum":[115,211,241,186,6,37,133,188,229,31,119,215,10,38,190,136,196,75,85,215,15,129,184,189,126,45,237,3,12,164,69,74],"subject_pair":167,"STUDY_ID":"66a0b3911f23dfc7665bb169","PROLIFIC_PID":"660b2346862ff2a3da9cfe3e","SESSION_ID":"66a17025308e9682050a0a92","practice_instructions":1,"leaderboard_instructions":0,"bonus":1,"reveal_word":false,"self_rating":"3","confidence":"72"},{"word":"ZEBRA","click_log":{"letter":["","M","E","A","B","R","Z"],"t":[0,10743.29999999702,14114.69999999553,17049.79999999702,20353.79999999702,22815,24489.5],"hit":[null,0,1,1,1,1,1],"asked":["","M","ME","MEA","MEAB","MEABR","MEABRZ"],"word_state":["_____","_____","_E___","_E__A","_EB_A","_EBRA","ZEBRA"]},"hover_log":{"letter":["?","?","?","?","?","?","?","?","?","?","?","?","?","?","?","?","?","?","?","?","?","?","?","?","?","?","?","?","?","?","?","?","?","?","?","?","?","?","?","?","?","?","?","?","?","?","?","?","?","?","?","?","?","?","?","?","?","?","?","?","?","?","?","?","?","?","?","?","?","?","?","?","?","?","?","?","?","?","?","?","?","?","?","?","?","?","?","?","?","?","?","?","?","?","?","?","?","?","?","?","?","?","?","?","?","?","?","?","?","?","?","?","?","?","?","?","?","?","?","?","?","?","?","?","?","?","?","?","?","?","?","?","?","?","?","?","?","?","?","?","?","?","?","?","?","?","?","?","?","?","?","?","?","?","?","?","?","?","?","?","?","?","?","?","?","?","?","?","?","?","?","?","?","?","?","?","?","S","S","?","?","?","?","?","?","?","?","?","?","?","?","?","?","?","?","?","?","?","?","?","?","?","?","?","?","?","?","?","?","?","?","?","?","?","?","?","?","?","?","?","?","?","?","?","?","?","?","?","?","?","?","?","?","?","?","?","?","?","?","?","?","?","?","?","?","?","?","?","?","?","?","?","?","?","?","?","?","?","?","?","?","?","?","?","?","?","?","?","?","?","?","?","?","?","?","?","?","?","?","?","?","?","?","?","?","?","?","?","?","?","?","?","?","?","?","?","?","?","?","?","?","?","?","?","?","?","?","?","?","?","?","?","?","?","?","?","?","?","?","?","?","?","?","?","?","?","?","?","?","?","?","?","?","?","?","?","?","?","?","?","?","?","?","?","?","?","?","?","?","?","?","?","?","?","?","?","?","?","?","?","?","?","?","?","?","?","?","?","?","?","?","?","?","?","?","?","?","?","?","?","?","?","?","?","?","?","?","?","?","?","?","?","?","?","?","?","?","?","?","?","?","?","?","?","?","?","?","?","?","?","?","?","?","?","?","?","?","?","?","?","?","?","?","?","?","?","?","?","?","?","?","?","?","?","?","?","?","?","?","?","?","?","?","?","?","?","?","?","?","?","?","?","?","?","?","?","?","?","?","?","?","?","?","?","?","?","?","?","?","?","?","?","?","?","?","?","?","?","?","?","?","?","?","?","?","?","?","?","?","?","?","?","?","?","?","?","?","?","?","?","?","?","?","?","?","?","?","?","?","?","?","?","?","?","?","?","?","?","?","?","?","?","?","?","?","?","?","?","?","?","?","?","?","?","?","?","?","?","?","?","?","?","?","?","?","?","?","?","?","?","?","?","?","?","?","?","?","?","?","?","?","?","?","?","?","?","?","?","?","?","?","?","?","?","?","?","?","?","?","?","?","?","?","?","?","?","?","?","T","?","?","U","?","?","?","?","?","?","?","V","V","V","?","?","?","?","?","?","?","?","?","?","?","M","M","M","M","M","M","M","M","M","M","M","M","M","M","M","M","M","M","M","M","M","M","M","M","M","M","M","M","M","M","M","M","?","V","V","?","?","?","?","?","?","?","?","?","?","?","?","?","?","?","?","?","?","?","?","?","?","?","?","?","?","?","?","?","?","?","?","?","?","?","?","?","?","?","?","?","?","?","?","?","?","?","?","?","?","?","?","?","?","?","?","?","?","?","?","?","?","?","?","?","?","?","?","?","?","?","?","?","?","?","?","?","?","?","?","?","?","?","?","?","?","?","?","?","?","?","?","?","?","?","?","?","?","?","?","?","?","?","?","?","?","?","?","?","?","?","?","?","?","?","?","?","?","?","?","?","?","?","?","?","?","?","?","?","?","?","?","?","?","?","?","?","?","?","?","?","?","?","?","?","?","?","?","?","?","?","?","?","?","?","?","?","?","E","E","E","E","E","E","E","E","E","E","E","E","E","E","E","E","E","E","E","E","E","E","E","E","E","E","E","E","E","E","E","E","E","E","E","E","E","E","E","E","E","E","E","E","E","?","N","?","V","?","?","?","?","?","?","?","?","?","?","?","?","?","?","?","?","?","?","?","?","?","?","?","?","?","?","?","?","?","?","?","?","?","?","?","?","?","?","?","?","?","?","?","?","?","?","?","?","?","?","?","?","?","?","?","?","?","?","?","?","?","?","?","?","?","?","?","?","?","?","?","?","?","?","?","?","?","?","?","?","?","?","T","T","T","T","T","T","?","?","?","K","K","K","K","K","K","K","?","?","?","?","?","?","?","?","?","?","?","?","?","?","?","?","?","A","A","A","A","A","A","A","A","A","A","A","A","A","A","A","A","A","A","A","A","A","A","A","A","A","A","A","A","A","A","A","A","A","A","A","A","A","A","A","A","A","A","A","A","A","A","A","A","A","A","A","A","A","A","A","A","A","A","A","A","A","A","A","A","A","A","A","A","A","A","A","A","A","A","A","A","A","A","A","A","A","A","A","A","A","A","A","A","?","?","K","T","T","?","?","?","?","?","?","?","?","?","?","?","?","?","?","?","?","?","?","?","?","?","?","?","?","?","?","?","?","?","?","?","?","?","?","?","?","?","?","?","?","?","?","?","?","?","?","?","?","?","?","?","?","?","?","?","?","?","?","?","?","?","?","?","?","?","?","?","?","?","?","?","?","?","?","?","?","?","?","?","?","?","?","?","?","?","?","?","?","?","?","?","U","U","U","U","U","U","?","?","?","?","?","L","L","L","L","L","L","?","?","?","?","?","?","?","B","B","B","B","B","B","B","B","B","B","B","B","B","B","B","B","B","B","B","B","B","B","B","B","B","B","B","B","B","B","B","B","B","B","B","B","B","B","B","B","B","B","B","B","B","B","B","B","B","B","B","B","B","B","B","B","B","B","B","B","B","B","B","B","B","B","B","B","B","B","B","B","B","B","B","B","B","B","B","B","B","B","B","B","B","B","B","B","B","B","?","?","?","?","?","?","L","L","L","L","L","L","L","L","?","M","M","N","N","?","?","O","O","O","O","O","O","O","O","O","O","O","O","O","?","P","P","P","P","P","P","P","P","P","P","P","P","?","?","?","?","Q","Q","Q","Q","Q","Q","Q","?","?","?","?","R","R","R","R","R","R","R","R","R","R","R","R","R","R","R","R","R","R","R","R","R","R","R","R","R","R","R","R","R","R","R","R","R","R","R","R","R","R","R","R","R","R","R","R","R","R","R","?","?","?","?","?","?","?","?","Y","Y","Y","Y","?","?","?","X","X","X","X","X","X","X","X","X","X","X","X","X","X","X","X","Y","Y","Y","Y","Y","Y","Y","Y","Y","Y","Y","Y","Y","Y","Y","Y","Y","Y","Y","Y","Y","Y","Y","Y","Y","Y","Y","?","?","Z","Z","Z","Z","Z","Z","Z","Z","Z","Z","Z","Z","Z","Z","Z","Z","Z","Z","Z","Z","Z","Z","Z","Z","Z","Z","Z","Z","Z","Z","Z","Z","Z","Z","Z","Z","Z","Z","Z","Z","Z","Z","Z","Z","Z","Z","Z","Z","Z","Z","Z","Z","?","?","?","?","?","?","?","?","?","?","?","?","?","?","?","?","?","?","?","?","?","?","?","?","?","?","?","?","?","?","?","?","?","?","?","?","?","?","?","?","?","?","?","?","?","?","?","?","?","?","?","?","?","?","?","?","?","?","?","?","?","?","?","?","?","?","?","?","?","?","?","?","?","?","?","?","?","?","?","?","?","?","?","?","?","?","?","?","?","?","?"],"t":[37,47,71,87,103,120,139,153,171,189,207,220,237,253,270,287,307,322,338,354,371,387,404,420,436,453,469,486,503,520,536,553,570,586,603,620,637,653,671,688,704,723,739,754,770,788,805,822,839,855,871,888,905,922,939,955,972,989,1005,1022,1039,1055,1072,1089,1106,1123,1139,1156,1172,1189,1206,1222,1239,1258,1271,1288,1305,1323,1339,1355,1372,1389,1405,1422,1444,1469,1486,1503,1519,1536,1553,1570,1586,1603,1620,1636,1653,1669,1687,1703,1720,1736,1753,1770,1787,1805,1821,1838,1857,1873,1889,1905,1921,1938,1954,1971,1988,2004,2021,2038,2055,2071,2088,2104,2122,2138,2154,2171,2188,2204,2221,2238,2254,2271,2288,2307,2322,2338,2355,2371,2388,2405,2421,2438,2455,2471,2488,2505,2522,2538,2556,2572,2589,2605,2622,2638,2655,2672,2689,2705,2722,2738,2755,2772,2788,2805,2822,2841,2856,2872,2889,2909,2923,2940,2956,2973,2989,3013,3039,3055,3072,3094,3110,3127,3143,3158,3173,3194,3210,3227,3243,3260,3275,3293,3307,3325,3342,3359,3374,3390,3407,3423,3440,3456,3473,3490,3506,3523,3540,3556,3573,3590,3607,3623,3640,3656,3673,3690,3707,3723,3740,3756,3773,3790,3807,3823,3840,3857,3873,3893,3909,3924,3940,3957,3973,3990,4007,4023,4040,4057,4074,4091,4107,4124,4141,4157,4173,4190,4207,4224,4241,4257,4274,4290,4310,4326,4341,4357,4374,4390,4409,4424,4441,4457,4474,4491,4507,4524,4541,4557,4574,4591,4607,4624,4641,4657,4674,4692,4708,4724,4741,4758,4774,4791,4808,4824,4841,4858,4875,4891,4908,4925,4944,4959,4975,4991,5009,5028,5045,5061,5078,5093,5108,5128,5145,5160,5178,5195,5211,5228,5245,5261,5278,5293,5308,5325,5342,5358,5375,5392,5408,5426,5442,5460,5478,5495,5512,5526,5542,5559,5575,5592,5608,5626,5642,5658,5675,5692,5709,5726,5745,5765,5791,5807,5824,5841,5858,5874,5891,5908,5924,5941,5958,5975,5991,6009,6026,6046,6062,6078,6094,6109,6126,6144,6159,6176,6193,6210,6226,6243,6260,6276,6293,6309,6327,6344,6360,6376,6393,6409,6426,6443,6460,6476,6493,6509,6528,6544,6560,6576,6593,6609,6626,6643,6660,6676,6693,6710,6726,6743,6760,6777,6793,6810,6826,6843,6860,6877,6893,6910,6928,6946,6962,6978,6994,7010,7027,7045,7062,7077,7094,7110,7127,7143,7161,7177,7194,7211,7230,7244,7260,7277,7294,7310,7327,7344,7361,7377,7394,7411,7427,7444,7460,7477,7494,7511,7528,7544,7561,7579,7595,7611,7628,7644,7661,7678,7694,7711,7728,7744,7761,7778,7794,7811,7828,7845,7861,7878,7894,7911,7928,7944,7962,7979,7996,8012,8028,8045,8061,8078,8095,8114,8129,8145,8162,8178,8195,8212,8228,8245,8262,8279,8295,8312,8329,8345,8364,8379,8395,8412,8429,8445,8462,8478,8495,8512,8528,8545,8562,8578,8596,8612,8630,8646,8662,8681,8696,8713,8729,8746,8762,8779,8795,8813,8829,8845,8863,8879,8896,8913,8929,8945,8962,8979,8996,9012,9029,9046,9063,9079,9095,9112,9129,9146,9166,9180,9196,9213,9230,9246,9262,9279,9296,9313,9330,9346,9365,9380,9396,9413,9429,9446,9463,9479,9496,9513,9530,9546,9563,9580,9599,9616,9633,9650,9667,9684,9702,9717,9733,9750,9765,9783,9800,9816,9833,9850,9867,9883,9901,9913,9933,9951,9967,9984,10000,10015,10031,10048,10067,10089,10113,10130,10146,10163,10180,10196,10213,10230,10249,10265,10283,10298,10317,10334,10351,10367,10384,10401,10417,10434,10449,10467,10484,10498,10514,10531,10548,10565,10581,10598,10614,10631,10648,10670,10683,10698,10715,10732,10751,10769,10783,10799,10816,10835,10852,10868,10885,10902,10919,10936,10953,10968,10984,10999,11016,11032,11049,11065,11083,11099,11116,11132,11149,11165,11182,11199,11216,11232,11249,11266,11284,11299,11319,11334,11349,11366,11382,11399,11416,11432,11449,11466,11482,11501,11516,11532,11549,11566,11583,11599,11616,11633,11649,11666,11683,11699,11716,11733,11749,11766,11783,11800,11818,11834,11849,11866,11883,11900,11916,11933,11949,11966,11983,12003,12018,12034,12050,12066,12083,12100,12116,12133,12149,12166,12183,12200,12217,12233,12252,12267,12284,12300,12316,12333,12353,12367,12384,12401,12417,12434,12450,12466,12483,12500,12517,12533,12550,12567,12584,12600,12617,12633,12650,12667,12684,12700,12717,12733,12750,12767,12784,12800,12817,12834,12850,12868,12885,12901,12917,12934,12953,12968,12984,13001,13017,13036,13054,13071,13088,13104,13121,13137,13154,13171,13187,13204,13222,13237,13254,13268,13284,13302,13318,13337,13352,13371,13388,13405,13421,13437,13454,13470,13487,13503,13520,13537,13554,13570,13587,13602,13620,13635,13652,13668,13685,13702,13718,13735,13752,13768,13785,13801,13818,13835,13852,13868,13885,13902,13918,13937,13952,13968,13985,14002,14018,14037,14052,14069,14085,14102,14122,14138,14153,14169,14186,14203,14220,14238,14255,14272,14289,14306,14323,14339,14356,14373,14393,14418,14434,14453,14471,14486,14502,14519,14536,14553,14569,14586,14603,14620,14637,14654,14670,14686,14702,14719,14736,14753,14769,14786,14803,14819,14836,14853,14869,14886,14903,14919,14936,14953,14970,14987,15006,15020,15037,15053,15070,15087,15103,15119,15136,15153,15170,15187,15204,15220,15238,15254,15270,15287,15304,15320,15337,15353,15370,15386,15403,15420,15439,15454,15471,15487,15503,15522,15537,15554,15572,15591,15607,15624,15641,15657,15674,15690,15707,15724,15740,15757,15774,15791,15808,15828,15841,15856,15873,15890,15908,15924,15940,15957,15974,15990,16007,16024,16041,16057,16073,16090,16107,16124,16140,16155,16171,16188,16204,16223,16241,16254,16272,16291,16308,16322,16338,16355,16371,16388,16405,16423,16441,16455,16473,16488,16505,16521,16538,16555,16574,16589,16605,16622,16638,16655,16671,16688,16705,16722,16738,16755,16772,16788,16805,16822,16838,16855,16872,16889,16905,16922,16938,16956,16972,16990,17006,17022,17039,17057,17074,17091,17108,17123,17139,17155,17172,17189,17206,17222,17240,17257,17273,17289,17306,17322,17341,17357,17374,17390,17407,17424,17440,17458,17474,17491,17507,17524,17541,17558,17574,17592,17608,17626,17641,17656,17673,17689,17706,17723,17740,17759,17776,17793,17810,17827,17843,17860,17876,17893,17909,17926,17943,17958,17974,17990,18007,18023,18040,18057,18073,18090,18107,18123,18140,18157,18176,18190,18207,18224,18240,18257,18274,18290,18307,18324,18340,18358,18375,18392,18408,18425,18441,18457,18474,18490,18507,18524,18540,18560,18577,18594,18609,18631,18656,18673,18689,18706,18727,18744,18758,18775,18791,18807,18824,18841,18858,18874,18891,18907,18924,18941,18958,18974,18991,19008,19025,19042,19059,19075,19091,19111,19127,19145,19161,19178,19194,19211,19230,19244,19260,19277,19293,19310,19327,19343,19361,19377,19394,19410,19427,19444,19461,19478,19494,19511,19528,19545,19561,19578,19594,19611,19628,19644,19662,19678,19695,19712,19728,19745,19760,19779,19796,19811,19828,19845,19860,19878,19892,19910,19926,19942,19959,19977,19993,20009,20026,20042,20059,20076,20093,20109,20126,20142,20159,20175,20192,20209,20226,20242,20259,20277,20293,20312,20327,20344,20360,20377,20393,20409,20426,20443,20459,20476,20493,20509,20526,20543,20560,20577,20593,20610,20626,20643,20660,20676,20693,20710,20726,20743,20760,20776,20793,20810,20828,20844,20860,20877,20894,20910,20927,20943,20960,20976,20993,21010,21026,21043,21060,21077,21093,21110,21127,21143,21160,21177,21193,21214,21230,21247,21264,21281,21297,21314,21335,21360,21376,21393,21410,21426,21443,21460,21476,21493,21513,21530,21547,21564,21580,21597,21614,21631,21647,21664,21681,21697,21714,21731,21747,21764,21781,21797,21814,21831,21848,21864,21882,21899,21916,21931,21947,21964,21979,21995,22011,22028,22047,22064,22081,22097,22112,22132,22147,22166,22181,22197,22213,22229,22247,22261,22280,22297,22314,22328,22348,22365,22379,22397,22414,22431,22447,22462,22480,22496,22512,22528,22545,22561,22578,22595,22612,22629,22648,22665,22679,22697,22712,22729,22746,22762,22779,22795,22813,22830,22847,22863,22879,22896,22913,22929,22948,22963,22979,22996,23013,23029,23046,23062,23082,23099,23116,23133,23149,23166,23183,23199,23216,23233,23250,23267,23283,23300,23316,23333,23349,23366,23384,23400,23416,23433,23449,23466,23480,23497,23514,23530,23547,23563,23580,23597,23616,23633,23651,23666,23683,23700,23717,23732,23749,23764,23780,23797,23813,23830,23847,23863,23880,23897,23914,23933,23947,23966,23981,23999,24014,24031,24047,24067,24083,24100,24117,24134,24148,24164,24182,24198,24217,24231,24247,24264,24282,24300,24314,24331,24347,24364,24381,24397,24415,24431,24448,24465,24481,24504,24517,24534,24549,24564,24582,24599,24615,24632,24648,24665,24682,24698,24715,24731,24748,24765,24781,24798,24815,24831,24848,24865,24883,24898,24915,24932,24948,24965,24985,25001,25018,25035,25052,25069,25085,25102,25118,25134,25151,25168,25184,25201,25217,25233,25249,25267,25283,25299,25316,25332,25349,25365,25382,25398,25415,25432,25449,25465,25482,25499,25515,25536,25550,25565,25583,25601,25617,25632,25649,25666,25683,25699,25715,25732,25749,25766,25783,25801,25818,25834,25852,25868,25885,25901,25918,25935,25951,25968,25985,26002,26018,26035,26052,26069,26085,26101,26119,26134,26150,26168,26185,26201,26219,26236,26250,26268,26285,26302,26319,26335,26350,26367,26384,26400,26417,26434,26450,26468,26484,26505],"hit":[null],"x":[-1.6054421768707483,-1.6054421768707483,-1.6054421768707483,-1.6054421768707483,-1.6054421768707483,-1.6054421768707483,-1.6054421768707483,-1.6054421768707483,-1.6054421768707483,-1.6054421768707483,-1.6054421768707483,-1.6054421768707483,-1.6054421768707483,-1.6054421768707483,-1.6054421768707483,-1.6054421768707483,-1.6054421768707483,-1.6054421768707483,-1.6054421768707483,-1.6054421768707483,-1.6054421768707483,-1.6054421768707483,-1.6054421768707483,-1.6054421768707483,-1.6054421768707483,-1.6054421768707483,-1.6054421768707483,-1.6054421768707483,-1.6054421768707483,-1.6054421768707483,-1.6054421768707483,-1.6054421768707483,-1.6054421768707483,-1.6054421768707483,-1.6054421768707483,-1.6054421768707483,-1.6054421768707483,-1.6054421768707483,-1.6054421768707483,-1.6054421768707483,-1.6054421768707483,-1.6054421768707483,-1.6054421768707483,-1.6054421768707483,-1.6054421768707483,-1.6054421768707483,-1.6054421768707483,-1.6054421768707483,-1.6054421768707483,-1.6054421768707483,-1.6054421768707483,-1.6054421768707483,-1.6054421768707483,-1.6054421768707483,-1.6054421768707483,-1.6054421768707483,-1.6054421768707483,-1.6054421768707483,-1.6054421768707483,-1.6054421768707483,-1.6054421768707483,-1.6054421768707483,-1.6054421768707483,-1.6054421768707483,-1.6054421768707483,-1.6054421768707483,-1.6054421768707483,-1.6054421768707483,-1.6054421768707483,-1.6054421768707483,-1.6054421768707483,-1.6054421768707483,-1.6054421768707483,-1.6054421768707483,-1.6054421768707483,-1.6054421768707483,-1.6054421768707483,-1.6054421768707483,-1.6054421768707483,-1.6054421768707483,-1.6054421768707483,-1.6054421768707483,-1.6054421768707483,-1.6054421768707483,-1.6054421768707483,-1.6054421768707483,-1.6054421768707483,-1.6054421768707483,-1.6054421768707483,-1.6054421768707483,-1.6054421768707483,-1.6054421768707483,-1.6054421768707483,-1.6054421768707483,-1.6054421768707483,-1.6054421768707483,-1.6054421768707483,-1.6054421768707483,-1.6054421768707483,-1.6054421768707483,-1.6054421768707483,-1.6054421768707483,-1.6054421768707483,-1.6054421768707483,-1.6054421768707483,-1.6054421768707483,-1.6054421768707483,-1.6054421768707483,-1.6054421768707483,-1.6054421768707483,-1.6054421768707483,-1.6054421768707483,-1.6054421768707483,-1.6054421768707483,-1.6054421768707483,-1.6054421768707483,-1.6054421768707483,-1.6054421768707483,-1.6054421768707483,-1.6054421768707483,-1.6054421768707483,-1.6054421768707483,-1.6054421768707483,-1.6054421768707483,-1.6054421768707483,-1.6054421768707483,-1.6054421768707483,-1.6054421768707483,-1.6054421768707483,-1.6054421768707483,-1.6054421768707483,-1.6054421768707483,-1.6054421768707483,-1.6054421768707483,-1.6054421768707483,-1.6054421768707483,-1.6054421768707483,-1.6054421768707483,-1.6054421768707483,-1.6054421768707483,-1.6054421768707483,-1.6054421768707483,-1.6054421768707483,-1.6054421768707483,-1.6054421768707483,-1.6054421768707483,-1.6054421768707483,-1.6054421768707483,-1.6054421768707483,-1.6054421768707483,-1.6054421768707483,-1.6054421768707483,-1.6054421768707483,-1.6054421768707483,-1.6054421768707483,-1.6054421768707483,-1.6054421768707483,-1.6054421768707483,-1.6054421768707483,-1.6054421768707483,-1.6054421768707483,-1.6054421768707483,-1.6054421768707483,-1.6054421768707483,-1.6054421768707483,-1.6054421768707483,-1.6054421768707483,-1.6054421768707483,-1.6054421768707483,-1.6054421768707483,-1.6054421768707483,-1.6054421768707483,-1.6054421768707483,-1.6054421768707483,-1.6054421768707483,-1.6054421768707483,-1.6054421768707483,-0.013605442176870748,-0.013605442176870748,-0.013605442176870748,-0.013605442176870748,-0.013605442176870748,-0.006802721088435374,-0.006802721088435374,0,0,0,0,0.006802721088435374,0.01020408163265306,0.02040816326530612,0.02040816326530612,0.02040816326530612,0.02040816326530612,0.02040816326530612,0.02040816326530612,0.02040816326530612,0.02040816326530612,0.02040816326530612,0.02040816326530612,0.02040816326530612,0.02040816326530612,0.02040816326530612,0.02040816326530612,0.02040816326530612,0.02040816326530612,0.02040816326530612,0.02040816326530612,0.02040816326530612,0.02040816326530612,0.02040816326530612,0.02040816326530612,0.02040816326530612,0.02040816326530612,0.02040816326530612,0.02040816326530612,0.02040816326530612,0.02040816326530612,0.02040816326530612,0.02040816326530612,0.02040816326530612,0.02040816326530612,0.02040816326530612,0.02040816326530612,0.02040816326530612,0.02040816326530612,0.02040816326530612,0.02040816326530612,0.02040816326530612,0.02040816326530612,0.02040816326530612,0.02040816326530612,0.02040816326530612,0.02040816326530612,0.02040816326530612,0.02040816326530612,0.02040816326530612,0.02040816326530612,0.02040816326530612,0.02040816326530612,0.02040816326530612,0.02040816326530612,0.02040816326530612,0.02040816326530612,0.02040816326530612,0.02040816326530612,0.02040816326530612,0.02040816326530612,0.02040816326530612,0.02040816326530612,0.02040816326530612,0.02040816326530612,0.02040816326530612,0.02040816326530612,0.02040816326530612,0.02040816326530612,0.02040816326530612,0.02040816326530612,0.02040816326530612,0.02040816326530612,0.02040816326530612,0.02040816326530612,0.02040816326530612,0.02040816326530612,0.02040816326530612,0.02040816326530612,0.02040816326530612,0.02040816326530612,0.02040816326530612,0.02040816326530612,0.02040816326530612,0.02040816326530612,0.02040816326530612,0.02040816326530612,0.02040816326530612,0.02040816326530612,0.02040816326530612,0.02040816326530612,0.02040816326530612,0.02040816326530612,0.02040816326530612,0.02040816326530612,0.02040816326530612,0.02040816326530612,0.02040816326530612,0.02040816326530612,0.02040816326530612,0.02040816326530612,0.02040816326530612,0.02040816326530612,0.02040816326530612,0.02040816326530612,0.02040816326530612,0.02040816326530612,0.02040816326530612,0.02040816326530612,0.02040816326530612,0,-0.02040816326530612,-0.027210884353741496,-0.03741496598639456,-0.03741496598639456,-0.03741496598639456,-0.04421768707482993,-0.04421768707482993,-0.05442176870748299,-0.07142857142857142,-0.07482993197278912,-0.08843537414965986,-0.09523809523809523,-0.10884353741496598,-0.11564625850340136,-0.12244897959183673,-0.12244897959183673,-0.12244897959183673,-0.12244897959183673,-0.12244897959183673,-0.12244897959183673,-0.12244897959183673,-0.12244897959183673,-0.12244897959183673,-0.12244897959183673,-0.12244897959183673,-0.12244897959183673,-0.12244897959183673,-0.12244897959183673,-0.1326530612244898,-0.1326530612244898,-0.1326530612244898,-0.1326530612244898,-0.1326530612244898,-0.1326530612244898,-0.1326530612244898,-0.1326530612244898,-0.1326530612244898,-0.1326530612244898,-0.1326530612244898,-0.1326530612244898,-0.1326530612244898,-0.1326530612244898,-0.1326530612244898,-0.1326530612244898,-0.1326530612244898,-0.1326530612244898,-0.1326530612244898,-0.1326530612244898,-0.1326530612244898,-0.1326530612244898,-0.1326530612244898,-0.1326530612244898,-0.1326530612244898,-0.1326530612244898,-0.1326530612244898,-0.1360544217687075,-0.1360544217687075,-0.14625850340136054,-0.14625850340136054,-0.15306122448979592,-0.15306122448979592,-0.15306122448979592,-0.15306122448979592,-0.15306122448979592,-0.15306122448979592,-0.15306122448979592,-0.15306122448979592,-0.15306122448979592,-0.15306122448979592,-0.15306122448979592,-0.15306122448979592,-0.15306122448979592,-0.15306122448979592,-0.15306122448979592,-0.15306122448979592,-0.15306122448979592,-0.15306122448979592,-0.15306122448979592,-0.15306122448979592,-0.15306122448979592,-0.15306122448979592,-0.15306122448979592,-0.15306122448979592,-0.15306122448979592,-0.15306122448979592,-0.15306122448979592,-0.15306122448979592,-0.15306122448979592,-0.15306122448979592,-0.15306122448979592,-0.15306122448979592,-0.15306122448979592,-0.15306122448979592,-0.15306122448979592,-0.15306122448979592,-0.15306122448979592,-0.15306122448979592,-0.15306122448979592,-0.15306122448979592,-0.15306122448979592,-0.15306122448979592,-0.15306122448979592,-0.15306122448979592,-0.15306122448979592,-0.15306122448979592,-0.15306122448979592,-0.15306122448979592,-0.15306122448979592,-0.15306122448979592,-0.15306122448979592,-0.15306122448979592,-0.15306122448979592,-0.15306122448979592,-0.15306122448979592,-0.15306122448979592,-0.15306122448979592,-0.15306122448979592,-0.15306122448979592,-0.15306122448979592,-0.15306122448979592,-0.15306122448979592,-0.15306122448979592,-0.15306122448979592,-0.15306122448979592,-0.15306122448979592,-0.15306122448979592,-0.15306122448979592,-0.15306122448979592,-0.15306122448979592,-0.15306122448979592,-0.15306122448979592,-0.15306122448979592,-0.15306122448979592,-0.15306122448979592,-0.15306122448979592,-0.15306122448979592,-0.15306122448979592,-0.15306122448979592,-0.15306122448979592,-0.15306122448979592,-0.15306122448979592,-0.15306122448979592,-0.15306122448979592,-0.15306122448979592,-0.15306122448979592,-0.15306122448979592,-0.15306122448979592,-0.15306122448979592,-0.15306122448979592,-0.15306122448979592,-0.15306122448979592,-0.15306122448979592,-0.15306122448979592,-0.15306122448979592,-0.15306122448979592,-0.15306122448979592,-0.15306122448979592,-0.15306122448979592,-0.15306122448979592,-0.15306122448979592,-0.15306122448979592,-0.15306122448979592,-0.15306122448979592,-0.15306122448979592,-0.15306122448979592,-0.15306122448979592,-0.15306122448979592,-0.15306122448979592,-0.15306122448979592,-0.15306122448979592,-0.15306122448979592,-0.15306122448979592,-0.15306122448979592,-0.15306122448979592,-0.15306122448979592,-0.15306122448979592,-0.15306122448979592,-0.15306122448979592,-0.15306122448979592,-0.15306122448979592,-0.15306122448979592,-0.15306122448979592,-0.15306122448979592,-0.15306122448979592,-0.15306122448979592,-0.15306122448979592,-0.15306122448979592,-0.15306122448979592,-0.15306122448979592,-0.15306122448979592,-0.15306122448979592,-0.15306122448979592,-0.15306122448979592,-0.15306122448979592,-0.15306122448979592,-0.15306122448979592,-0.15306122448979592,-0.15306122448979592,-0.15306122448979592,-0.15306122448979592,-0.15306122448979592,-0.15306122448979592,-0.15306122448979592,-0.15306122448979592,-0.15306122448979592,-0.15306122448979592,-0.15306122448979592,-0.15306122448979592,-0.15306122448979592,-0.15306122448979592,-0.15306122448979592,-0.15306122448979592,-0.15306122448979592,-0.15306122448979592,-0.15306122448979592,-0.15306122448979592,-0.15306122448979592,-0.15306122448979592,-0.15306122448979592,-0.15306122448979592,-0.15306122448979592,-0.15306122448979592,-0.15306122448979592,-0.15306122448979592,-0.15306122448979592,-0.15306122448979592,-0.15306122448979592,-0.15306122448979592,-0.15306122448979592,-0.15306122448979592,-0.15306122448979592,-0.15306122448979592,-0.15306122448979592,-0.15306122448979592,-0.15306122448979592,-0.15306122448979592,-0.15306122448979592,-0.15306122448979592,-0.15306122448979592,-0.15306122448979592,-0.15306122448979592,-0.15306122448979592,-0.15306122448979592,-0.15306122448979592,-0.15306122448979592,-0.15306122448979592,-0.15306122448979592,-0.15306122448979592,-0.15306122448979592,-0.15306122448979592,-0.15306122448979592,-0.15306122448979592,-0.15306122448979592,-0.15306122448979592,-0.15306122448979592,-0.15306122448979592,-0.15306122448979592,-0.15306122448979592,-0.15306122448979592,-0.15306122448979592,-0.15306122448979592,-0.15306122448979592,-0.15306122448979592,-0.15306122448979592,-0.15306122448979592,-0.15306122448979592,-0.15306122448979592,-0.15306122448979592,-0.15306122448979592,-0.15306122448979592,-0.15306122448979592,-0.15306122448979592,-0.14625850340136054,-0.1360544217687075,-0.12585034013605442,-0.10884353741496598,-0.10884353741496598,-0.09863945578231292,-0.09183673469387756,-0.08163265306122448,-0.07482993197278912,-0.06462585034013606,-0.06462585034013606,-0.047619047619047616,-0.030612244897959183,-0.01020408163265306,0.006802721088435374,0.027210884353741496,0.05442176870748299,0.11224489795918367,0.16326530612244897,0.17687074829931973,0.2108843537414966,0.2925170068027211,0.336734693877551,0.35034013605442177,0.36054421768707484,0.36054421768707484,0.36054421768707484,0.36054421768707484,0.3673469387755102,0.3877551020408163,0.40816326530612246,0.42857142857142855,0.43537414965986393,0.445578231292517,0.445578231292517,0.445578231292517,0.445578231292517,0.445578231292517,0.4557823129251701,0.4557823129251701,0.4557823129251701,0.4557823129251701,0.4557823129251701,0.4557823129251701,0.4557823129251701,0.43537414965986393,0.43537414965986393,0.43537414965986393,0.42517006802721086,0.42517006802721086,0.42517006802721086,0.42517006802721086,0.42517006802721086,0.42517006802721086,0.42517006802721086,0.42517006802721086,0.42517006802721086,0.42517006802721086,0.42517006802721086,0.42517006802721086,0.42517006802721086,0.42517006802721086,0.42517006802721086,0.42517006802721086,0.42517006802721086,0.42517006802721086,0.42517006802721086,0.42517006802721086,0.42517006802721086,0.42517006802721086,0.42517006802721086,0.42517006802721086,0.42517006802721086,0.41496598639455784,0.40816326530612246,0.40816326530612246,0.40816326530612246,0.3877551020408163,0.35374149659863946,0.3401360544217687,0.3401360544217687,0.3401360544217687,0.3401360544217687,0.3401360544217687,0.3401360544217687,0.3401360544217687,0.3401360544217687,0.3401360544217687,0.3401360544217687,0.3401360544217687,0.3401360544217687,0.3401360544217687,0.3401360544217687,0.3401360544217687,0.3401360544217687,0.3401360544217687,0.3401360544217687,0.3401360544217687,0.3401360544217687,0.3401360544217687,0.3401360544217687,0.3401360544217687,0.3401360544217687,0.3401360544217687,0.3401360544217687,0.3401360544217687,0.3401360544217687,0.3401360544217687,0.3401360544217687,0.3401360544217687,0.3401360544217687,0.3401360544217687,0.3401360544217687,0.3401360544217687,0.3401360544217687,0.3401360544217687,0.3401360544217687,0.3401360544217687,0.3401360544217687,0.3401360544217687,0.3401360544217687,0.3401360544217687,0.3401360544217687,0.3401360544217687,0.3401360544217687,0.3401360544217687,0.3401360544217687,0.3401360544217687,0.3401360544217687,0.3401360544217687,0.3401360544217687,0.3401360544217687,0.3401360544217687,0.3401360544217687,0.3401360544217687,0.3401360544217687,0.3401360544217687,0.3401360544217687,0.3401360544217687,0.3401360544217687,0.3401360544217687,0.3401360544217687,0.3401360544217687,0.3401360544217687,0.3401360544217687,0.3401360544217687,0.3401360544217687,0.3401360544217687,0.3401360544217687,0.3401360544217687,0.3401360544217687,0.3401360544217687,0.3401360544217687,0.3401360544217687,0.3401360544217687,0.3401360544217687,0.3401360544217687,0.3401360544217687,0.3401360544217687,0.3401360544217687,0.3401360544217687,0.3401360544217687,0.3401360544217687,0.3401360544217687,0.3401360544217687,0.3401360544217687,0.3401360544217687,0.3401360544217687,0.3401360544217687,0.3401360544217687,0.3401360544217687,0.3401360544217687,0.3401360544217687,0.3401360544217687,0.3401360544217687,0.3401360544217687,0.3401360544217687,0.3401360544217687,0.3401360544217687,0.3401360544217687,0.3401360544217687,0.3401360544217687,0.3401360544217687,0.3401360544217687,0.3401360544217687,0.3401360544217687,0.3401360544217687,0.3401360544217687,0.3401360544217687,0.3401360544217687,0.3401360544217687,0.3401360544217687,0.3401360544217687,0.3401360544217687,0.3401360544217687,0.3401360544217687,0.3401360544217687,0.3401360544217687,0.3401360544217687,0.3401360544217687,0.3401360544217687,0.3401360544217687,0.3401360544217687,0.3401360544217687,0.3401360544217687,0.3401360544217687,0.3401360544217687,0.3435374149659864,0.35374149659863946,0.3673469387755102,0.3673469387755102,0.3673469387755102,0.3673469387755102,0.3673469387755102,0.3673469387755102,0.3673469387755102,0.3673469387755102,0.3673469387755102,0.3673469387755102,0.3673469387755102,0.3673469387755102,0.3673469387755102,0.3673469387755102,0.37755102040816324,0.37755102040816324,0.3877551020408163,0.3979591836734694,0.41496598639455784,0.42517006802721086,0.43537414965986393,0.4557823129251701,0.46258503401360546,0.47278911564625853,0.4931972789115646,0.5034013605442177,0.5102040816326531,0.5204081632653061,0.5340136054421769,0.5374149659863946,0.5374149659863946,0.5374149659863946,0.5374149659863946,0.5374149659863946,0.5374149659863946,0.5374149659863946,0.5374149659863946,0.5374149659863946,0.5374149659863946,0.5374149659863946,0.5374149659863946,0.5374149659863946,0.5374149659863946,0.5374149659863946,0.5374149659863946,0.5374149659863946,0.5374149659863946,0.5374149659863946,0.5374149659863946,0.5374149659863946,0.5374149659863946,0.5374149659863946,0.5374149659863946,0.5374149659863946,0.5374149659863946,0.5374149659863946,0.5374149659863946,0.5374149659863946,0.5374149659863946,0.5374149659863946,0.5374149659863946,0.5374149659863946,0.5374149659863946,0.5374149659863946,0.5374149659863946,0.5374149659863946,0.5374149659863946,0.5374149659863946,0.5374149659863946,0.5374149659863946,0.5374149659863946,0.5374149659863946,0.5374149659863946,0.5238095238095238,0.5034013605442177,0.45918367346938777,0.40476190476190477,0.35374149659863946,0.3435374149659864,0.3435374149659864,0.3435374149659864,0.3435374149659864,0.3435374149659864,0.3435374149659864,0.3435374149659864,0.3435374149659864,0.3435374149659864,0.3435374149659864,0.3435374149659864,0.3435374149659864,0.3435374149659864,0.3435374149659864,0.3435374149659864,0.3435374149659864,0.3435374149659864,0.3435374149659864,0.3435374149659864,0.3435374149659864,0.3435374149659864,0.3435374149659864,0.3435374149659864,0.3435374149659864,0.3435374149659864,0.3435374149659864,0.3435374149659864,0.3435374149659864,0.3435374149659864,0.3435374149659864,0.3435374149659864,0.3435374149659864,0.3435374149659864,0.3435374149659864,0.3435374149659864,0.3435374149659864,0.3435374149659864,0.3435374149659864,0.3435374149659864,0.3435374149659864,0.3435374149659864,0.3435374149659864,0.3435374149659864,0.3435374149659864,0.3435374149659864,0.3435374149659864,0.3435374149659864,0.3435374149659864,0.3435374149659864,0.3435374149659864,0.3435374149659864,0.3435374149659864,0.3435374149659864,0.3435374149659864,0.3435374149659864,0.3435374149659864,0.3435374149659864,0.3435374149659864,0.3435374149659864,0.3435374149659864,0.3435374149659864,0.3435374149659864,0.3435374149659864,0.3435374149659864,0.3435374149659864,0.3435374149659864,0.3435374149659864,0.3435374149659864,0.3435374149659864,0.3435374149659864,0.3299319727891156,0.3129251700680272,0.2891156462585034,0.2789115646258503,0.2585034013605442,0.25170068027210885,0.23129251700680273,0.21768707482993196,0.20748299319727892,0.19387755102040816,0.19047619047619047,0.1836734693877551,0.1836734693877551,0.17006802721088435,0.16326530612244897,0.15306122448979592,0.14285714285714285,0.13945578231292516,0.1292517006802721,0.1292517006802721,0.12244897959183673,0.12244897959183673,0.10884353741496598,0.10884353741496598,0.10204081632653061,0.10204081632653061,0.10204081632653061,0.09183673469387756,0.09183673469387756,0.08163265306122448,0.08163265306122448,0.07482993197278912,0.07482993197278912,0.07482993197278912,0.07482993197278912,0.07482993197278912,0.07482993197278912,0.07482993197278912,0.07482993197278912,0.06462585034013606,0.06462585034013606,0.06462585034013606,0.06462585034013606,0.05442176870748299,0.05442176870748299,0.05442176870748299,0.05442176870748299,0.05442176870748299,0.05442176870748299,0.05442176870748299,0.05442176870748299,0.047619047619047616,0.047619047619047616,0.03741496598639456,0.03741496598639456,0.03741496598639456,0.03741496598639456,0.03741496598639456,0.03741496598639456,0.03741496598639456,0.03741496598639456,0.03741496598639456,0.03741496598639456,0.03741496598639456,0.03741496598639456,0.03741496598639456,0.03741496598639456,0.03741496598639456,0.03741496598639456,0.03741496598639456,0.03741496598639456,0.03741496598639456,0.03741496598639456,0.03741496598639456,0.03741496598639456,0.03741496598639456,0.03741496598639456,0.03741496598639456,0.03741496598639456,0.03741496598639456,0.03741496598639456,0.03741496598639456,0.03741496598639456,0.03741496598639456,0.03741496598639456,0.03741496598639456,0.03741496598639456,0.03741496598639456,0.03741496598639456,0.03741496598639456,0.03741496598639456,0.03741496598639456,0.03741496598639456,0.03741496598639456,0.03741496598639456,0.03741496598639456,0.03741496598639456,0.03741496598639456,0.03741496598639456,0.03741496598639456,0.03741496598639456,0.03741496598639456,0.03741496598639456,0.03741496598639456,0.03741496598639456,0.03741496598639456,0.03741496598639456,0.03741496598639456,0.03741496598639456,0.03741496598639456,0.03741496598639456,0.03741496598639456,0.03741496598639456,0.03741496598639456,0.03741496598639456,0.03741496598639456,0.03741496598639456,0.03741496598639456,0.03741496598639456,0.03741496598639456,0.03741496598639456,0.03741496598639456,0.03741496598639456,0.03741496598639456,0.03741496598639456,0.03741496598639456,0.03741496598639456,0.03741496598639456,0.03741496598639456,0.03741496598639456,0.04081632653061224,0.05442176870748299,0.08843537414965986,0.1292517006802721,0.16326530612244897,0.19387755102040816,0.23129251700680273,0.2585034013605442,0.272108843537415,0.2789115646258503,0.2857142857142857,0.2857142857142857,0.2857142857142857,0.2857142857142857,0.2857142857142857,0.2857142857142857,0.2857142857142857,0.2857142857142857,0.2857142857142857,0.2857142857142857,0.2857142857142857,0.2857142857142857,0.2857142857142857,0.2857142857142857,0.2857142857142857,0.2857142857142857,0.2857142857142857,0.2857142857142857,0.2857142857142857,0.2857142857142857,0.2857142857142857,0.2857142857142857,0.2857142857142857,0.2857142857142857,0.2857142857142857,0.2857142857142857,0.2857142857142857,0.2857142857142857,0.2857142857142857,0.2857142857142857,0.2857142857142857,0.2857142857142857,0.2857142857142857,0.2857142857142857,0.2857142857142857,0.2857142857142857,0.2857142857142857,0.2857142857142857,0.2789115646258503,0.2755102040816326,0.272108843537415,0.272108843537415,0.2619047619047619,0.2619047619047619,0.2619047619047619,0.2619047619047619,0.2619047619047619,0.25170068027210885,0.24489795918367346,0.24489795918367346,0.24489795918367346,0.24489795918367346,0.24489795918367346,0.24489795918367346,0.24489795918367346,0.24489795918367346,0.24489795918367346,0.24489795918367346,0.24489795918367346,0.24489795918367346,0.24489795918367346,0.24489795918367346,0.24489795918367346,0.24489795918367346,0.24489795918367346,0.24489795918367346,0.24489795918367346,0.24489795918367346,0.24489795918367346,0.24489795918367346,0.24489795918367346,0.24489795918367346,0.24489795918367346,0.2619047619047619,0.272108843537415,0.2789115646258503,0.2925170068027211,0.29931972789115646,0.29931972789115646,0.30952380952380953,0.30952380952380953,0.30952380952380953,0.3197278911564626,0.3197278911564626,0.3197278911564626,0.3197278911564626,0.3197278911564626,0.3197278911564626,0.3197278911564626,0.3197278911564626,0.3197278911564626,0.3197278911564626,0.3129251700680272,0.3129251700680272,0.30272108843537415,0.30272108843537415,0.30272108843537415,0.2925170068027211,0.2925170068027211,0.2789115646258503,0.272108843537415,0.2619047619047619,0.2619047619047619,0.2585034013605442,0.24829931972789115,0.23129251700680273,0.2108843537414966,0.20068027210884354,0.19047619047619047,0.19047619047619047,0.1836734693877551,0.17006802721088435,0.17006802721088435,0.16326530612244897,0.14625850340136054,0.14625850340136054,0.1360544217687075,0.1360544217687075,0.1360544217687075,0.1360544217687075,0.1360544217687075,0.1360544217687075,0.1360544217687075,0.1360544217687075,0.1360544217687075,0.1360544217687075,0.1360544217687075,0.1360544217687075,0.1360544217687075,0.1360544217687075,0.1360544217687075,0.1360544217687075,0.1360544217687075,0.1360544217687075,0.1360544217687075,0.1360544217687075,0.1360544217687075,0.1360544217687075,0.1360544217687075,0.1360544217687075,0.1360544217687075,0.1360544217687075,0.1360544217687075,0.1360544217687075,0.1360544217687075,0.1360544217687075,0.1360544217687075,0.1360544217687075,0.1360544217687075,0.1360544217687075,0.1360544217687075,0.1360544217687075,0.1360544217687075,0.1360544217687075,0.1360544217687075,0.1360544217687075,0.1360544217687075,0.1360544217687075,0.1360544217687075,0.1360544217687075,0.1360544217687075,0.1360544217687075,0.1360544217687075,0.1360544217687075,0.1360544217687075,0.1360544217687075,0.1360544217687075,0.1360544217687075,0.1360544217687075,0.1360544217687075,0.1360544217687075,0.1360544217687075,0.1360544217687075,0.1360544217687075,0.1360544217687075,0.1360544217687075,0.1360544217687075,0.1360544217687075,0.1360544217687075,0.1360544217687075,0.1360544217687075,0.1360544217687075,0.1360544217687075,0.1360544217687075,0.1360544217687075,0.1360544217687075,0.1360544217687075,0.1360544217687075,0.1360544217687075,0.1360544217687075,0.1360544217687075,0.1360544217687075,0.1360544217687075,0.1360544217687075,0.1360544217687075,0.1360544217687075,0.1360544217687075,0.14285714285714285,0.1564625850340136,0.16326530612244897,0.16326530612244897,0.1836734693877551,0.19387755102040816,0.20408163265306123,0.2108843537414966,0.22108843537414966,0.23129251700680273,0.23129251700680273,0.23809523809523808,0.24829931972789115,0.2585034013605442,0.2585034013605442,0.2755102040816326,0.2925170068027211,0.3129251700680272,0.3469387755102041,0.3877551020408163,0.45918367346938777,0.5510204081632653,0.5986394557823129,0.6292517006802721,0.6394557823129252,0.6598639455782312,0.6632653061224489,0.6666666666666666,0.673469387755102,0.6836734693877551,0.7006802721088435,0.7074829931972789,0.7278911564625851,0.7346938775510204,0.7448979591836735,0.7517006802721088,0.7619047619047619,0.7687074829931972,0.7789115646258503,0.8027210884353742,0.8299319727891157,0.8571428571428571,0.8741496598639455,0.8843537414965986,0.8843537414965986,0.8843537414965986,0.8843537414965986,0.8843537414965986,0.891156462585034,0.9013605442176871,0.9115646258503401,0.9183673469387755,0.9183673469387755,0.9387755102040817,0.9387755102040817,0.9625850340136054,0.9965986394557823,1.0272108843537415,1.0408163265306123,1.0408163265306123,1.0510204081632653,1.0510204081632653,1.0612244897959184,1.0680272108843538,1.0782312925170068,1.0782312925170068,1.08843537414966,1.0952380952380953,1.0952380952380953,1.0952380952380953,1.0952380952380953,1.1020408163265305,1.1122448979591837,1.1122448979591837,1.1224489795918366,1.1224489795918366,1.1224489795918366,1.1224489795918366,1.1224489795918366,1.1224489795918366,1.1224489795918366,1.1224489795918366,1.1224489795918366,1.1224489795918366,1.1224489795918366,1.129251700680272,1.129251700680272,1.129251700680272,1.129251700680272,1.129251700680272,1.129251700680272,1.129251700680272,1.129251700680272,1.129251700680272,1.129251700680272,1.129251700680272,1.129251700680272,1.129251700680272,1.129251700680272,1.129251700680272,1.129251700680272,1.129251700680272,1.129251700680272,1.129251700680272,1.129251700680272,1.129251700680272,1.129251700680272,1.129251700680272,1.129251700680272,1.129251700680272,1.1224489795918366,1.1156462585034013,1.0918367346938775,1.0748299319727892,1.0510204081632653,1.0272108843537415,1.0068027210884354,0.9931972789115646,0.9693877551020408,0.9387755102040817,0.9115646258503401,0.8843537414965986,0.8605442176870748,0.8435374149659864,0.8163265306122449,0.7959183673469388,0.7891156462585034,0.7789115646258503,0.7687074829931972,0.7619047619047619,0.7448979591836735,0.7380952380952381,0.7278911564625851,0.7278911564625851,0.7278911564625851,0.7278911564625851,0.7278911564625851,0.7278911564625851,0.7278911564625851,0.7278911564625851,0.7278911564625851,0.7278911564625851,0.7346938775510204,0.7585034013605442,0.8129251700680272,0.8435374149659864,0.8639455782312925,0.8809523809523809,0.891156462585034,0.891156462585034,0.891156462585034,0.891156462585034,0.891156462585034,0.891156462585034,0.891156462585034,0.891156462585034,0.891156462585034,0.891156462585034,0.891156462585034,0.891156462585034,0.891156462585034,0.8843537414965986,0.8843537414965986,0.8843537414965986,0.8843537414965986,0.8843537414965986,0.8843537414965986,0.8843537414965986,0.8843537414965986,0.891156462585034,0.9081632653061225,0.9251700680272109,0.9387755102040817,0.9659863945578231,0.9659863945578231,0.9659863945578231,0.9659863945578231,0.9659863945578231,0.9761904761904762,0.9761904761904762,0.9761904761904762,0.9761904761904762,0.9761904761904762,0.9761904761904762,0.9761904761904762,0.9761904761904762,0.9761904761904762,0.9761904761904762,0.9761904761904762,0.9761904761904762,0.9761904761904762,0.9761904761904762,0.9761904761904762,0.9761904761904762,0.9761904761904762,0.9761904761904762,0.9761904761904762,0.9761904761904762,0.9761904761904762,0.9761904761904762,0.9761904761904762,0.9761904761904762,0.9761904761904762,0.9761904761904762,0.9761904761904762,0.9761904761904762,0.9761904761904762,0.9761904761904762,0.9761904761904762,0.9761904761904762,0.9761904761904762,0.9761904761904762,0.9761904761904762,0.9761904761904762,0.9761904761904762,0.9761904761904762,0.9761904761904762,0.9761904761904762,0.9761904761904762,0.9761904761904762,0.9761904761904762,0.9761904761904762,0.9761904761904762,0.9761904761904762,0.9761904761904762,0.9727891156462585,0.9523809523809523,0.9285714285714286,0.8707482993197279,0.7959183673469388,0.673469387755102,0.6122448979591837,0.5816326530612245,0.5578231292517006,0.5476190476190477,0.5408163265306123,0.5408163265306123,0.5306122448979592,0.5306122448979592,0.5306122448979592,0.5306122448979592,0.5306122448979592,0.5306122448979592,0.5306122448979592,0.5306122448979592,0.5306122448979592,0.5306122448979592,0.5306122448979592,0.5306122448979592,0.5306122448979592,0.5306122448979592,0.5306122448979592,0.5306122448979592,0.5306122448979592,0.5306122448979592,0.5306122448979592,0.5306122448979592,0.5306122448979592,0.5306122448979592,0.5306122448979592,0.5306122448979592,0.5306122448979592,0.5306122448979592,0.5306122448979592,0.5306122448979592,0.5306122448979592,0.5306122448979592,0.5306122448979592,0.5306122448979592,0.5306122448979592,0.5306122448979592,0.5306122448979592,0.5306122448979592,0.5306122448979592,0.5306122448979592,0.5306122448979592,0.5306122448979592,0.5306122448979592,0.5306122448979592,0.5306122448979592,0.5306122448979592,0.5306122448979592,0.5306122448979592,0.5306122448979592,0.5306122448979592,0.5306122448979592,0.5306122448979592,0.5306122448979592,0.5306122448979592,0.5306122448979592,0.5306122448979592,0.5306122448979592,0.5306122448979592,0.5306122448979592,0.5306122448979592,0.5306122448979592,0.5306122448979592,0.5306122448979592,0.5306122448979592,0.5306122448979592,0.5306122448979592,0.5306122448979592,0.5306122448979592,0.5306122448979592,0.5306122448979592,0.5306122448979592,0.5306122448979592,0.5306122448979592,0.5306122448979592,0.5306122448979592,0.5306122448979592,0.5306122448979592,0.5306122448979592,0.5306122448979592,0.5306122448979592,0.5306122448979592],"y":[-2.3888888888888884,-2.3888888888888884,-2.3888888888888884,-2.3888888888888884,-2.3888888888888884,-2.3888888888888884,-2.3888888888888884,-2.3888888888888884,-2.3888888888888884,-2.3888888888888884,-2.3888888888888884,-2.3888888888888884,-2.3888888888888884,-2.3888888888888884,-2.3888888888888884,-2.3888888888888884,-2.3888888888888884,-2.3888888888888884,-2.3888888888888884,-2.3888888888888884,-2.3888888888888884,-2.3888888888888884,-2.3888888888888884,-2.3888888888888884,-2.3888888888888884,-2.3888888888888884,-2.3888888888888884,-2.3888888888888884,-2.3888888888888884,-2.3888888888888884,-2.3888888888888884,-2.3888888888888884,-2.3888888888888884,-2.3888888888888884,-2.3888888888888884,-2.3888888888888884,-2.3888888888888884,-2.3888888888888884,-2.3888888888888884,-2.3888888888888884,-2.3888888888888884,-2.3888888888888884,-2.3888888888888884,-2.3888888888888884,-2.3888888888888884,-2.3888888888888884,-2.3888888888888884,-2.3888888888888884,-2.3888888888888884,-2.3888888888888884,-2.3888888888888884,-2.3888888888888884,-2.3888888888888884,-2.3888888888888884,-2.3888888888888884,-2.3888888888888884,-2.3888888888888884,-2.3888888888888884,-2.3888888888888884,-2.3888888888888884,-2.3888888888888884,-2.3888888888888884,-2.3888888888888884,-2.3888888888888884,-2.3888888888888884,-2.3888888888888884,-2.3888888888888884,-2.3888888888888884,-2.3888888888888884,-2.3888888888888884,-2.3888888888888884,-2.3888888888888884,-2.3888888888888884,-2.3888888888888884,-2.3888888888888884,-2.3888888888888884,-2.3888888888888884,-2.3888888888888884,-2.3888888888888884,-2.3888888888888884,-2.3888888888888884,-2.3888888888888884,-2.3888888888888884,-2.3888888888888884,-2.3888888888888884,-2.3888888888888884,-2.3888888888888884,-2.3888888888888884,-2.3888888888888884,-2.3888888888888884,-2.3888888888888884,-2.3888888888888884,-2.3888888888888884,-2.3888888888888884,-2.3888888888888884,-2.3888888888888884,-2.3888888888888884,-2.3888888888888884,-2.3888888888888884,-2.3888888888888884,-2.3888888888888884,-2.3888888888888884,-2.3888888888888884,-2.3888888888888884,-2.3888888888888884,-2.3888888888888884,-2.3888888888888884,-2.3888888888888884,-2.3888888888888884,-2.3888888888888884,-2.3888888888888884,-2.3888888888888884,-2.3888888888888884,-2.3888888888888884,-2.3888888888888884,-2.3888888888888884,-2.3888888888888884,-2.3888888888888884,-2.3888888888888884,-2.3888888888888884,-2.3888888888888884,-2.3888888888888884,-2.3888888888888884,-2.3888888888888884,-2.3888888888888884,-2.3888888888888884,-2.3888888888888884,-2.3888888888888884,-2.3888888888888884,-2.3888888888888884,-2.3888888888888884,-2.3888888888888884,-2.3888888888888884,-2.3888888888888884,-2.3888888888888884,-2.3888888888888884,-2.3888888888888884,-2.3888888888888884,-2.3888888888888884,-2.3888888888888884,-2.3888888888888884,-2.3888888888888884,-2.3888888888888884,-2.3888888888888884,-2.3888888888888884,-2.3888888888888884,-2.3888888888888884,-2.3888888888888884,-2.3888888888888884,-2.3888888888888884,-2.3888888888888884,-2.3888888888888884,-2.3888888888888884,-2.3888888888888884,-2.3888888888888884,-2.3888888888888884,-2.3888888888888884,-2.3888888888888884,-2.3888888888888884,-2.3888888888888884,-2.3888888888888884,-2.3888888888888884,-2.3888888888888884,-2.3888888888888884,-2.3888888888888884,-2.3888888888888884,-2.3888888888888884,-2.3888888888888884,-2.3888888888888884,-2.3888888888888884,-2.3888888888888884,-2.3888888888888884,-2.3888888888888884,-2.3888888888888884,-2.3888888888888884,-2.3888888888888884,-2.3888888888888884,1.0777777777777775,1.1444444444444442,1.2206349206349203,1.2587301587301583,1.3158730158730154,1.325396825396825,1.3444444444444439,1.3730158730158726,1.3730158730158726,1.3730158730158726,1.4396825396825392,1.487301587301587,1.5444444444444438,1.6206349206349202,1.6396825396825392,1.6396825396825392,1.6492063492063487,1.6492063492063487,1.6492063492063487,1.6492063492063487,1.6492063492063487,1.6492063492063487,1.6492063492063487,1.6492063492063487,1.6492063492063487,1.6492063492063487,1.6492063492063487,1.6492063492063487,1.6492063492063487,1.6492063492063487,1.6492063492063487,1.6492063492063487,1.6492063492063487,1.6492063492063487,1.6492063492063487,1.6492063492063487,1.6492063492063487,1.6492063492063487,1.6492063492063487,1.6492063492063487,1.6492063492063487,1.6492063492063487,1.6492063492063487,1.6492063492063487,1.6492063492063487,1.6492063492063487,1.6492063492063487,1.6492063492063487,1.6492063492063487,1.6492063492063487,1.6492063492063487,1.6492063492063487,1.6492063492063487,1.6492063492063487,1.6492063492063487,1.6492063492063487,1.6492063492063487,1.6492063492063487,1.6492063492063487,1.6492063492063487,1.6492063492063487,1.6492063492063487,1.6492063492063487,1.6492063492063487,1.6492063492063487,1.6492063492063487,1.6492063492063487,1.6492063492063487,1.6492063492063487,1.6492063492063487,1.6492063492063487,1.6492063492063487,1.6492063492063487,1.6492063492063487,1.6492063492063487,1.6492063492063487,1.6492063492063487,1.6492063492063487,1.6492063492063487,1.6492063492063487,1.6492063492063487,1.6492063492063487,1.6492063492063487,1.6492063492063487,1.6492063492063487,1.6492063492063487,1.6492063492063487,1.6492063492063487,1.6492063492063487,1.6492063492063487,1.6492063492063487,1.6492063492063487,1.6492063492063487,1.6492063492063487,1.6492063492063487,1.6492063492063487,1.6492063492063487,1.6492063492063487,1.6492063492063487,1.6492063492063487,1.6492063492063487,1.6492063492063487,1.6492063492063487,1.6492063492063487,1.6492063492063487,1.6492063492063487,1.6492063492063487,1.6492063492063487,1.6492063492063487,1.6492063492063487,1.6492063492063487,1.6492063492063487,1.6492063492063487,1.6492063492063487,1.6492063492063487,1.6492063492063487,1.6492063492063487,1.6492063492063487,1.6492063492063487,1.6492063492063487,1.6492063492063487,1.6492063492063487,1.6301587301587297,1.6301587301587297,1.6301587301587297,1.6301587301587297,1.6301587301587297,1.6301587301587297,1.6301587301587297,1.6301587301587297,1.6492063492063487,1.6777777777777771,1.6968253968253963,1.7539682539682535,1.7730158730158725,1.801587301587301,1.801587301587301,1.801587301587301,1.801587301587301,1.801587301587301,1.801587301587301,1.801587301587301,1.801587301587301,1.801587301587301,1.801587301587301,1.801587301587301,1.801587301587301,1.8301587301587297,1.8492063492063486,1.8492063492063486,1.8492063492063486,1.8492063492063486,1.8492063492063486,1.8492063492063486,1.8492063492063486,1.8492063492063486,1.8492063492063486,1.8492063492063486,1.8492063492063486,1.8492063492063486,1.8492063492063486,1.8492063492063486,1.8492063492063486,1.8111111111111104,1.782539682539682,1.782539682539682,1.782539682539682,1.782539682539682,1.782539682539682,1.782539682539682,1.782539682539682,1.782539682539682,1.782539682539682,1.782539682539682,1.782539682539682,1.782539682539682,1.782539682539682,1.782539682539682,1.782539682539682,1.782539682539682,1.782539682539682,1.782539682539682,1.782539682539682,1.801587301587301,1.801587301587301,1.801587301587301,1.801587301587301,1.801587301587301,1.801587301587301,1.801587301587301,1.801587301587301,1.801587301587301,1.801587301587301,1.801587301587301,1.801587301587301,1.801587301587301,1.801587301587301,1.801587301587301,1.801587301587301,1.801587301587301,1.801587301587301,1.801587301587301,1.801587301587301,1.801587301587301,1.801587301587301,1.801587301587301,1.801587301587301,1.801587301587301,1.801587301587301,1.801587301587301,1.801587301587301,1.801587301587301,1.801587301587301,1.801587301587301,1.801587301587301,1.801587301587301,1.801587301587301,1.801587301587301,1.801587301587301,1.801587301587301,1.801587301587301,1.801587301587301,1.801587301587301,1.801587301587301,1.801587301587301,1.801587301587301,1.801587301587301,1.801587301587301,1.801587301587301,1.801587301587301,1.801587301587301,1.801587301587301,1.801587301587301,1.801587301587301,1.801587301587301,1.801587301587301,1.801587301587301,1.801587301587301,1.801587301587301,1.801587301587301,1.801587301587301,1.801587301587301,1.801587301587301,1.801587301587301,1.801587301587301,1.801587301587301,1.801587301587301,1.801587301587301,1.801587301587301,1.801587301587301,1.801587301587301,1.801587301587301,1.801587301587301,1.801587301587301,1.801587301587301,1.801587301587301,1.801587301587301,1.801587301587301,1.801587301587301,1.801587301587301,1.801587301587301,1.801587301587301,1.801587301587301,1.801587301587301,1.801587301587301,1.801587301587301,1.801587301587301,1.801587301587301,1.801587301587301,1.801587301587301,1.801587301587301,1.801587301587301,1.801587301587301,1.801587301587301,1.801587301587301,1.801587301587301,1.801587301587301,1.801587301587301,1.801587301587301,1.801587301587301,1.801587301587301,1.801587301587301,1.801587301587301,1.801587301587301,1.801587301587301,1.801587301587301,1.801587301587301,1.801587301587301,1.801587301587301,1.801587301587301,1.801587301587301,1.801587301587301,1.801587301587301,1.801587301587301,1.801587301587301,1.801587301587301,1.801587301587301,1.801587301587301,1.801587301587301,1.801587301587301,1.801587301587301,1.801587301587301,1.801587301587301,1.801587301587301,1.801587301587301,1.801587301587301,1.801587301587301,1.801587301587301,1.801587301587301,1.801587301587301,1.801587301587301,1.801587301587301,1.801587301587301,1.801587301587301,1.801587301587301,1.801587301587301,1.801587301587301,1.801587301587301,1.801587301587301,1.801587301587301,1.801587301587301,1.801587301587301,1.801587301587301,1.801587301587301,1.801587301587301,1.801587301587301,1.801587301587301,1.801587301587301,1.801587301587301,1.801587301587301,1.801587301587301,1.801587301587301,1.801587301587301,1.801587301587301,1.801587301587301,1.801587301587301,1.801587301587301,1.801587301587301,1.801587301587301,1.801587301587301,1.801587301587301,1.801587301587301,1.801587301587301,1.801587301587301,1.801587301587301,1.801587301587301,1.801587301587301,1.801587301587301,1.801587301587301,1.801587301587301,1.801587301587301,1.801587301587301,1.801587301587301,1.801587301587301,1.801587301587301,1.801587301587301,1.801587301587301,1.801587301587301,1.801587301587301,1.801587301587301,1.801587301587301,1.801587301587301,1.801587301587301,1.801587301587301,1.801587301587301,1.801587301587301,1.801587301587301,1.801587301587301,1.801587301587301,1.801587301587301,1.801587301587301,1.801587301587301,1.801587301587301,1.801587301587301,1.801587301587301,1.801587301587301,1.801587301587301,1.801587301587301,1.801587301587301,1.801587301587301,1.801587301587301,1.801587301587301,1.801587301587301,1.801587301587301,1.801587301587301,1.801587301587301,1.801587301587301,1.801587301587301,1.801587301587301,1.801587301587301,1.801587301587301,1.801587301587301,1.801587301587301,1.7730158730158725,1.6968253968253963,1.6682539682539677,1.6396825396825392,1.601587301587301,1.5730158730158725,1.5730158730158725,1.5349206349206344,1.5063492063492059,1.4587301587301582,1.4587301587301582,1.4111111111111105,1.3539682539682536,1.3158730158730154,1.287301587301587,1.2587301587301583,1.2396825396825393,1.1730158730158726,1.1539682539682536,1.1539682539682536,1.1539682539682536,1.1539682539682536,1.125396825396825,1.106349206349206,1.0777777777777775,1.0777777777777775,1.0777777777777775,1.0777777777777775,1.0492063492063488,1.0015873015873011,0.9158730158730155,0.8396825396825394,0.8015873015873013,0.7634920634920632,0.7634920634920632,0.7634920634920632,0.7349206349206346,0.7349206349206346,0.7063492063492061,0.7063492063492061,0.6873015873015871,0.6873015873015871,0.6587301587301585,0.6396825396825394,0.6111111111111108,0.5539682539682538,0.5349206349206347,0.5253968253968252,0.4968253968253966,0.4777777777777776,0.4777777777777776,0.4587301587301585,0.43015873015872996,0.43015873015872996,0.43015873015872996,0.43015873015872996,0.43015873015872996,0.43015873015872996,0.43015873015872996,0.43015873015872996,0.43015873015872996,0.43015873015872996,0.43015873015872996,0.43015873015872996,0.43015873015872996,0.43015873015872996,0.43015873015872996,0.43015873015872996,0.43015873015872996,0.43015873015872996,0.43015873015872996,0.43015873015872996,0.43015873015872996,0.4587301587301585,0.5444444444444442,0.6777777777777775,0.8587301587301585,1.0968253968253965,1.2111111111111106,1.2777777777777772,1.325396825396825,1.325396825396825,1.325396825396825,1.325396825396825,1.325396825396825,1.325396825396825,1.325396825396825,1.325396825396825,1.325396825396825,1.325396825396825,1.325396825396825,1.325396825396825,1.325396825396825,1.325396825396825,1.325396825396825,1.325396825396825,1.325396825396825,1.325396825396825,1.325396825396825,1.325396825396825,1.325396825396825,1.325396825396825,1.3539682539682536,1.3539682539682536,1.3539682539682536,1.3539682539682536,1.3539682539682536,1.3539682539682536,1.3539682539682536,1.3539682539682536,1.3539682539682536,1.3539682539682536,1.3539682539682536,1.3539682539682536,1.3539682539682536,1.3539682539682536,1.3539682539682536,1.3539682539682536,1.3539682539682536,1.3539682539682536,1.3539682539682536,1.3539682539682536,1.3539682539682536,1.3539682539682536,1.3539682539682536,1.3539682539682536,1.3539682539682536,1.3539682539682536,1.3539682539682536,1.3539682539682536,1.3539682539682536,1.3539682539682536,1.3539682539682536,1.3539682539682536,1.3539682539682536,1.3539682539682536,1.3539682539682536,1.3539682539682536,1.3539682539682536,1.3539682539682536,1.3539682539682536,1.3539682539682536,1.3539682539682536,1.3539682539682536,1.3539682539682536,1.3539682539682536,1.3539682539682536,1.3539682539682536,1.3539682539682536,1.3539682539682536,1.3539682539682536,1.3539682539682536,1.3539682539682536,1.3539682539682536,1.3539682539682536,1.3539682539682536,1.3539682539682536,1.3539682539682536,1.3539682539682536,1.3539682539682536,1.3539682539682536,1.3539682539682536,1.3539682539682536,1.3539682539682536,1.3539682539682536,1.3539682539682536,1.3539682539682536,1.3539682539682536,1.3539682539682536,1.3539682539682536,1.3539682539682536,1.3539682539682536,1.3539682539682536,1.3539682539682536,1.3539682539682536,1.3539682539682536,1.3539682539682536,1.3539682539682536,1.3539682539682536,1.3539682539682536,1.3539682539682536,1.3539682539682536,1.3539682539682536,1.3539682539682536,1.3539682539682536,1.3539682539682536,1.3539682539682536,1.3539682539682536,1.3539682539682536,1.3539682539682536,1.3539682539682536,1.3539682539682536,1.3539682539682536,1.3539682539682536,1.3539682539682536,1.3539682539682536,1.3539682539682536,1.3539682539682536,1.3539682539682536,1.3539682539682536,1.3539682539682536,1.3539682539682536,1.3539682539682536,1.3539682539682536,1.3539682539682536,1.3158730158730154,1.1444444444444442,0.9539682539682536,0.6111111111111108,0.3444444444444443,0.0968253968253967,-0.14126984126984132,-0.2746031746031746,-0.32222222222222224,-0.3603174603174603,-0.3984126984126984,-0.45555555555555555,-0.4746031746031746,-0.4746031746031746,-0.4746031746031746,-0.4746031746031746,-0.4746031746031746,-0.4746031746031746,-0.4746031746031746,-0.4746031746031746,-0.4746031746031746,-0.3984126984126984,-0.35079365079365077,-0.3031746031746032,-0.24603174603174605,-0.20793650793650797,-0.16031746031746036,-0.1317460317460318,-0.07460317460317467,-0.02698412698412707,0.0015873015873014967,0.030158730158730062,0.0968253968253967,0.0968253968253967,0.0968253968253967,0.11587301587301575,0.11587301587301575,0.11587301587301575,0.11587301587301575,0.11587301587301575,0.11587301587301575,0.11587301587301575,0.11587301587301575,0.11587301587301575,0.11587301587301575,0.11587301587301575,0.11587301587301575,0.11587301587301575,0.11587301587301575,0.11587301587301575,0.11587301587301575,0.11587301587301575,0.11587301587301575,0.11587301587301575,0.11587301587301575,0.11587301587301575,0.11587301587301575,0.11587301587301575,0.11587301587301575,0.11587301587301575,0.11587301587301575,0.11587301587301575,0.11587301587301575,0.11587301587301575,0.11587301587301575,0.11587301587301575,0.11587301587301575,0.11587301587301575,0.11587301587301575,0.11587301587301575,0.11587301587301575,0.11587301587301575,0.11587301587301575,0.11587301587301575,0.11587301587301575,0.1349206349206348,0.2682539682539681,0.4587301587301585,0.7253968253968252,1.0015873015873011,1.2301587301587298,1.5158730158730154,1.5920634920634915,1.5920634920634915,1.5920634920634915,1.5920634920634915,1.5920634920634915,1.5920634920634915,1.5920634920634915,1.5920634920634915,1.5920634920634915,1.5920634920634915,1.5920634920634915,1.5920634920634915,1.5920634920634915,1.5920634920634915,1.5920634920634915,1.5920634920634915,1.5920634920634915,1.5920634920634915,1.5920634920634915,1.5920634920634915,1.5920634920634915,1.5920634920634915,1.5920634920634915,1.5920634920634915,1.5920634920634915,1.5920634920634915,1.5920634920634915,1.5920634920634915,1.5920634920634915,1.5920634920634915,1.5920634920634915,1.5920634920634915,1.5920634920634915,1.5920634920634915,1.5920634920634915,1.5920634920634915,1.5920634920634915,1.5920634920634915,1.5920634920634915,1.5920634920634915,1.5920634920634915,1.5920634920634915,1.5920634920634915,1.5920634920634915,1.5920634920634915,1.5920634920634915,1.5920634920634915,1.5920634920634915,1.5920634920634915,1.5920634920634915,1.5920634920634915,1.5920634920634915,1.5920634920634915,1.5920634920634915,1.5920634920634915,1.5920634920634915,1.5920634920634915,1.5920634920634915,1.5920634920634915,1.5920634920634915,1.5920634920634915,1.5920634920634915,1.5920634920634915,1.5920634920634915,1.5920634920634915,1.5920634920634915,1.5920634920634915,1.5920634920634915,1.5920634920634915,1.5920634920634915,1.5920634920634915,1.582539682539682,1.4968253968253964,1.4682539682539677,1.4206349206349203,1.3730158730158726,1.2968253968253964,1.2492063492063488,1.1920634920634916,1.1349206349206344,1.0968253968253965,1.0682539682539678,1.0396825396825393,0.9920634920634918,0.9539682539682536,0.8968253968253965,0.8206349206349203,0.7730158730158727,0.7253968253968252,0.6587301587301585,0.6206349206349204,0.6015873015873013,0.5158730158730156,0.4587301587301585,0.43968253968253945,0.4111111111111109,0.3634920634920633,0.30634920634920615,0.2682539682539681,0.21111111111111097,0.16349206349206336,0.1349206349206348,0.12539682539682528,0.11587301587301575,0.11587301587301575,0.11587301587301575,0.11587301587301575,0.11587301587301575,0.10634920634920624,0.07777777777777767,0.07777777777777767,0.07777777777777767,0.058730158730158626,0.058730158730158626,0.058730158730158626,0.058730158730158626,0.058730158730158626,0.058730158730158626,0.058730158730158626,0.058730158730158626,0.058730158730158626,0.058730158730158626,0.058730158730158626,0.030158730158730062,0.030158730158730062,0.030158730158730062,0.030158730158730062,0.030158730158730062,0.030158730158730062,0.030158730158730062,0.030158730158730062,0.030158730158730062,0.030158730158730062,0.030158730158730062,0.030158730158730062,0.030158730158730062,0.030158730158730062,0.030158730158730062,0.030158730158730062,0.030158730158730062,0.030158730158730062,0.030158730158730062,0.030158730158730062,0.030158730158730062,0.030158730158730062,0.030158730158730062,0.030158730158730062,0.030158730158730062,0.030158730158730062,0.030158730158730062,0.030158730158730062,0.030158730158730062,0.030158730158730062,0.030158730158730062,0.030158730158730062,0.030158730158730062,0.030158730158730062,0.030158730158730062,0.030158730158730062,0.030158730158730062,0.030158730158730062,0.030158730158730062,0.030158730158730062,0.030158730158730062,0.030158730158730062,0.030158730158730062,0.030158730158730062,0.030158730158730062,0.030158730158730062,0.030158730158730062,0.030158730158730062,0.030158730158730062,0.030158730158730062,0.030158730158730062,0.030158730158730062,0.030158730158730062,0.030158730158730062,0.030158730158730062,0.030158730158730062,0.030158730158730062,0.030158730158730062,0.030158730158730062,0.030158730158730062,0.030158730158730062,0.030158730158730062,0.030158730158730062,0.030158730158730062,0.030158730158730062,0.030158730158730062,0.030158730158730062,0.030158730158730062,0.030158730158730062,0.030158730158730062,0.030158730158730062,0.030158730158730062,0.030158730158730062,0.030158730158730062,0.030158730158730062,0.030158730158730062,0.030158730158730062,0.07777777777777767,0.17301587301587287,0.4015873015873014,0.6492063492063489,0.868253968253968,1.0682539682539678,1.3539682539682536,1.5730158730158725,1.7349206349206343,1.8873015873015866,1.9349206349206343,1.9539682539682532,1.9539682539682532,1.9539682539682532,1.9539682539682532,1.9539682539682532,1.9539682539682532,1.9539682539682532,1.9539682539682532,1.9539682539682532,1.9539682539682532,1.9539682539682532,1.9539682539682532,1.9539682539682532,1.9539682539682532,1.9539682539682532,1.9539682539682532,1.9539682539682532,1.9539682539682532,1.9539682539682532,1.9539682539682532,1.9539682539682532,1.9539682539682532,1.9539682539682532,1.9539682539682532,1.9539682539682532,1.9539682539682532,1.9539682539682532,1.9539682539682532,1.9539682539682532,1.9539682539682532,1.9539682539682532,1.9539682539682532,1.9539682539682532,1.9539682539682532,1.9539682539682532,1.9539682539682532,1.9539682539682532,1.9539682539682532,1.9444444444444438,1.9158730158730153,1.9158730158730153,1.8873015873015866,1.8873015873015866,1.8873015873015866,1.8873015873015866,1.8873015873015866,1.8873015873015866,1.8682539682539676,1.8682539682539676,1.8682539682539676,1.8682539682539676,1.8682539682539676,1.8682539682539676,1.8682539682539676,1.8682539682539676,1.8682539682539676,1.8682539682539676,1.8682539682539676,1.8682539682539676,1.8682539682539676,1.8682539682539676,1.8682539682539676,1.8682539682539676,1.8682539682539676,1.8682539682539676,1.8682539682539676,1.8682539682539676,1.8682539682539676,1.8682539682539676,1.8396825396825391,1.7920634920634915,1.7444444444444438,1.6587301587301582,1.6206349206349202,1.563492063492063,1.5158730158730154,1.487301587301587,1.4682539682539677,1.4396825396825392,1.4111111111111105,1.382539682539682,1.3444444444444439,1.3158730158730154,1.2587301587301583,1.2111111111111106,1.1444444444444442,1.1158730158730155,1.0492063492063488,0.9730158730158727,0.9444444444444441,0.8968253968253965,0.8587301587301585,0.8206349206349203,0.7920634920634918,0.7539682539682536,0.7063492063492061,0.668253968253968,0.6301587301587299,0.5349206349206347,0.4777777777777776,0.4587301587301585,0.43015873015872996,0.4015873015873014,0.35396825396825377,0.3158730158730157,0.2682539682539681,0.23015873015873,0.1920634920634919,0.1920634920634919,0.15396825396825384,0.10634920634920624,0.10634920634920624,0.0968253968253967,0.0492063492063491,0.0492063492063491,0.02063492063492054,0.02063492063492054,0.02063492063492054,0.02063492063492054,0.02063492063492054,0.02063492063492054,0.02063492063492054,0.02063492063492054,0.02063492063492054,0.02063492063492054,0.02063492063492054,0.02063492063492054,0.02063492063492054,0.02063492063492054,0.02063492063492054,0.02063492063492054,0.02063492063492054,0.02063492063492054,0.02063492063492054,0.02063492063492054,0.02063492063492054,0.02063492063492054,0.02063492063492054,0.02063492063492054,0.02063492063492054,0.02063492063492054,0.02063492063492054,0.02063492063492054,0.02063492063492054,0.02063492063492054,0.02063492063492054,0.02063492063492054,0.02063492063492054,0.02063492063492054,0.02063492063492054,0.02063492063492054,0.02063492063492054,0.02063492063492054,0.02063492063492054,0.02063492063492054,0.02063492063492054,0.02063492063492054,0.02063492063492054,0.02063492063492054,0.02063492063492054,0.02063492063492054,0.02063492063492054,0.02063492063492054,0.02063492063492054,0.02063492063492054,0.02063492063492054,0.02063492063492054,0.02063492063492054,0.02063492063492054,0.02063492063492054,0.02063492063492054,0.02063492063492054,0.02063492063492054,0.02063492063492054,0.02063492063492054,0.02063492063492054,0.02063492063492054,0.02063492063492054,0.02063492063492054,0.02063492063492054,0.02063492063492054,0.02063492063492054,0.02063492063492054,0.02063492063492054,0.02063492063492054,0.02063492063492054,0.02063492063492054,0.02063492063492054,0.02063492063492054,0.02063492063492054,0.02063492063492054,0.02063492063492054,0.02063492063492054,0.02063492063492054,0.02063492063492054,0.03968253968253958,0.06825396825396815,0.0968253968253967,0.12539682539682528,0.15396825396825384,0.20158730158730145,0.2777777777777776,0.32539682539682524,0.3730158730158728,0.4015873015873014,0.43015873015872996,0.449206349206349,0.449206349206349,0.4777777777777776,0.5253968253968252,0.5253968253968252,0.5349206349206347,0.5730158730158728,0.5825396825396822,0.5825396825396822,0.5825396825396822,0.5825396825396822,0.5825396825396822,0.5730158730158728,0.5730158730158728,0.5730158730158728,0.5444444444444442,0.5444444444444442,0.5444444444444442,0.5444444444444442,0.5444444444444442,0.5444444444444442,0.5444444444444442,0.5444444444444442,0.5444444444444442,0.5444444444444442,0.5444444444444442,0.5444444444444442,0.5634920634920633,0.5634920634920633,0.5634920634920633,0.5634920634920633,0.5634920634920633,0.5634920634920633,0.5634920634920633,0.5634920634920633,0.5634920634920633,0.5634920634920633,0.5634920634920633,0.5634920634920633,0.5634920634920633,0.5634920634920633,0.5444444444444442,0.5444444444444442,0.5444444444444442,0.5444444444444442,0.5444444444444442,0.5634920634920633,0.5634920634920633,0.5634920634920633,0.5634920634920633,0.5634920634920633,0.5634920634920633,0.5634920634920633,0.5634920634920633,0.5634920634920633,0.5634920634920633,0.5634920634920633,0.5634920634920633,0.5634920634920633,0.5634920634920633,0.5634920634920633,0.5634920634920633,0.5444444444444442,0.5444444444444442,0.5158730158730156,0.5158730158730156,0.5158730158730156,0.5158730158730156,0.5158730158730156,0.5158730158730156,0.5158730158730156,0.5158730158730156,0.5158730158730156,0.5158730158730156,0.5158730158730156,0.5158730158730156,0.5158730158730156,0.5158730158730156,0.5158730158730156,0.5158730158730156,0.5158730158730156,0.5158730158730156,0.5158730158730156,0.5158730158730156,0.5158730158730156,0.5158730158730156,0.5158730158730156,0.5158730158730156,0.5158730158730156,0.5158730158730156,0.5158730158730156,0.5158730158730156,0.5158730158730156,0.5158730158730156,0.5158730158730156,0.5158730158730156,0.5158730158730156,0.5158730158730156,0.5158730158730156,0.5158730158730156,0.5158730158730156,0.5158730158730156,0.5730158730158728,0.5920634920634918,0.6206349206349204,0.6777777777777775,0.7158730158730156,0.7444444444444441,0.7730158730158727,0.8015873015873013,0.8111111111111108,0.868253968253968,0.9253968253968251,0.9634920634920632,0.9920634920634918,0.9920634920634918,1.0206349206349203,1.0206349206349203,1.0206349206349203,1.0206349206349203,1.0206349206349203,1.0301587301587298,1.0396825396825393,1.0396825396825393,1.0396825396825393,1.0396825396825393,1.0396825396825393,1.0396825396825393,1.0396825396825393,1.0396825396825393,1.0396825396825393,1.0396825396825393,1.0396825396825393,1.0396825396825393,1.0396825396825393,1.0396825396825393,1.0206349206349203,0.9920634920634918,0.9920634920634918,0.9920634920634918,0.9920634920634918,0.9920634920634918,0.9920634920634918,0.9920634920634918,0.9920634920634918,0.9920634920634918,0.9920634920634918,0.9920634920634918,0.9920634920634918,0.9920634920634918,0.9920634920634918,0.9920634920634918,0.9920634920634918,0.9920634920634918,0.9920634920634918,0.9920634920634918,0.9920634920634918,0.9920634920634918,0.9920634920634918,1.0111111111111108,1.0396825396825393,1.0492063492063488,1.0777777777777775,1.0777777777777775,1.0777777777777775,1.0777777777777775,1.0777777777777775,1.0777777777777775,1.106349206349206,1.106349206349206,1.106349206349206,1.106349206349206,1.106349206349206,1.106349206349206,1.106349206349206,1.106349206349206,1.106349206349206,1.106349206349206,1.106349206349206,1.106349206349206,1.106349206349206,1.106349206349206,1.106349206349206,1.106349206349206,1.106349206349206,1.106349206349206,1.106349206349206,1.106349206349206,1.106349206349206,1.106349206349206,1.106349206349206,1.106349206349206,1.106349206349206,1.106349206349206,1.106349206349206,1.106349206349206,1.106349206349206,1.106349206349206,1.106349206349206,1.106349206349206,1.106349206349206,1.106349206349206,1.106349206349206,1.106349206349206,1.106349206349206,1.106349206349206,1.106349206349206,1.106349206349206,1.106349206349206,1.106349206349206,1.106349206349206,1.106349206349206,1.106349206349206,1.106349206349206,1.125396825396825,1.1825396825396821,1.2492063492063488,1.325396825396825,1.3920634920634916,1.4777777777777772,1.6873015873015869,1.7920634920634915,1.8396825396825391,1.877777777777777,1.9063492063492058,1.9063492063492058,1.9063492063492058,1.9253968253968248,1.9253968253968248,1.9253968253968248,1.9253968253968248,1.9253968253968248,1.9253968253968248,1.9253968253968248,1.9253968253968248,1.9253968253968248,1.9253968253968248,1.9253968253968248,1.9253968253968248,1.9253968253968248,1.9253968253968248,1.9253968253968248,1.9253968253968248,1.9253968253968248,1.9253968253968248,1.9253968253968248,1.9253968253968248,1.9253968253968248,1.9253968253968248,1.9253968253968248,1.9253968253968248,1.9253968253968248,1.9253968253968248,1.9253968253968248,1.9253968253968248,1.9253968253968248,1.9253968253968248,1.9253968253968248,1.9253968253968248,1.9253968253968248,1.9253968253968248,1.9253968253968248,1.9253968253968248,1.9253968253968248,1.9253968253968248,1.9253968253968248,1.9253968253968248,1.9253968253968248,1.9253968253968248,1.9253968253968248,1.9253968253968248,1.9253968253968248,1.9253968253968248,1.9253968253968248,1.9253968253968248,1.9253968253968248,1.9253968253968248,1.9253968253968248,1.9253968253968248,1.9253968253968248,1.9253968253968248,1.9253968253968248,1.9253968253968248,1.9253968253968248,1.9253968253968248,1.9253968253968248,1.9253968253968248,1.9253968253968248,1.9253968253968248,1.9253968253968248,1.9253968253968248,1.9253968253968248,1.9253968253968248,1.9253968253968248,1.9253968253968248,1.9253968253968248,1.9253968253968248,1.9253968253968248,1.9253968253968248,1.9253968253968248,1.9253968253968248,1.9253968253968248,1.9253968253968248,1.9253968253968248,1.9253968253968248,1.9253968253968248]},"final_keyboard_state":["M","E","A","B","R","Z"],"num_clicks":6,"points":14,"cheat":false,"trial_type":"Hangman","trial_index":5,"time_elapsed":113822,"internal_node_id":"0.0-4.0","protocol_sum":"","subject_identifier":334,"subject_sum":[115,211,241,186,6,37,133,188,229,31,119,215,10,38,190,136,196,75,85,215,15,129,184,189,126,45,237,3,12,164,69,74],"subject_pair":167,"STUDY_ID":"66a0b3911f23dfc7665bb169","PROLIFIC_PID":"660b2346862ff2a3da9cfe3e","SESSION_ID":"66a17025308e9682050a0a92","practice_instructions":1,"leaderboard_instructions":0,"bonus":1,"reveal_word":false,"self_rating":"3","confidence":"72"},{"view_history":"[{\"page_index\":0,\"viewing_time\":3162.39999999851},{\"page_index\":1,\"viewing_time\":21575.70000000298}]","rt":24739,"trial_type":"instructions","trial_index":6,"time_elapsed":138562,"internal_node_id":"0.0-5.0","protocol_sum":"","subject_identifier":334,"subject_sum":[115,211,241,186,6,37,133,188,229,31,119,215,10,38,190,136,196,75,85,215,15,129,184,189,126,45,237,3,12,164,69,74],"subject_pair":167,"STUDY_ID":"66a0b3911f23dfc7665bb169","PROLIFIC_PID":"660b2346862ff2a3da9cfe3e","SESSION_ID":"66a17025308e9682050a0a92","practice_instructions":1,"leaderboard_instructions":0,"bonus":1,"reveal_word":false,"self_rating":"3","confidence":"72"},{"rt":8864,"responses":"{\"Q0\":\"...from <b>a previous session</b> that is not part of the upcoming tournament.\"}","question_order":"[0]","trial_type":"survey-multi-choice","trial_index":7,"time_elapsed":147428,"internal_node_id":"0.0-6.0","protocol_sum":"","subject_identifier":334,"subject_sum":[115,211,241,186,6,37,133,188,229,31,119,215,10,38,190,136,196,75,85,215,15,129,184,189,126,45,237,3,12,164,69,74],"subject_pair":167,"correct":true,"test_part":"multichoice_leaderboard","STUDY_ID":"66a0b3911f23dfc7665bb169","PROLIFIC_PID":"660b2346862ff2a3da9cfe3e","SESSION_ID":"66a17025308e9682050a0a92","practice_instructions":1,"leaderboard_instructions":0,"bonus":1,"reveal_word":false,"self_rating":"3","confidence":"72"},{"view_history":"[{\"page_index\":0,\"viewing_time\":12780.70000000298}]","rt":12781,"trial_type":"instructions","trial_index":8,"time_elapsed":160210,"internal_node_id":"0.0-8.0","protocol_sum":"","subject_identifier":334,"subject_sum":[115,211,241,186,6,37,133,188,229,31,119,215,10,38,190,136,196,75,85,215,15,129,184,189,126,45,237,3,12,164,69,74],"subject_pair":167,"STUDY_ID":"66a0b3911f23dfc7665bb169","PROLIFIC_PID":"660b2346862ff2a3da9cfe3e","SESSION_ID":"66a17025308e9682050a0a92","practice_instructions":1,"leaderboard_instructions":0,"bonus":1,"reveal_word":false,"self_rating":"3","confidence":"72"},{"rt":11064.5,"responses":"{\"Q0\":\"...players' leaderboard position (in terms of <b>points</b>) in an <b>upcoming tournament.</b>\"}","question_order":"[0]","trial_type":"survey-multi-choice","trial_index":9,"time_elapsed":171276,"internal_node_id":"0.0-9.0","protocol_sum":"","subject_identifier":334,"subject_sum":[115,211,241,186,6,37,133,188,229,31,119,215,10,38,190,136,196,75,85,215,15,129,184,189,126,45,237,3,12,164,69,74],"subject_pair":167,"correct":true,"test_part":"multichoice_tournament","STUDY_ID":"66a0b3911f23dfc7665bb169","PROLIFIC_PID":"660b2346862ff2a3da9cfe3e","SESSION_ID":"66a17025308e9682050a0a92","practice_instructions":1,"leaderboard_instructions":0,"bonus":1,"reveal_word":false,"self_rating":"3","confidence":"72"},{"view_history":"[{\"page_index\":0,\"viewing_time\":17878.60000000149}]","rt":17878.89999999851,"trial_type":"instructions","trial_index":10,"time_elapsed":189155,"internal_node_id":"0.0-11.0","protocol_sum":"","subject_identifier":334,"subject_sum":[115,211,241,186,6,37,133,188,229,31,119,215,10,38,190,136,196,75,85,215,15,129,184,189,126,45,237,3,12,164,69,74],"subject_pair":167,"STUDY_ID":"66a0b3911f23dfc7665bb169","PROLIFIC_PID":"660b2346862ff2a3da9cfe3e","SESSION_ID":"66a17025308e9682050a0a92","practice_instructions":1,"leaderboard_instructions":0,"bonus":1,"reveal_word":false,"self_rating":"3","confidence":"72"},{"view_history":"[{\"page_index\":0,\"viewing_time\":9191.10000000149}]","rt":9191.39999999851,"trial_type":"instructions","trial_index":11,"time_elapsed":198347,"internal_node_id":"0.0-12.0-0.0","protocol_sum":"","subject_identifier":334,"subject_sum":[115,211,241,186,6,37,133,188,229,31,119,215,10,38,190,136,196,75,85,215,15,129,184,189,126,45,237,3,12,164,69,74],"subject_pair":167,"STUDY_ID":"66a0b3911f23dfc7665bb169","PROLIFIC_PID":"660b2346862ff2a3da9cfe3e","SESSION_ID":"66a17025308e9682050a0a92","practice_instructions":1,"leaderboard_instructions":0,"bonus":1,"reveal_word":false,"self_rating":"3","confidence":"72"},{"word":"THUMB","click_log":{"letter":["","E","A","I","O","U","T","S","Y","H","M","B"],"t":[0,3917.60000000149,5101.20000000298,6936.39999999851,8054.20000000298,9440.10000000149,19402.30000000447,39358.70000000298,66707.20000000298,71444.60000000149,76100.10000000149,77117.80000000447],"hit":[null,0,0,0,0,1,1,0,0,1,1,1],"asked":["","E","EA","EAI","EAIO","EAIOU","EAIOUT","EAIOUTS","EAIOUTSY","EAIOUTSYH","EAIOUTSYHM","EAIOUTSYHMB"],"word_state":["_____","_____","_____","_____","_____","__U__","T_U__","T_U__","T_U__","THU__","THUM_","THUMB"]},"hover_log":{"letter":["?","?","?","?","?","?","?","?","?","?","?","?","?","?","?","?","?","?","?","?","?","?","?","?","?","?","?","?","?","?","?","?","?","?","?","?","?","?","?","?","?","?","?","?","?","?","?","?","?","?","?","?","?","?","?","?","?","?","?","?","?","?","?","?","?","?","?","?","?","?","?","?","?","?","?","?","?","?","?","?","?","?","?","?","?","?","?","?","?","?","?","?","?","?","?","?","?","?","?","?","?","?","?","?","?","?","?","?","?","?","?","?","?","?","?","?","?","?","?","?","?","?","?","?","?","?","?","?","?","?","?","?","?","?","?","?","?","?","?","?","?","?","?","?","?","?","?","?","?","?","?","?","?","?","?","?","?","?","?","?","?","?","?","?","?","?","?","?","?","?","?","?","?","?","?","?","?","?","?","?","?","?","?","?","?","?","?","?","?","?","?","?","?","?","?","?","?","?","?","?","?","?","?","?","?","?","?","?","?","?","?","?","?","?","?","?","?","?","?","?","?","?","?","?","?","?","?","?","?","?","?","?","?","?","?","?","?","?","?","?","?","?","?","?","?","?","?","?","?","?","?","?","?","?","?","?","?","?","?","?","?","?","?","?","?","?","?","?","?","?","?","?","?","?","?","?","?","?","?","?","?","?","?","?","?","?","?","?","?","?","?","?","?","?","?","?","?","?","?","?","?","?","?","?","?","?","?","?","?","?","?","?","?","?","?","?","?","?","?","?","?","?","?","?","?","?","?","?","?","?","?","?","?","?","?","?","?","?","?","?","?","?","?","?","?","?","?","?","?","?","?","?","?","?","?","?","?","?","?","?","?","?","?","?","?","?","?","?","?","?","?","?","?","?","?","?","?","?","?","?","?","?","?","?","?","?","?","?","?","?","?","?","?","?","?","?","?","?","?","?","?","?","?","?","?","?","?","?","?","?","?","?","?","?","?","?","?","?","?","?","?","?","?","?","?","?","?","?","?","?","?","?","?","?","?","?","?","?","?","?","?","?","?","?","?","?","?","?","?","?","?","?","?","?","?","?","?","?","?","?","?","?","?","?","?","?","?","?","?","?","?","?","?","?","?","?","?","?","?","?","?","?","?","?","?","?","?","?","?","?","?","?","?","?","?","?","?","?","?","?","?","?","?","?","?","?","?","?","?","?","?","?","?","?","?","?","?","?","?","?","?","?","?","?","?","?","?","?","?","?","?","?","?","?","?","?","?","?","?","?","?","?","?","?","?","?","?","?","?","?","?","?","?","?","?","?","?","?","?","?","?","?","?","?","?","?","?","?","?","?","?","?","?","?","?","?","?","?","?","?","?","?","?","?","?","?","?","?","?","?","?","?","?","?","?","?","?","?","?","?","?","?","?","?","?","?","?","?","?","?","?","?","?","?","?","?","?","?","?","?","?","?","?","?","?","?","?","?","?","?","?","?","?","?","?","?","?","?","?","?","?","?","?","?","?","?","?","?","?","?","?","?","?","?","?","?","?","?","?","?","?","?","?","?","?","?","?","?","?","?","?","?","?","?","?","?","?","?","?","?","?","?","?","?","?","?","?","?","?","?","?","?","?","?","?","?","?","?","?","?","?","?","?","?","?","?","?","?","?","?","?","?","?","?","?","?","?","?","?","?","?","?","?","?","?","?","?","?","?","?","?","?","?","?","?","?","?","?","?","?","?","?","?","?","?","?","?","?","?","?","?","?","?","?","?","?","?","?","?","?","?","?","?","?","?","?","?","?","?","?","?","?","?","?","?","?","?","?","?","?","?","?","?","?","?","?","?","?","?","?","?","?","?","?","?","?","?","?","?","?","?","?","?","?","?","?","?","?","?","?","?","?","?","?","?","?","?","?","?","?","?","?","?","?","?","?","?","?","?","?","?","?","?","?","?","?","?","?","?","?","?","?","?","?","?","?","?","?","?","?","?","?","?","?","?","?","?","?","?","?","?","?","?","?","?","?","?","?","?","?","?","?","?","?","?","?","?","?","?","?","?","?","?","?","?","?","?","?","?","?","?","?","?","?","?","?","?","?","?","?","?","?","?","?","?","?","?","?","?","?","?","?","?","?","?","?","?","?","?","?","?","?","?","?","?","?","?","?","?","?","?","?","?","?","?","?","?","?","?","?","?","?","?","?","?","?","?","?","?","?","?","?","?","?","?","?","?","?","?","?","?","?","?","?","?","?","?","?","?","?","?","?","?","?","?","?","?","?","?","?","?","?","?","?","?","?","?","?","?","?","?","?","?","?","?","?","?","?","?","?","?","?","?","?","?","?","?","?","?","?","?","?","?","?","?","?","?","?","?","?","?","?","?","?","?","?","?","?","?","?","?","?","?","?","?","?","?","?","?","?","?","?","?","?","?","?","?","?","?","?","?","?","?","?","?","?","?","?","?","?","?","?","?","?","?","?","?","?","?","?","?","?","?","?","?","?","?","?","?","?","?","?","?","?","?","?","?","?","?","?","?","?","?","?","?","?","?","?","?","?","?","?","?","?","?","?","?","?","?","?","?","?","?","?","?","?","?","?","?","?","?","?","?","?","?","?","?","?","?","?","?","?","?","?","?","?","?","?","?","?","?","?","?","?","?","?","?","?","?","?","?","?","?","?","?","?","?","?","?","?","?","?","?","?","?","?","?","?","?","?","?","?","?","?","?","?","?","?","?","?","?","?","?","?","?","?","?","?","?","?","?","?","?","?","?","?","?","?","?","?","?","?","?","?","?","?","?","?","?","?","?","?","?","?","?","?","?","?","?","?","?","?","?","?","?","?","?","?","?","?","?","?","?","?","?","?","?","?","?","?","?","?","?","?","?","?","?","?","?","?","?","?","?","?","?","?","?","?","?","?","?","?","?","?","?","?","?","?","?","?","?","?","?","?","?","?","?","?","?","?","?","?","?","?","?","?","?","?","?","?","?","?","?","?","?","?","?","?","?","?","?","?","?","?","?","?","?","?","?","?","?","?","?","?","?","?","?","?","?","?","?","?","?","?","?","?","?","?","?","?","?","?","?","?","?","?","?","?","?","?","?","?","?","?","?","?","?","?","?","?","?","?","?","?","?","?","?","?","?","?","?","?","?","?","?","?","?","?","?","?","?","?","?","?","?","?","?","?","?","?","?","?","?","?","?","?","?","?","?","?","?","?","?","?","?","?","?","?","?","?","?","?","?","?","?","?","?","?","?","?","?","?","?","?","?","?","?","?","?","?","?","?","?","?","?","?","?","?","?","?","?","?","?","?","?","?","?","?","?","?","?","?","?","?","?","?","?","?","?","?","?","?","?","?","?","?","?","?","?","?","?","?","?","?","?","?","?","?","?","?","?","?","?","?","?","?","?","?","?","?","?","?","?","?","?","?","?","?","?","?","?","?","?","?","?","?","?","?","?","?","?","?","?","?","?","?","?","?","?","?","?","?","?","?","?","?","?","?","?","?","?","?","?","?","?","?","?","?","?","?","?","?","?","?","?","?","?","?","?","?","?","?","?","?","?","?","?","?","?","?","?","?","?","?","?","?","?","?","?","?","?","?","?","?","?","?","?","?","?","?","?","?","?","?","?","?","?","?","?","?","?","?","?","?","?","?","?","?","?","?","?","?","?","?","?","?","?","?","?","?","?","?","?","?","?","?","?","?","?","?","?","?","?","?","?","?","?","?","?","?","?","?","?","?","?","?","?","?","?","?","?","?","?","?","?","?","?","?","?","?","?","?","?","?","?","?","?","?","?","?","?","?","?","?","?","?","?","?","?","?","?","?","?","?","?","?","?","?","?","?","?","?","?","?","?","?","?","?","?","?","?","?","?","?","?","?","?","?","?","?","?","?","?","?","?","?","?","?","?","?","?","?","?","?","?","?","?","?","?","?","?","?","?","?","?","?","?","?","?","?","?","?","?","?","?","?","?","?","?","?","?","?","?","?","?","?","?","?","?","?","?","?","?","?","?","?","?","?","?","?","?","?","?","?","?","?","?","?","?","?","?","?","?","?","?","?","?","?","?","?","?","?","?","?","?","?","?","?","?","?","?","?","?","?","?","?","?","?","?","?","?","?","?","?","?","?","?","?","?","?","?","?","?","?","?","?","?","?","?","?","?","?","?","?","?","?","?","?","?","?","?","?","?","?","?","?","?","?","?","?","?","?","?","?","?","?","?","?","?","?","?","?","?","?","?","?","?","?","?","?","?","?","?","?","?","?","?","?","?","?","?","?","?","?","?","?","?","?","?","?","?","?","?","?","?","?","?","?","?","?","?","?","?","?","?","?","?","?","?","?","?","?","?","?","?","?","?","?","?","?","?","?","?","?","?","?","?","?","?","?","?","?","?","?","?","?","?","?","?","?","?","?","?","?","?","?","?","?","?","?","?","?","?","?","?","?","?","?","?","?","?","?","?","?","?","?","?","?","?","?","?","?","?","?","?","?","?","?","?","?","?","?","?","?","?","?","?","?","?","?","?","?","?","?","?","?","?","?","?","?","?","?","?","?","?","?","?","?","?","?","?","?","?","?","?","?","?","?","?","?","?","?","?","?","?","?","?","?","?","?","?","?","?","?","?","?","?","?","?","?","?","?","?","?","?","?","?","?","?","?","?","?","?","?","?","?","?","?","?","?","?","?","?","?","?","?","?","?","?","?","?","?","?","?","?","?","?","?","?","?","?","?","?","?","?","?","?","?","?","?","?","?","?","?","?","?","?","?","?","?","?","?","?","?","?","?","?","?","?","?","?","?","?","?","?","?","?","?","?","?","?","?","?","?","?","?","?","?","?","?","?","?","?","?","?","?","?","?","?","?","?","?","?","?","?","?","?","?","?","?","?","?","?","?","?","?","?","?","?","?","?","?","?","?","?","?","?","?","?","?","?","?","?","?","?","?","?","?","?","?","?","?","?","?","?","?","?","?","?","?","?","?","?","?","?","?","?","?","?","?","?","?","?","?","?","?","?","?","?","?","?","?","?","?","?","?","?","?","?","?","?","?","?","?","?","?","?","?","?","?","?","?","?","?","?","?","?","?","?","?","?","?","?","?","?","?","?","?","?","?","?","?","?","?","?","?","?","?","?","?","?","?","?","?","?","?","?","?","?","?","?","?","?","?","?","?","?","?","?","?","?","?","?","?","?","?","?","?","?","?","?","?","?","?","?","?","?","?","?","?","?","?","?","?","?","?","?","?","?","?","?","?","?","?","?","?","?","?","?","?","?","?","?","?","?","?","?","?","?","?","?","?","?","?","?","?","?","?","?","?","?","?","?","?","?","?","?","?","?","?","?","?","?","?","?","?","?","?","?","?","?","?","?","?","?","?","?","?","?","?","?","?","?","?","?","?","?","?","?","?","?","?","?","?","?","?","?","?","?","?","?","?","?","?","?","?","?","?","?","?","?","?","?","?","?","?","?","?","?","?","?","?","?","?","?","?","?","?","?","?","?","?","?","?","?","?","?","?","?","?","?","?","?","?","?","?","?","?","?","?","?","?","?","?","?","?","?","?","?","?","?","?","?","?","?","?","?","?","?","?","?","?","?","?","?","?","?","?","?","?","?","?","?","?","?","?","?","?","?","?","?","?","?","?","?","?","?","?","?","?","?","?","?","?","?","?","?","?","?","?","?","?","?","?","?","?","?","?","?","?","?","?","?","?","?","?","?","?","?","?","?","?","?","?","?","?","?","?","?","?","?","?","?","?","?","?","?","?","?","?","?","?","?","?","?","?","?","?","?","?","?","?","?","?","?","?","?","?","?","?","?","?","?","?","?","?","?","?","?","?","?","?","?","?","?","?","?","?","?","?","?","?","?","?","?","?","?","?","?","?","?","?","?","?","?","?","?","?","?","?","?","?","?","?","?","?","?","?","?","?","?","?","?","?","?","?","?","?","?","?","?","?","?","?","?","?","?","?","?","?","?","?","?","?","?","?","?","?","?","?","?","?","?","?","?","?","?","?","?","?","?","?","?","?","?","?","?","?","?","?","?","?","?","?","?","?","?","?","?","?","?","?","?","?","?","?","?","?","?","?","?","?","?","?","?","?","?","?","?","?","?","?","?","?","?","?","?","?","?","?","?","?","?","?","?","?","?","?","?","?","?","?","?","?","?","?","?","?","?","?","?","?","?","?","?","?","?","?","?","?","?","?","?","?","?","?","?","?","?","?","?","?","?","?","?","?","?","?","?","?","?","?","?","?","?","?","?","?","?","?","?","?","?","?","?","?","?","?","?","?","?","?","?","?","?","?","?","?","?","?","?","?","?","?","?","?","?","?","?","?","?","?","?","?","?","?","?","?","?","?","?","?","?","?","?","?","?","?","?","?","?","?","?","?","?","?","?","?","?","?","?","?","?","?","?","?","?","?","?","?","?","?","?","?","?","?","?","?","?","?","?","?","?","?","?","?","?","?","?","?","?","?","?","?","?","?","?","?","?","?","?","?","?","?","?","?","?","?","?","?","?","?","?","?","?","?","?","?","?","?","?","?","?","?","?","?","?","?","?","?","?","?","?","?","?","?","?","?","?","?","?","?","?","?","?","?","?","?","?","?","?","?","?","?","?","?","?","?","?","?","?","?","?","?","?","?","?","?","?","?","?","?","?","?","?","?","?","?","?","?","?","?","?","?","?","?","?","?","?","?","?","?","?","?","?","?","?","?","?","?","?","?","?","?","?","?","?","?","?","?","?","?","?","?","?","?","?","?","?","?","?","?","?","?","?","?","?","?","?","?","?","?","?","?","?","?","?","?","?","?","?","?","?","?","?","?","?","?","?","?","?","?","?","?","?","?","?","?","?","?","?","?","?","?","?","?","?","?","?","?","?","?","?","?","?","?","?","?","?","?","?","?","?","?","?","?","?","?","?","?","?","?","?","?","?","?","?","?","?","?","?","?","?","?","?","?","?","?","?","?","?","?","?","?","?","?","?","?","?","?","?","?","?","?","?","?","?","?","?","?","?","?","?","?","?","?","?","?","?","?","?","?","?","?","?","?","?","?","?","?","?","?","?","?","?","?","?","?","?","?","?","?","?","?","?","?","?","?","?","?","?","?","?","?","?","?","?","?","?","?","?","?","?","?","?","?","?","?","?","?","?","?","?","?","?","?","?","?","?","?","?","?","?","?","?","?","?","?","?","?","?","?","?","?","?","?","?","?","?","?","?","?","?","?","?","?","?","?","?","?","?","?","?","?","?","?","?","?","?","?","?","?","?","?","?","?","?","?","?","?","?","?","?","?","?","?","?","?","?","?","?","?","?","?","?","?","?","?","?","?","?","?","?","?","?","?","?","?","?","?","?","?","?","?","?","?","?","?","?","?","?","?","?","?","?","?","?","?","?","?","?","?","?","?","?","?","?","?","?","?","?","?","?","?","?","?","?","?","?","?","?","?","?","?","?","?","?","?","?","?","?","?","?","?","?","?","?","?","?","?","?","?","?","?","?","?","?","?","?","?","?","?","?","?","?","?","?","?","?","?","?","?","?","?","?","?","?","?","?","?","?","?","?","?","?","?","?","?","?","?","?","?","?","?","?","?","?","?","?","?","?","?","?","?","?","?","?","?","?","?","?","?","?","?","?","?","?","?","?","?","?","?","?","?","?","?","?","?","?","?","?","?","?","?","?","?","?","?","?","?","?","?","?","?","?","?","?","?","?","?","?","?","?","?","?","?","?","?","?","?","?","?","?","?","?","?","?","?","?","?","?","?","?","?","?","?","?","?","?","?","?","?","?","?","?","?","?","?","?","?","?","?","?","?","?","?","?","?","?","?","?","?","?","?","?","?","?","?","?","?","?","?","?","?","?","?","?","?","?","?","?","?","?","?","?","?","?","?","?","?","?","?","?","?","?","?","?","?","?","?","?","?","?","?","?","?","?","?","?","?","?","?","?","?","?","?","?","?","?","?","?","?","?","?","?","?","?","?","?","?","?","?","?","?","?","?","?","?","?","?","?","?","?","?","?","?","?","?","?","?","?","?","?","?","?","?","?","?","?","?","?","?","?","?","?","?","?","?","?","?","?","?","?","?","?","?","?","?","?","?","?","?","?","?","?","?","?","?","?","?","?","?","?","?","?","?","?","?","?","?","?","?","?","?","?","?","?","?","?","?","?","?","?","?","?","?","?","?","?","?","?","?","?","?","?","?","?","?","?","?","?","?","?","?","?","?","?","?","?","?","?","?","?","?","?","?","?","?","?","?","?","?","?","?","?","?","?","?","?","?","?","?","?","?","?","?","?","?","?","?","?","?","?","?","?","?","?","?","?","?","?","?","?","?","?","?","?","?","?","?","?","?","?","?","?","?","?","?","?","?","?","?","?","?","?","?","?","?","?","?","?","?","?","?","?","?","?","?","?","?","?","?","?","?","?","?","?","?","?","?","?","?","?","?","?","?","?","?","?","?","?","?","?","?","?","?","?","?","?","?","?","?","?","?","?","?","?","?","?","?","?"