[{"success":true,"trial_type":"fullscreen","trial_index":0,"time_elapsed":2852,"internal_node_id":"0.0-0.0","protocol_sum":"","subject_identifier":315,"subject_sum":[199,93,226,61,137,223,54,186,146,18,135,97,110,232,237,180,201,134,227,40,167,142,3,62,87,193,229,226,181,156,131,142],"subject_pair":157,"STUDY_ID":"66a0b3911f23dfc7665bb169","PROLIFIC_PID":"5d6ac7e17658a1001a8c63b2","SESSION_ID":"66a13827fa0fb66dc6581915","practice_instructions":1,"leaderboard_instructions":0,"bonus":0,"reveal_word":true,"self_rating":"2","confidence":"100"},{"view_history":"[{\"page_index\":0,\"viewing_time\":3895.2000000476837}]","rt":3895.4000000953674,"trial_type":"instructions","trial_index":1,"time_elapsed":6748,"internal_node_id":"0.0-1.0","protocol_sum":"","subject_identifier":315,"subject_sum":[199,93,226,61,137,223,54,186,146,18,135,97,110,232,237,180,201,134,227,40,167,142,3,62,87,193,229,226,181,156,131,142],"subject_pair":157,"STUDY_ID":"66a0b3911f23dfc7665bb169","PROLIFIC_PID":"5d6ac7e17658a1001a8c63b2","SESSION_ID":"66a13827fa0fb66dc6581915","practice_instructions":1,"leaderboard_instructions":0,"bonus":0,"reveal_word":true,"self_rating":"2","confidence":"100"},{"view_history":"[{\"page_index\":0,\"viewing_time\":11231.100000143051}]","rt":11231.200000047684,"trial_type":"instructions","trial_index":2,"time_elapsed":17979,"internal_node_id":"0.0-2.0-0.0","protocol_sum":"","subject_identifier":315,"subject_sum":[199,93,226,61,137,223,54,186,146,18,135,97,110,232,237,180,201,134,227,40,167,142,3,62,87,193,229,226,181,156,131,142],"subject_pair":157,"STUDY_ID":"66a0b3911f23dfc7665bb169","PROLIFIC_PID":"5d6ac7e17658a1001a8c63b2","SESSION_ID":"66a13827fa0fb66dc6581915","practice_instructions":1,"leaderboard_instructions":0,"bonus":0,"reveal_word":true,"self_rating":"2","confidence":"100"},{"rt":8543.599999904633,"responses":"{\"Q0\":\"... reveal the word with as <b>few letter guesses</b> as possible\"}","question_order":"[0]","trial_type":"survey-multi-choice","trial_index":3,"time_elapsed":26524,"internal_node_id":"0.0-2.0-1.0","protocol_sum":"","subject_identifier":315,"subject_sum":[199,93,226,61,137,223,54,186,146,18,135,97,110,232,237,180,201,134,227,40,167,142,3,62,87,193,229,226,181,156,131,142],"subject_pair":157,"correct":true,"test_part":"multichoice_nonpretend","STUDY_ID":"66a0b3911f23dfc7665bb169","PROLIFIC_PID":"5d6ac7e17658a1001a8c63b2","SESSION_ID":"66a13827fa0fb66dc6581915","practice_instructions":1,"leaderboard_instructions":0,"bonus":0,"reveal_word":true,"self_rating":"2","confidence":"100"},{"view_history":"[{\"page_index\":0,\"viewing_time\":2286.9000000953674}]","rt":2287,"trial_type":"instructions","trial_index":4,"time_elapsed":28811,"internal_node_id":"0.0-3.0","protocol_sum":"","subject_identifier":315,"subject_sum":[199,93,226,61,137,223,54,186,146,18,135,97,110,232,237,180,201,134,227,40,167,142,3,62,87,193,229,226,181,156,131,142],"subject_pair":157,"STUDY_ID":"66a0b3911f23dfc7665bb169","PROLIFIC_PID":"5d6ac7e17658a1001a8c63b2","SESSION_ID":"66a13827fa0fb66dc6581915","practice_instructions":1,"leaderboard_instructions":0,"bonus":0,"reveal_word":true,"self_rating":"2","confidence":"100"},{"word":"ZEBRA","click_log":{"letter":["","H","R","E","S","A","M","C","Z","B"],"t":[0,5445.699999809265,12934.099999904633,21478.599999904633,30342,37870,57694,64446.09999990463,74782.5,76573.79999995232],"hit":[null,0,1,1,0,1,0,0,1,1],"asked":["","H","HR","HRE","HRES","HRESA","HRESAM","HRESAMC","HRESAMCZ","HRESAMCZB"],"word_state":["_____","_____","___R_","_E_R_","_E_R_","_E_RA","_E_RA","_E_RA","ZE_RA","ZEBRA"]},"hover_log":{"letter":["?","?","?","?","?","?","?","?","?","?","J","J","J","J","J","J","J","J","J","J","J","J","J","J","J","J","J","J","J","J","J","J","J","J","J","J","J","?","?","?","?","?","?","?","?","?","?","?","?","?","?","?","?","?","?","?","?","?","?","?","?","?","?","?","?","?","?","?","?","?","?","?","?","?","?","?","?","?","?","?","?","?","?","?","?","?","?","?","?","?","?","?","?","?","?","?","?","?","?","?","?","?","?","?","?","?","?","?","?","?","?","?","?","?","?","?","?","?","?","?","?","?","?","?","?","?","?","?","?","?","?","?","?","?","?","?","?","?","?","?","?","?","?","?","?","?","?","?","?","?","?","?","?","A","?","?","?","?","?","?","?","?","?","?","?","?","?","?","?","?","?","?","?","?","?","?","?","?","?","?","?","?","?","?","?","?","?","?","?","?","?","?","?","?","?","?","?","?","?","?","?","?","?","?","?","?","?","?","?","?","?","?","?","?","?","?","?","?","?","?","?","?","?","?","?","?","?","?","?","?","?","E","?","M","M","M","M","M","M","M","?","?","?","?","?","?","?","?","?","N","N","N","O","O","O","O","O","O","P","?","?","?","?","?","?","?","?","?","?","?","?","?","?","?","?","?","?","G","G","G","G","G","G","G","G","G","G","G","G","G","G","?","?","H","H","H","H","H","H","H","H","H","H","H","H","H","H","H","H","H","H","H","H","H","H","H","H","H","H","H","H","H","H","H","H","H","H","H","H","H","H","H","H","H","H","H","H","H","H","H","H","H","H","H","?","?","?","?","?","P","?","?","W","?","?","?","?","?","?","?","?","?","?","?","?","?","?","?","?","?","?","?","?","?","?","?","?","?","?","?","?","?","?","?","?","?","?","?","?","?","?","?","?","?","?","?","?","?","?","?","?","?","?","?","?","?","?","?","?","?","?","?","?","?","?","?","?","?","?","?","?","?","?","?","?","?","?","?","?","?","?","?","?","?","?","?","?","?","?","?","?","?","?","?","?","?","?","?","?","?","?","?","?","?","?","?","?","?","?","?","?","?","?","?","?","?","?","?","?","?","?","?","?","?","?","?","?","?","?","?","?","?","?","?","?","?","?","?","?","?","?","?","?","?","?","?","?","?","?","?","?","?","?","?","?","?","?","?","?","?","?","?","?","?","?","?","?","?","?","?","?","?","?","?","?","?","?","?","?","?","?","?","?","?","?","?","?","?","?","?","?","?","?","?","?","?","?","?","?","?","?","?","?","?","?","?","?","?","?","?","?","?","?","?","?","?","?","?","?","?","?","?","?","?","?","?","?","?","?","?","?","?","?","?","?","?","?","?","?","?","?","?","?","?","?","?","?","?","?","?","?","?","?","?","?","?","?","?","?","?","?","?","?","?","?","?","?","?","?","?","?","?","?","?","?","?","?","?","?","?","?","?","?","?","?","?","?","?","?","?","?","?","?","?","S","S","S","S","S","S","S","S","S","?","?","T","T","T","U","U","?","V","V","V","?","W","W","W","?","?","?","?","O","?","?","?","P","P","P","P","P","P","P","P","P","P","P","P","P","P","P","P","P","P","P","?","?","?","?","?","?","?","?","?","?","?","?","?","?","?","?","?","P","P","P","P","P","P","P","P","P","P","P","P","P","P","P","P","P","Q","Q","Q","Q","Q","Q","?","R","R","R","R","R","R","R","R","R","R","R","R","R","R","R","R","R","R","R","R","R","R","R","R","R","R","R","R","R","R","R","R","R","R","R","R","R","R","R","R","R","R","R","R","R","R","R","R","R","R","R","R","R","R","R","R","R","R","?","?","?","?","?","?","?","?","?","?","?","?","?","?","?","?","?","?","?","?","?","?","?","?","?","?","?","?","?","?","?","?","?","?","?","?","?","?","?","?","?","?","?","?","?","?","?","?","?","?","?","?","?","?","?","?","?","?","?","?","?","?","?","?","?","?","?","?","?","?","?","?","?","?","?","?","?","?","?","?","?","?","?","W","W","?","?","?","?","?","N","N","N","?","?","?","?","?","?","?","?","M","M","M","M","M","M","M","M","M","M","M","M","M","M","M","M","M","M","M","M","M","M","M","M","M","M","M","M","M","M","M","M","M","M","M","M","M","M","M","M","M","M","M","M","M","M","M","M","M","M","M","M","M","M","M","M","M","M","M","?","?","?","?","?","?","?","?","?","?","?","?","?","?","?","?","?","?","?","?","?","?","?","?","?","?","?","?","?","?","?","?","?","?","?","?","?","?","?","?","?","?","?","?","?","?","?","?","?","?","?","?","?","?","?","?","?","?","?","?","?","?","?","?","?","?","?","?","?","?","?","?","?","?","?","?","?","?","?","?","?","?","?","?","?","?","?","?","?","L","L","L","L","L","L","L","L","L","L","L","L","L","L","L","L","L","L","L","L","L","L","L","L","L","L","L","L","L","L","L","L","L","L","L","L","L","L","L","L","L","L","L","L","L","?","K","K","K","K","K","K","K","K","K","K","K","K","K","K","K","K","K","K","K","K","K","K","K","K","K","K","K","K","K","K","K","K","K","K","K","K","K","K","K","K","K","K","K","K","K","K","K","K","K","K","K","K","K","K","K","K","K","K","K","K","K","K","K","K","K","K","K","K","K","K","K","K","?","?","?","?","?","?","?","?","?","?","?","?","?","?","?","?","?","?","?","?","K","K","K","K","K","K","K","K","K","K","K","K","K","K","K","K","?","?","?","?","?","?","?","?","?","?","?","?","?","?","?","?","?","?","?","?","L","L","L","L","L","L","L","L","L","L","L","?","?","?","?","?","?","?","?","?","?","?","?","?","D","D","D","D","D","D","D","D","D","D","D","D","D","?","?","?","E","E","E","E","E","E","E","E","E","E","E","E","E","E","E","E","E","E","E","E","E","E","E","E","E","E","E","E","E","E","E","E","E","E","E","E","E","E","E","E","E","E","E","E","E","E","E","E","E","E","E","E","E","E","E","E","E","?","D","D","D","D","D","D","D","D","D","D","D","D","D","D","D","D","D","D","D","D","D","D","D","D","D","D","D","D","D","D","D","D","D","D","D","D","D","D","D","D","D","D","D","D","D","D","?","?","P","R","?","?","?","?","?","?","?","?","?","?","?","?","?","?","?","?","?","?","?","?","?","?","?","?","?","?","?","?","?","?","?","?","?","?","?","?","?","?","?","?","?","?","?","?","?","?","?","?","?","?","?","?","?","?","?","?","?","?","?","?","?","?","?","?","?","?","?","?","?","?","?","?","?","?","?","?","?","?","?","?","?","?","?","?","?","?","?","?","?","?","?","?","?","?","?","?","?","?","?","?","?","?","?","?","?","?","?","?","?","?","?","?","?","Z","Z","Z","Z","Z","Z","Z","Z","Z","Z","Z","Z","?","Q","Q","P","?","?","?","?","?","?","?","?","?","?","?","?","?","?","?","?","?","?","?","?","?","?","?","?","?","?","?","?","?","?","?","?","?","?","?","?","?","A","A","A","?","T","?","?","?","?","?","?","?","?","?","?","?","?","T","T","T","T","T","T","T","T","T","T","T","T","T","T","T","T","T","?","?","?","?","?","?","?","?","?","?","?","?","?","?","?","?","?","?","?","?","?","T","U","V","?","?","N","N","N","N","N","?","?","?","M","M","M","M","M","M","?","?","?","L","L","L","L","L","L","L","L","L","L","L","L","L","L","L","L","L","L","L","L","?","?","?","?","?","?","?","?","L","L","L","L","?","?","?","?","?","?","?","?","?","?","?","?","?","?","?","?","?","?","L","?","?","V","?","?","?","?","?","?","?","?","?","?","?","?","?","?","?","?","?","?","?","?","?","?","?","?","?","?","?","?","?","?","?","?","?","?","?","?","?","T","T","T","T","T","T","T","T","T","T","T","T","T","T","T","T","T","T","T","T","T","T","T","T","T","T","T","T","T","T","T","T","T","?","S","S","S","S","S","S","S","S","S","S","S","S","S","S","S","S","S","S","S","S","S","S","S","S","S","S","S","S","S","S","S","S","S","S","S","S","S","S","S","S","S","S","S","S","S","S","S","S","S","S","S","S","S","S","S","S","S","S","S","S","S","S","S","S","S","S","S","S","S","S","S","S","S","S","S","S","S","S","S","S","S","S","S","S","S","S","S","S","S","S","S","S","S","S","S","S","S","S","S","S","S","S","S","S","S","S","S","S","S","S","S","S","S","S","S","S","S","S","S","S","S","S","S","S","S","?","?","?","?","?","?","?","?","?","?","?","?","?","?","?","?","?","?","?","?","?","?","?","?","?","?","?","?","?","?","?","?","?","?","?","?","?","?","?","?","?","?","?","?","?","?","?","?","?","?","?","?","?","?","?","?","?","?","?","?","?","?","?","?","?","?","?","?","?","?","?","?","?","?","?","?","?","?","?","?","?","?","?","?","?","?","?","?","?","?","?","?","?","?","?","?","?","?","?","?","?","?","?","?","?","?","?","?","?","?","?","?","?","?","?","?","?","?","?","?","?","?","?","?","?","?","?","?","?","?","?","?","?","X","?","X","X","X","X","X","X","X","X","X","?","?","?","?","?","?","?","?","?","?","?","?","?","?","?","?","?","?","?","?","?","?","?","?","?","?","?","?","X","X","?","O","O","O","O","?","?","?","?","?","?","?","?","?","?","?","?","?","?","?","?","?","?","?","?","?","?","?","?","?","?","?","?","?","?","?","?","?","?","?","?","?","?","?","?","?","?","V","?","?","?","?","?","?","V","V","V","V","V","V","?","?","?","?","?","?","?","?","?","?","?","?","?","?","?","?","?","?","?","?","?","?","?","?","?","?","?","?","?","?","?","?","?","?","?","?","?","?","?","?","?","?","?","?","?","?","?","M","M","M","M","M","M","M","M","M","M","M","M","M","M","M","M","M","M","M","M","M","M","M","M","M","M","M","M","M","M","M","M","M","M","M","M","M","M","M","M","M","?","?","?","?","?","?","?","?","?","?","?","?","?","?","?","?","?","?","?","?","?","?","?","?","?","?","?","?","?","?","?","?","?","?","?","?","?","?","?","?","?","?","?","?","?","L","L","L","L","L","L","L","L","L","L","L","?","?","?","B","B","B","B","B","?","?","A","A","A","A","A","A","A","A","A","A","A","A","A","A","A","A","A","A","A","A","A","A","A","A","A","A","A","A","A","A","A","A","A","A","A","A","A","A","A","A","A","A","A","A","A","A","A","A","A","A","A","A","A","A","A","A","A","A","B","?","N","?","?","?","?","?","?","?","?","?","?","?","?","?","?","?","?","?","?","?","?","?","?","?","?","?","?","?","?","?","?","?","?","?","?","?","?","?","?","?","?","?","?","?","?","?","?","?","?","?","?","?","?","?","?","?","?","?","?","?","?","?","?","?","?","?","?","?","?","?","?","?","?","?","?","?","?","?","?","?","?","?","?","?","?","?","?","?","?","?","?","?","?","?","?","?","?","?","?","?","?","?","?","?","?","?","?","?","?","?","?","?","?","?","?","?","?","?","?","?","?","?","?","?","?","?","?","?","?","?","?","?","?","?","?","?","?","?","?","?","?","?","?","?","?","?","R","R","?","?","?","?","?","?","?","?","?","?","?","?","?","?","?","?","?","?","?","?","?","?","?","?","?","?","?","?","?","?","?","?","?","?","?","?","?","?","?","?","?","?","?","?","?","?","?","?","?","?","?","?","?","?","?","?","?","?","?","?","?","?","?","?","?","?","?","?","?","?","?","?","?","?","?","?","?","?","?","?","?","?","?","?","?","?","?","?","?","?","?","?","?","?","?","?","?","?","?","?","?","?","?","?","?","?","?","?","?","?","?","?","?","?","?","?","?","?","?","?","?","?","?","?","?","?","?","?","?","?","?","?","?","?","?","?","?","?","?","G","G","G","G","G","F","?","?","?","?","?","?","?","?","?","?","?","?","?","?","?","?","?","?","?","?","?","?","?","?","?","?","?","?","?","?","?","?","?","?","?","?","?","?","?","?","?","?","?","?","?","?","?","?","?","?","?","?","?","?","?","?","?","?","?","?","?","?","?","?","?","?","?","?","?","?","?","?","?","?","?","?","?","?","?","?","?","?","?","?","?","?","?","?","?","?","?","?","?","?","?","?","?","?","?","?","?","?","?","?","?","?","?","?","?","?","?","?","?","?","?","?","?","?","?","?","?","?","?","?","?","?","?","?","?","?","?","?","?","?","?","?","?","?","?","?","?","?","?","?","?","?","?","?","?","?","?","?","?","?","?","?","?","?","?","?","?","?","?","?","?","?","?","?","?","?","?","?","?","?","?","?","?","?","?","?","?","?","?","?","?","?","?","?","?","?","?","?","?","?","?","?","?","?","?","?","?","?","?","?","?","?","?","?","?","?","?","?","?","?","?","?","?","?","?","?","?","?","?","?","?","?","?","?","?","?","?","?","?","?","?","?","?","?","?","?","?","?","?","?","?","?","?","?","?","?","?","?","?","?","?","?","?","?","?","?","?","?","?","?","?","?","?","?","?","?","?","?","?","?","?","?","?","?","?","?","?","?","?","?","?","?","?","?","?","?","?","?","?","?","?","?","?","?","?","?","?","?","?","?","?","?","?","?","?","?","?","?","?","?","?","?","?","?","?","?","?","?","?","?","?","?","?","?","?","?","?","?","?","?","?","?","?","?","?","?","?","?","?","?","?","?","?","?","?","?","?","?","?","?","?","?","?","?","?","?","?","?","?","?","?","?","?","?","?","?","?","?","?","?","?","?","?","?","?","?","?","?","?","?","?","?","?","?","?","?","?","?","?","?","?","?","?","?","?","?","?","?","?","?","?","?","?","?","?","?","?","?","?","?","?","?","?","?","?","?","?","?","?","?","?","?","?","?","?","?","?","?","?","?","?","?","?","?","?","?","?","?","?","?","?","?","?","?","?","?","?","?","?","?","?","?","?","?","?","?","?","?","?","?","?","?","?","?","?","?","?","?","?","G","G","G","G","G","G","?","F","F","?","E","E","E","?","?","?","?","?","?","?","?","?","?","?","?","?","?","?","?","?","?","?","?","?","?","?","?","?","?","?","?","?","?","?","?","?","?","?","?","?","?","?","?","?","?","?","?","?","?","?","?","?","?","?","?","?","?","?","?","?","?","?","?","?","?","?","?","?","?","?","?","?","?","?","?","?","?","?","?","?","?","?","?","?","?","?","?","?","?","?","?","?","?","?","?","?","?","?","?","?","?","?","F","F","?","?","?","P","P","P","P","P","P","P","P","P","?","?","?","?","?","?","?","?","?","?","?","?","?","?","?","?","?","?","?","?","Y","Y","Y","Y","Y","Y","Y","Y","Y","Y","Y","Y","Y","Y","Y","Y","Y","Y","Y","Y","Y","Y","Y","Y","?","?","?","?","?","?","?","?","?","?","?","?","?","?","?","?","?","?","?","?","?","?","?","?","?","?","?","?","O","?","?","E","E","?","?","D","D","D","D","D","?","D","?","?","?","?","?","?","?","?","?","?","?","?","?","?","?","?","?","?","?","?","?","?","?","?","?","?","?","?","D","?","?","?","?","?","?","?","?","?","?","?","?","?","?","?","?","?","?","?","?","?","?","?","?","?","?","?","?","?","?","?","?","?","?","?","?","?","?","?","?","?","?","?","?","?","?","?","?","?","?","?","?","?","?","F","F","?","?","?","?","?","?","?","?","?","?","?","?","V","V","V","V","V","?","?","?","?","?","?","?","U","U","?","?","?","?","?","?","?","?","L","L","L","L","L","L","L","L","L","L","L","L","L","L","L","L","L","L","L","L","?","?","M","M","M","M","M","M","M","M","M","M","M","M","M","M","M","M","M","M","M","M","M","M","M","M","M","M","M","M","M","M","M","M","M","M","M","M","M","M","M","M","M","M","M","M","M","M","M","M","M","M","M","M","M","M","M","M","M","M","M","M","M","M","M","M","M","M","M","M","M","M","M","M","M","M","M","M","M","M","N","O","?","?","?","?","?","?","?","?","?","?","?","?","?","?","?","?","?","?","?","?","?","?","?","?","?","?","?","?","?","?","?","?","?","?","?","?","?","?","?","?","?","?","?","?","?","?","?","?","?","?","?","?","?","?","?","?","?","?","?","?","?","?","?","?","?","?","?","?","?","?","?","?","?","?","?","?","?","?","?","?","?","?","?","?","?","?","?","?","?","?","?","?","?","?","?","?","?","?","?","?","?","?","?","?","?","?","?","?","?","?","?","?","?","?","?","?","?","?","?","?","?","?","?","?","?","?","?","?","I","I","?","?","?","?","R","R","R","R","R","R","R","?","?","Q","?","?","P","P","P","P","P","P","P","P","P","P","P","P","P","P","P","P","P","P","P","P","P","P","P","P","P","P","P","P","P","?","?","?","?","?","O","O","O","O","O","O","O","O","O","O","O","O","O","O","O","O","O","O","?","?","?","?","?","?","?","O","O","?","?","?","?","?","?","?","M","M","M","M","M","M","M","M","M","M","M","?","?","?","?","?","?","?","?","?","?","?","?","?","?","?","?","?","?","?","?","?","?","?","?","?","?","?","?","?","?","D","D","D","D","D","D","D","D","D","D","D","D","D","D","?","?","E","E","E","E","E","E","E","E","E","E","E","E","?","?","?","?","D","D","D","D","D","D","C","B","?","?","?","?","?","?","?","?","B","B","B","B","B","?","?","?","C","C","C","C","C","C","C","C","C","C","C","C","C","C","C","C","C","C","C","C","C","C","C","C","C","C","C","C","C","C","C","C","C","C","C","C","C","C","C","C","C","C","C","C","C","C","C","C","C","C","C","C","C","C","C","C","C","C","C","C","C","C","C","C","C","C","C","C","C","C","C","C","C","C","C","C","C","C","C","C","C","C","C","C","C","C","C","C","C","C","C","C","C","D","E","?","G","H","H","H","H","H","H","H","?","?","?","?","?","?","?","?","?","G","G","G","G","?","?","?","O","O","O","O","O","O","O","O","?","?","?","?","?","H","?","?","?","?","?","?","?","?","?","?","?","?","?","?","?","?","?","?","?","?","?","?","?","?","?","?","?","?","?","?","?","?","?","?","?","?","?","?","?","?","?","?","?","?","?","?","?","?","?","?","?","?","?","?","?","?","?","?","?","?","?","?","?","H","?","?","?","?","?","I","?","?","?","?","?","?","?","?","?","?","?","?","?","?","?","?","?","?","?","?","?","?","?","?","?","?","?","?","?","I","I","I","I","?","?","Q","Q","Q","Q","Q","Q","Q","Q","?","?","?","Z","?","?","?","?","?","?","?","?","?","?","?","?","?","?","?","?","X","X","X","X","X","X","X","X","X","X","X","X","X","X","X","X","X","X","X","X","X","?","?","?","?","?","?","?","?","?","?","?","?","?","?","?","?","?","?","?","?","?","?","?","?","?","?","?","?","?","?","?","?","?","?","?","?","?","?","?","?","?","?","?","?","?","?","U","U","U","U","U","U","U","U","U","U","U","U","U","U","U","U","U","U","U","U","U","U","U","U","U","U","U","?","?","?","?","?","?","?","?","?","?","?","?","T","T","T","T","T","T","T","T","T","T","T","T","T","T","?","?","?","?","J","J","?","?","?","?","?","?","?","?","?","?","?","?","?","?","?","?","?","?","?","?","?","?","?","?","?","?","?","?","K","?","?","?","N","N","?","?","?","?","?","?","?","?","?","?","?","?","?","?","?","?","?","?","?","?","?","?","?","?","?","?","?","?","?","?","?","?","?","?","?","?","?","?","?","?","?","?","?","?","?","?","?","?","?","?","N","N","N","N","N","N","N","N","N","N","N","N","N","N","N","N","N","N","N","N","N","N","N","N","N","N","N","N","N","N","N","N","N","N","N","N","N","N","N","N","N","N","N","N","N","N","N","N","N","N","N","N","N","N","N","N","N","N","N","N","N","N","N","N","N","N","N","N","N","N","N","N","N","N","N","N","N","N","N","N","N","N","N","N","N","N","N","N","N","N","N","N","N","N","N","N","N","N","N","N","N","N","N","N","N","N","N","N","N","N","N","N","N","N","N","N","N","N","N","N","?","?","?","M","M","M","M","M","?","?","?","?","?","?","?","?","?","?","?","?","?","?","?","?","?","?","?","?","?","?","?","?","?","?","?","?","?","?","Z","Z","Z","Z","Z","Z","Z","Z","Z","Z","Z","Z","Z","Z","Z","Z","Z","Z","Z","Z","Z","Z","Z","Z","Z","Z","Z","Z","Z","Z","Z","Z","Z","Z","Z","Z","Z","Z","Z","Z","Z","Z","Z","Z","?","?","?","?","?","?","?","?","?","?","?","?","?","?","Q","?","?","?","?","?","?","?","?","?","?","?","?","?","?","?","?","?","F","F","F","F","F","F","?","?","?","?","?","E","E","?","D","?","?","?","?","?","?","?","C","C","C","C","C","C","C","C","?","?","?","?","?","?","?","B","B","B","B","B","B","B","B","B","B","B","B","B","B","B","B","B","B","B","B","B","B","B","B","B","B","B","B","B","B","B","?","?","?","M","?","N","?","?","?","?","?","?","?","?","?","?","?","?","?","?","O","O","?","?","F","?","?","?","?","?","?","?","?","?","?","?","?","?","?","?","?","?","?","?","?","?","?","?","?","?","?","?","?","?","?","?","?","?","?","?","?","?","?","?","?","?","?","?","?","?","?","?","?","?","?","?","?","?","?","?","?","?","?","?","?","?","?","?","?","?","?","?","?","?","?","?","?","?","?","?","?","?","?","?","?","?","?","?","?","?","?","?","?","?"],"t":[37,41,56,73,89,106,123,140,156,173,191,209,223,239,259,276,289,306,323,340,358,373,390,407,425,442,459,475,493,510,523,540,556,574,592,609,626,640,656,673,690,706,723,740,756,773,790,807,823,840,857,873,890,907,923,940,957,974,990,1010,1026,1042,1059,1076,1092,1109,1126,1142,1157,1174,1192,1208,1225,1243,1259,1276,1292,1309,1326,1342,1359,1375,1391,1407,1424,1441,1458,1476,1492,1509,1526,1543,1560,1576,1592,1609,1626,1643,1659,1675,1691,1707,1724,1741,1760,1776,1793,1809,1826,1843,1860,1876,1893,1909,1926,1943,1960,1976,1993,2010,2024,2041,2058,2074,2091,2108,2124,2142,2160,2176,2193,2210,2225,2241,2258,2275,2291,2308,2324,2341,2358,2375,2392,2408,2425,2442,2458,2477,2491,2508,2527,2541,2558,2575,2591,2608,2625,2644,2658,2675,2692,2708,2725,2742,2758,2775,2792,2808,2825,2842,2859,2878,2892,2908,2925,2942,2959,2975,2992,3009,3025,3042,3059,3076,3092,3110,3125,3142,3159,3176,3193,3211,3226,3243,3260,3277,3292,3309,3326,3342,3359,3378,3392,3409,3426,3442,3459,3476,3495,3511,3528,3544,3561,3578,3594,3611,3628,3643,3659,3678,3695,3709,3726,3743,3759,3777,3795,3809,3826,3843,3859,3876,3893,3910,3926,3943,3960,3976,3993,4010,4026,4043,4062,4076,4093,4110,4127,4145,4160,4177,4193,4210,4227,4243,4260,4277,4296,4310,4327,4343,4362,4377,4393,4410,4427,4444,4460,4477,4494,4510,4527,4543,4560,4577,4594,4612,4627,4644,4660,4677,4694,4710,4727,4746,4763,4778,4794,4810,4827,4844,4860,4877,4894,4911,4927,4946,4963,4979,4996,5011,5027,5044,5061,5079,5096,5111,5127,5144,5161,5177,5196,5211,5227,5244,5261,5280,5294,5311,5328,5347,5361,5378,5395,5414,5430,5444,5461,5478,5495,5512,5529,5547,5563,5578,5595,5612,5628,5645,5662,5678,5695,5714,5728,5745,5761,5781,5795,5812,5828,5845,5862,5881,5898,5912,5928,5945,5964,5981,5995,6012,6028,6045,6062,6078,6095,6112,6129,6147,6164,6181,6197,6214,6231,6247,6264,6281,6297,6314,6331,6348,6362,6379,6395,6412,6430,6448,6464,6481,6497,6515,6531,6546,6562,6579,6596,6613,6629,6646,6662,6679,6696,6712,6729,6746,6762,6779,6796,6812,6831,6846,6862,6879,6897,6915,6931,6946,6963,6981,6996,7012,7029,7046,7064,7082,7098,7115,7131,7148,7165,7182,7198,7215,7232,7248,7264,7280,7297,7314,7331,7348,7366,7381,7398,7414,7431,7448,7466,7481,7497,7513,7531,7548,7565,7582,7598,7615,7632,7649,7665,7682,7699,7717,7730,7747,7763,7780,7797,7815,7832,7849,7866,7882,7899,7916,7932,7949,7966,7982,7999,8016,8032,8049,8066,8082,8099,8116,8132,8149,8165,8181,8197,8214,8230,8248,8264,8281,8297,8314,8331,8347,8364,8383,8399,8416,8433,8449,8464,8481,8497,8514,8532,8550,8566,8583,8598,8614,8631,8648,8666,8684,8701,8715,8731,8748,8765,8782,8799,8814,8831,8849,8866,8884,8898,8914,8931,8948,8964,8982,8999,9016,9033,9050,9067,9084,9100,9117,9134,9150,9167,9181,9198,9215,9232,9249,9267,9283,9300,9317,9334,9350,9368,9383,9398,9417,9432,9448,9465,9482,9499,9517,9534,9551,9567,9584,9601,9617,9634,9651,9667,9684,9700,9716,9732,9751,9767,9784,9800,9817,9834,9850,9865,9882,9899,9918,9935,9950,9966,9982,9999,10016,10033,10050,10066,10082,10099,10117,10135,10152,10167,10182,10199,10216,10233,10249,10266,10284,10301,10318,10335,10351,10368,10384,10401,10418,10435,10451,10468,10485,10501,10518,10535,10551,10568,10585,10601,10618,10636,10652,10668,10683,10700,10716,10733,10750,10767,10783,10800,10817,10833,10850,10866,10883,10900,10916,10933,10950,10969,10983,11000,11017,11034,11050,11067,11083,11100,11117,11133,11152,11167,11183,11200,11219,11237,11250,11267,11285,11300,11317,11336,11350,11367,11383,11401,11417,11434,11450,11467,11484,11501,11517,11534,11550,11569,11586,11603,11619,11636,11650,11667,11684,11701,11718,11736,11753,11769,11784,11801,11817,11834,11850,11867,11884,11901,11918,11934,11951,11968,11984,12001,12018,12034,12051,12068,12084,12101,12118,12135,12153,12168,12185,12201,12218,12235,12251,12268,12287,12301,12318,12335,12351,12368,12385,12401,12419,12437,12453,12470,12487,12504,12520,12537,12553,12570,12587,12604,12620,12635,12651,12668,12685,12702,12718,12735,12754,12770,12787,12802,12818,12835,12852,12869,12885,12902,12919,12935,12952,12968,12985,13002,13019,13036,13054,13071,13088,13104,13121,13138,13154,13172,13186,13202,13219,13236,13252,13269,13286,13306,13319,13336,13355,13369,13386,13402,13420,13436,13453,13469,13486,13503,13519,13536,13553,13569,13586,13603,13620,13636,13653,13669,13686,13703,13720,13736,13753,13770,13788,13803,13819,13836,13853,13871,13888,13905,13922,13938,13955,13971,13987,14004,14021,14038,14053,14070,14087,14105,14122,14138,14155,14172,14188,14203,14220,14236,14253,14271,14289,14305,14322,14339,14356,14372,14389,14405,14422,14437,14455,14472,14489,14505,14522,14539,14553,14571,14587,14604,14622,14639,14654,14670,14687,14704,14720,14740,14756,14770,14787,14804,14820,14837,14856,14873,14889,14906,14923,14938,14954,14973,14990,15006,15023,15038,15055,15072,15089,15105,15122,15139,15156,15172,15189,15206,15222,15239,15255,15271,15287,15304,15321,15337,15354,15372,15390,15406,15423,15440,15456,15473,15490,15506,15523,15540,15555,15571,15588,15604,15621,15638,15655,15673,15690,15707,15723,15740,15757,15774,15790,15807,15824,15840,15857,15873,15890,15907,15924,15938,15955,15972,15988,16008,16022,16038,16055,16072,16089,16105,16122,16138,16155,16172,16189,16205,16222,16240,16257,16274,16290,16307,16324,16341,16357,16374,16391,16406,16422,16439,16455,16474,16493,16508,16524,16541,16557,16574,16591,16608,16624,16641,16658,16674,16689,16706,16722,16739,16756,16773,16792,16809,16825,16841,16857,16873,16889,16906,16923,16940,16956,16973,16990,17006,17023,17040,17057,17073,17090,17107,17125,17141,17158,17175,17191,17207,17224,17240,17257,17273,17291,17307,17324,17340,17357,17374,17391,17407,17424,17441,17457,17474,17491,17507,17524,17541,17559,17576,17591,17608,17624,17641,17657,17674,17692,17709,17725,17742,17757,17776,17793,17809,17826,17842,17858,17875,17892,17909,17925,17942,17959,17976,17993,18009,18025,18042,18059,18076,18092,18109,18126,18143,18160,18177,18191,18208,18224,18241,18258,18274,18291,18308,18325,18341,18358,18375,18392,18408,18426,18443,18458,18474,18491,18510,18526,18543,18559,18575,18592,18609,18626,18642,18659,18675,18692,18709,18725,18743,18759,18776,18793,18810,18826,18843,18860,18877,18893,18910,18927,18941,18958,18974,18991,19008,19026,19042,19059,19075,19092,19109,19125,19141,19158,19175,19194,19210,19227,19244,19260,19277,19293,19309,19325,19343,19359,19377,19395,19410,19425,19441,19458,19475,19493,19508,19526,19543,19561,19578,19592,19608,19625,19644,19661,19677,19694,19711,19728,19745,19761,19778,19794,19811,19827,19844,19861,19876,19892,19909,19926,19943,19961,19977,19995,20011,20026,20042,20059,20075,20092,20109,20126,20144,20161,20177,20194,20210,20227,20244,20261,20277,20294,20311,20328,20344,20359,20376,20395,20411,20428,20445,20462,20476,20493,20509,20526,20543,20559,20578,20593,20609,20626,20643,20662,20678,20695,20712,20729,20745,20762,20778,20795,20812,20826,20845,20860,20876,20893,20912,20929,20946,20962,20979,20993,21010,21027,21043,21060,21077,21094,21112,21129,21145,21162,21179,21196,21210,21229,21245,21262,21277,21294,21310,21328,21345,21362,21378,21395,21412,21428,21445,21462,21478,21494,21510,21527,21544,21561,21579,21596,21613,21629,21646,21662,21680,21696,21713,21729,21746,21763,21779,21796,21813,21830,21846,21863,21879,21895,21912,21928,21944,21961,21980,21994,22011,22028,22045,22063,22080,22096,22113,22130,22146,22163,22180,22197,22213,22230,22247,22263,22278,22295,22312,22329,22345,22362,22379,22397,22413,22430,22447,22464,22480,22497,22514,22530,22547,22563,22580,22597,22613,22629,22645,22662,22679,22695,22712,22728,22746,22762,22778,22795,22812,22831,22845,22862,22878,22895,22912,22931,22945,22962,22979,22995,23012,23029,23045,23062,23079,23095,23112,23129,23146,23163,23181,23195,23212,23231,23245,23262,23279,23296,23313,23330,23348,23365,23381,23398,23414,23431,23448,23462,23479,23496,23512,23529,23546,23562,23579,23596,23613,23629,23646,23663,23680,23697,23714,23731,23748,23764,23781,23798,23814,23831,23847,23865,23881,23898,23915,23931,23948,23965,23979,23996,24013,24030,24046,24063,24080,24096,24113,24130,24148,24165,24182,24199,24213,24232,24249,24266,24282,24299,24315,24332,24347,24364,24380,24399,24416,24430,24447,24463,24481,24499,24517,24532,24549,24565,24582,24599,24615,24632,24649,24666,24680,24697,24714,24730,24749,24766,24780,24797,24814,24833,24847,24866,24880,24898,24914,24930,24947,24965,24981,24999,25014,25031,25047,25064,25081,25097,25114,25131,25148,25164,25181,25197,25214,25231,25247,25264,25282,25299,25316,25333,25348,25364,25381,25398,25415,25433,25449,25466,25483,25500,25516,25532,25548,25566,25582,25598,25615,25631,25648,25665,25681,25698,25715,25733,25750,25765,25781,25798,25815,25831,25848,25865,25881,25898,25915,25931,25948,25965,25982,26000,26015,26032,26048,26065,26083,26099,26115,26132,26148,26165,26182,26199,26217,26234,26250,26267,26284,26300,26317,26334,26350,26367,26384,26400,26417,26434,26451,26467,26482,26499,26515,26534,26551,26565,26582,26601,26618,26632,26649,26666,26682,26699,26716,26732,26752,26766,26782,26799,26816,26832,26849,26866,26882,26899,26916,26932,26949,26967,26984,27001,27018,27035,27049,27066,27083,27100,27117,27133,27151,27166,27185,27202,27218,27235,27251,27267,27283,27299,27316,27333,27350,27368,27385,27400,27416,27433,27450,27466,27483,27500,27519,27533,27550,27566,27583,27600,27619,27635,27652,27666,27683,27700,27717,27733,27750,27769,27783,27800,27817,27834,27852,27867,27883,27900,27917,27934,27950,27967,27984,28000,28017,28033,28051,28067,28084,28101,28119,28134,28150,28167,28184,28202,28219,28236,28253,28270,28285,28301,28318,28336,28351,28367,28384,28401,28417,28435,28451,28470,28486,28503,28520,28536,28553,28568,28584,28601,28618,28635,28653,28670,28686,28703,28720,28736,28753,28770,28786,28803,28820,28836,28853,28870,28887,28904,28920,28937,28953,28968,28984,29001,29018,29037,29054,29070,29087,29103,29120,29135,29154,29170,29187,29203,29220,29237,29254,29270,29287,29304,29320,29337,29353,29370,29387,29404,29420,29437,29454,29471,29487,29504,29520,29535,29552,29569,29585,29602,29621,29635,29652,29669,29686,29703,29720,29737,29754,29769,29786,29802,29819,29835,29852,29869,29887,29903,29919,29936,29952,29969,29986,30004,30021,30038,30055,30071,30086,30105,30121,30138,30154,30171,30188,30204,30221,30238,30254,30270,30286,30303,30321,30338,30353,30369,30386,30403,30419,30436,30453,30469,30487,30505,30521,30538,30555,30572,30586,30603,30619,30636,30653,30671,30688,30705,30722,30738,30755,30772,30788,30805,30822,30838,30855,30872,30888,30903,30920,30937,30954,30970,30987,31004,31021,31037,31053,31070,31090,31103,31120,31137,31153,31170,31187,31206,31220,31239,31254,31270,31290,31306,31323,31339,31356,31373,31389,31406,31422,31439,31456,31472,31489,31506,31523,31538,31554,31570,31587,31604,31620,31637,31654,31671,31687,31704,31721,31737,31754,31771,31787,31804,31821,31838,31856,31873,31890,31904,31921,31938,31955,31971,31988,32004,32021,32038,32054,32071,32088,32104,32121,32138,32155,32171,32188,32205,32221,32238,32255,32271,32288,32305,32321,32338,32355,32371,32388,32405,32421,32438,32455,32471,32488,32505,32522,32538,32556,32573,32590,32605,32621,32639,32655,32671,32688,32705,32721,32738,32755,32772,32788,32805,32822,32838,32855,32872,32888,32905,32922,32938,32955,32972,32989,33008,33024,33041,33056,33072,33089,33107,33124,33141,33157,33172,33189,33205,33223,33242,33258,33272,33289,33305,33322,33341,33356,33372,33389,33407,33422,33439,33457,33474,33491,33508,33524,33539,33556,33572,33590,33608,33623,33639,33656,33673,33690,33708,33725,33742,33758,33775,33791,33808,33826,33839,33856,33873,33889,33906,33923,33942,33956,33973,33990,34006,34023,34040,34056,34073,34092,34107,34123,34140,34157,34173,34190,34206,34223,34240,34258,34274,34291,34308,34324,34342,34359,34375,34392,34408,34425,34442,34458,34476,34490,34507,34523,34540,34558,34575,34590,34607,34623,34640,34657,34674,34690,34707,34724,34740,34757,34774,34791,34807,34825,34842,34857,34874,34890,34909,34924,34940,34957,34976,34993,35008,35024,35041,35058,35075,35093,35110,35126,35143,35157,35174,35191,35208,35225,35241,35258,35274,35292,35308,35324,35341,35358,35375,35393,35410,35428,35443,35460,35476,35493,35510,35527,35542,35558,35575,35591,35608,35625,35641,35658,35675,35692,35708,35725,35742,35759,35775,35793,35810,35827,35844,35860,35877,35895,35911,35927,35945,35961,35977,35994,36012,36027,36044,36061,36077,36094,36111,36129,36144,36161,36177,36194,36211,36227,36244,36261,36278,36295,36309,36326,36343,36359,36376,36393,36410,36426,36443,36460,36479,36493,36510,36526,36543,36560,36576,36593,36611,36627,36644,36661,36677,36693,36710,36726,36743,36760,36777,36794,36811,36828,36845,36861,36878,36895,36912,36928,36946,36962,36979,36994,37010,37026,37043,37060,37077,37093,37112,37126,37143,37160,37179,37193,37210,37226,37244,37260,37276,37293,37310,37327,37343,37359,37377,37393,37409,37426,37443,37460,37476,37496,37510,37530,37543,37560,37576,37593,37610,37626,37643,37660,37676,37693,37710,37727,37744,37762,37780,37796,37812,37829,37846,37862,37877,37893,37910,37927,37944,37961,37979,37996,38011,38027,38044,38060,38077,38094,38112,38129,38147,38162,38179,38196,38213,38227,38244,38260,38277,38294,38311,38327,38344,38361,38378,38395,38412,38429,38444,38461,38477,38497,38511,38527,38545,38561,38577,38594,38611,38628,38644,38661,38677,38697,38714,38727,38744,38761,38778,38794,38811,38828,38844,38861,38878,38894,38911,38928,38944,38961,38978,38995,39012,39028,39045,39062,39080,39097,39114,39130,39148,39161,39178,39195,39214,39230,39247,39263,39280,39297,39314,39329,39345,39362,39378,39395,39412,39428,39445,39462,39479,39496,39513,39529,39545,39562,39578,39596,39613,39630,39647,39664,39679,39695,39712,39728,39745,39762,39779,39795,39812,39829,39845,39862,39879,39896,39913,39929,39945,39965,39981,39998,40014,40031,40048,40062,40079,40096,40112,40129,40148,40162,40179,40196,40212,40229,40246,40262,40279,40296,40312,40329,40346,40363,40379,40396,40413,40430,40448,40465,40481,40498,40513,40529,40546,40563,40580,40597,40615,40632,40648,40665,40682,40697,40714,40731,40746,40763,40780,40796,40815,40830,40846,40867,40880,40896,40915,40930,40946,40963,40980,40996,41013,41030,41046,41063,41080,41096,41113,41130,41147,41163,41180,41197,41214,41230,41247,41263,41280,41297,41313,41331,41348,41365,41382,41399,41416,41432,41449,41465,41481,41497,41513,41530,41548,41565,41582,41599,41616,41630,41647,41664,41683,41697,41714,41731,41747,41764,41781,41797,41814,41830,41847,41864,41881,41897,41914,41931,41947,41964,41981,41998,42015,42031,42047,42064,42081,42098,42114,42131,42148,42165,42181,42197,42214,42231,42248,42264,42281,42298,42314,42332,42348,42365,42382,42399,42414,42431,42448,42465,42482,42499,42515,42532,42549,42566,42583,42599,42616,42632,42648,42665,42681,42698,42715,42732,42749,42766,42783,42798,42815,42832,42848,42866,42882,42898,42915,42932,42949,42966,42983,42998,43017,43034,43051,43067,43084,43101,43117,43132,43149,43165,43182,43199,43217,43232,43249,43265,43282,43299,43315,43334,43349,43366,43382,43399,43416,43432,43449,43466,43482,43499,43516,43532,43549,43567,43583,43599,43616,43632,43649,43666,43682,43699,43716,43732,43749,43766,43782,43799,43816,43833,43849,43866,43883,43899,43916,43933,43949,43966,43983,43999,44016,44033,44049,44066,44083,44099,44116,44133,44150,44166,44183,44199,44216,44233,44250,44266,44283,44300,44316,44333,44350,44366,44383,44400,44417,44433,44450,44467,44483,44500,44517,44533,44550,44567,44583,44600,44617,44634,44650,44667,44683,44700,44717,44733,44750,44767,44784,44800,44817,44836,44850,44867,44884,44900,44917,44934,44951,44968,44986,45002,45018,45034,45051,45068,45085,45101,45118,45135,45152,45167,45184,45201,45218,45235,45251,45268,45285,45301,45318,45335,45352,45368,45385,45401,45418,45434,45451,45467,45484,45501,45518,45534,45551,45568,45585,45601,45618,45634,45651,45668,45686,45702,45719,45734,45751,45768,45786,45801,45818,45835,45851,45868,45885,45902,45919,45935,45952,45969,45985,46002,46018,46035,46051,46068,46085,46102,46119,46135,46151,46168,46185,46203,46220,46235,46254,46268,46285,46302,46318,46336,46352,46369,46385,46402,46418,46435,46452,46469,46486,46503,46519,46535,46552,46569,46586,46602,46619,46635,46652,46669,46685,46702,46719,46737,46752,46769,46786,46803,46821,46838,46854,46871,46888,46904,46920,46936,46952,46969,46986,47003,47021,47037,47054,47071,47088,47104,47121,47136,47152,47169,47186,47203,47221,47238,47254,47270,47286,47303,47320,47337,47354,47370,47386,47403,47419,47436,47453,47470,47488,47505,47522,47537,47553,47570,47587,47603,47620,47637,47654,47670,47687,47704,47721,47737,47754,47770,47786,47803,47821,47838,47854,47871,47888,47904,47921,47938,47954,47971,47988,48004,48021,48038,48055,48071,48088,48104,48121,48138,48155,48171,48187,48204,48221,48238,48256,48272,48289,48306,48323,48339,48356,48372,48389,48406,48423,48439,48455,48470,48487,48504,48521,48537,48554,48571,48587,48604,48621,48638,48654,48671,48688,48704,48721,48738,48755,48771,48787,48804,48821,48838,48855,48871,48888,48905,48922,48938,48956,48972,48989,49005,49022,49039,49056,49071,49088,49105,49122,49139,49157,49173,49190,49206,49223,49239,49256,49271,49288,49305,49321,49338,49355,49372,49389,49405,49422,49439,49455,49472,49489,49505,49522,49539,49555,49572,49588,49605,49622,49638,49656,49672,49689,49705,49722,49739,49757,49773,49789,49805,49822,49839,49855,49872,49889,49905,49922,49939,49955,49972,49989,50005,50022,50039,50055,50072,50089,50106,50122,50139,50155,50172,50189,50206,50222,50239,50256,50272,50289,50306,50323,50340,50356,50372,50389,50406,50424,50441,50458,50475,50491,50508,50525,50539,50556,50573,50589,50607,50624,50640,50658,50674,50689,50706,50723,50739,50756,50773,50790,50806,50823,50840,50856,50873,50890,50907,50923,50940,50956,50973,50990,51006,51023,51040,51057,51073,51090,51107,51123,51140,51157,51173,51190,51206,51223,51240,51257,51274,51290,51307,51323,51340,51357,51373,51390,51407,51423,51440,51457,51474,51490,51507,51526,51542,51559,51574,51590,51607,51624,51640,51657,51674,51690,51707,51724,51740,51757,51776,51791,51807,51824,51841,51857,51874,51892,51909,51926,51942,51959,51976,51992,52009,52026,52042,52059,52076,52092,52107,52127,52141,52158,52174,52191,52208,52224,52241,52258,52274,52291,52308,52324,52341,52358,52374,52391,52408,52425,52441,52458,52474,52491,52508,52525,52541,52558,52577,52591,52608,52627,52641,52658,52675,52691,52708,52725,52741,52758,52775,52792,52808,52825,52842,52858,52875,52894,52911,52927,52944,52961,52975,52992,53009,53026,53044,53060,53075,53092,53108,53125,53142,53159,53178,53192,53209,53226,53242,53259,53275,53292,53309,53326,53342,53359,53375,53392,53409,53426,53443,53461,53478,53494,53511,53528,53544,53561,53578,53594,53611,53628,53642,53659,53676,53693,53709,53726,53743,53759,53776,53793,53810,53826,53843,53860,53878,53895,53912,53928,53943,53959,53976,53993,54010,54026,54043,54060,54076,54093,54112,54126,54143,54160,54177,54193,54210,54227,54245,54262,54279,54295,54312,54330,54346,54362,54379,54395,54412,54429,54444,54461,54478,54493,54510,54527,54547,54560,54577,54594,54610,54627,54644,54661,54677,54694,54711,54727,54745,54760,54778,54795,54811,54827,54844,54861,54878,54894,54911,54927,54944,54962,54978,54994,55011,55028,55044,55061,55078,55097,55114,55128,55144,55161,55178,55194,55214,55228,55245,55264,55278,55295,55311,55328,55345,55361,55378,55395,55411,55429,55445,55462,55478,55496,55512,55529,55545,55561,55579,55595,55611,55628,55645,55662,55679,55696,55713,55730,55747,55763,55778,55795,55812,55829,55846,55862,55879,55896,55912,55929,55945,55962,55979,55995,56013,56029,56046,56062,56079,56096,56112,56129,56146,56163,56179,56196,56213,56230,56246,56263,56282,56296,56313,56330,56347,56363,56380,56396,56413,56430,56446,56463,56480,56497,56513,56530,56549,56564,56580,56597,56614,56630,56647,56664,56680,56697,56714,56730,56747,56764,56781,56798,56814,56831,56847,56865,56883,56898,56915,56931,56948,56964,56980,56997,57014,57031,57049,57066,57081,57098,57115,57134,57148,57164,57181,57198,57215,57231,57248,57264,57282,57298,57316,57333,57348,57365,57382,57398,57415,57432,57448,57465,57482,57498,57515,57532,57549,57565,57582,57599,57616,57632,57648,57665,57682,57699,57715,57732,57751,57765,57782,57799,57816,57834,57851,57865,57882,57902,57918,57933,57949,57969,57985,58001,58018,58037,58052,58069,58085,58102,58119,58135,58152,58167,58184,58200,58217,58233,58250,58267,58284,58301,58318,58335,58352,58369,58385,58402,58418,58435,58450,58467,58485,58500,58517,58534,58550,58567,58584,58601,58617,58634,58651,58667,58684,58701,58718,58735,58751,58768,58784,58801,58818,58834,58851,58868,58884,58901,58918,58935,58952,58968,58985,59001,59018,59035,59051,59068,59085,59102,59118,59135,59151,59168,59185,59202,59218,59235,59252,59268,59286,59302,59319,59336,59352,59369,59385,59402,59419,59436,59452,59469,59486,59502,59519,59536,59552,59570,59586,59603,59620,59636,59653,59669,59687,59704,59720,59737,59754,59770,59787,59803,59820,59837,59853,59872,59886,59903,59920,59936,59953,59970,59986,60003,60020,60037,60054,60070,60087,60104,60120,60137,60154,60170,60187,60204,60220,60237,60254,60270,60287,60304,60321,60337,60356,60370,60387,60404,60421,60437,60454,60471,60488,60504,60521,60538,60554,60571,60588,60604,60624,60639,60655,60671,60688,60705,60724,60741,60754,60771,60788,60805,60822,60839,60855,60872,60889,60905,60922,60939,60955,60975,60988,61005,61022,61039,61056,61072,61089,61105,61122,61140,61156,61175,61189,61206,61222,61239,61256,61272,61289,61306,61322,61340,61358,61376,61389,61406,61423,61440,61456,61472,61490,61507,61523,61542,61556,61573,61590,61606,61623,61640,61658,61675,61692,61708,61723,61740,61757,61774,61790,61807,61823,61840,61857,61874,61890,61909,61924,61941,61957,61977,61990,62008,62024,62040,62057,62074,62091,62107,62124,62140,62158,62175,62191,62208,62224,62241,62258,62274,62294,62310,62324,62341,62358,62374,62391,62408,62424,62441,62458,62474,62491,62511,62525,62544,62561,62575,62591,62608,62625,62642,62658,62675,62693,62708,62725,62744,62758,62775,62792,62808,62825,62842,62858,62875,62892,62908,62928,62942,62959,62975,62992,63009,63026,63042,63059,63076,63092,63109,63126,63143,63159,63176,63193,63209,63226,63243,63259,63276,63293,63310,63326,63343,63359,63376,63393,63412,63426,63446,63462,63478,63495,63512,63529,63543,63560,63577,63594,63610,63630,63646,63660,63677,63694,63711,63728,63744,63763,63779,63796,63813,63830,63847,63863,63877,63894,63911,63928,63947,63961,63980,63994,64010,64028,64045,64061,64080,64094,64111,64128,64145,64162,64179,64194,64211,64228,64245,64261,64279,64295,64311,64328,64346,64363,64380,64397,64411,64428,64445,64462,64479,64495,64512,64530,64547,64564,64581,64597,64612,64628,64645,64662,64679,64696,64712,64729,64745,64762,64779,64796,64812,64829,64846,64863,64879,64896,64913,64929,64946,64963,64979,64996,65013,65029,65046,65064,65081,65096,65113,65130,65146,65163,65180,65196,65216,65233,65249,65263,65280,65296,65313,65330,65349,65363,65380,65397,65414,65430,65447,65464,65480,65496,65514,65530,65547,65564,65580,65597,65614,65631,65648,65665,65680,65697,65714,65733,65749,65766,65783,65799,65816,65831,65847,65864,65881,65898,65914,65931,65948,65964,65981,65998,66015,66031,66048,66065,66081,66098,66115,66132,66149,66165,66182,66199,66215,66231,66249,66266,66282,66298,66315,66332,66348,66365,66382,66399,66416,66433,66449,66465,66482,66499,66515,66535,66549,66566,66582,66599,66616,66634,66649,66666,66682,66699,66716,66732,66749,66766,66783,66800,66817,66833,66849,66866,66883,66900,66916,66933,66950,66967,66984,67000,67017,67033,67050,67066,67084,67100,67117,67133,67152,67167,67183,67200,67219,67236,67252,67268,67286,67300,67317,67336,67351,67367,67384,67400,67417,67434,67453,67467,67484,67500,67517,67534,67551,67568,67585,67601,67618,67634,67651,67668,67684,67701,67720,67734,67751,67768,67785,67801,67819,67835,67851,67868,67885,67902,67918,67935,67951,67968,67985,68002,68018,68035,68052,68068,68085,68102,68119,68135,68152,68169,68185,68202,68218,68235,68253,68269,68286,68302,68319,68336,68355,68369,68386,68402,68421,68438,68455,68471,68488,68502,68519,68536,68553,68569,68586,68603,68619,68636,68653,68672,68686,68703,68719,68736,68753,68771,68788,68805,68819,68836,68853,68870,68889,68905,68920,68937,68953,68971,68987,69004,69021,69037,69054,69070,69090,69106,69123,69139,69154,69171,69187,69204,69221,69238,69257,69271,69287,69306,69323,69337,69354,69371,69388,69405,69421,69438,69455,69471,69488,69505,69522,69538,69555,69572,69588,69605,69622,69638,69655,69672,69689,69705,69722,69741,69754,69771,69788,69806,69822,69839,69855,69874,69888,69905,69922,69939,69955,69972,69989,70008,70022,70039,70056,70072,70089,70106,70122,70141,70158,70172,70189,70206,70223,70240,70256,70275,70289,70306,70322,70340,70356,70373,70390,70408,70425,70441,70458,70475,70491,70507,70524,70541,70556,70573,70590,70607,70624,70641,70658,70675,70692,70707,70724,70740,70757,70774,70791,70807,70824,70840,70857,70874,70890,70907,70924,70940,70957,70974,70990,71007,71024,71041,71057,71074,71091,71110,71124,71141,71158,71176,71193,71210,71226,71243,71260,71277,71293,71310,71327,71343,71360,71377,71394,71408,71427,71443,71460,71477,71493,71510,71527,71544,71560,71577,71594,71610,71627,71644,71658,71676,71692,71709,71725,71742,71759,71775,71792,71809,71826,71842,71859,71876,71892,71909,71926,71942,71959,71976,71992,72009,72026,72044,72061,72078,72095,72111,72128,72145,72161,72178,72195,72213,72230,72245,72261,72278,72294,72311,72328,72345,72362,72379,72396,72413,72429,72447,72463,72480,72496,72513,72530,72545,72561,72578,72596,72613,72630,72646,72663,72680,72695,72711,72730,72747,72764,72781,72797,72814,72831,72847,72864,72880,72897,72914,72932,72947,72964,72981,72997,73014,73031,73048,73062,73078,73095,73112,73129,73145,73162,73180,73197,73213,73230,73245,73262,73279,73296,73312,73329,73347,73364,73382,73396,73412,73429,73446,73463,73480,73498,73514,73531,73548,73565,73581,73598,73613,73632,73650,73663,73679,73696,73713,73730,73746,73763,73780,73797,73813,73830,73846,73864,73880,73897,73913,73930,73947,73963,73980,73997,74016,74030,74047,74063,74080,74099,74115,74130,74147,74164,74180,74197,74216,74230,74247,74264,74281,74297,74314,74331,74347,74364,74381,74398,74414,74431,74447,74464,74481,74500,74513,74531,74547,74564,74580,74597,74615,74633,74649,74666,74685,74697,74713,74731,74748,74765,74781,74798,74814,74831,74848,74865,74881,74898,74915,74931,74948,74967,74981,74998,75015,75032,75048,75066,75082,75098,75115,75132,75151,75165,75182,75201,75215,75232,75249,75266,75282,75299,75315,75332,75351,75366,75382,75399,75416,75432,75449,75466,75482,75499,75516,75533,75549,75566,75583,75600,75617,75633,75649,75666,75683,75699,75717,75733,75750,75766,75783,75800,75816,75836,75850,75866,75883,75900,75916,75933,75953,75966,75983,76000,76017,76033,76050,76067,76084,76100,76119,76136,76153,76167,76186,76200,76217,76234,76251,76267,76285,76300,76317,76333,76351,76368,76385,76400,76417,76434,76451,76467,76484,76501,76520,76536,76553,76570,76585,76602,76618,76635,76651,76669,76685,76703,76718,76735,76751,76771,76785,76802,76818,76835,76852,76868,76885,76902,76918,76936,76952,76969,76986,77002,77019,77036,77053,77069,77085,77102,77119,77135,77152,77169,77185,77202,77219,77236,77255,77269,77286,77302,77319,77336,77352,77370,77386,77403,77419,77436,77453,77469,77486,77503,77520,77536,77553,77572,77589,77605,77622,77636,77653,77670,77687,77703,77720,77737,77754,77770,77789,77804,77820,77838,77854,77870,77887,77903,77921,77938,77955,77974,77989,78003,78020,78037,78054,78071,78087,78104,78121,78138,78155,78171,78188,78205,78222,78238,78255,78271,78288,78304,78321,78338,78355,78371,78388,78404,78422,78440,78454,78474,78491,78507,78523,78538,78554,78571,78589],"hit":[null],"x":[-1.8775510204081634,-1.8775510204081634,-1.8775510204081634,-1.8775510204081634,-1.8775510204081634,-1.8775510204081634,-1.8775510204081634,-1.8775510204081634,-1.8775510204081634,-1.8775510204081634,0.02040816326530612,0.017006802721088437,0.013605442176870748,0.003401360544217687,-0.003401360544217687,-0.013605442176870748,-0.013605442176870748,-0.013605442176870748,-0.013605442176870748,-0.013605442176870748,-0.013605442176870748,-0.013605442176870748,-0.013605442176870748,-0.013605442176870748,-0.013605442176870748,-0.013605442176870748,-0.013605442176870748,-0.013605442176870748,-0.013605442176870748,-0.013605442176870748,-0.013605442176870748,-0.01020408163265306,-0.003401360544217687,-0.003401360544217687,-0.003401360544217687,-0.003401360544217687,-0.017006802721088437,-0.061224489795918366,-0.09523809523809523,-0.1326530612244898,-0.17687074829931973,-0.21768707482993196,-0.24149659863945577,-0.2585034013605442,-0.2619047619047619,-0.2619047619047619,-0.2585034013605442,-0.2585034013605442,-0.2687074829931973,-0.2755102040816326,-0.2857142857142857,-0.2925170068027211,-0.30272108843537415,-0.30612244897959184,-0.30612244897959184,-0.30272108843537415,-0.29931972789115646,-0.29591836734693877,-0.29591836734693877,-0.2925170068027211,-0.2891156462585034,-0.2891156462585034,-0.2891156462585034,-0.2891156462585034,-0.2891156462585034,-0.2891156462585034,-0.2891156462585034,-0.2891156462585034,-0.2891156462585034,-0.2891156462585034,-0.2891156462585034,-0.2891156462585034,-0.2891156462585034,-0.2891156462585034,-0.2891156462585034,-0.2891156462585034,-0.2891156462585034,-0.2891156462585034,-0.2891156462585034,-0.2891156462585034,-0.2891156462585034,-0.2891156462585034,-0.2891156462585034,-0.2891156462585034,-0.2891156462585034,-0.2891156462585034,-0.2891156462585034,-0.2891156462585034,-0.2891156462585034,-0.2891156462585034,-0.2891156462585034,-0.2891156462585034,-0.2891156462585034,-0.2891156462585034,-0.2891156462585034,-0.2891156462585034,-0.2891156462585034,-0.2891156462585034,-0.2891156462585034,-0.2891156462585034,-0.2891156462585034,-0.2891156462585034,-0.2891156462585034,-0.2891156462585034,-0.2891156462585034,-0.2891156462585034,-0.2891156462585034,-0.2891156462585034,-0.2891156462585034,-0.2891156462585034,-0.2891156462585034,-0.2891156462585034,-0.2891156462585034,-0.2891156462585034,-0.2891156462585034,-0.2891156462585034,-0.2891156462585034,-0.2891156462585034,-0.282312925170068,-0.24489795918367346,-0.16666666666666666,-0.14965986394557823,-0.1326530612244898,-0.12244897959183673,-0.12244897959183673,-0.12244897959183673,-0.12244897959183673,-0.12244897959183673,-0.12244897959183673,-0.12244897959183673,-0.12244897959183673,-0.1360544217687075,-0.14285714285714285,-0.14625850340136054,-0.1564625850340136,-0.16326530612244897,-0.16326530612244897,-0.16326530612244897,-0.16326530612244897,-0.16326530612244897,-0.16326530612244897,-0.16326530612244897,-0.17006802721088435,-0.17687074829931973,-0.1836734693877551,-0.1836734693877551,-0.1836734693877551,-0.1836734693877551,-0.19047619047619047,-0.19727891156462585,-0.19387755102040816,-0.15306122448979592,-0.09523809523809523,-0.017006802721088437,0.013605442176870748,0.023809523809523808,0.03741496598639456,0.04421768707482993,0.05102040816326531,0.061224489795918366,0.07482993197278912,0.1054421768707483,0.11904761904761904,0.12585034013605442,0.1326530612244898,0.1360544217687075,0.1360544217687075,0.13945578231292516,0.13945578231292516,0.14285714285714285,0.14285714285714285,0.14625850340136054,0.14625850340136054,0.14965986394557823,0.1598639455782313,0.19047619047619047,0.2585034013605442,0.3129251700680272,0.3673469387755102,0.391156462585034,0.40476190476190477,0.40476190476190477,0.40476190476190477,0.40476190476190477,0.40476190476190477,0.40476190476190477,0.40476190476190477,0.40476190476190477,0.4013605442176871,0.4013605442176871,0.4013605442176871,0.4013605442176871,0.4013605442176871,0.4013605442176871,0.4013605442176871,0.4013605442176871,0.40816326530612246,0.43537414965986393,0.4931972789115646,0.564625850340136,0.673469387755102,0.6972789115646258,0.7108843537414966,0.7142857142857143,0.7142857142857143,0.7142857142857143,0.7142857142857143,0.7108843537414966,0.7108843537414966,0.7108843537414966,0.7108843537414966,0.7108843537414966,0.7108843537414966,0.7108843537414966,0.7108843537414966,0.7108843537414966,0.717687074829932,0.7346938775510204,0.7755102040816326,0.8129251700680272,0.8503401360544217,0.8775510204081632,0.8809523809523809,0.8809523809523809,0.8673469387755102,0.8469387755102041,0.8163265306122449,0.782312925170068,0.7278911564625851,0.6768707482993197,0.6190476190476191,0.5476190476190477,0.5,0.46598639455782315,0.4523809523809524,0.4523809523809524,0.45918367346938777,0.46598639455782315,0.46598639455782315,0.46938775510204084,0.47619047619047616,0.48299319727891155,0.4931972789115646,0.5,0.5034013605442177,0.5068027210884354,0.5068027210884354,0.5068027210884354,0.5102040816326531,0.5238095238095238,0.564625850340136,0.6054421768707483,0.6598639455782312,0.7006802721088435,0.7108843537414966,0.7210884353741497,0.7346938775510204,0.7619047619047619,0.8333333333333334,0.8775510204081632,0.8979591836734694,0.9115646258503401,0.9115646258503401,0.9115646258503401,0.9115646258503401,0.9115646258503401,0.9115646258503401,0.9115646258503401,0.9115646258503401,0.9149659863945578,0.9183673469387755,0.9217687074829932,0.9251700680272109,0.9251700680272109,0.9251700680272109,0.9217687074829932,0.9115646258503401,0.8843537414965986,0.8503401360544217,0.8299319727891157,0.8197278911564626,0.8163265306122449,0.8163265306122449,0.8231292517006803,0.8367346938775511,0.8503401360544217,0.8673469387755102,0.8809523809523809,0.8945578231292517,0.9013605442176871,0.9081632653061225,0.9183673469387755,0.9285714285714286,0.9455782312925171,0.9489795918367347,0.9489795918367347,0.9523809523809523,0.9523809523809523,0.95578231292517,0.95578231292517,0.95578231292517,0.95578231292517,0.95578231292517,0.95578231292517,0.9591836734693877,0.9591836734693877,0.9659863945578231,0.9693877551020408,0.9761904761904762,0.9829931972789115,0.9829931972789115,0.9829931972789115,0.9829931972789115,0.9863945578231292,0.9897959183673469,0.9897959183673469,0.9931972789115646,0.9931972789115646,0.9931972789115646,0.9931972789115646,0.9931972789115646,0.9931972789115646,0.9931972789115646,0.9931972789115646,0.9931972789115646,0.9931972789115646,0.9931972789115646,0.9931972789115646,0.9931972789115646,0.9931972789115646,0.9931972789115646,0.9931972789115646,0.9931972789115646,0.9931972789115646,0.9931972789115646,0.9931972789115646,0.9931972789115646,0.9931972789115646,0.9931972789115646,0.9931972789115646,0.9897959183673469,0.9829931972789115,0.9693877551020408,0.9591836734693877,0.9421768707482994,0.9183673469387755,0.8945578231292517,0.8707482993197279,0.8401360544217688,0.7993197278911565,0.7414965986394558,0.673469387755102,0.6054421768707483,0.5136054421768708,0.4523809523809524,0.3843537414965986,0.3333333333333333,0.2857142857142857,0.24829931972789115,0.20748299319727892,0.17006802721088435,0.14285714285714285,0.12585034013605442,0.11564625850340136,0.11224489795918367,0.11224489795918367,0.11224489795918367,0.11224489795918367,0.11224489795918367,0.11224489795918367,0.11224489795918367,0.11224489795918367,0.11224489795918367,0.11224489795918367,0.11224489795918367,0.11224489795918367,0.11224489795918367,0.11224489795918367,0.11224489795918367,0.11224489795918367,0.11224489795918367,0.11224489795918367,0.11224489795918367,0.11224489795918367,0.11224489795918367,0.11224489795918367,0.11224489795918367,0.11224489795918367,0.11224489795918367,0.11224489795918367,0.11224489795918367,0.11224489795918367,0.11224489795918367,0.11224489795918367,0.11224489795918367,0.11224489795918367,0.10204081632653061,0.05782312925170068,0.030612244897959183,-0.01020408163265306,-0.04421768707482993,-0.07142857142857142,-0.09523809523809523,-0.12244897959183673,-0.14285714285714285,-0.15306122448979592,-0.16326530612244897,-0.17346938775510204,-0.1836734693877551,-0.19047619047619047,-0.19047619047619047,-0.19387755102040816,-0.19387755102040816,-0.20068027210884354,-0.20408163265306123,-0.20408163265306123,-0.2108843537414966,-0.2108843537414966,-0.2108843537414966,-0.2108843537414966,-0.2108843537414966,-0.2108843537414966,-0.2108843537414966,-0.2108843537414966,-0.2108843537414966,-0.2108843537414966,-0.2108843537414966,-0.2108843537414966,-0.2108843537414966,-0.2108843537414966,-0.2108843537414966,-0.2108843537414966,-0.2108843537414966,-0.2108843537414966,-0.2108843537414966,-0.2108843537414966,-0.2108843537414966,-0.2108843537414966,-0.2108843537414966,-0.2108843537414966,-0.2108843537414966,-0.2108843537414966,-0.2108843537414966,-0.2108843537414966,-0.2108843537414966,-0.2108843537414966,-0.2108843537414966,-0.2108843537414966,-0.2108843537414966,-0.2108843537414966,-0.2108843537414966,-0.2108843537414966,-0.2108843537414966,-0.2108843537414966,-0.2108843537414966,-0.2108843537414966,-0.2108843537414966,-0.21428571428571427,-0.22108843537414966,-0.22108843537414966,-0.22108843537414966,-0.22108843537414966,-0.21768707482993196,-0.21768707482993196,-0.22448979591836735,-0.23129251700680273,-0.23469387755102042,-0.23469387755102042,-0.23469387755102042,-0.23469387755102042,-0.23469387755102042,-0.23469387755102042,-0.23809523809523808,-0.23809523809523808,-0.23809523809523808,-0.23809523809523808,-0.23809523809523808,-0.23809523809523808,-0.23809523809523808,-0.23809523809523808,-0.23809523809523808,-0.23809523809523808,-0.23809523809523808,-0.23809523809523808,-0.23809523809523808,-0.23809523809523808,-0.23809523809523808,-0.23809523809523808,-0.23809523809523808,-0.24829931972789115,-0.25510204081632654,-0.25510204081632654,-0.25510204081632654,-0.2585034013605442,-0.25510204081632654,-0.25510204081632654,-0.25170068027210885,-0.25170068027210885,-0.25510204081632654,-0.25510204081632654,-0.25510204081632654,-0.25510204081632654,-0.25510204081632654,-0.25510204081632654,-0.25510204081632654,-0.25510204081632654,-0.25510204081632654,-0.25510204081632654,-0.25510204081632654,-0.25510204081632654,-0.25510204081632654,-0.25510204081632654,-0.25510204081632654,-0.25510204081632654,-0.25510204081632654,-0.25510204081632654,-0.25510204081632654,-0.25510204081632654,-0.25510204081632654,-0.25510204081632654,-0.25510204081632654,-0.25510204081632654,-0.25510204081632654,-0.25510204081632654,-0.25510204081632654,-0.25510204081632654,-0.25510204081632654,-0.25510204081632654,-0.25510204081632654,-0.25510204081632654,-0.25510204081632654,-0.25510204081632654,-0.25510204081632654,-0.25510204081632654,-0.25170068027210885,-0.25170068027210885,-0.25170068027210885,-0.24829931972789115,-0.24829931972789115,-0.24829931972789115,-0.24829931972789115,-0.24829931972789115,-0.24829931972789115,-0.24829931972789115,-0.24829931972789115,-0.24829931972789115,-0.24829931972789115,-0.24829931972789115,-0.24829931972789115,-0.24829931972789115,-0.24829931972789115,-0.24829931972789115,-0.24829931972789115,-0.24829931972789115,-0.24829931972789115,-0.24829931972789115,-0.24829931972789115,-0.24829931972789115,-0.24829931972789115,-0.24829931972789115,-0.23129251700680273,-0.21768707482993196,-0.20068027210884354,-0.19387755102040816,-0.19387755102040816,-0.19387755102040816,-0.19387755102040816,-0.19387755102040816,-0.19387755102040816,-0.19387755102040816,-0.19387755102040816,-0.19387755102040816,-0.19387755102040816,-0.19727891156462585,-0.19727891156462585,-0.19727891156462585,-0.19727891156462585,-0.19727891156462585,-0.19727891156462585,-0.19727891156462585,-0.19727891156462585,-0.19727891156462585,-0.19727891156462585,-0.19727891156462585,-0.19727891156462585,-0.19727891156462585,-0.19727891156462585,-0.19727891156462585,-0.20408163265306123,-0.23129251700680273,-0.2585034013605442,-0.2653061224489796,-0.2653061224489796,-0.2653061224489796,-0.2653061224489796,-0.2653061224489796,-0.2585034013605442,-0.25170068027210885,-0.24489795918367346,-0.24489795918367346,-0.24489795918367346,-0.24489795918367346,-0.24489795918367346,-0.24489795918367346,-0.24489795918367346,-0.24489795918367346,-0.24489795918367346,-0.24489795918367346,-0.23809523809523808,-0.22789115646258504,-0.21768707482993196,-0.21768707482993196,-0.21428571428571427,-0.21428571428571427,-0.21428571428571427,-0.21428571428571427,-0.21428571428571427,-0.21428571428571427,-0.21428571428571427,-0.21428571428571427,-0.21428571428571427,-0.21428571428571427,-0.21428571428571427,-0.21428571428571427,-0.21428571428571427,-0.21428571428571427,-0.22108843537414966,-0.22108843537414966,-0.22108843537414966,-0.22108843537414966,-0.22108843537414966,-0.22108843537414966,-0.22108843537414966,-0.22108843537414966,-0.22108843537414966,-0.22108843537414966,-0.22108843537414966,-0.20748299319727892,-0.14965986394557823,-0.0782312925170068,-0.023809523809523808,0.006802721088435374,0.02040816326530612,0.034013605442176874,0.03741496598639456,0.03741496598639456,0.04081632653061224,0.04421768707482993,0.04421768707482993,0.04421768707482993,0.047619047619047616,0.05102040816326531,0.05442176870748299,0.061224489795918366,0.06802721088435375,0.08843537414965986,0.12585034013605442,0.19727891156462585,0.24489795918367346,0.29931972789115646,0.35034013605442177,0.3945578231292517,0.4387755102040816,0.48299319727891155,0.5102040816326531,0.5306122448979592,0.54421768707483,0.5578231292517006,0.5782312925170068,0.6054421768707483,0.6360544217687075,0.6836734693877551,0.7380952380952381,0.7755102040816326,0.7993197278911565,0.8129251700680272,0.8163265306122449,0.8197278911564626,0.826530612244898,0.8435374149659864,0.8605442176870748,0.8673469387755102,0.8707482993197279,0.8741496598639455,0.8741496598639455,0.8741496598639455,0.8809523809523809,0.8843537414965986,0.8945578231292517,0.9047619047619048,0.9081632653061225,0.9115646258503401,0.9115646258503401,0.9115646258503401,0.9149659863945578,0.9183673469387755,0.9217687074829932,0.9251700680272109,0.9285714285714286,0.9285714285714286,0.9285714285714286,0.9285714285714286,0.9285714285714286,0.9285714285714286,0.9285714285714286,0.9285714285714286,0.9285714285714286,0.9285714285714286,0.9285714285714286,0.9285714285714286,0.9251700680272109,0.9183673469387755,0.9047619047619048,0.8945578231292517,0.891156462585034,0.8843537414965986,0.8843537414965986,0.8809523809523809,0.8775510204081632,0.8707482993197279,0.8673469387755102,0.8639455782312925,0.8639455782312925,0.8605442176870748,0.8605442176870748,0.8605442176870748,0.8605442176870748,0.8673469387755102,0.9115646258503401,0.9455782312925171,0.9693877551020408,0.9829931972789115,1.0034013605442176,1.0170068027210883,1.0272108843537415,1.064625850340136,1.0850340136054422,1.098639455782313,1.1564625850340136,1.1734693877551021,1.1802721088435375,1.1802721088435375,1.1802721088435375,1.1802721088435375,1.1802721088435375,1.1802721088435375,1.1802721088435375,1.1802721088435375,1.1802721088435375,1.1802721088435375,1.1802721088435375,1.1802721088435375,1.1802721088435375,1.1768707482993197,1.1734693877551021,1.1666666666666667,1.163265306122449,1.163265306122449,1.1598639455782314,1.1598639455782314,1.1598639455782314,1.1598639455782314,1.1598639455782314,1.1598639455782314,1.1598639455782314,1.1598639455782314,1.1598639455782314,1.1598639455782314,1.1598639455782314,1.1598639455782314,1.1598639455782314,1.1598639455782314,1.1598639455782314,1.1598639455782314,1.1598639455782314,1.1598639455782314,1.1598639455782314,1.1598639455782314,1.1598639455782314,1.1598639455782314,1.1598639455782314,1.1598639455782314,1.1598639455782314,1.1598639455782314,1.1598639455782314,1.1598639455782314,1.1598639455782314,1.1598639455782314,1.163265306122449,1.163265306122449,1.163265306122449,1.163265306122449,1.1564625850340136,1.1224489795918366,1.0816326530612246,1.0272108843537415,0.935374149659864,0.7891156462585034,0.7585034013605442,0.6938775510204082,0.6938775510204082,0.6938775510204082,0.6938775510204082,0.6870748299319728,0.6258503401360545,0.5374149659863946,0.445578231292517,0.36394557823129253,0.3231292517006803,0.282312925170068,0.25510204081632654,0.24489795918367346,0.24149659863945577,0.24149659863945577,0.24149659863945577,0.24149659863945577,0.23469387755102042,0.22448979591836735,0.22108843537414966,0.21428571428571427,0.21428571428571427,0.21428571428571427,0.21428571428571427,0.21428571428571427,0.21428571428571427,0.21428571428571427,0.21428571428571427,0.21428571428571427,0.21428571428571427,0.21428571428571427,0.21428571428571427,0.21428571428571427,0.21428571428571427,0.21428571428571427,0.21428571428571427,0.21428571428571427,0.21428571428571427,0.21428571428571427,0.21428571428571427,0.21428571428571427,0.21428571428571427,0.21428571428571427,0.21428571428571427,0.21428571428571427,0.21428571428571427,0.21428571428571427,0.21428571428571427,0.21428571428571427,0.21428571428571427,0.21428571428571427,0.21428571428571427,0.21428571428571427,0.21428571428571427,0.21428571428571427,0.21428571428571427,0.21428571428571427,0.21428571428571427,0.21428571428571427,0.21428571428571427,0.21428571428571427,0.21428571428571427,0.21428571428571427,0.21428571428571427,0.21428571428571427,0.21428571428571427,0.21428571428571427,0.21428571428571427,0.21428571428571427,0.21428571428571427,0.21428571428571427,0.21428571428571427,0.20748299319727892,0.19727891156462585,0.19727891156462585,0.2891156462585034,0.47959183673469385,0.5306122448979592,0.5680272108843537,0.608843537414966,0.6530612244897959,0.6530612244897959,0.6530612244897959,0.6360544217687075,0.6156462585034014,0.5782312925170068,0.5510204081632653,0.5204081632653061,0.5102040816326531,0.5102040816326531,0.5102040816326531,0.5068027210884354,0.5068027210884354,0.5034013605442177,0.4965986394557823,0.4897959183673469,0.48639455782312924,0.48639455782312924,0.48639455782312924,0.48639455782312924,0.48639455782312924,0.48639455782312924,0.48639455782312924,0.48639455782312924,0.48639455782312924,0.48639455782312924,0.48639455782312924,0.48639455782312924,0.48639455782312924,0.48639455782312924,0.48639455782312924,0.48639455782312924,0.48639455782312924,0.48639455782312924,0.48639455782312924,0.48639455782312924,0.48639455782312924,0.48639455782312924,0.48639455782312924,0.48639455782312924,0.48639455782312924,0.48639455782312924,0.48639455782312924,0.48639455782312924,0.48639455782312924,0.48639455782312924,0.48639455782312924,0.48639455782312924,0.48639455782312924,0.48639455782312924,0.48639455782312924,0.48639455782312924,0.48639455782312924,0.48639455782312924,0.48639455782312924,0.48639455782312924,0.48639455782312924,0.48639455782312924,0.48639455782312924,0.48639455782312924,0.48639455782312924,0.48639455782312924,0.48639455782312924,0.48639455782312924,0.48639455782312924,0.48639455782312924,0.48639455782312924,0.48639455782312924,0.48639455782312924,0.48639455782312924,0.48639455782312924,0.48639455782312924,0.48639455782312924,0.48639455782312924,0.48639455782312924,0.4965986394557823,0.5102040816326531,0.5136054421768708,0.5170068027210885,0.5170068027210885,0.5204081632653061,0.5204081632653061,0.5204081632653061,0.5204081632653061,0.5170068027210885,0.5136054421768708,0.5068027210884354,0.48639455782312924,0.46598639455782315,0.45918367346938777,0.4557823129251701,0.4557823129251701,0.4557823129251701,0.4557823129251701,0.4557823129251701,0.4557823129251701,0.4557823129251701,0.4557823129251701,0.4557823129251701,0.4557823129251701,0.4557823129251701,0.4557823129251701,0.4557823129251701,0.4557823129251701,0.4557823129251701,0.4557823129251701,0.4557823129251701,0.4557823129251701,0.4557823129251701,0.4557823129251701,0.4557823129251701,0.4557823129251701,0.4557823129251701,0.4557823129251701,0.4557823129251701,0.4557823129251701,0.4557823129251701,0.4557823129251701,0.4557823129251701,0.4557823129251701,0.4489795918367347,0.3945578231292517,0.36054421768707484,0.336734693877551,0.3163265306122449,0.3163265306122449,0.3129251700680272,0.30952380952380953,0.29931972789115646,0.2925170068027211,0.2857142857142857,0.2857142857142857,0.2857142857142857,0.2857142857142857,0.282312925170068,0.2755102040816326,0.272108843537415,0.2687074829931973,0.272108843537415,0.272108843537415,0.272108843537415,0.272108843537415,0.2755102040816326,0.2755102040816326,0.2755102040816326,0.2755102040816326,0.2755102040816326,0.2755102040816326,0.2755102040816326,0.2755102040816326,0.2755102040816326,0.2755102040816326,0.2755102040816326,0.2755102040816326,0.2755102040816326,0.2755102040816326,0.2789115646258503,0.23469387755102042,0.16326530612244897,0.16326530612244897,0.16326530612244897,0.16326530612244897,0.17346938775510204,0.20068027210884354,0.24829931972789115,0.282312925170068,0.29591836734693877,0.29931972789115646,0.29931972789115646,0.29931972789115646,0.29931972789115646,0.29931972789115646,0.29931972789115646,0.29931972789115646,0.29591836734693877,0.2891156462585034,0.2857142857142857,0.2857142857142857,0.2857142857142857,0.2857142857142857,0.2857142857142857,0.2789115646258503,0.2755102040816326,0.272108843537415,0.2687074829931973,0.2687074829931973,0.2687074829931973,0.2687074829931973,0.2687074829931973,0.2687074829931973,0.2687074829931973,0.2687074829931973,0.2687074829931973,0.2687074829931973,0.2687074829931973,0.2687074829931973,0.2687074829931973,0.2687074829931973,0.2687074829931973,0.2687074829931973,0.2687074829931973,0.2687074829931973,0.2687074829931973,0.2687074829931973,0.2687074829931973,0.2687074829931973,0.2687074829931973,0.2653061224489796,0.25170068027210885,0.22108843537414966,0.1870748299319728,0.1836734693877551,0.1836734693877551,0.1836734693877551,0.1836734693877551,0.1836734693877551,0.1836734693877551,0.1836734693877551,0.1836734693877551,0.1836734693877551,0.18027210884353742,0.17687074829931973,0.17687074829931973,0.17687074829931973,0.17687074829931973,0.17687074829931973,0.17687074829931973,0.17687074829931973,0.17687074829931973,0.17687074829931973,0.17687074829931973,0.17687074829931973,0.17687074829931973,0.17687074829931973,0.17687074829931973,0.17687074829931973,0.17687074829931973,0.17687074829931973,0.17687074829931973,0.17687074829931973,0.17687074829931973,0.17687074829931973,0.17687074829931973,0.17687074829931973,0.17687074829931973,0.17687074829931973,0.17687074829931973,0.17687074829931973,0.17687074829931973,0.17687074829931973,0.17687074829931973,0.17687074829931973,0.17687074829931973,0.17687074829931973,0.17687074829931973,0.17687074829931973,0.17687074829931973,0.17687074829931973,0.17687074829931973,0.17687074829931973,0.16666666666666666,0.16326530612244897,0.16326530612244897,0.16326530612244897,0.16326530612244897,0.1598639455782313,0.1598639455782313,0.1598639455782313,0.1598639455782313,0.1598639455782313,0.1598639455782313,0.1598639455782313,0.1598639455782313,0.1564625850340136,0.1564625850340136,0.1564625850340136,0.1564625850340136,0.1564625850340136,0.1564625850340136,0.1564625850340136,0.1564625850340136,0.15306122448979592,0.14625850340136054,0.1326530612244898,0.1326530612244898,0.1326530612244898,0.1326530612244898,0.1326530612244898,0.1326530612244898,0.1326530612244898,0.1292517006802721,0.1292517006802721,0.1292517006802721,0.1292517006802721,0.13945578231292516,0.14965986394557823,0.1598639455782313,0.1598639455782313,0.1598639455782313,0.1598639455782313,0.1598639455782313,0.1598639455782313,0.1598639455782313,0.1564625850340136,0.14965986394557823,0.13945578231292516,0.13945578231292516,0.13945578231292516,0.13945578231292516,0.13945578231292516,0.13945578231292516,0.13945578231292516,0.13945578231292516,0.13945578231292516,0.13945578231292516,0.13945578231292516,0.13945578231292516,0.14625850340136054,0.1836734693877551,0.19727891156462585,0.22108843537414966,0.23809523809523808,0.24489795918367346,0.24489795918367346,0.24489795918367346,0.24489795918367346,0.24829931972789115,0.24829931972789115,0.25170068027210885,0.25170068027210885,0.25170068027210885,0.25170068027210885,0.25170068027210885,0.25170068027210885,0.25170068027210885,0.25170068027210885,0.25170068027210885,0.25170068027210885,0.25170068027210885,0.25170068027210885,0.24829931972789115,0.24829931972789115,0.24829931972789115,0.24829931972789115,0.24829931972789115,0.24829931972789115,0.25170068027210885,0.2619047619047619,0.2755102040816326,0.2891156462585034,0.30272108843537415,0.3197278911564626,0.3231292517006803,0.32653061224489793,0.32653061224489793,0.32653061224489793,0.3299319727891156,0.3333333333333333,0.336734693877551,0.35034013605442177,0.3673469387755102,0.3843537414965986,0.391156462585034,0.3945578231292517,0.3945578231292517,0.3979591836734694,0.4013605442176871,0.40816326530612246,0.42517006802721086,0.43537414965986393,0.4421768707482993,0.4489795918367347,0.4523809523809524,0.4557823129251701,0.46938775510204084,0.48299319727891155,0.5102040816326531,0.5170068027210885,0.5204081632653061,0.5204081632653061,0.5238095238095238,0.5272108843537415,0.5272108843537415,0.5272108843537415,0.5272108843537415,0.5272108843537415,0.5306122448979592,0.5306122448979592,0.5340136054421769,0.5374149659863946,0.54421768707483,0.5544217687074829,0.5578231292517006,0.5578231292517006,0.5578231292517006,0.5578231292517006,0.5578231292517006,0.5578231292517006,0.5578231292517006,0.5578231292517006,0.5612244897959183,0.5612244897959183,0.5612244897959183,0.5612244897959183,0.5612244897959183,0.5612244897959183,0.5612244897959183,0.5612244897959183,0.5612244897959183,0.5612244897959183,0.5612244897959183,0.5612244897959183,0.5612244897959183,0.5612244897959183,0.5612244897959183,0.5612244897959183,0.5612244897959183,0.5612244897959183,0.5612244897959183,0.5612244897959183,0.5612244897959183,0.5612244897959183,0.5612244897959183,0.5612244897959183,0.5612244897959183,0.5612244897959183,0.5612244897959183,0.5612244897959183,0.5612244897959183,0.5612244897959183,0.5612244897959183,0.5612244897959183,0.5612244897959183,0.5578231292517006,0.5238095238095238,0.4965986394557823,0.48639455782312924,0.47959183673469385,0.47619047619047616,0.47619047619047616,0.47619047619047616,0.47619047619047616,0.47619047619047616,0.47619047619047616,0.47619047619047616,0.47619047619047616,0.47619047619047616,0.47619047619047616,0.47619047619047616,0.47619047619047616,0.47619047619047616,0.47619047619047616,0.47619047619047616,0.47619047619047616,0.47619047619047616,0.47619047619047616,0.47619047619047616,0.47619047619047616,0.47619047619047616,0.47619047619047616,0.47619047619047616,0.47619047619047616,0.47619047619047616,0.47619047619047616,0.47619047619047616,0.47619047619047616,0.47619047619047616,0.47619047619047616,0.47619047619047616,0.47619047619047616,0.47619047619047616,0.47619047619047616,0.47619047619047616,0.47619047619047616,0.47619047619047616,0.47619047619047616,0.47619047619047616,0.47619047619047616,0.47619047619047616,0.47619047619047616,0.46938775510204084,0.46598639455782315,0.5170068027210885,0.6802721088435374,0.9115646258503401,1.1360544217687074,1.3435374149659864,1.5408163265306123,1.6904761904761905,1.7551020408163265,1.7925170068027212,1.8061224489795917,1.8061224489795917,1.8061224489795917,1.8061224489795917,1.8027210884353742,1.7857142857142858,1.7448979591836735,1.6870748299319729,1.6020408163265305,1.5068027210884354,1.4047619047619047,1.3299319727891157,1.2585034013605443,1.2414965986394557,1.2380952380952381,1.2380952380952381,1.2380952380952381,1.2380952380952381,1.2346938775510203,1.2244897959183674,1.217687074829932,1.2108843537414966,1.2108843537414966,1.2108843537414966,1.2108843537414966,1.2108843537414966,1.2108843537414966,1.2108843537414966,1.2108843537414966,1.2108843537414966,1.2108843537414966,1.2040816326530612,1.1972789115646258,1.1972789115646258,1.1904761904761905,1.1870748299319729,1.1666666666666667,1.1564625850340136,1.1462585034013606,1.1326530612244898,1.1224489795918366,1.1122448979591837,1.1054421768707483,1.0952380952380953,1.08843537414966,1.0850340136054422,1.0816326530612246,1.0748299319727892,1.0748299319727892,1.0748299319727892,1.0748299319727892,1.0748299319727892,1.0748299319727892,1.0748299319727892,1.0748299319727892,1.0748299319727892,1.0748299319727892,1.0748299319727892,1.0748299319727892,1.0748299319727892,1.0748299319727892,1.0748299319727892,1.0748299319727892,1.0748299319727892,1.0748299319727892,1.0748299319727892,1.0748299319727892,1.0782312925170068,1.0952380952380953,1.129251700680272,1.1700680272108843,1.2210884353741496,1.2380952380952381,1.2380952380952381,1.2380952380952381,1.2380952380952381,1.2380952380952381,1.2380952380952381,1.2380952380952381,1.2346938775510203,1.2142857142857142,1.1904761904761905,1.1564625850340136,1.1326530612244898,1.1156462585034013,1.1054421768707483,1.1054421768707483,1.1054421768707483,1.1020408163265305,1.098639455782313,1.08843537414966,1.0850340136054422,1.0782312925170068,1.0748299319727892,1.0748299319727892,1.0748299319727892,1.0748299319727892,1.0748299319727892,1.0748299319727892,1.0748299319727892,1.0748299319727892,1.0748299319727892,1.0748299319727892,1.0748299319727892,1.0748299319727892,1.0748299319727892,1.0714285714285714,1.0680272108843538,1.034013605442177,1.0034013605442176,0.9829931972789115,0.9659863945578231,0.9659863945578231,0.9659863945578231,0.9659863945578231,0.9659863945578231,0.9693877551020408,0.9761904761904762,1,1.0068027210884354,1.0170068027210883,1.0068027210884354,0.9727891156462585,0.9115646258503401,0.8129251700680272,0.7278911564625851,0.6598639455782312,0.6224489795918368,0.5986394557823129,0.5748299319727891,0.564625850340136,0.5476190476190477,0.54421768707483,0.5408163265306123,0.5408163265306123,0.5408163265306123,0.54421768707483,0.54421768707483,0.5374149659863946,0.5272108843537415,0.5204081632653061,0.5204081632653061,0.5204081632653061,0.5204081632653061,0.5204081632653061,0.5204081632653061,0.5204081632653061,0.5170068027210885,0.5170068027210885,0.5170068027210885,0.5170068027210885,0.5170068027210885,0.5170068027210885,0.5170068027210885,0.5170068027210885,0.5170068027210885,0.5170068027210885,0.5170068027210885,0.5170068027210885,0.4897959183673469,0.22789115646258504,-0.027210884353741496,-0.047619047619047616,-0.02040816326530612,0.030612244897959183,0.10204081632653061,0.12244897959183673,0.15306122448979592,0.17346938775510204,0.17346938775510204,0.17346938775510204,0.17687074829931973,0.17687074829931973,0.18027210884353742,0.18027210884353742,0.1836734693877551,0.1836734693877551,0.1836734693877551,0.1836734693877551,0.18027210884353742,0.17346938775510204,0.16666666666666666,0.1564625850340136,0.15306122448979592,0.15306122448979592,0.15306122448979592,0.1564625850340136,0.1564625850340136,0.1564625850340136,0.1564625850340136,0.1564625850340136,0.1564625850340136,0.1326530612244898,0.10884353741496598,0.08843537414965986,0.0782312925170068,0.07142857142857142,0.07142857142857142,0.07142857142857142,0.07142857142857142,0.07142857142857142,0.07142857142857142,0.07142857142857142,0.07142857142857142,0.07142857142857142,0.07142857142857142,0.07142857142857142,0.07142857142857142,0.07142857142857142,0.07142857142857142,0.07142857142857142,0.07142857142857142,0.07142857142857142,0.07142857142857142,0.07142857142857142,0.07482993197278912,0.13945578231292516,0.3129251700680272,0.40476190476190477,0.46258503401360546,0.5068027210884354,0.5408163265306123,0.5544217687074829,0.5578231292517006,0.5544217687074829,0.5238095238095238,0.5034013605442177,0.48639455782312924,0.46598639455782315,0.445578231292517,0.42857142857142855,0.40816326530612246,0.3945578231292517,0.38095238095238093,0.3741496598639456,0.36394557823129253,0.35714285714285715,0.35034013605442177,0.3435374149659864,0.3401360544217687,0.3333333333333333,0.3299319727891156,0.3299319727891156,0.3299319727891156,0.3299319727891156,0.3299319727891156,0.3299319727891156,0.3299319727891156,0.3299319727891156,0.3299319727891156,0.3299319727891156,0.3299319727891156,0.3299319727891156,0.32653061224489793,0.3197278911564626,0.3163265306122449,0.3299319727891156,0.3435374149659864,0.35034013605442177,0.36054421768707484,0.36394557823129253,0.36394557823129253,0.36394557823129253,0.35374149659863946,0.3435374149659864,0.3333333333333333,0.3197278911564626,0.30272108843537415,0.282312925170068,0.2619047619047619,0.24829931972789115,0.23809523809523808,0.23809523809523808,0.23809523809523808,0.23809523809523808,0.23809523809523808,0.23809523809523808,0.23809523809523808,0.23809523809523808,0.23809523809523808,0.23809523809523808,0.23809523809523808,0.22789115646258504,0.22108843537414966,0.21768707482993196,0.21768707482993196,0.21768707482993196,0.22448979591836735,0.25510204081632654,0.29591836734693877,0.3401360544217687,0.38095238095238093,0.4217687074829932,0.4489795918367347,0.45918367346938777,0.45918367346938777,0.45918367346938777,0.45918367346938777,0.4489795918367347,0.43537414965986393,0.41836734693877553,0.38095238095238093,0.35374149659863946,0.336734693877551,0.3299319727891156,0.32653061224489793,0.3231292517006803,0.3197278911564626,0.3163265306122449,0.3163265306122449,0.3163265306122449,0.3163265306122449,0.3163265306122449,0.3163265306122449,0.3163265306122449,0.3163265306122449,0.3163265306122449,0.3163265306122449,0.3163265306122449,0.3163265306122449,0.3163265306122449,0.3163265306122449,0.3163265306122449,0.3163265306122449,0.3163265306122449,0.3163265306122449,0.3129251700680272,0.29931972789115646,0.23809523809523808,0.1836734693877551,0.17687074829931973,0.17346938775510204,0.17006802721088435,0.16666666666666666,0.16326530612244897,0.1598639455782313,0.1564625850340136,0.1564625850340136,0.1564625850340136,0.1564625850340136,0.1564625850340136,0.1564625850340136,0.1564625850340136,0.1564625850340136,0.1564625850340136,0.1564625850340136,0.1564625850340136,0.1564625850340136,0.1564625850340136,0.1564625850340136,0.1564625850340136,0.1564625850340136,0.1564625850340136,0.1564625850340136,0.1564625850340136,0.1564625850340136,0.1564625850340136,0.1564625850340136,0.1564625850340136,0.1564625850340136,0.1564625850340136,0.14965986394557823,0.09523809523809523,0.030612244897959183,0.01020408163265306,0.01020408163265306,0.01020408163265306,0.01020408163265306,0.01020408163265306,0.01020408163265306,0.006802721088435374,0.003401360544217687,0.003401360544217687,0.003401360544217687,0,0.003401360544217687,0.003401360544217687,0.003401360544217687,0.003401360544217687,0.003401360544217687,0.003401360544217687,0.003401360544217687,0.003401360544217687,0.003401360544217687,0.003401360544217687,0.003401360544217687,0.003401360544217687,0.003401360544217687,0.003401360544217687,0.003401360544217687,0.003401360544217687,0.003401360544217687,0.003401360544217687,0.003401360544217687,0.003401360544217687,0.003401360544217687,0.003401360544217687,0.003401360544217687,0.003401360544217687,0.003401360544217687,0.003401360544217687,0.003401360544217687,0.003401360544217687,0.003401360544217687,0.006802721088435374,0.017006802721088437,0.02040816326530612,0.02040816326530612,0.02040816326530612,0.02040816326530612,0.02040816326530612,0.02040816326530612,0.02040816326530612,0.02040816326530612,0.02040816326530612,0.017006802721088437,0.006802721088435374,0.006802721088435374,0.006802721088435374,0.006802721088435374,0.006802721088435374,0.006802721088435374,0.01020408163265306,0.013605442176870748,0.013605442176870748,0.013605442176870748,0.013605442176870748,0.013605442176870748,0.01020408163265306,0.01020408163265306,0.006802721088435374,0,-0.01020408163265306,-0.017006802721088437,-0.023809523809523808,-0.023809523809523808,-0.023809523809523808,-0.023809523809523808,-0.023809523809523808,-0.023809523809523808,-0.023809523809523808,-0.023809523809523808,-0.023809523809523808,-0.023809523809523808,-0.023809523809523808,-0.023809523809523808,-0.023809523809523808,-0.023809523809523808,-0.023809523809523808,-0.023809523809523808,-0.023809523809523808,-0.023809523809523808,-0.023809523809523808,-0.02040816326530612,-0.02040816326530612,-0.02040816326530612,-0.02040816326530612,-0.02040816326530612,-0.02040816326530612,-0.02040816326530612,-0.02040816326530612,-0.017006802721088437,-0.017006802721088437,-0.017006802721088437,-0.017006802721088437,-0.017006802721088437,-0.017006802721088437,-0.017006802721088437,-0.017006802721088437,-0.017006802721088437,-0.017006802721088437,-0.017006802721088437,-0.017006802721088437,-0.017006802721088437,-0.017006802721088437,-0.017006802721088437,-0.017006802721088437,-0.017006802721088437,-0.017006802721088437,-0.017006802721088437,-0.017006802721088437,-0.017006802721088437,-0.017006802721088437,-0.017006802721088437,-0.017006802721088437,-0.013605442176870748,-0.013605442176870748,0.006802721088435374,0.05442176870748299,0.11224489795918367,0.22108843537414966,0.3707482993197279,0.5544217687074829,0.7517006802721088,0.7993197278911565,0.8231292517006803,0.8231292517006803,0.8231292517006803,0.826530612244898,0.826530612244898,0.8231292517006803,0.8061224489795918,0.7551020408163265,0.7108843537414966,0.6802721088435374,0.6666666666666666,0.6598639455782312,0.6598639455782312,0.6598639455782312,0.6598639455782312,0.6598639455782312,0.6598639455782312,0.6598639455782312,0.6598639455782312,0.6598639455782312,0.6598639455782312,0.6598639455782312,0.6598639455782312,0.6598639455782312,0.6598639455782312,0.6700680272108843,0.6802721088435374,0.7108843537414966,0.7517006802721088,0.8061224489795918,0.8809523809523809,0.9795918367346939,1.0408163265306123,1.1020408163265305,1.1428571428571428,1.183673469387755,1.2244897959183674,1.251700680272109,1.2687074829931972,1.2755102040816326,1.2789115646258504,1.2789115646258504,1.2789115646258504,1.2789115646258504,1.2755102040816326,1.272108843537415,1.248299319727891,1.2074829931972788,1.1700680272108843,1.1462585034013606,1.1326530612244898,1.129251700680272,1.119047619047619,1.1088435374149659,1.0952380952380953,1.0782312925170068,1.0612244897959184,1.054421768707483,1.054421768707483,1.054421768707483,1.054421768707483,1.054421768707483,1.054421768707483,1.054421768707483,1.0510204081632653,1.0510204081632653,1.0510204081632653,1.0442176870748299,1.0238095238095237,1.0204081632653061,1.0204081632653061,1.0272108843537415,1.030612244897959,1.030612244897959,1.034013605442177,1.034013605442177,1.034013605442177,1.034013605442177,1.034013605442177,1.034013605442177,1.034013605442177,1.034013605442177,1.034013605442177,1.034013605442177,1.034013605442177,1.034013605442177,1.034013605442177,1.034013605442177,1.030612244897959,1.030612244897959,1.0272108843537415,1.0238095238095237,1.010204081632653,0.9965986394557823,0.9931972789115646,0.9931972789115646,0.9931972789115646,0.9931972789115646,0.9931972789115646,0.9931972789115646,0.9931972789115646,0.9931972789115646,0.9931972789115646,0.9931972789115646,0.9931972789115646,0.9931972789115646,0.9931972789115646,0.9931972789115646,0.9931972789115646,0.9931972789115646,0.9931972789115646,0.9931972789115646,0.9931972789115646,0.9931972789115646,0.9897959183673469,0.935374149659864,0.6972789115646258,0.6632653061224489,0.6632653061224489,0.6632653061224489,0.6632653061224489,0.6632653061224489,0.6632653061224489,0.6632653061224489,0.6632653061224489,0.6632653061224489,0.6632653061224489,0.6598639455782312,0.6598639455782312,0.6598639455782312,0.6598639455782312,0.6598639455782312,0.6598639455782312,0.6598639455782312,0.6598639455782312,0.6598639455782312,0.6564625850340136,0.6530612244897959,0.6462585034013606,0.6462585034013606,0.6462585034013606,0.6462585034013606,0.6462585034013606,0.6462585034013606,0.6462585034013606,0.6462585034013606,0.6462585034013606,0.6462585034013606,0.6462585034013606,0.6462585034013606,0.6462585034013606,0.6462585034013606,0.6462585034013606,0.6462585034013606,0.6462585034013606,0.6462585034013606,0.6462585034013606,0.6462585034013606,0.6462585034013606,0.6462585034013606,0.6462585034013606,0.6462585034013606,0.6428571428571429,0.6326530612244898,0.6428571428571429,0.673469387755102,0.6870748299319728,0.6938775510204082,0.7006802721088435,0.7006802721088435,0.6938775510204082,0.6836734693877551,0.673469387755102,0.6666666666666666,0.6632653061224489,0.6598639455782312,0.6530612244897959,0.6496598639455783,0.6462585034013606,0.6428571428571429,0.6360544217687075,0.6360544217687075,0.6326530612244898,0.6258503401360545,0.6190476190476191,0.6224489795918368,0.6326530612244898,0.6360544217687075,0.6360544217687075,0.6360544217687075,0.6360544217687075,0.6360544217687075,0.6360544217687075,0.6360544217687075,0.6360544217687075,0.6360544217687075,0.6360544217687075,0.6360544217687075,0.6360544217687075,0.6360544217687075,0.6258503401360545,0.5850340136054422,0.5816326530612245,0.5816326530612245,0.5816326530612245,0.5782312925170068,0.5748299319727891,0.5714285714285714,0.5578231292517006,0.54421768707483,0.5306122448979592,0.5136054421768708,0.4965986394557823,0.48639455782312924,0.48299319727891155,0.48299319727891155,0.48639455782312924,0.4897959183673469,0.4897959183673469,0.48639455782312924,0.48299319727891155,0.46258503401360546,0.4421768707482993,0.43537414965986393,0.41156462585034015,0.3843537414965986,0.37755102040816324,0.3707482993197279,0.3707482993197279,0.3673469387755102,0.3673469387755102,0.3673469387755102,0.3673469387755102,0.3673469387755102,0.3673469387755102,0.3673469387755102,0.3673469387755102,0.3673469387755102,0.3673469387755102,0.3673469387755102,0.3673469387755102,0.3673469387755102,0.3673469387755102,0.3673469387755102,0.3673469387755102,0.3673469387755102,0.3673469387755102,0.3673469387755102,0.3673469387755102,0.3673469387755102,0.3673469387755102,0.3673469387755102,0.3673469387755102,0.3673469387755102,0.3673469387755102,0.3673469387755102,0.3673469387755102,0.3673469387755102,0.3673469387755102,0.3673469387755102,0.3673469387755102,0.3673469387755102,0.3673469387755102,0.3673469387755102,0.3673469387755102,0.3673469387755102,0.3707482993197279,0.3707482993197279,0.3707482993197279,0.3741496598639456,0.3741496598639456,0.3843537414965986,0.391156462585034,0.3945578231292517,0.3945578231292517,0.3843537414965986,0.3843537414965986,0.38095238095238093,0.38095238095238093,0.38095238095238093,0.38095238095238093,0.38095238095238093,0.38095238095238093,0.38095238095238093,0.38095238095238093,0.38095238095238093,0.37755102040816324,0.37755102040816324,0.37755102040816324,0.37755102040816324,0.37755102040816324,0.37755102040816324,0.37755102040816324,0.37755102040816324,0.37755102040816324,0.37755102040816324,0.37755102040816324,0.37755102040816324,0.37755102040816324,0.37755102040816324,0.37755102040816324,0.37755102040816324,0.37755102040816324,0.37755102040816324,0.37755102040816324,0.37755102040816324,0.37755102040816324,0.37755102040816324,0.37755102040816324,0.3843537414965986,0.40476190476190477,0.42857142857142855,0.4489795918367347,0.46258503401360546,0.47278911564625853,0.48299319727891155,0.4897959183673469,0.5,0.5,0.5,0.5,0.5,0.5,0.4965986394557823,0.48639455782312924,0.47959183673469385,0.47959183673469385,0.47959183673469385,0.47959183673469385,0.47959183673469385,0.47959183673469385,0.47959183673469385,0.47619047619047616,0.46938775510204084,0.46938775510204084,0.46938775510204084,0.46938775510204084,0.46938775510204084,0.46938775510204084,0.46938775510204084,0.46938775510204084,0.46938775510204084,0.46598639455782315,0.46598639455782315,0.46598639455782315,0.46258503401360546,0.46258503401360546,0.46258503401360546,0.45918367346938777,0.4557823129251701,0.4489795918367347,0.4421768707482993,0.43197278911564624,0.41836734693877553,0.40476190476190477,0.391156462585034,0.3741496598639456,0.35374149659863946,0.3435374149659864,0.3333333333333333,0.3231292517006803,0.3197278911564626,0.3129251700680272,0.30612244897959184,0.29591836734693877,0.2857142857142857,0.282312925170068,0.282312925170068,0.2789115646258503,0.2687074829931973,0.25170068027210885,0.22789115646258504,0.18027210884353742,0.16666666666666666,0.12585034013605442,0.11224489795918367,0.10204081632653061,0.09863945578231292,0.09523809523809523,0.08503401360544217,0.06462585034013606,0.04421768707482993,0.027210884353741496,0.013605442176870748,0.013605442176870748,0.013605442176870748,0.01020408163265306,0.01020408163265306,0.006802721088435374,0.006802721088435374,0.006802721088435374,0.006802721088435374,0.006802721088435374,0.006802721088435374,0.006802721088435374,0.006802721088435374,0.006802721088435374,0.006802721088435374,0.006802721088435374,0.006802721088435374,0.006802721088435374,0.006802721088435374,0.006802721088435374,0.006802721088435374,0.006802721088435374,0.006802721088435374,0.006802721088435374,0.006802721088435374,0.006802721088435374,0.006802721088435374,0.006802721088435374,0.006802721088435374,0.006802721088435374,0.006802721088435374,0.006802721088435374,0.006802721088435374,0.006802721088435374,0.006802721088435374,0.006802721088435374,0.006802721088435374,0.006802721088435374,0.006802721088435374,0.006802721088435374,0.006802721088435374,0.01020408163265306,0.030612244897959183,0.034013605442176874,0.034013605442176874,0.034013605442176874,0.034013605442176874,0.034013605442176874,0.034013605442176874,0.034013605442176874,0.034013605442176874,0.034013605442176874,0.034013605442176874,0.034013605442176874,0.034013605442176874,0.05782312925170068,0.1360544217687075,0.3163265306122449,0.6122448979591837,1.2108843537414966,1.5748299319727892,1.8435374149659864,2.003401360544218,2.061224489795918,2.074829931972789,2.074829931972789,2.068027210884354,2.057823129251701,2.054421768707483,2.0476190476190474,2.020408163265306,1.9829931972789117,1.8979591836734695,1.8265306122448979,1.7619047619047619,1.7040816326530612,1.663265306122449,1.6326530612244898,1.6088435374149659,1.6020408163265305,1.598639455782313,1.5952380952380953,1.5918367346938775,1.5850340136054422,1.5782312925170068,1.5748299319727892,1.5748299319727892,1.5748299319727892,1.5748299319727892,1.5748299319727892,1.5748299319727892,1.5748299319727892,1.5748299319727892,1.5748299319727892,1.5748299319727892,1.5748299319727892,1.5748299319727892,1.5748299319727892,1.5748299319727892,1.5748299319727892,1.5748299319727892,1.5748299319727892,1.5748299319727892,1.5748299319727892,1.5748299319727892,1.5748299319727892,1.5748299319727892,1.5748299319727892,1.5714285714285714,1.5714285714285714,1.5680272108843538,1.564625850340136,1.564625850340136,1.564625850340136,1.564625850340136,1.564625850340136,1.564625850340136,1.564625850340136,1.564625850340136,1.564625850340136,1.564625850340136,1.564625850340136,1.564625850340136,1.564625850340136,1.564625850340136,1.564625850340136,1.564625850340136,1.564625850340136,1.564625850340136,1.564625850340136,1.564625850340136,1.564625850340136,1.564625850340136,1.564625850340136,1.564625850340136,1.564625850340136,1.564625850340136,1.5612244897959184,1.5476190476190477,1.469387755102041,1.4217687074829932,1.4149659863945578,1.4149659863945578,1.4149659863945578,1.4149659863945578,1.4217687074829932,1.4319727891156462,1.4557823129251701,1.4965986394557824,1.5442176870748299,1.6020408163265305,1.6428571428571428,1.6666666666666667,1.6870748299319729,1.6904761904761905,1.6904761904761905,1.683673469387755,1.6802721088435375,1.6734693877551021,1.663265306122449,1.6428571428571428,1.6054421768707483,1.564625850340136,1.5374149659863945,1.510204081632653,1.465986394557823,1.4557823129251701,1.4557823129251701,1.4557823129251701,1.4557823129251701,1.4557823129251701,1.4557823129251701,1.4557823129251701,1.4557823129251701,1.4557823129251701,1.4557823129251701,1.4557823129251701,1.4557823129251701,1.4557823129251701,1.4557823129251701,1.4557823129251701,1.4557823129251701,1.4557823129251701,1.4557823129251701,1.4557823129251701,1.4557823129251701,1.4557823129251701,1.4557823129251701,1.4557823129251701,1.4557823129251701,1.4557823129251701,1.4557823129251701,1.4557823129251701,1.4557823129251701,1.4557823129251701,1.4421768707482994,1.41156462585034,1.4081632653061225,1.3979591836734695,1.3605442176870748,1.346938775510204,1.3027210884353742,1.2619047619047619,1.2210884353741496,1.1666666666666667,1.1156462585034013,1.0612244897959184,1.0238095238095237,1,0.9897959183673469,0.9829931972789115,0.9659863945578231,0.9591836734693877,0.95578231292517,0.95578231292517,0.95578231292517,0.9625850340136054,0.9625850340136054,0.9591836734693877,0.9591836734693877,0.9591836734693877,0.9591836734693877,0.9591836734693877,0.9591836734693877,0.9591836734693877,0.9591836734693877,0.9591836734693877,0.9591836734693877,0.9591836734693877,0.9591836734693877,0.9591836734693877,0.9591836734693877,0.9591836734693877,0.9591836734693877,0.9591836734693877,0.9591836734693877,0.9591836734693877,0.9591836734693877,0.9591836734693877,0.9591836734693877,0.9591836734693877,0.9591836734693877,0.9591836734693877,0.9591836734693877,0.9591836734693877,0.9591836734693877,0.9387755102040817,0.8945578231292517,0.8945578231292517,0.9217687074829932,0.9761904761904762,0.9965986394557823,1,1,1,1,1,1,1,1,1,0.9965986394557823,0.9795918367346939,0.9659863945578231,0.9625850340136054,0.9625850340136054,0.9625850340136054,0.9625850340136054,0.9625850340136054,0.9625850340136054,0.9625850340136054,0.9625850340136054,0.9625850340136054,0.9625850340136054,0.9625850340136054,0.9625850340136054,0.9625850340136054,0.9625850340136054,0.9625850340136054,0.9625850340136054,0.9625850340136054,0.9625850340136054,0.9625850340136054,0.9625850340136054,0.9625850340136054,0.9625850340136054,0.9625850340136054,0.9625850340136054,0.9625850340136054,0.9625850340136054,0.9625850340136054,0.9625850340136054,0.9625850340136054,0.9625850340136054,0.9625850340136054,0.9625850340136054,0.9625850340136054,0.9625850340136054,0.9625850340136054,0.9625850340136054,0.9625850340136054,0.9625850340136054,0.9625850340136054,0.9625850340136054,0.9625850340136054,0.9625850340136054,0.9625850340136054,0.9625850340136054,0.9625850340136054,0.9625850340136054,0.9625850340136054,0.9625850340136054,0.9625850340136054,0.9625850340136054,0.9625850340136054,0.9625850340136054,0.9591836734693877,0.9319727891156463,0.9251700680272109,0.925170068