[{"success":true,"trial_type":"fullscreen","trial_index":0,"time_elapsed":3917,"internal_node_id":"0.0-0.0","protocol_sum":"","subject_identifier":500,"subject_sum":[30,71,43,57,177,5,211,73,188,208,105,196,167,17,180,74,47,255,184,226,116,113,75,176,126,207,255,105,169,167,246,123],"subject_pair":250,"STUDY_ID":"66a3ed3c5d10d0e7d8a6b9da","PROLIFIC_PID":"656e0dab178ffccdaa47202e","SESSION_ID":"66a3ee5c40e54dd1270e7078","practice_instructions":1,"leaderboard_instructions":0,"bonus":0,"reveal_word":false,"self_rating":"1","confidence":"29"},{"view_history":"[{\"page_index\":0,\"viewing_time\":3208.600000143051}]","rt":3208.7000000476837,"trial_type":"instructions","trial_index":1,"time_elapsed":7128,"internal_node_id":"0.0-1.0","protocol_sum":"","subject_identifier":500,"subject_sum":[30,71,43,57,177,5,211,73,188,208,105,196,167,17,180,74,47,255,184,226,116,113,75,176,126,207,255,105,169,167,246,123],"subject_pair":250,"STUDY_ID":"66a3ed3c5d10d0e7d8a6b9da","PROLIFIC_PID":"656e0dab178ffccdaa47202e","SESSION_ID":"66a3ee5c40e54dd1270e7078","practice_instructions":1,"leaderboard_instructions":0,"bonus":0,"reveal_word":false,"self_rating":"1","confidence":"29"},{"view_history":"[{\"page_index\":0,\"viewing_time\":11574.699999809265}]","rt":11575.099999904633,"trial_type":"instructions","trial_index":2,"time_elapsed":18703,"internal_node_id":"0.0-2.0-0.0","protocol_sum":"","subject_identifier":500,"subject_sum":[30,71,43,57,177,5,211,73,188,208,105,196,167,17,180,74,47,255,184,226,116,113,75,176,126,207,255,105,169,167,246,123],"subject_pair":250,"STUDY_ID":"66a3ed3c5d10d0e7d8a6b9da","PROLIFIC_PID":"656e0dab178ffccdaa47202e","SESSION_ID":"66a3ee5c40e54dd1270e7078","practice_instructions":1,"leaderboard_instructions":0,"bonus":0,"reveal_word":false,"self_rating":"1","confidence":"29"},{"rt":16047.799999952316,"responses":"{\"Q0\":\"... reveal the word with as <b>few letter guesses</b> as possible\"}","question_order":"[0]","trial_type":"survey-multi-choice","trial_index":3,"time_elapsed":34754,"internal_node_id":"0.0-2.0-1.0","protocol_sum":"","subject_identifier":500,"subject_sum":[30,71,43,57,177,5,211,73,188,208,105,196,167,17,180,74,47,255,184,226,116,113,75,176,126,207,255,105,169,167,246,123],"subject_pair":250,"correct":true,"test_part":"multichoice_nonpretend","STUDY_ID":"66a3ed3c5d10d0e7d8a6b9da","PROLIFIC_PID":"656e0dab178ffccdaa47202e","SESSION_ID":"66a3ee5c40e54dd1270e7078","practice_instructions":1,"leaderboard_instructions":0,"bonus":0,"reveal_word":false,"self_rating":"1","confidence":"29"},{"view_history":"[{\"page_index\":0,\"viewing_time\":1371.5}]","rt":1371.7999999523163,"trial_type":"instructions","trial_index":4,"time_elapsed":36128,"internal_node_id":"0.0-3.0","protocol_sum":"","subject_identifier":500,"subject_sum":[30,71,43,57,177,5,211,73,188,208,105,196,167,17,180,74,47,255,184,226,116,113,75,176,126,207,255,105,169,167,246,123],"subject_pair":250,"STUDY_ID":"66a3ed3c5d10d0e7d8a6b9da","PROLIFIC_PID":"656e0dab178ffccdaa47202e","SESSION_ID":"66a3ee5c40e54dd1270e7078","practice_instructions":1,"leaderboard_instructions":0,"bonus":0,"reveal_word":false,"self_rating":"1","confidence":"29"},{"word":"ZEBRA","click_log":{"letter":["","C","A","O","E","S","T","R","Z","B"],"t":[0,5044.899999856949,7684.599999904633,33157.700000047684,34088.799999952316,38502.299999952316,39468.799999952316,40921.59999990463,43860.700000047684,45045.200000047684],"hit":[null,0,1,0,1,0,0,1,1,1],"asked":["","C","CA","CAO","CAOE","CAOES","CAOEST","CAOESTR","CAOESTRZ","CAOESTRZB"],"word_state":["_____","_____","____A","____A","_E__A","_E__A","_E__A","_E_RA","ZE_RA","ZEBRA"]},"hover_log":{"letter":["?","J","J","J","?","?","?","?","?","?","?","?","?","?","?","?","?","?","?","?","?","?","?","?","?","?","?","?","?","?","?","?","?","?","?","?","?","?","?","?","?","?","?","?","?","?","?","?","?","?","?","?","?","?","?","?","?","?","?","?","?","?","?","?","?","?","?","?","T","?","U","U","U","U","U","U","U","U","U","U","U","U","U","U","U","U","U","U","U","U","U","U","U","U","U","U","U","U","U","U","U","U","U","U","U","U","U","U","U","U","?","?","V","V","V","?","?","?","?","?","?","?","?","?","?","?","?","?","?","?","?","?","?","?","?","?","?","?","?","?","?","?","?","?","?","?","?","?","W","W","W","W","W","W","W","W","W","W","W","W","W","W","W","W","W","?","?","?","?","?","?","?","M","M","M","M","M","M","M","M","?","?","?","?","?","C","C","C","C","C","C","C","C","C","C","C","C","C","C","C","C","C","C","C","C","C","C","C","C","C","C","C","C","C","?","?","?","?","?","?","?","V","V","V","V","V","?","?","?","?","?","?","?","?","?","?","?","?","?","?","?","?","?","?","?","?","?","?","?","?","?","?","V","U","?","?","K","K","K","K","?","?","?","?","?","?","?","?","?","C","C","C","C","C","C","C","C","C","?","?","B","B","B","B","?","A","A","A","A","A","A","A","A","A","A","A","A","A","A","A","A","A","A","A","A","A","A","A","A","A","A","A","A","A","A","A","?","?","?","?","M","N","N","?","?","?","?","?","?","?","?","?","?","?","?","?","?","?","?","?","?","?","?","?","?","?","?","?","?","?","?","?","?","?","?","?","?","?","?","?","?","?","?","?","?","?","?","?","?","?","?","?","?","?","?","?","?","?","?","?","?","?","?","?","?","?","?","?","?","?","?","?","?","?","?","?","?","?","?","?","?","?","?","?","?","?","?","?","?","?","?","?","?","?","?","?","?","?","?","?","?","?","?","?","?","?","?","?","?","?","?","?","?","?","?","?","?","?","?","?","?","?","?","?","?","?","?","?","?","?","?","?","?","?","?","?","?","?","?","?","?","?","?","?","?","?","?","?","?","?","?","?","?","?","?","?","?","?","?","?","?","?","?","?","?","?","?","?","?","?","?","?","?","?","?","?","?","?","?","?","?","?","?","?","?","?","?","?","?","?","?","?","?","?","?","?","?","?","?","?","?","?","?","?","?","?","?","?","?","?","?","?","?","?","?","?","?","?","?","?","?","?","?","?","?","?","?","?","?","?","?","?","?","?","?","?","?","?","?","?","?","?","?","?","?","?","?","?","?","?","?","?","?","?","?","?","?","?","?","?","?","?","?","?","?","?","?","?","?","?","?","?","?","?","?","?","?","?","?","?","?","?","?","?","?","?","?","?","?","?","?","?","?","?","?","?","?","?","?","?","?","?","?","?","?","?","?","?","?","?","?","?","?","?","?","?","?","?","?","?","?","?","?","?","?","?","?","?","?","?","?","?","?","?","?","?","?","?","?","?","?","?","?","?","?","?","?","?","?","?","?","?","?","?","?","?","?","?","?","?","?","?","?","?","?","?","?","?","?","?","?","?","?","?","?","?","?","?","?","?","?","?","?","?","?","?","?","?","?","?","?","?","?","?","?","?","?","?","?","?","?","?","?","?","?","?","?","?","?","?","?","?","?","?","?","?","?","?","?","?","?","?","?","?","?","?","?","?","?","?","?","?","?","?","?","?","?","?","?","?","?","?","?","?","?","?","?","?","?","?","?","?","?","?","?","?","?","?","?","?","?","?","?","?","?","?","?","?","?","?","?","?","?","?","?","?","?","?","?","?","?","?","?","?","?","?","?","?","?","?","?","?","?","?","?","?","?","?","?","?","?","?","?","?","?","?","?","?","?","?","?","?","?","?","?","?","?","?","?","?","?","?","?","?","?","?","?","?","?","?","?","?","?","?","?","?","?","?","?","?","?","?","?","?","?","?","?","?","?","?","?","?","?","?","?","?","?","?","?","?","?","?","?","?","?","?","?","?","?","?","?","?","?","?","?","?","?","?","?","?","?","?","?","?","?","?","?","?","?","?","?","?","?","?","?","?","?","?","?","?","?","?","?","?","?","?","?","?","?","?","?","?","?","?","?","?","?","?","?","?","?","?","?","?","?","?","?","?","?","?","?","?","?","?","?","?","?","?","?","?","?","?","?","?","?","?","?","?","?","?","?","?","?","?","?","?","?","?","?","?","?","?","?","?","?","?","?","?","?","?","?","?","?","?","?","?","?","?","?","?","?","?","?","?","?","?","?","?","?","?","?","?","?","?","?","?","?","?","?","?","?","?","?","?","?","?","?","?","?","?","?","?","?","?","?","?","?","?","?","?","?","?","?","?","?","?","?","?","?","?","?","?","?","?","?","?","?","?","?","?","?","?","?","?","?","?","?","?","?","?","?","?","?","?","?","?","?","?","?","?","?","?","?","?","?","?","?","?","?","?","?","?","?","?","?","?","?","?","?","?","?","?","?","?","?","?","?","?","?","?","?","?","?","?","?","?","?","?","?","?","?","?","?","?","?","?","?","?","?","?","?","?","?","?","?","?","?","?","?","?","?","?","?","?","?","?","?","?","?","?","?","?","?","?","?","?","?","?","?","?","?","?","?","?","?","?","?","?","?","?","?","?","?","?","?","?","?","?","?","?","?","?","?","?","?","?","?","?","?","?","?","?","?","?","?","?","?","?","?","?","?","?","?","?","?","?","?","?","?","?","?","?","?","?","?","?","?","?","?","?","?","?","?","?","?","?","?","?","?","?","?","?","?","?","?","?","?","?","?","?","?","?","?","?","?","?","?","?","?","?","?","?","?","?","?","?","?","?","?","?","?","?","?","?","?","?","?","?","?","?","?","?","?","?","?","?","?","?","?","?","?","?","?","?","?","?","?","?","?","?","?","?","?","?","?","?","?","?","?","?","?","?","?","?","?","?","?","?","O","O","O","O","O","O","O","O","O","O","O","O","O","O","O","O","O","O","O","O","O","O","O","O","O","O","O","O","?","?","?","?","?","?","?","?","?","E","E","E","E","E","E","E","E","E","E","E","E","E","E","E","E","E","E","E","E","E","E","E","E","?","?","?","?","?","?","?","?","?","?","?","?","?","?","?","?","?","?","?","?","?","?","?","?","?","?","?","?","?","?","?","?","?","?","?","?","?","?","?","?","?","?","?","?","?","?","?","?","?","?","?","?","?","?","?","?","?","?","?","?","?","?","?","?","?","?","?","?","?","?","?","?","?","?","?","?","?","?","?","?","?","?","?","?","?","?","?","?","?","?","?","?","?","?","?","?","?","?","?","?","?","?","?","?","?","?","?","?","?","?","?","?","?","?","?","?","?","?","?","?","?","?","?","?","?","?","?","W","W","W","W","?","?","?","?","?","?","?","L","L","L","?","K","K","K","K","?","?","?","?","T","T","?","?","S","S","S","S","S","S","S","S","S","S","S","S","S","S","S","S","S","S","S","S","S","S","S","S","S","S","S","S","S","S","S","S","S","S","S","S","S","S","S","?","?","T","T","T","T","T","T","T","T","T","T","T","T","T","T","T","T","T","T","T","T","T","T","T","T","T","?","?","?","?","M","M","?","N","O","P","Q","Q","Q","?","?","R","R","R","R","?","?","?","?","?","?","?","?","?","?","?","?","?","?","R","R","R","R","R","R","R","R","R","R","R","R","R","R","R","R","R","R","R","R","R","R","R","R","R","R","R","R","R","R","R","R","R","R","R","R","?","?","?","?","?","?","?","?","?","?","?","?","?","?","?","?","?","?","?","?","?","?","?","?","?","?","?","?","?","?","?","?","?","?","?","?","?","?","?","?","?","?","?","?","?","?","?","?","?","?","?","?","?","?","?","Y","X","?","W","W","?","V","V","V","V","U","U","U","U","V","W","W","X","Y","Y","Y","Y","?","?","Z","Z","Z","Z","Z","Z","Z","Z","Z","Z","Z","Z","Z","Z","Z","Z","Z","Z","Z","?","?","N","?","?","?","?","?","?","?","?","?","?","?","?","?","?","?","?","?","?","?","?","?","?","?","B","B","B","B","B","B","B","B","B","B","B","B","B","B","B","B","B","B","B","B","B","B","B","B","B","B","B","B","C","C","?","?","?","N","N","N","N","N","N","N","N","N","N","N","N","N","?","O","?","?","?","?","?","Y","Y","Y","Y","Y","Y","Y","?","?","?","?","?","?","?","?","?","?","?","?","?","?","?","?","?","?","?","?","?","?","?","?","?","?","?","?","?","?","?","?","?","?","?","?","?","?","?"],"t":[96,104,120,145,170,199,227,250,275,300,323,348,373,398,423,447,472,499,527,544,569,594,619,644,672,697,722,747,771,797,823,848,872,898,922,948,971,997,1023,1047,1071,1096,1120,1146,1171,1196,1220,1246,1270,1295,1321,1345,1370,1396,1421,1445,1472,1496,1520,1546,1570,1596,1622,1648,1672,1700,1722,1749,1772,1794,1818,1848,1871,1897,1920,1945,1970,1996,2020,2045,2072,2096,2120,2145,2170,2195,2221,2245,2270,2296,2320,2347,2370,2392,2420,2445,2470,2495,2520,2548,2567,2592,2617,2642,2667,2692,2717,2743,2770,2795,2820,2846,2869,2894,2919,2944,2968,2993,3018,3043,3068,3094,3122,3143,3167,3194,3219,3245,3269,3294,3319,3345,3369,3394,3419,3444,3469,3495,3519,3544,3569,3594,3619,3644,3669,3693,3717,3746,3770,3794,3819,3844,3869,3894,3919,3945,3968,3993,4018,4045,4069,4094,4119,4144,4170,4195,4221,4245,4270,4295,4320,4345,4371,4395,4418,4443,4468,4492,4518,4543,4569,4595,4619,4644,4671,4697,4718,4742,4766,4791,4818,4844,4868,4893,4918,4944,4969,4995,5018,5043,5067,5091,5116,5141,5166,5192,5219,5247,5271,5298,5318,5342,5368,5393,5418,5443,5471,5495,5520,5547,5571,5595,5621,5646,5670,5695,5720,5746,5770,5794,5817,5842,5866,5895,5919,5943,5968,5994,6018,6044,6068,6093,6120,6141,6168,6193,6218,6243,6268,6293,6319,6344,6368,6395,6420,6445,6471,6494,6519,6545,6570,6594,6619,6645,6669,6694,6717,6742,6767,6792,6818,6843,6865,6890,6916,6944,6968,6994,7019,7043,7070,7094,7120,7144,7169,7194,7218,7242,7267,7293,7318,7342,7367,7392,7418,7443,7467,7492,7517,7542,7567,7592,7617,7642,7667,7691,7715,7740,7764,7790,7815,7840,7865,7890,7915,7944,7969,7994,8019,8043,8065,8090,8115,8140,8169,8194,8218,8242,8267,8292,8317,8342,8367,8392,8417,8442,8467,8492,8517,8542,8567,8592,8617,8642,8667,8691,8717,8742,8766,8789,8814,8838,8864,8889,8917,8942,8966,8991,9019,9039,9064,9089,9114,9139,9164,9192,9215,9242,9266,9292,9316,9342,9367,9391,9414,9439,9466,9491,9517,9541,9567,9591,9617,9643,9664,9689,9714,9742,9766,9791,9817,9841,9866,9891,9917,9941,9966,9991,10016,10041,10063,10088,10113,10138,10164,10191,10216,10241,10266,10293,10316,10341,10366,10394,10414,10454,10488,10513,10540,10565,10591,10615,10640,10665,10690,10714,10740,10764,10789,10815,10840,10865,10890,10915,10941,10965,10990,11015,11039,11065,11090,11115,11140,11165,11190,11215,11242,11263,11287,11312,11337,11363,11389,11415,11439,11466,11489,11515,11539,11565,11589,11614,11639,11664,11691,11714,11739,11764,11789,11815,11839,11864,11889,11914,11939,11964,11989,12014,12039,12064,12090,12114,12139,12165,12187,12213,12237,12264,12289,12314,12339,12364,12389,12414,12439,12464,12489,12514,12539,12564,12589,12614,12639,12664,12689,12714,12739,12764,12788,12814,12839,12864,12889,12914,12939,12964,12989,13014,13039,13064,13089,13113,13139,13164,13189,13214,13239,13263,13289,13314,13339,13364,13388,13414,13440,13462,13486,13511,13536,13561,13587,13611,13636,13662,13688,13713,13738,13763,13788,13813,13839,13863,13888,13913,13938,13963,13988,14014,14038,14063,14087,14112,14138,14163,14188,14213,14238,14263,14288,14313,14338,14364,14388,14413,14439,14463,14488,14513,14538,14563,14589,14613,14638,14664,14688,14713,14737,14763,14788,14812,14840,14863,14888,14913,14938,14963,14988,15013,15038,15063,15088,15113,15138,15163,15188,15213,15237,15263,15288,15313,15338,15363,15388,15413,15437,15463,15488,15513,15537,15563,15588,15613,15636,15661,15685,15710,15736,15762,15787,15812,15838,15862,15887,15912,15937,15962,15987,16012,16037,16062,16087,16112,16137,16162,16187,16212,16237,16262,16287,16312,16337,16362,16387,16412,16437,16462,16487,16512,16537,16562,16587,16612,16637,16662,16688,16712,16739,16762,16787,16812,16837,16862,16887,16912,16939,16961,16985,17011,17035,17060,17087,17112,17137,17162,17187,17212,17237,17262,17288,17312,17337,17362,17386,17412,17437,17462,17487,17512,17537,17562,17587,17612,17636,17661,17686,17711,17737,17761,17786,17812,17839,17859,17884,17909,17934,17959,17984,18009,18034,18059,18084,18111,18137,18161,18186,18211,18236,18261,18286,18311,18336,18361,18386,18411,18436,18461,18486,18511,18536,18561,18586,18611,18636,18661,18686,18711,18736,18761,18786,18810,18836,18861,18886,18911,18936,18961,18986,19011,19036,19061,19085,19111,19135,19161,19186,19212,19235,19259,19285,19309,19335,19361,19386,19411,19436,19460,19486,19511,19536,19560,19586,19611,19635,19661,19685,19710,19735,19760,19786,19810,19835,19860,19886,19910,19936,19960,19985,20010,20035,20062,20083,20108,20135,20160,20186,20210,20235,20260,20285,20310,20335,20360,20385,20410,20435,20460,20485,20510,20535,20560,20585,20610,20635,20660,20686,20709,20735,20760,20785,20810,20835,20860,20886,20910,20935,20960,20985,21010,21035,21060,21085,21110,21134,21160,21184,21208,21233,21258,21283,21310,21335,21360,21385,21410,21435,21460,21485,21509,21534,21559,21584,21609,21634,21660,21684,21711,21735,21760,21785,21809,21834,21859,21885,21910,21934,21959,21985,22009,22034,22059,22084,22109,22134,22159,22184,22209,22234,22259,22286,22307,22332,22357,22382,22407,22432,22457,22484,22509,22534,22559,22584,22610,22634,22659,22684,22709,22734,22759,22784,22809,22834,22859,22884,22909,22934,22959,22984,23009,23034,23059,23084,23109,23133,23157,23182,23209,23234,23259,23284,23309,23334,23359,23384,23408,23434,23459,23483,23508,23533,23559,23583,23609,23633,23660,23684,23708,23733,23758,23783,23809,23833,23858,23883,23908,23934,23958,23983,24008,24033,24058,24083,24108,24133,24158,24185,24208,24233,24258,24283,24308,24332,24357,24383,24408,24433,24458,24483,24506,24530,24556,24583,24608,24633,24658,24683,24708,24733,24758,24783,24808,24833,24858,24883,24908,24932,24958,24983,25008,25035,25058,25082,25108,25133,25158,25183,25208,25233,25258,25283,25308,25333,25358,25383,25408,25433,25457,25482,25508,25533,25558,25583,25607,25633,25657,25684,25707,25732,25758,25782,25808,25832,25859,25882,25907,25933,25957,25982,26008,26032,26058,26082,26107,26132,26157,26183,26207,26232,26257,26282,26308,26332,26357,26383,26407,26432,26456,26482,26507,26532,26557,26582,26607,26632,26657,26685,26706,26730,26755,26780,26805,26830,26855,26880,26904,26932,26957,26982,27007,27032,27058,27082,27109,27131,27156,27182,27207,27232,27257,27282,27307,27332,27357,27382,27406,27431,27457,27482,27507,27532,27557,27581,27606,27632,27656,27681,27706,27732,27757,27782,27807,27831,27856,27881,27906,27932,27956,27981,28006,28031,28056,28081,28107,28131,28156,28181,28206,28231,28256,28281,28306,28331,28356,28381,28406,28431,28456,28481,28506,28531,28556,28581,28606,28631,28656,28682,28706,28731,28756,28781,28807,28829,28854,28879,28904,28929,28955,28979,29004,29029,29054,29079,29105,29133,29156,29181,29206,29231,29256,29282,29306,29331,29356,29381,29406,29431,29456,29481,29506,29531,29556,29581,29606,29629,29656,29681,29704,29729,29754,29779,29804,29829,29854,29879,29904,29929,29955,29979,30004,30029,30054,30080,30105,30131,30155,30180,30205,30231,30255,30280,30306,30330,30355,30380,30405,30430,30455,30480,30505,30530,30555,30580,30605,30630,30655,30680,30706,30730,30755,30780,30804,30829,30854,30880,30905,30930,30955,30980,31006,31028,31053,31077,31105,31130,31155,31180,31205,31230,31255,31279,31305,31330,31355,31381,31405,31428,31452,31480,31505,31530,31555,31580,31605,31630,31655,31680,31705,31730,31753,31780,31805,31830,31854,31880,31904,31929,31955,31979,32004,32030,32054,32080,32105,32129,32155,32179,32205,32229,32254,32279,32304,32329,32354,32379,32404,32429,32454,32479,32504,32529,32555,32580,32606,32629,32655,32679,32704,32728,32754,32782,32805,32830,32855,32880,32904,32929,32955,32979,33004,33030,33054,33081,33105,33129,33154,33178,33202,33227,33254,33279,33304,33329,33355,33380,33405,33430,33455,33481,33505,33528,33553,33578,33603,33627,33653,33680,33706,33729,33754,33779,33802,33827,33853,33877,33902,33927,33954,33981,34003,34029,34054,34078,34102,34127,34152,34177,34202,34229,34254,34279,34306,34328,34352,34377,34402,34427,34452,34479,34505,34530,34555,34581,34605,34631,34654,34679,34704,34730,34756,34780,34805,34829,34854,34879,34904,34929,34953,34978,35003,35028,35053,35078,35103,35128,35153,35178,35202,35226,35252,35277,35302,35327,35352,35376,35402,35427,35453,35477,35503,35528,35553,35577,35603,35628,35653,35678,35703,35727,35753,35778,35803,35827,35853,35878,35903,35928,35952,35978,36002,36026,36053,36078,36102,36128,36153,36177,36202,36228,36253,36277,36303,36327,36352,36377,36403,36428,36452,36475,36500,36527,36552,36578,36603,36628,36652,36677,36702,36728,36753,36778,36802,36828,36852,36877,36906,36928,36951,36977,37003,37027,37054,37077,37104,37129,37153,37177,37202,37228,37256,37275,37300,37325,37350,37380,37403,37428,37453,37478,37503,37528,37554,37579,37604,37629,37654,37677,37701,37726,37752,37776,37802,37827,37852,37876,37901,37930,37953,37976,38001,38027,38052,38079,38103,38129,38154,38177,38202,38226,38250,38275,38300,38327,38352,38377,38402,38426,38452,38477,38501,38525,38550,38574,38599,38624,38649,38674,38699,38724,38751,38777,38801,38827,38851,38876,38902,38928,38957,38978,39002,39024,39049,39074,39100,39127,39153,39178,39202,39226,39251,39276,39301,39328,39349,39376,39401,39427,39451,39476,39499,39524,39549,39575,39601,39626,39651,39676,39701,39726,39751,39777,39802,39829,39851,39875,39900,39925,39951,39977,40002,40028,40053,40078,40104,40124,40152,40177,40202,40227,40252,40276,40301,40326,40351,40376,40401,40425,40451,40476,40501,40526,40550,40575,40600,40626,40651,40676,40699,40724,40749,40775,40801,40826,40850,40875,40900,40926,40948,40973,40998,41023,41048,41073,41098,41123,41148,41173,41199,41225,41250,41275,41300,41326,41350,41375,41400,41429,41449,41474,41499,41524,41548,41573,41598,41624,41649,41673,41698,41725,41749,41774,41798,41825,41850,41875,41900,41925,41950,41975,41999,42025,42050,42075,42100,42125,42150,42175,42200,42225,42252,42275,42300,42325,42349,42375,42400,42424,42450,42475,42499,42525,42550,42575,42600,42625,42649,42675,42700,42724,42750,42775,42800,42826,42850,42876,42902,42927,42951,42976,43001,43027,43050,43073,43098,43126,43151,43176,43200,43225,43250,43275,43300,43326,43351,43374,43399,43426,43450,43475,43498,43522,43548,43573,43598,43622,43647,43674,43699,43724,43749,43774,43799,43824,43849,43872,43897,43922,43947,43972,43998,44023,44050,44075,44100,44126,44152,44175,44199,44224,44249,44274,44299,44324,44349,44375,44400,44424,44449,44474,44499,44524,44549,44574,44598,44625,44650,44675,44701,44724,44748,44774,44800,44825,44849,44874,44899,44924,44949,44974,44997,45022,45052,45072,45097,45124,45149,45174,45199,45224,45249,45273,45297,45322,45347,45372,45397,45422,45447,45474,45501,45521,45546,45571,45596,45621,45646,45672,45697,45722,45747,45775,45799,45825,45850,45874,45902,45924,45950,45975,46000,46026,46049,46077,46099,46125,46149,46176,46200,46226,46250,46275,46300,46324,46351,46375,46396,46421,46446,46471,46497,46523,46548,46573,46598,46624,46648,46673,46698,46723,46747,46772,46797,46820,46846,46872,46896,46921,46946,46971,46995,47022,47048,47077],"hit":[null],"x":[-1.751700680272109,0.047619047619047616,0.04421768707482993,0.013605442176870748,-0.027210884353741496,-0.05782312925170068,-0.08163265306122448,-0.11564625850340136,-0.20408163265306123,-0.2687074829931973,-0.36394557823129253,-0.3741496598639456,-0.3945578231292517,-0.40476190476190477,-0.40816326530612246,-0.40816326530612246,-0.40816326530612246,-0.40816326530612246,-0.40816326530612246,-0.40816326530612246,-0.40816326530612246,-0.40816326530612246,-0.40816326530612246,-0.40816326530612246,-0.40816326530612246,-0.40816326530612246,-0.40816326530612246,-0.40476190476190477,-0.40476190476190477,-0.4013605442176871,-0.3945578231292517,-0.3843537414965986,-0.3741496598639456,-0.35034013605442177,-0.3197278911564626,-0.2857142857142857,-0.24829931972789115,-0.16666666666666666,-0.10204081632653061,-0.07482993197278912,-0.07482993197278912,-0.07482993197278912,-0.07482993197278912,-0.07482993197278912,-0.07482993197278912,-0.07482993197278912,-0.07482993197278912,-0.07482993197278912,-0.07482993197278912,-0.07482993197278912,-0.07482993197278912,-0.07482993197278912,-0.07482993197278912,-0.07482993197278912,-0.07482993197278912,-0.07482993197278912,-0.07482993197278912,-0.07482993197278912,-0.07482993197278912,-0.07482993197278912,-0.07482993197278912,-0.07142857142857142,-0.05782312925170068,-0.03741496598639456,-0.003401360544217687,0.03741496598639456,0.0782312925170068,0.1292517006802721,0.17346938775510204,0.22448979591836735,0.25170068027210885,0.2687074829931973,0.282312925170068,0.282312925170068,0.282312925170068,0.282312925170068,0.282312925170068,0.282312925170068,0.282312925170068,0.282312925170068,0.282312925170068,0.2857142857142857,0.2857142857142857,0.2857142857142857,0.2857142857142857,0.2857142857142857,0.2857142857142857,0.2857142857142857,0.2857142857142857,0.2857142857142857,0.2857142857142857,0.2857142857142857,0.2857142857142857,0.2857142857142857,0.2857142857142857,0.2857142857142857,0.2857142857142857,0.2857142857142857,0.2857142857142857,0.2857142857142857,0.2857142857142857,0.2857142857142857,0.2857142857142857,0.2857142857142857,0.2857142857142857,0.2891156462585034,0.2891156462585034,0.2925170068027211,0.30272108843537415,0.3163265306122449,0.3435374149659864,0.36054421768707484,0.3843537414965986,0.41156462585034015,0.4557823129251701,0.4897959183673469,0.5170068027210885,0.54421768707483,0.5510204081632653,0.564625850340136,0.5714285714285714,0.5714285714285714,0.5714285714285714,0.5748299319727891,0.5748299319727891,0.5748299319727891,0.5748299319727891,0.5748299319727891,0.5748299319727891,0.5748299319727891,0.5748299319727891,0.5748299319727891,0.5782312925170068,0.5782312925170068,0.5782312925170068,0.5782312925170068,0.5782312925170068,0.5782312925170068,0.5782312925170068,0.5782312925170068,0.5782312925170068,0.5782312925170068,0.5782312925170068,0.5782312925170068,0.5782312925170068,0.5782312925170068,0.5782312925170068,0.5782312925170068,0.5782312925170068,0.5782312925170068,0.5782312925170068,0.5782312925170068,0.5782312925170068,0.5782312925170068,0.5782312925170068,0.5782312925170068,0.5782312925170068,0.5782312925170068,0.5782312925170068,0.5782312925170068,0.5782312925170068,0.5782312925170068,0.5782312925170068,0.5782312925170068,0.564625850340136,0.5510204081632653,0.5408163265306123,0.5272108843537415,0.5068027210884354,0.4931972789115646,0.47959183673469385,0.46938775510204084,0.46258503401360546,0.45918367346938777,0.4489795918367347,0.4421768707482993,0.43197278911564624,0.41496598639455784,0.3945578231292517,0.3843537414965986,0.37755102040816324,0.3707482993197279,0.36394557823129253,0.35374149659863946,0.3435374149659864,0.32653061224489793,0.3129251700680272,0.2891156462585034,0.2653061224489796,0.24829931972789115,0.24829931972789115,0.24829931972789115,0.24829931972789115,0.24829931972789115,0.24829931972789115,0.24829931972789115,0.24829931972789115,0.24829931972789115,0.24829931972789115,0.24829931972789115,0.24829931972789115,0.24829931972789115,0.24829931972789115,0.24829931972789115,0.24829931972789115,0.24829931972789115,0.24829931972789115,0.24829931972789115,0.25170068027210885,0.2585034013605442,0.272108843537415,0.2891156462585034,0.29591836734693877,0.30612244897959184,0.3163265306122449,0.32653061224489793,0.336734693877551,0.35034013605442177,0.36394557823129253,0.38095238095238093,0.3979591836734694,0.41156462585034015,0.43197278911564624,0.4421768707482993,0.4523809523809524,0.45918367346938777,0.46598639455782315,0.47959183673469385,0.5,0.5102040816326531,0.5170068027210885,0.5238095238095238,0.5238095238095238,0.5238095238095238,0.5238095238095238,0.5238095238095238,0.5238095238095238,0.5238095238095238,0.5238095238095238,0.5238095238095238,0.5238095238095238,0.5238095238095238,0.5238095238095238,0.5238095238095238,0.5238095238095238,0.5238095238095238,0.5238095238095238,0.5238095238095238,0.5238095238095238,0.5238095238095238,0.5238095238095238,0.46258503401360546,0.3979591836734694,0.3333333333333333,0.2653061224489796,0.21428571428571427,0.18027210884353742,0.16326530612244897,0.1360544217687075,0.11224489795918367,0.09183673469387756,0.08503401360544217,0.08163265306122448,0.0782312925170068,0.0782312925170068,0.0782312925170068,0.09863945578231292,0.1598639455782313,0.22108843537414966,0.2755102040816326,0.282312925170068,0.282312925170068,0.282312925170068,0.282312925170068,0.282312925170068,0.282312925170068,0.282312925170068,0.272108843537415,0.24149659863945577,0.19727891156462585,0.1564625850340136,0.13945578231292516,0.11904761904761904,0.09523809523809523,0.07142857142857142,0.05102040816326531,0.03741496598639456,0.03741496598639456,0.03741496598639456,0.03741496598639456,0.03741496598639456,0.03741496598639456,0.03741496598639456,0.03741496598639456,0.034013605442176874,0.027210884353741496,0.027210884353741496,0.027210884353741496,0.027210884353741496,0.027210884353741496,0.027210884353741496,0.027210884353741496,0.027210884353741496,0.027210884353741496,0.027210884353741496,0.027210884353741496,0.027210884353741496,0.027210884353741496,0.027210884353741496,0.027210884353741496,0.027210884353741496,0.027210884353741496,0.027210884353741496,0.027210884353741496,0.027210884353741496,0.027210884353741496,0.061224489795918366,0.11564625850340136,0.1836734693877551,0.24489795918367346,0.4217687074829932,0.5136054421768708,0.608843537414966,0.6836734693877551,0.7278911564625851,0.7482993197278912,0.7585034013605442,0.7653061224489796,0.7653061224489796,0.7653061224489796,0.7653061224489796,0.7653061224489796,0.7653061224489796,0.7653061224489796,0.7653061224489796,0.7653061224489796,0.7653061224489796,0.7653061224489796,0.7653061224489796,0.7653061224489796,0.7653061224489796,0.7653061224489796,0.7653061224489796,0.7653061224489796,0.7653061224489796,0.7653061224489796,0.7653061224489796,0.7653061224489796,0.7653061224489796,0.7653061224489796,0.7653061224489796,0.7653061224489796,0.7653061224489796,0.7653061224489796,0.7653061224489796,0.7653061224489796,0.7653061224489796,0.7653061224489796,0.7653061224489796,0.7653061224489796,0.7653061224489796,0.7653061224489796,0.7653061224489796,0.7653061224489796,0.7653061224489796,0.7653061224489796,0.7653061224489796,0.7653061224489796,0.7653061224489796,0.7653061224489796,0.7653061224489796,0.7653061224489796,0.7653061224489796,0.7653061224489796,0.7653061224489796,0.7653061224489796,0.7653061224489796,0.7653061224489796,0.7653061224489796,0.7653061224489796,0.7653061224489796,0.7653061224489796,0.7653061224489796,0.7653061224489796,0.7653061224489796,0.7653061224489796,0.7653061224489796,0.7653061224489796,0.7653061224489796,0.7653061224489796,0.7653061224489796,0.7653061224489796,0.7653061224489796,0.7653061224489796,0.7653061224489796,0.7653061224489796,0.7653061224489796,0.7653061224489796,0.7653061224489796,0.7653061224489796,0.7653061224489796,0.7653061224489796,0.7653061224489796,0.7653061224489796,0.7653061224489796,0.7653061224489796,0.7653061224489796,0.7653061224489796,0.7653061224489796,0.7653061224489796,0.7653061224489796,0.7653061224489796,0.7653061224489796,0.7653061224489796,0.7653061224489796,0.7653061224489796,0.7653061224489796,0.7653061224489796,0.7653061224489796,0.7653061224489796,0.7653061224489796,0.7653061224489796,0.7653061224489796,0.7653061224489796,0.7653061224489796,0.7653061224489796,0.7653061224489796,0.7653061224489796,0.7653061224489796,0.7653061224489796,0.7653061224489796,0.7653061224489796,0.7653061224489796,0.7653061224489796,0.7653061224489796,0.7653061224489796,0.7653061224489796,0.7653061224489796,0.7653061224489796,0.7653061224489796,0.7653061224489796,0.7653061224489796,0.7653061224489796,0.7653061224489796,0.7653061224489796,0.7653061224489796,0.7653061224489796,0.7653061224489796,0.7653061224489796,0.7653061224489796,0.7653061224489796,0.7653061224489796,0.7653061224489796,0.7653061224489796,0.7653061224489796,0.7653061224489796,0.7653061224489796,0.7653061224489796,0.7653061224489796,0.7653061224489796,0.7653061224489796,0.7653061224489796,0.7653061224489796,0.7653061224489796,0.7653061224489796,0.7653061224489796,0.7653061224489796,0.7653061224489796,0.7653061224489796,0.7653061224489796,0.7653061224489796,0.7653061224489796,0.7653061224489796,0.7653061224489796,0.7653061224489796,0.7653061224489796,0.7653061224489796,0.7653061224489796,0.7653061224489796,0.7653061224489796,0.7653061224489796,0.7653061224489796,0.7653061224489796,0.7653061224489796,0.7653061224489796,0.7653061224489796,0.7653061224489796,0.7653061224489796,0.7653061224489796,0.7653061224489796,0.7653061224489796,0.7653061224489796,0.7653061224489796,0.7653061224489796,0.7653061224489796,0.7653061224489796,0.7653061224489796,0.7653061224489796,0.7653061224489796,0.7653061224489796,0.7653061224489796,0.7653061224489796,0.7653061224489796,0.7653061224489796,0.7653061224489796,0.7653061224489796,0.7653061224489796,0.7653061224489796,0.7653061224489796,0.7653061224489796,0.7653061224489796,0.7653061224489796,0.7653061224489796,0.7653061224489796,0.7653061224489796,0.7653061224489796,0.7653061224489796,0.7653061224489796,0.7653061224489796,0.7653061224489796,0.7653061224489796,0.7653061224489796,0.7653061224489796,0.7653061224489796,0.7653061224489796,0.7653061224489796,0.7653061224489796,0.7653061224489796,0.7653061224489796,0.7653061224489796,0.7653061224489796,0.7653061224489796,0.7653061224489796,0.7653061224489796,0.7653061224489796,0.7653061224489796,0.7653061224489796,0.7653061224489796,0.7653061224489796,0.7653061224489796,0.7653061224489796,0.7653061224489796,0.7653061224489796,0.7653061224489796,0.7653061224489796,0.7653061224489796,0.7653061224489796,0.7653061224489796,0.7653061224489796,0.7653061224489796,0.7653061224489796,0.7653061224489796,0.7653061224489796,0.7653061224489796,0.7653061224489796,0.7653061224489796,0.7653061224489796,0.7653061224489796,0.7653061224489796,0.7653061224489796,0.7653061224489796,0.7653061224489796,0.7653061224489796,0.7653061224489796,0.7653061224489796,0.7653061224489796,0.7653061224489796,0.7653061224489796,0.7653061224489796,0.7653061224489796,0.7653061224489796,0.7653061224489796,0.7653061224489796,0.7653061224489796,0.7653061224489796,0.7653061224489796,0.7653061224489796,0.7653061224489796,0.7653061224489796,0.7653061224489796,0.7653061224489796,0.7653061224489796,0.7653061224489796,0.7653061224489796,0.7653061224489796,0.7653061224489796,0.7653061224489796,0.7653061224489796,0.7653061224489796,0.7653061224489796,0.7653061224489796,0.7653061224489796,0.7653061224489796,0.7653061224489796,0.7653061224489796,0.7653061224489796,0.7653061224489796,0.7653061224489796,0.7653061224489796,0.7653061224489796,0.7653061224489796,0.7653061224489796,0.7653061224489796,0.7653061224489796,0.7653061224489796,0.7653061224489796,0.7653061224489796,0.7653061224489796,0.7653061224489796,0.7653061224489796,0.7653061224489796,0.7653061224489796,0.7653061224489796,0.7653061224489796,0.7653061224489796,0.7653061224489796,0.7653061224489796,0.7653061224489796,0.7653061224489796,0.7653061224489796,0.7653061224489796,0.7653061224489796,0.7653061224489796,0.7653061224489796,0.7653061224489796,0.7653061224489796,0.7653061224489796,0.7653061224489796,0.7653061224489796,0.7653061224489796,0.7653061224489796,0.7653061224489796,0.7653061224489796,0.7653061224489796,0.7653061224489796,0.7653061224489796,0.7653061224489796,0.7653061224489796,0.7653061224489796,0.7653061224489796,0.7653061224489796,0.7653061224489796,0.7653061224489796,0.7653061224489796,0.7653061224489796,0.7653061224489796,0.7653061224489796,0.7653061224489796,0.7653061224489796,0.7653061224489796,0.7653061224489796,0.7653061224489796,0.7653061224489796,0.7653061224489796,0.7653061224489796,0.7653061224489796,0.7653061224489796,0.7653061224489796,0.7653061224489796,0.7653061224489796,0.7653061224489796,0.7653061224489796,0.7653061224489796,0.7653061224489796,0.7653061224489796,0.7653061224489796,0.7653061224489796,0.7653061224489796,0.7653061224489796,0.7653061224489796,0.7653061224489796,0.7653061224489796,0.7653061224489796,0.7653061224489796,0.7653061224489796,0.7653061224489796,0.7653061224489796,0.7653061224489796,0.7653061224489796,0.7653061224489796,0.7653061224489796,0.7653061224489796,0.7653061224489796,0.7653061224489796,0.7653061224489796,0.7653061224489796,0.7653061224489796,0.7653061224489796,0.7653061224489796,0.7653061224489796,0.7653061224489796,0.7653061224489796,0.7653061224489796,0.7653061224489796,0.7653061224489796,0.7653061224489796,0.7653061224489796,0.7653061224489796,0.7653061224489796,0.7653061224489796,0.7653061224489796,0.7653061224489796,0.7653061224489796,0.7653061224489796,0.7653061224489796,0.7653061224489796,0.7653061224489796,0.7653061224489796,0.7653061224489796,0.7653061224489796,0.7653061224489796,0.7653061224489796,0.7653061224489796,0.7653061224489796,0.7653061224489796,0.7653061224489796,0.7653061224489796,0.7653061224489796,0.7653061224489796,0.7653061224489796,0.7653061224489796,0.7653061224489796,0.7653061224489796,0.7653061224489796,0.7653061224489796,0.7653061224489796,0.7653061224489796,0.7653061224489796,0.7653061224489796,0.7653061224489796,0.7653061224489796,0.7653061224489796,0.7653061224489796,0.7653061224489796,0.7653061224489796,0.7653061224489796,0.7653061224489796,0.7653061224489796,0.7653061224489796,0.7653061224489796,0.7653061224489796,0.7653061224489796,0.7653061224489796,0.7653061224489796,0.7653061224489796,0.7653061224489796,0.7653061224489796,0.7653061224489796,0.7653061224489796,0.7653061224489796,0.7653061224489796,0.7653061224489796,0.7653061224489796,0.7653061224489796,0.7653061224489796,0.7653061224489796,0.7653061224489796,0.7653061224489796,0.7653061224489796,0.7653061224489796,0.7653061224489796,0.7653061224489796,0.7653061224489796,0.7653061224489796,0.7653061224489796,0.7653061224489796,0.7653061224489796,0.7653061224489796,0.7653061224489796,0.7653061224489796,0.7653061224489796,0.7653061224489796,0.7653061224489796,0.7653061224489796,0.7653061224489796,0.7653061224489796,0.7653061224489796,0.7653061224489796,0.7653061224489796,0.7653061224489796,0.7653061224489796,0.7653061224489796,0.7653061224489796,0.7653061224489796,0.7653061224489796,0.7653061224489796,0.7653061224489796,0.7653061224489796,0.7653061224489796,0.7653061224489796,0.7653061224489796,0.7653061224489796,0.7653061224489796,0.7653061224489796,0.7653061224489796,0.7653061224489796,0.7653061224489796,0.7653061224489796,0.7653061224489796,0.7653061224489796,0.7653061224489796,0.7653061224489796,0.7653061224489796,0.7653061224489796,0.7653061224489796,0.7653061224489796,0.7653061224489796,0.7653061224489796,0.7653061224489796,0.7653061224489796,0.7653061224489796,0.7653061224489796,0.7653061224489796,0.7653061224489796,0.7653061224489796,0.7653061224489796,0.7653061224489796,0.7653061224489796,0.7653061224489796,0.7653061224489796,0.7653061224489796,0.7653061224489796,0.7653061224489796,0.7653061224489796,0.7653061224489796,0.7653061224489796,0.7653061224489796,0.7653061224489796,0.7653061224489796,0.7653061224489796,0.7653061224489796,0.7653061224489796,0.7653061224489796,0.7653061224489796,0.7653061224489796,0.7653061224489796,0.7653061224489796,0.7653061224489796,0.7653061224489796,0.7653061224489796,0.7653061224489796,0.7653061224489796,0.7653061224489796,0.7653061224489796,0.7653061224489796,0.7653061224489796,0.7653061224489796,0.7653061224489796,0.7653061224489796,0.7653061224489796,0.7653061224489796,0.7653061224489796,0.7653061224489796,0.7653061224489796,0.7653061224489796,0.7653061224489796,0.7653061224489796,0.7653061224489796,0.7653061224489796,0.7653061224489796,0.7653061224489796,0.7653061224489796,0.7653061224489796,0.7653061224489796,0.7653061224489796,0.7653061224489796,0.7653061224489796,0.7653061224489796,0.7653061224489796,0.7653061224489796,0.7653061224489796,0.7653061224489796,0.7653061224489796,0.7653061224489796,0.7653061224489796,0.7653061224489796,0.7653061224489796,0.7653061224489796,0.7653061224489796,0.7653061224489796,0.7653061224489796,0.7653061224489796,0.7653061224489796,0.7653061224489796,0.7653061224489796,0.7653061224489796,0.7653061224489796,0.7653061224489796,0.7653061224489796,0.7653061224489796,0.7653061224489796,0.7653061224489796,0.7653061224489796,0.7653061224489796,0.7653061224489796,0.7653061224489796,0.7653061224489796,0.7653061224489796,0.7653061224489796,0.7653061224489796,0.7653061224489796,0.7653061224489796,0.7653061224489796,0.7653061224489796,0.7653061224489796,0.7653061224489796,0.7653061224489796,0.7653061224489796,0.7653061224489796,0.7653061224489796,0.7653061224489796,0.7653061224489796,0.7653061224489796,0.7653061224489796,0.7653061224489796,0.7653061224489796,0.7653061224489796,0.7653061224489796,0.7653061224489796,0.7653061224489796,0.7653061224489796,0.7653061224489796,0.7653061224489796,0.7653061224489796,0.7653061224489796,0.7653061224489796,0.7653061224489796,0.7653061224489796,0.7653061224489796,0.7653061224489796,0.7653061224489796,0.7653061224489796,0.7653061224489796,0.7653061224489796,0.7653061224489796,0.7653061224489796,0.7653061224489796,0.7653061224489796,0.7653061224489796,0.7653061224489796,0.7653061224489796,0.7653061224489796,0.7653061224489796,0.7653061224489796,0.7653061224489796,0.7653061224489796,0.7653061224489796,0.7653061224489796,0.7653061224489796,0.7653061224489796,0.7653061224489796,0.7653061224489796,0.7653061224489796,0.7653061224489796,0.7653061224489796,0.7653061224489796,0.7653061224489796,0.7653061224489796,0.7653061224489796,0.7653061224489796,0.7653061224489796,0.7653061224489796,0.7653061224489796,0.7653061224489796,0.7653061224489796,0.7653061224489796,0.7653061224489796,0.7653061224489796,0.7653061224489796,0.7653061224489796,0.7653061224489796,0.7653061224489796,0.7653061224489796,0.7653061224489796,0.7653061224489796,0.7653061224489796,0.7653061224489796,0.7653061224489796,0.7653061224489796,0.7653061224489796,0.7653061224489796,0.7653061224489796,0.7653061224489796,0.7653061224489796,0.7653061224489796,0.7653061224489796,0.7653061224489796,0.7653061224489796,0.7653061224489796,0.7653061224489796,0.7653061224489796,0.7653061224489796,0.7653061224489796,0.7653061224489796,0.7653061224489796,0.7653061224489796,0.7653061224489796,0.7653061224489796,0.7653061224489796,0.7653061224489796,0.7653061224489796,0.7653061224489796,0.7653061224489796,0.7653061224489796,0.7653061224489796,0.7653061224489796,0.7653061224489796,0.7653061224489796,0.7653061224489796,0.7653061224489796,0.7653061224489796,0.7653061224489796,0.7653061224489796,0.7653061224489796,0.7653061224489796,0.7653061224489796,0.7653061224489796,0.7653061224489796,0.7653061224489796,0.7653061224489796,0.7653061224489796,0.7653061224489796,0.7653061224489796,0.7653061224489796,0.7653061224489796,0.7653061224489796,0.7653061224489796,0.7653061224489796,0.7653061224489796,0.7653061224489796,0.7653061224489796,0.7653061224489796,0.7653061224489796,0.7653061224489796,0.7653061224489796,0.7653061224489796,0.7653061224489796,0.7653061224489796,0.7653061224489796,0.7653061224489796,0.7653061224489796,0.7653061224489796,0.7653061224489796,0.7653061224489796,0.7653061224489796,0.7653061224489796,0.7653061224489796,0.7653061224489796,0.7653061224489796,0.7653061224489796,0.7653061224489796,0.7653061224489796,0.7653061224489796,0.7653061224489796,0.7653061224489796,0.7653061224489796,0.7653061224489796,0.7653061224489796,0.7653061224489796,0.7653061224489796,0.7653061224489796,0.7653061224489796,0.7653061224489796,0.7653061224489796,0.7653061224489796,0.7653061224489796,0.7653061224489796,0.7653061224489796,0.7653061224489796,0.7653061224489796,0.7653061224489796,0.7653061224489796,0.7653061224489796,0.7653061224489796,0.7653061224489796,0.7653061224489796,0.7653061224489796,0.7653061224489796,0.7653061224489796,0.7653061224489796,0.7653061224489796,0.7653061224489796,0.7653061224489796,0.7653061224489796,0.7653061224489796,0.7653061224489796,0.7653061224489796,0.7653061224489796,0.7653061224489796,0.7653061224489796,0.7653061224489796,0.7653061224489796,0.7653061224489796,0.7653061224489796,0.7653061224489796,0.7653061224489796,0.7653061224489796,0.7653061224489796,0.7653061224489796,0.7653061224489796,0.7653061224489796,0.7653061224489796,0.7653061224489796,0.7653061224489796,0.7653061224489796,0.7653061224489796,0.7653061224489796,0.7653061224489796,0.7653061224489796,0.7653061224489796,0.7653061224489796,0.7653061224489796,0.7653061224489796,0.7653061224489796,0.7653061224489796,0.7653061224489796,0.7653061224489796,0.7653061224489796,0.7653061224489796,0.7653061224489796,0.7653061224489796,0.7653061224489796,0.7653061224489796,0.7653061224489796,0.7653061224489796,0.7653061224489796,0.7653061224489796,0.7653061224489796,0.7653061224489796,0.7653061224489796,0.7653061224489796,0.7653061224489796,0.7653061224489796,0.7653061224489796,0.7653061224489796,0.7653061224489796,0.7653061224489796,0.7653061224489796,0.7653061224489796,0.7653061224489796,0.7653061224489796,0.7653061224489796,0.7653061224489796,0.7653061224489796,0.7653061224489796,0.7653061224489796,0.7653061224489796,0.7653061224489796,0.7653061224489796,0.7653061224489796,0.7653061224489796,0.7653061224489796,0.7653061224489796,0.7653061224489796,0.7653061224489796,0.7653061224489796,0.7653061224489796,0.7653061224489796,0.7653061224489796,0.7653061224489796,0.7653061224489796,0.7653061224489796,0.7653061224489796,0.7653061224489796,0.7653061224489796,0.7653061224489796,0.7653061224489796,0.7653061224489796,0.7653061224489796,0.7653061224489796,0.7653061224489796,0.7653061224489796,0.7653061224489796,0.7653061224489796,0.7653061224489796,0.7653061224489796,0.7653061224489796,0.7653061224489796,0.7653061224489796,0.7653061224489796,0.7653061224489796,0.7653061224489796,0.7653061224489796,0.7653061224489796,0.7653061224489796,0.7653061224489796,0.7653061224489796,0.7653061224489796,0.7653061224489796,0.7653061224489796,0.7653061224489796,0.7653061224489796,0.7653061224489796,0.7653061224489796,0.7653061224489796,0.7653061224489796,0.7653061224489796,0.7653061224489796,0.7653061224489796,0.7653061224489796,0.7653061224489796,0.7653061224489796,0.7653061224489796,0.7653061224489796,0.7653061224489796,0.7653061224489796,0.7653061224489796,0.7653061224489796,0.7653061224489796,0.7653061224489796,0.7653061224489796,0.7653061224489796,0.7653061224489796,0.7653061224489796,0.7653061224489796,0.7653061224489796,0.7653061224489796,0.7653061224489796,0.7653061224489796,0.7653061224489796,0.7653061224489796,0.7653061224489796,0.7653061224489796,0.7653061224489796,0.7653061224489796,0.7653061224489796,0.7653061224489796,0.7653061224489796,0.7653061224489796,0.7653061224489796,0.7653061224489796,0.7653061224489796,0.7653061224489796,0.7653061224489796,0.7653061224489796,0.7653061224489796,0.7653061224489796,0.7653061224489796,0.7653061224489796,0.7653061224489796,0.7653061224489796,0.7653061224489796,0.7653061224489796,0.7653061224489796,0.7653061224489796,0.7653061224489796,0.7653061224489796,0.7653061224489796,0.7653061224489796,0.7653061224489796,0.7653061224489796,0.7653061224489796,0.7653061224489796,0.7653061224489796,0.7653061224489796,0.7653061224489796,0.7653061224489796,0.7653061224489796,0.7653061224489796,0.7653061224489796,0.7653061224489796,0.7653061224489796,0.7653061224489796,0.7653061224489796,0.7653061224489796,0.7653061224489796,0.7653061224489796,0.7653061224489796,0.7653061224489796,0.7653061224489796,0.7653061224489796,0.7653061224489796,0.7653061224489796,0.7653061224489796,0.7653061224489796,0.7653061224489796,0.7653061224489796,0.7653061224489796,0.7653061224489796,0.7653061224489796,0.7653061224489796,0.7653061224489796,0.7653061224489796,0.7653061224489796,0.7653061224489796,0.7653061224489796,0.7653061224489796,0.7653061224489796,0.7653061224489796,0.7653061224489796,0.7653061224489796,0.7653061224489796,0.7653061224489796,0.7653061224489796,0.7653061224489796,0.7653061224489796,0.7653061224489796,0.7653061224489796,0.7653061224489796,0.7687074829931972,0.7687074829931972,0.7687074829931972,0.7687074829931972,0.7653061224489796,0.7619047619047619,0.7619047619047619,0.7619047619047619,0.7619047619047619,0.7551020408163265,0.7482993197278912,0.7448979591836735,0.7414965986394558,0.7414965986394558,0.7346938775510204,0.7346938775510204,0.7346938775510204,0.7346938775510204,0.7278911564625851,0.7278911564625851,0.7278911564625851,0.7278911564625851,0.7278911564625851,0.7278911564625851,0.7278911564625851,0.7278911564625851,0.7278911564625851,0.7278911564625851,0.7278911564625851,0.7278911564625851,0.7278911564625851,0.7278911564625851,0.7210884353741497,0.7040816326530612,0.6972789115646258,0.6904761904761905,0.6802721088435374,0.6632653061224489,0.6462585034013606,0.6292517006802721,0.6190476190476191,0.6054421768707483,0.5986394557823129,0.5986394557823129,0.5986394557823129,0.5952380952380952,0.5816326530612245,0.5782312925170068,0.5782312925170068,0.5782312925170068,0.5782312925170068,0.5782312925170068,0.5714285714285714,0.5680272108843537,0.5680272108843537,0.5680272108843537,0.5680272108843537,0.5680272108843537,0.5680272108843537,0.5680272108843537,0.5680272108843537,0.5680272108843537,0.5680272108843537,0.5680272108843537,0.5680272108843537,0.5680272108843537,0.5680272108843537,0.5680272108843537,0.5680272108843537,0.5918367346938775,0.6156462585034014,0.6292517006802721,0.6360544217687075,0.6428571428571429,0.6462585034013606,0.6530612244897959,0.6530612244897959,0.6530612244897959,0.6530612244897959,0.6530612244897959,0.6530612244897959,0.6530612244897959,0.6530612244897959,0.6530612244897959,0.6530612244897959,0.6530612244897959,0.6530612244897959,0.6530612244897959,0.6530612244897959,0.6530612244897959,0.6530612244897959,0.6632653061224489,0.6666666666666666,0.6768707482993197,0.6870748299319728,0.6938775510204082,0.6938775510204082,0.6938775510204082,0.6938775510204082,0.6938775510204082,0.6938775510204082,0.6938775510204082,0.6938775510204082,0.6938775510204082,0.6938775510204082,0.6972789115646258,0.6972789115646258,0.6972789115646258,0.6972789115646258,0.6972789115646258,0.6972789115646258,0.6972789115646258,0.6972789115646258,0.6972789115646258,0.6972789115646258,0.6972789115646258,0.6972789115646258,0.6972789115646258,0.6972789115646258,0.6972789115646258,0.6972789115646258,0.6972789115646258,0.6972789115646258,0.6972789115646258,0.6972789115646258,0.6972789115646258,0.6972789115646258,0.6972789115646258,0.6972789115646258,0.6972789115646258,0.6972789115646258,0.6972789115646258,0.6972789115646258,0.6972789115646258,0.6972789115646258,0.6972789115646258,0.6972789115646258,0.6972789115646258,0.6972789115646258,0.6972789115646258,0.6972789115646258,0.6972789115646258,0.6972789115646258,0.6972789115646258,0.6972789115646258,0.6972789115646258,0.6972789115646258,0.6972789115646258,0.6972789115646258,0.6972789115646258,0.6972789115646258,0.6972789115646258,0.6972789115646258,0.6972789115646258,0.6972789115646258,0.6972789115646258,0.6972789115646258,0.6972789115646258,0.6972789115646258,0.6972789115646258,0.6972789115646258,0.6972789115646258,0.6972789115646258,0.6972789115646258,0.6972789115646258,0.6972789115646258,0.6972789115646258,0.6972789115646258,0.7040816326530612,0.7074829931972789,0.7074829931972789,0.7108843537414966,0.7108843537414966,0.7108843537414966,0.7108843537414966,0.7108843537414966,0.7108843537414966,0.7108843537414966,0.7108843537414966,0.7040816326530612,0.7006802721088435,0.7006802721088435,0.6972789115646258,0.6938775510204082,0.6938775510204082,0.6938775510204082,0.6904761904761905,0.6904761904761905,0.6870748299319728,0.6870748299319728,0.6870748299319728,0.6836734693877551,0.6802721088435374,0.6700680272108843,0.6632653061224489,0.6428571428571429,0.6224489795918368,0.5986394557823129,0.5714285714285714,0.5374149659863946,0.5204081632653061,0.4965986394557823,0.48299319727891155,0.46938775510204084,0.4421768707482993,0.40476190476190477,0.37755102040816324,0.35714285714285715,0.3299319727891156,0.30272108843537415,0.2585034013605442,0.22448979591836735,0.1836734693877551,0.17006802721088435,0.17006802721088435,0.16326530612244897,0.1564625850340136,0.14625850340136054,0.12585034013605442,0.11904761904761904,0.11564625850340136,0.1054421768707483,0.09183673469387756,0.05782312925170068,0.027210884353741496,0.006802721088435374,-0.003401360544217687,-0.006802721088435374,-0.006802721088435374,-0.006802721088435374,-0.01020408163265306,-0.01020408163265306,-0.01020408163265306,-0.01020408163265306,-0.01020408163265306,-0.01020408163265306,-0.01020408163265306,-0.01020408163265306,-0.01020408163265306,-0.01020408163265306,-0.01020408163265306,-0.01020408163265306,-0.01020408163265306,-0.01020408163265306,-0.01020408163265306,-0.01020408163265306,-0.01020408163265306,-0.01020408163265306,-0.01020408163265306,-0.01020408163265306,-0.01020408163265306,-0.01020408163265306,-0.01020408163265306,-0.01020408163265306,-0.01020408163265306,0.006802721088435374,0.02040816326530612,0.030612244897959183,0.034013605442176874,0.034013605442176874,0.034013605442176874,0.034013605442176874,0.04421768707482993,0.061224489795918366,0.08163265306122448,0.1054421768707483,0.12244897959183673,0.12244897959183673,0.12244897959183673,0.12244897959183673,0.12244897959183673,0.12244897959183673,0.12244897959183673,0.12244897959183673,0.12244897959183673,0.12244897959183673,0.12244897959183673,0.12244897959183673,0.12244897959183673,0.12244897959183673,0.12244897959183673,0.12244897959183673,0.12244897959183673,0.12244897959183673,0.12244897959183673,0.12244897959183673,0.12244897959183673,0.12244897959183673,0.12244897959183673,0.14285714285714285,0.20748299319727892,0.2789115646258503,0.32653061224489793,0.3741496598639456,0.43537414965986393,0.46938775510204084,0.5136054421768708,0.5748299319727891,0.7448979591836735,0.8639455782312925,0.9523809523809523,1.010204081632653,1.0510204081632653,1.0748299319727892,1.0816326530612246,1.0952380952380953,1.1258503401360545,1.1666666666666667,1.1938775510204083,1.2006802721088434,1.2040816326530612,1.2040816326530612,1.2040816326530612,1.2040816326530612,1.2040816326530612,1.2040816326530612,1.2040816326530612,1.2040816326530612,1.2040816326530612,1.2040816326530612,1.2040816326530612,1.2040816326530612,1.2040816326530612,1.1972789115646258,1.1972789115646258,1.1972789115646258,1.1972789115646258,1.1972789115646258,1.1972789115646258,1.1972789115646258,1.1972789115646258,1.1972789115646258,1.1972789115646258,1.1972789115646258,1.1972789115646258,1.1972789115646258,1.1972789115646258,1.1972789115646258,1.1972789115646258,1.1972789115646258,1.1972789115646258,1.1972789115646258,1.1972789115646258,1.1972789115646258,1.1972789115646258,1.1972789115646258,1.1870748299319729,1.1768707482993197,1.1768707482993197,1.1768707482993197,1.1768707482993197,1.1734693877551021,1.1666666666666667,1.1666666666666667,1.1666666666666667,1.1666666666666667,1.153061224489796,1.1360544217687074,1.1258503401360545,1.1156462585034013,1.1054421768707483,1.1054421768707483,1.098639455782313,1.0952380952380953,1.0952380952380953,1.0918367346938775,1.0918367346938775,1.0918367346938775,1.0918367346938775,1.0918367346938775,1.0918367346938775,1.0918367346938775,1.0918367346938775,1.0918367346938775,1.0918367346938775,1.0918367346938775,1.0918367346938775,1.0918367346938775,1.0918367346938775,1.0918367346938775,1.0918367346938775,1.0918367346938775,1.0918367346938775,1.0918367346938775,1.0918367346938775,1.0918367346938775,1.0918367346938775,1.0918367346938775,1.0918367346938775,1.0918367346938775,1.0918367346938775,1.0918367346938775,1.0918367346938775,1.0918367346938775,1.0918367346938775,1.0918367346938775,1.0918367346938775,1.0918367346938775,1.0918367346938775,1.0918367346938775,1.0918367346938775,1.0918367346938775,1.0918367346938775,1.0918367346938775,1.0918367346938775,1.0918367346938775,1.0918367346938775,1.0918367346938775,1.0918367346938775,1.0918367346938775,1.0918367346938775,1.0748299319727892,1.0374149659863945,0.9625850340136054,0.8469387755102041,0.7278911564625851,0.6462585034013606,0.5782312925170068,0.5272108843537415,0.4897959183673469,0.46938775510204084,0.4489795918367347,0.42857142857142855,0.391156462585034,0.3435374149659864,0.3197278911564626,0.3129251700680272,0.3129251700680272,0.46938775510204084,0.5612244897959183,0.6156462585034014,0.7482993197278912,0.8469387755102041,0.8775510204081632,0.9013605442176871,0.9115646258503401,0.9183673469387755,0.9421768707482994,0.95578231292517,0.9659863945578231,0.9863945578231292,1.0068027210884354,1.0204081632653061,1.0272108843537415,1.0272108843537415,1.0272108843537415,1.0272108843537415,1.0272108843537415,1.0272108843537415,1.0272108843537415,1.0272108843537415,1.0272108843537415,1.0272108843537415,1.0272108843537415,1.0272108843537415,1.0272108843537415,1.0034013605442176,0.9421768707482994,0.782312925170068,0.5272108843537415,0.3843537414965986,0.2687074829931973,0.23129251700680273,0.22108843537414966,0.21768707482993196,0.2108843537414966,0.2108843537414966,0.2108843537414966,0.2108843537414966,0.2108843537414966,0.2108843537414966,0.2108843537414966,0.2108843537414966,0.2108843537414966,0.20748299319727892,0.20408163265306123,0.20408163265306123,0.20408163265306123,0.20408163265306123,0.20408163265306123,0.20408163265306123,0.20408163265306123,0.20408163265306123,0.20068027210884354,0.19047619047619047,0.1836734693877551,0.18027210884353742,0.18027210884353742,0.18027210884353742,0.18027210884353742,0.18027210884353742,0.16666666666666666,0.16666666666666666,0.16666666666666666,0.16666666666666666,0.16666666666666666,0.16666666666666666,0.16666666666666666,0.16666666666666666,0.16666666666666666,0.16666666666666666,0.16666666666666666,0.16666666666666666,0.16666666666666666,0.16666666666666666,0.16666666666666666,0.16666666666666666,0.16666666666666666,0.16666666666666666,0.16666666666666666,0.19727891156462585,0.25510204081632654,0.3163265306122449,0.38095238095238093,0.445578231292517,0.5102040816326531,0.5816326530612245,0.5816326530612245,0.5816326530612245,0.5816326530612245,0.5816326530612245,0.5816326530612245,0.5816326530612245,0.5816326530612245,0.5816326530612245,0.5952380952380952,0.6054421768707483,0.6122448979591837,0.6258503401360545,0.6530612244897959,0.7006802721088435,0.7244897959183674,0.7619047619047619,0.782312925170068,0.7925170068027211,0.7993197278911565,0.8129251700680272,0.826530612244898,0.8333333333333334,0.8401360544217688,0.8435374149659864,0.8469387755102041,0.8503401360544217,0.8571428571428571,0.8571428571428571,0.8571428571428571,0.8571428571428571,0.8503401360544217,0.8163265306122449,0.7687074829931972,0.7312925170068028,0.7142857142857143,0.7108843537414966,0.7040816326530612,0.7006802721088435,0.6938775510204082,0.6768707482993197,0.673469387755102,0.673469387755102,0.673469387755102,0.673469387755102,0.673469387755102,0.673469387755102,0.673469387755102,0.673469387755102,0.673469387755102,0.673469387755102,0.673469387755102,0.673469387755102,0.6666666666666666,0.6598639455782312,0.6598639455782312,0.6530612244897959,0.6462585034013606,0.6428571428571429,0.6326530612244898,0.6258503401360545,0.6122448979591837,0.6122448979591837,0.6122448979591837,0.6122448979591837,0.6122448979591837],"y":[-3.0476190476190474,0.5666666666666667,0.5571428571428572,0.5857142857142857,0.6619047619047619,0.7,0.7476190476190476,0.8238095238095238,1.0047619047619047,1.119047619047619,1.2428571428571429,1.3095238095238095,1.4428571428571428,1.6047619047619048,1.776190476190476,1.776190476190476,1.776190476190476,1.776190476190476,1.776190476190476,1.776190476190476,1.776190476190476,1.8047619047619048,1.8238095238095238,1.8238095238095238,1.8238095238095238,1.8428571428571427,1.861904761904762,1.861904761904762,1.8714285714285714,1.880952380952381,1.9,1.9095238095238096,1.9095238095238096,1.9095238095238096,1.9095238095238096,1.9095238095238096,1.8904761904761904,1.7857142857142858,1.7095238095238094,1.6714285714285715,1.6714285714285715,1.6714285714285715,1.6714285714285715,1.6714285714285715,1.6714285714285715,1.6714285714285715,1.6714285714285715,1.6714285714285715,1.6714285714285715,1.6714285714285715,1.6714285714285715,1.6714285714285715,1.6714285714285715,1.6714285714285715,1.6714285714285715,1.6714285714285715,1.6714285714285715,1.6714285714285715,1.6714285714285715,1.6714285714285715,1.6714285714285715,1.6714285714285715,1.661904761904762,1.6142857142857143,1.5571428571428572,1.4619047619047618,1.3476190476190477,1.2142857142857142,1.0809523809523809,0.9476190476190476,0.8809523809523809,0.8714285714285714,0.8523809523809524,0.8523809523809524,0.8523809523809524,0.8523809523809524,0.8523809523809524,0.8523809523809524,0.8523809523809524,0.8523809523809524,0.8523809523809524,0.8523809523809524,0.8523809523809524,0.8523809523809524,0.8523809523809524,0.8523809523809524,0.8523809523809524,0.8523809523809524,0.8523809523809524,0.8523809523809524,0.8523809523809524,0.8523809523809524,0.8523809523809524,0.8523809523809524,0.8523809523809524,0.8523809523809524,0.8523809523809524,0.8523809523809524,0.8523809523809524,0.8523809523809524,0.8523809523809524,0.8523809523809524,0.8523809523809524,0.8523809523809524,0.8523809523809524,0.8523809523809524,0.8523809523809524,0.8523809523809524,0.8523809523809524,0.8714285714285714,0.8904761904761904,0.8904761904761904,0.8904761904761904,0.8904761904761904,0.8904761904761904,0.8904761904761904,0.8523809523809524,0.8238095238095238,0.8142857142857143,0.8047619047619048,0.7952380952380952,0.7952380952380952,0.7952380952380952,0.7952380952380952,0.7952380952380952,0.7952380952380952,0.7952380952380952,0.7952380952380952,0.7952380952380952,0.7952380952380952,0.7952380952380952,0.7952380952380952,0.7952380952380952,0.7952380952380952,0.7952380952380952,0.7952380952380952,0.7952380952380952,0.7952380952380952,0.7952380952380952,0.7952380952380952,0.7952380952380952,0.7952380952380952,0.7952380952380952,0.7952380952380952,0.7952380952380952,0.7952380952380952,0.8238095238095238,0.8333333333333334,0.861904761904762,0.861904761904762,0.861904761904762,0.861904761904762,0.861904761904762,0.861904761904762,0.861904761904762,0.861904761904762,0.861904761904762,0.861904761904762,0.861904761904762,0.861904761904762,0.861904761904762,0.861904761904762,0.861904761904762,0.861904761904762,0.861904761904762,0.8333333333333334,0.8142857142857143,0.7761904761904762,0.719047619047619,0.680952380952381,0.6523809523809524,0.6333333333333333,0.6142857142857143,0.6047619047619047,0.5857142857142857,0.5666666666666667,0.5380952380952381,0.49047619047619045,0.43333333333333335,0.40476190476190477,0.36666666666666664,0.3380952380952381,0.30952380952380953,0.23333333333333334,0.16666666666666666,0.10952380952380952,0.07142857142857142,0.004761904761904762,-0.05238095238095238,-0.09047619047619047,-0.1,-0.1,-0.1,-0.1,-0.1,-0.1,-0.1,-0.1,-0.1,-0.1,-0.1,-0.1,-0.1,-0.1,-0.1,-0.1,-0.1,-0.1,-0.07142857142857142,-0.03333333333333333,0.014285714285714285,0.07142857142857142,0.10952380952380952,0.14761904761904762,0.22380952380952382,0.2904761904761905,0.35714285714285715,0.4238095238095238,0.5,0.6333333333333333,0.7380952380952381,0.8523809523809524,0.9476190476190476,1.0238095238095237,1.0904761904761904,1.1285714285714286,1.1761904761904762,1.2619047619047619,1.3476190476190477,1.4142857142857144,1.4428571428571428,1.4714285714285715,1.4714285714285715,1.4904761904761905,1.5095238095238095,1.5095238095238095,1.5095238095238095,1.5095238095238095,1.5095238095238095,1.5095238095238095,1.5095238095238095,1.5095238095238095,1.5095238095238095,1.5095238095238095,1.5095238095238095,1.5095238095238095,1.5095238095238095,1.5095238095238095,1.5095238095238095,1.5095238095238095,1.4904761904761905,1.2904761904761906,1.1,0.9571428571428572,0.8238095238095238,0.7095238095238096,0.6238095238095238,0.5761904761904761,0.5095238095238095,0.43333333333333335,0.3761904761904762,0.35714285714285715,0.3380952380952381,0.30952380952380953,0.28095238095238095,0.2619047619047619,0.22380952380952382,0.20476190476190476,0.16666666666666666,0.14761904761904762,0.14761904761904762,0.14761904761904762,0.14761904761904762,0.14761904761904762,0.14761904761904762,0.14761904761904762,0.14761904761904762,0.11904761904761904,0.11904761904761904,0.10952380952380952,0.1,0.1,0.08095238095238096,0.08095238095238096,0.08095238095238096,0.07142857142857142,0.07142857142857142,0.07142857142857142,0.07142857142857142,0.07142857142857142,0.07142857142857142,0.07142857142857142,0.07142857142857142,0.07142857142857142,0.06190476190476191,0.04285714285714286,0.04285714285714286,0.04285714285714286,0.04285714285714286,0.04285714285714286,0.04285714285714286,0.04285714285714286,0.04285714285714286,0.04285714285714286,0.04285714285714286,0.04285714285714286,0.04285714285714286,0.04285714285714286,0.04285714285714286,0.04285714285714286,0.04285714285714286,0.04285714285714286,0.04285714285714286,0.04285714285714286,0.04285714285714286,0.04285714285714286,0.08095238095238096,0.1761904761904762,0.2714285714285714,0.3476190476190476,0.4523809523809524,0.5285714285714286,0.6142857142857143,0.6714285714285714,0.7,0.719047619047619,0.7380952380952381,0.7380952380952381,0.7380952380952381,0.7380952380952381,0.7380952380952381,0.7380952380952381,0.7380952380952381,0.7380952380952381,0.7380952380952381,0.7380952380952381,0.7380952380952381,0.7380952380952381,0.7380952380952381,0.7380952380952381,0.7380952380952381,0.7380952380952381,0.7380952380952381,0.7380952380952381,0.7380952380952381,0.7380952380952381,0.7380952380952381,0.7380952380952381,0.7380952380952381,0.7380952380952381,0.7380952380952381,0.7380952380952381,0.7380952380952381,0.7380952380952381,0.7380952380952381,0.7380952380952381,0.7380952380952381,0.7380952380952381,0.7380952380952381,0.7380952380952381,0.7380952380952381,0.7380952380952381,0.7380952380952381,0.7380952380952381,0.7380952380952381,0.7380952380952381,0.7380952380952381,0.7380952380952381,0.7380952380952381,0.7380952380952381,0.7380952380952381,0.7380952380952381,0.7380952380952381,0.7380952380952381,0.7380952380952381,0.7380952380952381,0.7380952380952381,0.7380952380952381,0.7380952380952381,0.7380952380952381,0.7380952380952381,0.7380952380952381,0.7380952380952381,0.7380952380952381,0.7380952380952381,0.7380952380952381,0.7380952380952381,0.7380952380952381,0.7380952380952381,0.7380952380952381,0.7380952380952381,0.7380952380952381,0.7380952380952381,0.7380952380952381,0.7380952380952381,0.7380952380952381,0.7380952380952381,0.7380952380952381,0.7380952380952381,0.7380952380952381,0.7380952380952381,0.7380952380952381,0.7380952380952381,0.7380952380952381,0.7380952380952381,0.7380952380952381,0.7380952380952381,0.7380952380952381,0.7380952380952381,0.7380952380952381,0.7380952380952381,0.7380952380952381,0.7380952380952381,0.7380952380952381,0.7380952380952381,0.7380952380952381,0.7380952380952381,0.7380952380952381,0.7380952380952381,0.7380952380952381,0.7380952380952381,0.7380952380952381,0.7380952380952381,0.7380952380952381,0.7380952380952381,0.7380952380952381,0.7380952380952381,0.7380952380952381,0.7380952380952381,0.7380952380952381,0.7380952380952381,0.7380952380952381,0.7380952380952381,0.7380952380952381,0.7380952380952381,0.7380952380952381,0.7380952380952381,0.7380952380952381,0.7380952380952381,0.7380952380952381,0.7380952380952381,0.7380952380952381,0.7380952380952381,0.7380952380952381,0.7380952380952381,0.7380952380952381,0.7380952380952381,0.7380952380952381,0.7380952380952381,0.7380952380952381,0.7380952380952381,0.7380952380952381,0.7380952380952381,0.7380952380952381,0.7380952380952381,0.7380952380952381,0.7380952380952381,0.7380952380952381,0.7380952380952381,0.7380952380952381,0.7380952380952381,0.7380952380952381,0.7380952380952381,0.7380952380952381,0.7380952380952381,0.7380952380952381,0.7380952380952381,0.7380952380952381,0.7380952380952381,0.7380952380952381,0.7380952380952381,0.7380952380952381,0.7380952380952381,0.7380952380952381,0.7380952380952381,0.7380952380952381,0.7380952380952381,0.7380952380952381,0.7380952380952381,0.7380952380952381,0.7380952380952381,0.7380952380952381,0.7380952380952381,0.7380952380952381,0.7380952380952381,0.7380952380952381,0.7380952380952381,0.7380952380952381,0.7380952380952381,0.7380952380952381,0.7380952380952381,0.7380952380952381,0.7380952380952381,0.7380952380952381,0.7380952380952381,0.7380952380952381,0.7380952380952381,0.7380952380952381,0.7380952380952381,0.7380952380952381,0.7380952380952381,0.7380952380952381,0.7380952380952381,0.7380952380952381,0.7380952380952381,0.7380952380952381,0.7380952380952381,0.7380952380952381,0.7380952380952381,0.7380952380952381,0.7380952380952381,0.7380952380952381,0.7380952380952381,0.7380952380952381,0.7380952380952381,0.7380952380952381,0.7380952380952381,0.7380952380952381,0.7380952380952381,0.7380952380952381,0.7380952380952381,0.7380952380952381,0.7380952380952381,0.7380952380952381,0.7380952380952381,0.7380952380952381,0.7380952380952381,0.7380952380952381,0.7380952380952381,0.7380952380952381,0.7380952380952381,0.7380952380952381,0.7380952380952381,0.7380952380952381,0.7380952380952381,0.7380952380952381,0.7380952380952381,0.7380952380952381,0.7380952380952381,0.7380952380952381,0.7380952380952381,0.7380952380952381,0.7380952380952381,0.7380952380952381,0.7380952380952381,0.7380952380952381,0.7380952380952381,0.7380952380952381,0.7380952380952381,0.7380952380952381,0.7380952380952381,0.7380952380952381,0.7380952380952381,0.7380952380952381,0.7380952380952381,0.7380952380952381,0.7380952380952381,0.7380952380952381,0.7380952380952381,0.7380952380952381,0.7380952380952381,0.7380952380952381,0.7380952380952381,0.7380952380952381,0.7380952380952381,0.7380952380952381,0.7380952380952381,0.7380952380952381,0.7380952380952381,0.7380952380952381,0.7380952380952381,0.7380952380952381,0.7380952380952381,0.7380952380952381,0.7380952380952381,0.7380952380952381,0.7380952380952381,0.7380952380952381,0.7380952380952381,0.7380952380952381,0.7380952380952381,0.7380952380952381,0.7380952380952381,0.7380952380952381,0.7380952380952381,0.7380952380952381,0.7380952380952381,0.7380952380952381,0.7380952380952381,0.7380952380952381,0.7380952380952381,0.7380952380952381,0.7380952380952381,0.7380952380952381,0.7380952380952381,0.7380952380952381,0.7380952380952381,0.7380952380952381,0.7380952380952381,0.7380952380952381,0.7380952380952381,0.7380952380952381,0.7380952380952381,0.7380952380952381,0.7380952380952381,0.7380952380952381,0.7380952380952381,0.7380952380952381,0.7380952380952381,0.7380952380952381,0.7380952380952381,0.7380952380952381,0.7380952380952381,0.7380952380952381,0.7380952380952381,0.7380952380952381,0.7380952380952381,0.7380952380952381,0.7380952380952381,0.7380952380952381,0.7380952380952381,0.7380952380952381,0.7380952380952381,0.7380952380952381,0.7380952380952381,0.7380952380952381,0.7380952380952381,0.7380952380952381,0.7380952380952381,0.7380952380952381,0.7380952380952381,0.7380952380952381,0.7380952380952381,0.7380952380952381,0.7380952380952381,0.7380952380952381,0.7380952380952381,0.7380952380952381,0.7380952380952381,0.7380952380952381,0.7380952380952381,0.7380952380952381,0.7380952380952381,0.7380952380952381,0.7380952380952381,0.7380952380952381,0.7380952380952381,0.7380952380952381,0.7380952380952381,0.7380952380952381,0.7380952380952381,0.7380952380952381,0.7380952380952381,0.7380952380952381,0.7380952380952381,0.7380952380952381,0.7380952380952381,0.7380952380952381,0.7380952380952381,0.7380952380952381,0.7380952380952381,0.7380952380952381,0.7380952380952381,0.7380952380952381,0.7380952380952381,0.7380952380952381,0.7380952380952381,0.7380952380952381,0.7380952380952381,0.7380952380952381,0.7380952380952381,0.7380952380952381,0.7380952380952381,0.7380952380952381,0.7380952380952381,0.7380952380952381,0.7380952380952381,0.7380952380952381,0.7380952380952381,0.7380952380952381,0.7380952380952381,0.7380952380952381,0.7380952380952381,0.7380952380952381,0.7380952380952381,0.7380952380952381,0.7380952380952381,0.7380952380952381,0.7380952380952381,0.7380952380952381,0.7380952380952381,0.7380952380952381,0.7380952380952381,0.7380952380952381,0.7380952380952381,0.7380952380952381,0.7380952380952381,0.7380952380952381,0.7380952380952381,0.7380952380952381,0.7380952380952381,0.7380952380952381,0.7380952380952381,0.7380952380952381,0.7380952380952381,0.7380952380952381,0.7380952380952381,0.7380952380952381,0.7380952380952381,0.7380952380952381,0.7380952380952381,0.7380952380952381,0.7380952380952381,0.7380952380952381,0.7380952380952381,0.7380952380952381,0.7380952380952381,0.7380952380952381,0.7380952380952381,0.7380952380952381,0.7380952380952381,0.7380952380952381,0.7380952380952381,0.7380952380952381,0.7380952380952381,0.7380952380952381,0.7380952380952381,0.7380952380952381,0.7380952380952381,0.7380952380952381,0.7380952380952381,0.7380952380952381,0.7380952380952381,0.7380952380952381,0.7380952380952381,0.7380952380952381,0.7380952380952381,0.7380952380952381,0.7380952380952381,0.7380952380952381,0.7380952380952381,0.7380952380952381,0.7380952380952381,0.7380952380952381,0.7380952380952381,0.7380952380952381,0.7380952380952381,0.7380952380952381,0.7380952380952381,0.7380952380952381,0.7380952380952381,0.7380952380952381,0.7380952380952381,0.7380952380952381,0.7380952380952381,0.7380952380952381,0.7380952380952381,0.7380952380952381,0.7380952380952381,0.7380952380952381,0.7380952380952381,0.7380952380952381,0.7380952380952381,0.7380952380952381,0.7380952380952381,0.7380952380952381,0.7380952380952381,0.7380952380952381,0.7380952380952381,0.7380952380952381,0.7380952380952381,0.7380952380952381,0.7380952380952381,0.7380952380952381,0.7380952380952381,0.7380952380952381,0.7380952380952381,0.7380952380952381,0.7380952380952381,0.7380952380952381,0.7380952380952381,0.7380952380952381,0.7380952380952381,0.7380952380952381,0.7380952380952381,0.7380952380952381,0.7380952380952381,0.7380952380952381,0.7380952380952381,0.7380952380952381,0.7380952380952381,0.7380952380952381,0.7380952380952381,0.7380952380952381,0.7380952380952381,0.7380952380952381,0.7380952380952381,0.7380952380952381,0.7380952380952381,0.7380952380952381,0.7380952380952381,0.7380952380952381,0.7380952380952381,0.7380952380952381,0.7380952380952381,0.7380952380952381,0.7380952380952381,0.7380952380952381,0.7380952380952381,0.7380952380952381,0.7380952380952381,0.7380952380952381,0.7380952380952381,0.7380952380952381,0.7380952380952381,0.7380952380952381,0.7380952380952381,0.7380952380952381,0.7380952380952381,0.7380952380952381,0.7380952380952381,0.7380952380952381,0.7380952380952381,0.7380952380952381,0.7380952380952381,0.7380952380952381,0.7380952380952381,0.7380952380952381,0.7380952380952381,0.7380952380952381,0.7380952380952381,0.7380952380952381,0.7380952380952381,0.7380952380952381,0.7380952380952381,0.7380952380952381,0.7380952380952381,0.7380952380952381,0.7380952380952381,0.7380952380952381,0.7380952380952381,0.7380952380952381,0.7380952380952381,0.7380952380952381,0.7380952380952381,0.7380952380952381,0.7380952380952381,0.7380952380952381,0.7380952380952381,0.7380952380952381,0.7380952380952381,0.7380952380952381,0.7380952380952381,0.7380952380952381,0.7380952380952381,0.7380952380952381,0.7380952380952381,0.7380952380952381,0.7380952380952381,0.7380952380952381,0.7380952380952381,0.7380952380952381,0.7380952380952381,0.7380952380952381,0.7380952380952381,0.7380952380952381,0.7380952380952381,0.7380952380952381,0.7380952380952381,0.7380952380952381,0.7380952380952381,0.7380952380952381,0.7380952380952381,0.7380952380952381,0.7380952380952381,0.7380952380952381,0.7380952380952381,0.7380952380952381,0.7380952380952381,0.7380952380952381,0.7380952380952381,0.7380952380952381,0.7380952380952381,0.7380952380952381,0.7380952380952381,0.7380952380952381,0.7380952380952381,0.7380952380952381,0.7380952380952381,0.7380952380952381,0.7380952380952381,0.7380952380952381,0.7380952380952381,0.7380952380952381,0.7380952380952381,0.7380952380952381,0.7380952380952381,0.7380952380952381,0.7380952380952381,0.7380952380952381,0.7380952380952381,0.7380952380952381,0.7380952380952381,0.7380952380952381,0.7380952380952381,0.7380952380952381,0.7380952380952381,0.7380952380952381,0.7380952380952381,0.7380952380952381,0.7380952380952381,0.7380952380952381,0.7380952380952381,0.7380952380952381,0.7380952380952381,0.7380952380952381,0.7380952380952381,0.7380952380952381,0.7380952380952381,0.7380952380952381,0.7380952380952381,0.7380952380952381,0.7380952380952381,0.7380952380952381,0.7380952380952381,0.7380952380952381,0.7380952380952381,0.7380952380952381,0.7380952380952381,0.7380952380952381,0.7380952380952381,0.7380952380952381,0.7380952380952381,0.7380952380952381,0.7380952380952381,0.7380952380952381,0.7380952380952381,0.7380952380952381,0.7380952380952381,0.7380952380952381,0.7380952380952381,0.7380952380952381,0.7380952380952381,0.7380952380952381,0.7380952380952381,0.7380952380952381,0.7380952380952381,0.7380952380952381,0.7380952380952381,0.7380952380952381,0.7380952380952381,0.7380952380952381,0.7380952380952381,0.7380952380952381,0.7380952380952381,0.7380952380952381,0.7380952380952381,0.7380952380952381,0.7380952380952381,0.7380952380952381,0.7380952380952381,0.7380952380952381,0.7380952380952381,0.7380952380952381,0.7380952380952381,0.7380952380952381,0.7380952380952381,0.7380952380952381,0.7380952380952381,0.7380952380952381,0.7380952380952381,0.7380952380952381,0.7380952380952381,0.7380952380952381,0.7380952380952381,0.7380952380952381,0.7380952380952381,0.7380952380952381,0.7380952380952381,0.7380952380952381,0.7380952380952381,0.7380952380952381,0.7380952380952381,0.7380952380952381,0.7380952380952381,0.7380952380952381,0.7380952380952381,0.7380952380952381,0.7380952380952381,0.7380952380952381,0.7380952380952381,0.7380952380952381,0.7380952380952381,0.7380952380952381,0.7380952380952381,0.7380952380952381,0.7380952380952381,0.7380952380952381,0.7380952380952381,0.7380952380952381,0.7380952380952381,0.7380952380952381,0.7380952380952381,0.7380952380952381,0.7380952380952381,0.7380952380952381,0.7380952380952381,0.7380952380952381,0.7380952380952381,0.7380952380952381,0.7380952380952381,0.7380952380952381,0.7380952380952381,0.7380952380952381,0.7380952380952381,0.7380952380952381,0.7380952380952381,0.7380952380952381,0.7380952380952381,0.7380952380952381,0.7380952380952381,0.7380952380952381,0.7380952380952381,0.7380952380952381,0.7380952380952381,0.7380952380952381,0.7380952380952381,0.7380952380952381,0.7380952380952381,0.7380952380952381,0.7380952380952381,0.7380952380952381,0.7380952380952381,0.7380952380952381,0.7380952380952381,0.7380952380952381,0.7380952380952381,0.7380952380952381,0.7380952380952381,0.7380952380952381,0.7380952380952381,0.7380952380952381,0.7380952380952381,0.7380952380952381,0.7380952380952381,0.7380952380952381,0.7380952380952381,0.7380952380952381,0.7380952380952381,0.7380952380952381,0.7380952380952381,0.7380952380952381,0.7380952380952381,0.7380952380952381,0.7380952380952381,0.7380952380952381,0.7380952380952381,0.7380952380952381,0.7380952380952381,0.7380952380952381,0.7380952380952381,0.7380952380952381,0.7380952380952381,0.7380952380952381,0.7380952380952381,0.7380952380952381,0.7380952380952381,0.7380952380952381,0.7380952380952381,0.7380952380952381,0.7380952380952381,0.7380952380952381,0.7380952380952381,0.7380952380952381,0.7380952380952381,0.7380952380952381,0.7380952380952381,0.7380952380952381,0.7380952380952381,0.7380952380952381,0.7380952380952381,0.7380952380952381,0.7380952380952381,0.7380952380952381,0.7380952380952381,0.7380952380952381,0.7380952380952381,0.7380952380952381,0.7380952380952381,0.7380952380952381,0.7380952380952381,0.7380952380952381,0.7380952380952381,0.7380952380952381,0.7380952380952381,0.7380952380952381,0.7380952380952381,0.7380952380952381,0.7380952380952381,0.7380952380952381,0.7380952380952381,0.7380952380952381,0.7380952380952381,0.7380952380952381,0.7380952380952381,0.7380952380952381,0.7380952380952381,0.7380952380952381,0.7380952380952381,0.7380952380952381,0.7380952380952381,0.7380952380952381,0.7380952380952381,0.7380952380952381,0.7380952380952381,0.7380952380952381,0.7380952380952381,0.7380952380952381,0.7380952380952381,0.7380952380952381,0.7380952380952381,0.7380952380952381,0.7380952380952381,0.7380952380952381,0.7380952380952381,0.7380952380952381,0.7380952380952381,0.7380952380952381,0.7380952380952381,0.7380952380952381,0.7380952380952381,0.7380952380952381,0.7380952380952381,0.7380952380952381,0.7380952380952381,0.7380952380952381,0.7380952380952381,0.7380952380952381,0.7380952380952381,0.7380952380952381,0.7380952380952381,0.7380952380952381,0.7380952380952381,0.7380952380952381,0.7380952380952381,0.7380952380952381,0.7380952380952381,0.7380952380952381,0.7380952380952381,0.7380952380952381,0.7380952380952381,0.7380952380952381,0.7380952380952381,0.7380952380952381,0.7380952380952381,0.7380952380952381,0.7380952380952381,0.7380952380952381,0.7380952380952381,0.7380952380952381,0.7380952380952381,0.7380952380952381,0.7380952380952381,0.7380952380952381,0.7380952380952381,0.7380952380952381,0.7380952380952381,0.7380952380952381,0.7380952380952381,0.7380952380952381,0.7380952380952381,0.7380952380952381,0.7380952380952381,0.7380952380952381,0.7380952380952381,0.7380952380952381,0.7380952380952381,0.7380952380952381,0.7380952380952381,0.7380952380952381,0.7380952380952381,0.7380952380952381,0.7380952380952381,0.7380952380952381,0.7380952380952381,0.7380952380952381,0.7380952380952381,0.7380952380952381,0.7380952380952381,0.7380952380952381,0.7380952380952381,0.7380952380952381,0.7380952380952381,0.7380952380952381,0.7380952380952381,0.7380952380952381,0.7380952380952381,0.7380952380952381,0.7380952380952381,0.7380952380952381,0.7380952380952381,0.7380952380952381,0.7380952380952381,0.7380952380952381,0.7380952380952381,0.7380952380952381,0.7380952380952381,0.7380952380952381,0.7380952380952381,0.7380952380952381,0.7380952380952381,0.7380952380952381,0.7380952380952381,0.7380952380952381,0.7380952380952381,0.7380952380952381,0.7380952380952381,0.7380952380952381,0.7380952380952381,0.7380952380952381,0.7380952380952381,0.7380952380952381,0.7380952380952381,0.7380952380952381,0.7380952380952381,0.7380952380952381,0.7380952380952381,0.7380952380952381,0.7380952380952381,0.7380952380952381,0.7380952380952381,0.7380952380952381,0.7380952380952381,0.7380952380952381,0.7380952380952381,0.7380952380952381,0.7380952380952381,0.7380952380952381,0.7380952380952381,0.7380952380952381,0.7380952380952381,0.7380952380952381,0.7380952380952381,0.7380952380952381,0.7380952380952381,0.7380952380952381,0.7380952380952381,0.7380952380952381,0.7380952380952381,0.7380952380952381,0.7380952380952381,0.7380952380952381,0.7380952380952381,0.7380952380952381,0.7380952380952381,0.7380952380952381,0.7380952380952381,0.7380952380952381,0.7380952380952381,0.7380952380952381,0.7380952380952381,0.7380952380952381,0.7380952380952381,0.7380952380952381,0.7380952380952381,0.7380952380952381,0.7380952380952381,0.7380952380952381,0.7380952380952381,0.7380952380952381,0.7380952380952381,0.7380952380952381,0.7380952380952381,0.7380952380952381,0.7380952380952381,0.7380952380952381,0.7380952380952381,0.7380952380952381,0.7380952380952381,0.7380952380952381,0.7380952380952381,0.7380952380952381,0.7380952380952381,0.7380952380952381,0.7380952380952381,0.7380952380952381,0.7380952380952381,0.7380952380952381,0.7380952380952381,0.7380952380952381,0.7380952380952381,0.7380952380952381,0.7380952380952381,0.7380952380952381,0.7380952380952381,0.7380952380952381,0.7380952380952381,0.7380952380952381,0.7380952380952381,0.7285714285714285,0.7,0.6714285714285714,0.6619047619047619,0.6523809523809524,0.6428571428571429,0.6333333333333333,0.6142857142857143,0.6142857142857143,0.6047619047619047,0.5666666666666667,0.5571428571428572,0.5476190476190477,0.5476190476190477,0.5285714285714286,0.5285714285714286,0.5285714285714286,0.5285714285714286,0.5095238095238095,0.5095238095238095,0.5095238095238095,0.5095238095238095,0.5095238095238095,0.5095238095238095,0.5095238095238095,0.5095238095238095,0.5095238095238095,0.5095238095238095,0.5095238095238095,0.5095238095238095,0.5095238095238095,0.5095238095238095,0.4714285714285714,0.44285714285714284,0.4238095238095238,0.4142857142857143,0.40476190476190477,0.36666666666666664,0.32857142857142857,0.30952380952380953,0.28095238095238095,0.23333333333333334,0.20476190476190476,0.20476190476190476,0.20476190476190476,0.16666666666666666,0.11904761904761904,0.1,0.09047619047619047,0.09047619047619047,0.09047619047619047,0.07142857142857142,0.023809523809523808,-0.004761904761904762,-0.004761904761904762,-0.004761904761904762,-0.004761904761904762,-0.004761904761904762,-0.004761904761904762,-0.004761904761904762,-0.004761904761904762,-0.004761904761904762,-0.004761904761904762,-0.004761904761904762,-0.004761904761904762,-0.004761904761904762,-0.004761904761904762,-0.014285714285714285,-0.014285714285714285,0.07142857142857142,0.18571428571428572,0.2619047619047619,0.3476190476190476,0.44285714285714284,0.5380952380952381,0.6238095238095238,0.680952380952381,0.719047619047619,0.7666666666666667,0.8333333333333334,0.9095238095238095,0.9571428571428572,1.0047619047619047,1.042857142857143,1.0904761904761904,1.1285714285714286,1.1476190476190475,1.1666666666666667,1.1952380952380952,1.2333333333333334,1.2809523809523808,1.319047619047619,1.3857142857142857,1.4619047619047618,1.480952380952381,1.480952380952381,1.480952380952381,1.480952380952381,1.480952380952381,1.480952380952381,1.480952380952381,1.480952380952381,1.480952380952381,1.480952380952381,1.480952380952381,1.480952380952381,1.480952380952381,1.480952380952381,1.480952380952381,1.480952380952381,1.480952380952381,1.480952380952381,1.480952380952381,1.480952380952381,1.480952380952381,1.480952380952381,1.480952380952381,1.480952380952381,1.480952380952381,1.480952380952381,1.480952380952381,1.480952380952381,1.480952380952381,1.480952380952381,1.480952380952381,1.480952380952381,1.480952380952381,1.480952380952381,1.480952380952381,1.480952380952381,1.480952380952381,1.480952380952381,1.480952380952381,1.480952380952381,1.480952380952381,1.480952380952381,1.480952380952381,1.480952380952381,1.480952380952381,1.480952380952381,1.480952380952381,1.480952380952381,1.480952380952381,1.480952380952381,1.480952380952381,1.480952380952381,1.480952380952381,1.480952380952381,1.480952380952381,1.480952380952381,1.480952380952381,1.480952380952381,1.480952380952381,1.480952380952381,1.480952380952381,1.480952380952381,1.480952380952381,1.480952380952381,1.480952380952381,1.480952380952381,1.480952380952381,1.480952380952381,1.480952380952381,1.480952380952381,1.480952380952381,1.480952380952381,1.480952380952381,1.480952380952381,1.480952380952381,1.480952380952381,1.480952380952381,1.4714285714285715,1.4714285714285715,1.4714285714285715,1.4714285714285715,1.4619047619047618,1.4619047619047618,1.4619047619047618,1.4333333333333333,1.4333333333333333,1.4142857142857144,1.4142857142857144,1.4047619047619047,1.4047619047619047,1.3761904761904762,1.3761904761904762,1.3761904761904762,1.3476190476190477,1.338095238095238,1.319047619047619,1.319047619047619,1.2904761904761906,1.2809523809523808,1.2428571428571429,1.2047619047619047,1.1571428571428573,1.1,1.0523809523809524,1.0047619047619047,0.9476190476190476,0.919047619047619,0.8809523809523809,0.8523809523809524,0.8142857142857143,0.7666666666666667,0.7095238095238096,0.6619047619047619,0.6333333333333333,0.6047619047619047,0.5952380952380952,0.5761904761904761,0.5761904761904761,0.5857142857142857,0.6142857142857143,0.6238095238095238,0.6333333333333333,0.6904761904761905,0.7571428571428571,0.8047619047619048,0.8428571428571429,0.8523809523809524,0.8714285714285714,0.8904761904761904,0.9,0.919047619047619,0.9285714285714286,0.9476190476190476,0.9571428571428572,0.9571428571428572,0.9571428571428572,0.9666666666666667,0.9666666666666667,0.9666666666666667,0.9666666666666667,0.9666666666666667,0.9666666666666667,0.9666666666666667,0.9666666666666667,0.9666666666666667,0.9666666666666667,0.9666666666666667,0.9666666666666667,0.9666666666666667,0.9666666666666667,0.9666666666666667,0.9666666666666667,0.9666666666666667,0.9666666666666667,0.9666666666666667,0.9666666666666667,0.9666666666666667,0.9666666666666667,0.9666666666666667,0.9666666666666667,0.9761904761904762,0.9761904761904762,0.9761904761904762,0.9761904761904762,0.9761904761904762,0.9761904761904762,0.9761904761904762,0.9761904761904762,0.9761904761904762,0.9571428571428572,0.9571428571428572,0.9285714285714286,0.9095238095238095,0.9095238095238095,0.9095238095238095,0.9095238095238095,0.9095238095238095,0.9095238095238095,0.9095238095238095,0.9095238095238095,0.9095238095238095,0.9095238095238095,0.9095238095238095,0.9095238095238095,0.9095238095238095,0.9095238095238095,0.9095238095238095,0.9095238095238095,0.9095238095238095,0.9095238095238095,0.9095238095238095,0.9095238095238095,0.9095238095238095,0.9095238095238095,0.9095238095238095,0.9095238095238095,0.861904761904762,0.7857142857142857,0.680952380952381,0.6142857142857143,0.5,0.46190476190476193,0.44285714285714284,0.43333333333333335,0.43333333333333335,0.43333333333333335,0.43333333333333335,0.43333333333333335,0.43333333333333335,0.43333333333333335,0.43333333333333335,0.43333333333333335,0.43333333333333335,0.43333333333333335,0.43333333333333335,0.43333333333333335,0.44285714285714284,0.44285714285714284,0.44285714285714284,0.44285714285714284,0.44285714285714284,0.44285714285714284,0.44285714285714284,0.44285714285714284,0.44285714285714284,0.44285714285714284,0.44285714285714284,0.44285714285714284,0.44285714285714284,0.44285714285714284,0.44285714285714284,0.44285714285714284,0.44285714285714284,0.44285714285714284,0.44285714285714284,0.44285714285714284,0.44285714285714284,0.44285714285714284,0.44285714285714284,0.44285714285714284,0.44285714285714284,0.44285714285714284,0.44285714285714284,0.44285714285714284,0.44285714285714284,0.44285714285714284,0.44285714285714284,0.44285714285714284,0.44285714285714284,0.44285714285714284,0.44285714285714284,0.44285714285714284,0.44285714285714284,0.44285714285714284,0.44285714285714284,0.44285714285714284,0.44285714285714284,0.44285714285714284,0.44285714285714284,0.44285714285714284,0.44285714285714284,0.4523809523809524,0.49047619047619045,0.5571428571428572,0.6238095238095238,0.7095238095238096,0.7666666666666667,0.7761904761904762,0.8047619047619048,0.8238095238095238,0.8523809523809524,0.861904761904762,0.861904761904762,0.861904761904762,0.861904761904762,0.861904761904762,0.861904761904762,0.861904761904762,0.861904761904762,0.861904761904762,0.861904761904762,0.861904761904762,0.861904761904762,0.861904761904762,0.861904761904762,0.861904761904762,0.861904761904762,0.861904761904762,0.861904761904762,0.861904761904762,0.861904761904762,0.861904761904762,0.861904761904762,0.861904761904762,0.861904761904762,0.861904761904762,0.861904761904762,0.861904761904762,0.861904761904762,0.861904761904762,0.861904761904762,0.861904761904762,0.861904761904762,0.861904761904762,0.861904761904762,0.861904761904762,0.861904761904762,0.861904761904762,0.861904761904762,0.861904761904762,0.861904761904762,0.861904761904762,0.861904761904762,0.861904761904762,0.861904761904762,0.861904761904762,0.861904761904762,0.861904761904762,0.861904761904762,0.861904761904762,0.861904761904762,0.861904761904762,0.861904761904762,0.9,0.9476190476190476,0.9761904761904762,0.9857142857142858,1.0047619047619047,1.0047619047619047,1.0047619047619047,1.0047619047619047,1.0047619047619047,1.0047619047619047,1.0047619047619047,1.0238095238095237,1.061904761904762,1.0809523809523809,1.0809523809523809,1.0809523809523809,1.0714285714285714,1.061904761904762,1.061904761904762,1.061904761904762,1.061904761904762,1.061904761904762,1.061904761904762,1.061904761904762,1.061904761904762,1.042857142857143,1.042857142857143,1.042857142857143,1.042857142857143,1.042857142857143,1.042857142857143,1.042857142857143,1.042857142857143,1.042857142857143,1.042857142857143,1.042857142857143,1.042857142857143,1.042857142857143,1.0238095238095237,1.0142857142857142,0.9571428571428572,0.7761904761904762,0.5476190476190477,0.3761904761904762,0.18571428571428572,0.12857142857142856,0.10952380952380952,0.1,0.09047619047619047,0.09047619047619047,0.09047619047619047,0.09047619047619047,0.07142857142857142,0.07142857142857142,0.07142857142857142,0.07142857142857142,0.07142857142857142,0.03333333333333333,0.03333333333333333,0.03333333333333333,0.03333333333333333,0.03333333333333333,0.03333333333333333,0.03333333333333333,0.03333333333333333,0.03333333333333333,0.023809523809523808,-0.004761904761904762,-0.004761904761904762,-0.004761904761904762,-0.004761904761904762,-0.004761904761904762,-0.004761904761904762,-0.014285714285714285,-0.014285714285714285,-0.014285714285714285,-0.014285714285714285,-0.014285714285714285,-0.014285714285714285,-0.014285714285714285,-0.014285714285714285,-0.014285714285714285,-0.014285714285714285,-0.014285714285714285,-0.014285714285714285,-0.014285714285714285,-0.014285714285714285,-0.014285714285714285,-0.014285714285714285,-0.014285714285714285,-0.014285714285714285,-0.014285714285714285,-0.014285714285714285,-0.014285714285714285,0.04285714285714286,0.1,0.20476190476190476,0.3,0.3952380952380952,0.4142857142857143,0.4142857142857143,0.4142857142857143,0.4142857142857143,0.4142857142857143,0.4142857142857143,0.4142857142857143,0.4142857142857143,0.4142857142857143,0.44285714285714284,0.46190476190476193,0.48095238095238096,0.5190476190476191,0.5666666666666667,0.6619047619047619,0.7095238095238096,0.8142857142857143,0.8714285714285714,0.9,0.9285714285714286,0.9761904761904762,0.9952380952380953,1.0333333333333334,1.061904761904762,1.0904761904761904,1.1095238095238096,1.1476190476190475,1.1952380952380952,1.2714285714285714,1.3571428571428572,1.4904761904761905,1.661904761904762,1.8523809523809525,2.033333333333333,2.1476190476190475,2.176190476190476,2.1857142857142855,2.204761904761905,2.204761904761905,2.204761904761905,2.204761904761905,2.204761904761905,2.204761904761905,2.204761904761905,2.204761904761905,2.204761904761905,2.204761904761905,2.204761904761905,2.204761904761905,2.204761904761905,2.204761904761905,2.204761904761905,2.204761904761905,2.204761904761905,2.223809523809524,2.223809523809524,2.223809523809524,2.223809523809524,2.223809523809524,2.223809523809524,2.223809523809524,2.223809523809524,2.223809523809524,2.223809523809524,2.223809523809524,2.223809523809524]},"final_keyboard_state":["C","A","O","E","S","T","R","Z","B"],"num_clicks":9,"points":11,"cheat":false,"trial_type":"Hangman","trial_index":5,"time_elapsed":83207,"internal_node_id":"0.0-4.0","protocol_sum":"","subject_identifier":500,"subject_sum":[30,71,43,57,177,5,211,73,188,208,105,196,167,17,180,74,47,255,184,226,116,113,75,176,126,207,255,105,169,167,246,123],"subject_pair":250,"STUDY_ID":"66a3ed3c5d10d0e7d8a6b9da","PROLIFIC_PID":"656e0dab178ffccdaa47202e","SESSION_ID":"66a3ee5c40e54dd1270e7078","practice_instructions":1,"leaderboard_instructions":0,"bonus":0,"reveal_word":false,"self_rating":"1","confidence":"29"},{"view_history":"[{\"page_index\":0,\"viewing_time\":3472.9000000953674},{\"page_index\":1,\"viewing_time\":17160}]","rt":20633.700000047684,"trial_type":"instructions","trial_index":6,"time_elapsed":103844,"internal_node_id":"0.0-5.0","protocol_sum":"","subject_identifier":500,"subject_sum":[30,71,43,57,177,5,211,73,188,208,105,196,167,17,180,74,47,255,184,226,116,113,75,176,126,207,255,105,169,167,246,123],"subject_pair":250,"STUDY_ID":"66a3ed3c5d10d0e7d8a6b9da","PROLIFIC_PID":"656e0dab178ffccdaa47202e","SESSION_ID":"66a3ee5c40e54dd1270e7078","practice_instructions":1,"leaderboard_instructions":0,"bonus":0,"reveal_word":false,"self_rating":"1","confidence":"29"},{"rt":7114.699999809265,"responses":"{\"Q0\":\"...from <b>a previous session</b> that is part of the upcoming tournament.\"}","question_order":"[0]","trial_type":"survey-multi-choice","trial_index":7,"time_elapsed":110960,"internal_node_id":"0.0-6.0","protocol_sum":"","subject_identifier":500,"subject_sum":[30,71,43,57,177,5,211,73,188,208,105,196,167,17,180,74,47,255,184,226,116,113,75,176,126,207,255,105,169,167,246,123],"subject_pair":250,"correct":false,"test_part":"multichoice_leaderboard","STUDY_ID":"66a3ed3c5d10d0e7d8a6b9da","PROLIFIC_PID":"656e0dab178ffccdaa47202e","SESSION_ID":"66a3ee5c40e54dd1270e7078","practice_instructions":1,"leaderboard_instructions":0,"bonus":0,"reveal_word":false,"self_rating":"1","confidence":"29"},{"view_history":"[{\"page_index\":0,\"viewing_time\":1549.9000000953674}]","rt":1550.1000001430511,"trial_type":"instructions","trial_index":8,"time_elapsed":112512,"internal_node_id":"0.0-7.0-0.0","protocol_sum":"","subject_identifier":500,"subject_sum":[30,71,43,57,177,5,211,73,188,208,105,196,167,17,180,74,47,255,184,226,116,113,75,176,126,207,255,105,169,167,246,123],"subject_pair":250,"STUDY_ID":"66a3ed3c5d10d0e7d8a6b9da","PROLIFIC_PID":"656e0dab178ffccdaa47202e","SESSION_ID":"66a3ee5c40e54dd1270e7078","practice_instructions":1,"leaderboard_instructions":0,"bonus":0,"reveal_word":false,"self_rating":"1","confidence":"29"},{"rt":6511.699999809265,"responses":"{\"Q0\":\"...from <b>a previous session</b> that is not part of the upcoming tournament.\"}","question_order":"[0]","trial_type":"survey-multi-choice","trial_index":9,"time_elapsed":119024,"internal_node_id":"0.0-7.0-1.0","protocol_sum":"","subject_identifier":500,"subject_sum":[30,71,43,57,177,5,211,73,188,208,105,196,167,17,180,74,47,255,184,226,116,113,75,176,126,207,255,105,169,167,246,123],"subject_pair":250,"correct":true,"test_part":"multichoice_leaderboard","STUDY_ID":"66a3ed3c5d10d0e7d8a6b9da","PROLIFIC_PID":"656e0dab178ffccdaa47202e","SESSION_ID":"66a3ee5c40e54dd1270e7078","practice_instructions":1,"leaderboard_instructions":0,"bonus":0,"reveal_word":false,"self_rating":"1","confidence":"29"},{"view_history":"[{\"page_index\":0,\"viewing_time\":10649.299999952316}]","rt":10649.5,"trial_type":"instructions","trial_index":10,"time_elapsed":129676,"internal_node_id":"0.0-8.0","protocol_sum":"","subject_identifier":500,"subject_sum":[30,71,43,57,177,5,211,73,188,208,105,196,167,17,180,74,47,255,184,226,116,113,75,176,126,207,255,105,169,167,246,123],"subject_pair":250,"STUDY_ID":"66a3ed3c5d10d0e7d8a6b9da","PROLIFIC_PID":"656e0dab178ffccdaa47202e","SESSION_ID":"66a3ee5c40e54dd1270e7078","practice_instructions":1,"leaderboard_instructions":0,"bonus":0,"reveal_word":false,"self_rating":"1","confidence":"29"},{"rt":8556.299999952316,"responses":"{\"Q0\":\"...players' leaderboard position (in terms of <b>points</b>) in an <b>upcoming tournament.</b>\"}","question_order":"[0]","trial_type":"survey-multi-choice","trial_index":11,"time_elapsed":138233,"internal_node_id":"0.0-9.0","protocol_sum":"","subject_identifier":500,"subject_sum":[30,71,43,57,177,5,211,73,188,208,105,196,167,17,180,74,47,255,184,226,116,113,75,176,126,207,255,105,169,167,246,123],"subject_pair":250,"correct":true,"test_part":"multichoice_tournament","STUDY_ID":"66a3ed3c5d10d0e7d8a6b9da","PROLIFIC_PID":"656e0dab178ffccdaa47202e","SESSION_ID":"66a3ee5c40e54dd1270e7078","practice_instructions":1,"leaderboard_instructions":0,"bonus":0,"reveal_word":false,"self_rating":"1","confidence":"29"},{"view_history":"[{\"page_index\":0,\"viewing_time\":42749.5}]","rt":42749.699999809265,"trial_type":"instructions","trial_index":12,"time_elapsed":180984,"internal_node_id":"0.0-11.0","protocol_sum":"","subject_identifier":500,"subject_sum":[30,71,43,57,177,5,211,73,188,208,105,196,167,17,180,74,47,255,184,226,116,113,75,176,126,207,255,105,169,167,246,123],"subject_pair":250,"STUDY_ID":"66a3ed3c5d10d0e7d8a6b9da","PROLIFIC_PID":"656e0dab178ffccdaa47202e","SESSION_ID":"66a3ee5c40e54dd1270e7078","practice_instructions":1,"leaderboard_instructions":0,"bonus":0,"reveal_word":false,"self_rating":"1","confidence":"29"},{"view_history":"[{\"page_index\":0,\"viewing_time\":9655.100000143051}]","rt":9655.299999952316,"trial_type":"instructions","trial_index":13,"time_elapsed":190640,"internal_node_id":"0.0-12.0-0.0","protocol_sum":"","subject_identifier":500,"subject_sum":[30,71,43,57,177,5,211,73,188,208,105,196,167,17,180,74,47,255,184,226,116,113,75,176,126,207,255,105,169,167,246,123],"subject_pair":250,"STUDY_ID":"66a3ed3c5d10d0e7d8a6b9da","PROLIFIC_PID":"656e0dab178ffccdaa47202e","SESSION_ID":"66a3ee5c40e54dd1270e7078","practice_instructions":1,"leaderboard_instructions":0,"bonus":0,"reveal_word":false,"self_rating":"1","confidence":"29"},{"word":"KENTUCKY","click_log":{"letter":["","E","I","A","O","U","M","W","R","G","H","D","B","K","N","T","C","Y"],"t":[0,3730.2999999523163,4529,5403.5,6302.900000095367,7702.299999952316,11300.299999952316,11875.299999952316,12774.799999952316,13399.200000047684,14049.299999952316,14748.900000095367,15423.400000095367,16498,19221.799999952316,20146.299999952316,21295.799999952316,22345.10000014305],"hit":[null,1,0,0,0,1,0,0,0,0,0,0,0,2,1,1,1,1],"asked":["","E