[{"success":true,"trial_type":"fullscreen","trial_index":0,"time_elapsed":2547,"internal_node_id":"0.0-0.0","protocol_sum":"","subject_identifier":231,"subject_sum":[40,218,231,200,189,226,243,202,96,143,134,208,225,106,33,77,238,116,199,75,238,1,28,223,221,70,188,4,182,85,188,20],"subject_pair":115,"STUDY_ID":"669eec2e4270c76bc184a38e","PROLIFIC_PID":"588ab33542c8e900019d02ae","SESSION_ID":"669ff1c1e4fa656c9ac95e8f","practice_instructions":1,"leaderboard_instructions":0,"bonus":0,"reveal_word":true,"self_rating":"4","confidence":"80"},{"view_history":"[{\"page_index\":0,\"viewing_time\":4795}]","rt":4795.0999999996275,"trial_type":"instructions","trial_index":1,"time_elapsed":7343,"internal_node_id":"0.0-1.0","protocol_sum":"","subject_identifier":231,"subject_sum":[40,218,231,200,189,226,243,202,96,143,134,208,225,106,33,77,238,116,199,75,238,1,28,223,221,70,188,4,182,85,188,20],"subject_pair":115,"STUDY_ID":"669eec2e4270c76bc184a38e","PROLIFIC_PID":"588ab33542c8e900019d02ae","SESSION_ID":"669ff1c1e4fa656c9ac95e8f","practice_instructions":1,"leaderboard_instructions":0,"bonus":0,"reveal_word":true,"self_rating":"4","confidence":"80"},{"view_history":"[{\"page_index\":0,\"viewing_time\":17943.300000000745}]","rt":17943.300000000745,"trial_type":"instructions","trial_index":2,"time_elapsed":25287,"internal_node_id":"0.0-2.0-0.0","protocol_sum":"","subject_identifier":231,"subject_sum":[40,218,231,200,189,226,243,202,96,143,134,208,225,106,33,77,238,116,199,75,238,1,28,223,221,70,188,4,182,85,188,20],"subject_pair":115,"STUDY_ID":"669eec2e4270c76bc184a38e","PROLIFIC_PID":"588ab33542c8e900019d02ae","SESSION_ID":"669ff1c1e4fa656c9ac95e8f","practice_instructions":1,"leaderboard_instructions":0,"bonus":0,"reveal_word":true,"self_rating":"4","confidence":"80"},{"rt":6351,"responses":"{\"Q0\":\"... reveal the word with as <b>few letter guesses</b> as possible\"}","question_order":"[0]","trial_type":"survey-multi-choice","trial_index":3,"time_elapsed":31639,"internal_node_id":"0.0-2.0-1.0","protocol_sum":"","subject_identifier":231,"subject_sum":[40,218,231,200,189,226,243,202,96,143,134,208,225,106,33,77,238,116,199,75,238,1,28,223,221,70,188,4,182,85,188,20],"subject_pair":115,"correct":true,"test_part":"multichoice_nonpretend","STUDY_ID":"669eec2e4270c76bc184a38e","PROLIFIC_PID":"588ab33542c8e900019d02ae","SESSION_ID":"669ff1c1e4fa656c9ac95e8f","practice_instructions":1,"leaderboard_instructions":0,"bonus":0,"reveal_word":true,"self_rating":"4","confidence":"80"},{"view_history":"[{\"page_index\":0,\"viewing_time\":1376}]","rt":1376.0999999996275,"trial_type":"instructions","trial_index":4,"time_elapsed":33015,"internal_node_id":"0.0-3.0","protocol_sum":"","subject_identifier":231,"subject_sum":[40,218,231,200,189,226,243,202,96,143,134,208,225,106,33,77,238,116,199,75,238,1,28,223,221,70,188,4,182,85,188,20],"subject_pair":115,"STUDY_ID":"669eec2e4270c76bc184a38e","PROLIFIC_PID":"588ab33542c8e900019d02ae","SESSION_ID":"669ff1c1e4fa656c9ac95e8f","practice_instructions":1,"leaderboard_instructions":0,"bonus":0,"reveal_word":true,"self_rating":"4","confidence":"80"},{"word":"ZEBRA","click_log":{"letter":["","E","T","R","B","Z","A"],"t":[0,33069.40000000037,60268.90000000037,68429.69999999925,89485.30000000075,92493.30000000075,93452.90000000037],"hit":[null,1,0,1,1,1,1],"asked":["","E","ET","ETR","ETRB","ETRBZ","ETRBZA"],"word_state":["_____","_E___","_E___","_E_R_","_EBR_","ZEBR_","ZEBRA"]},"hover_log":{"letter":["?","?","?","?","?","?","?","?","?","?","?","?","?","?","?","?","?","?","?","?","?","?","?","?","?","?","?","?","?","?","?","?","?","?","?","?","?","?","?","?","?","?","?","?","?","?","?","?","?","?","?","?","?","?","?","?","?","?","?","?","?","?","?","?","?","?","?","?","?","?","?","?","?","?","?","?","?","?","?","?","?","?","?","?","?","?","?","?","K","K","K","K","K","K","K","K","K","?","?","?","?","?","?","?","?","?","?","?","?","?","?","?","?","?","?","?","?","?","?","?","?","?","?","K","K","K","K","?","?","?","?","?","?","?","?","?","?","?","?","?","?","?","?","?","?","?","?","K","?","B","B","?","?","?","?","?","?","?","?","?","?","?","?","?","?","?","?","?","?","?","?","?","?","?","?","?","?","?","?","?","?","?","?","?","?","?","?","?","?","?","?","?","?","?","?","?","?","?","?","?","?","?","?","?","?","?","?","?","?","?","?","?","?","?","?","?","?","?","?","?","?","?","?","?","?","?","?","?","?","?","?","?","?","?","?","?","?","?","?","?","?","?","?","?","?","?","?","?","?","?","?","?","?","?","?","?","?","?","?","?","?","?","?","O","?","X","?","?","?","?","?","?","?","?","?","?","?","?","?","?","?","?","?","?","?","?","?","?","?","?","?","?","?","?","?","?","?","?","?","?","?","?","?","?","?","?","?","?","?","?","?","?","?","?","?","?","?","?","?","?","?","?","?","?","?","?","?","?","?","?","?","?","?","?","?","?","?","?","?","?","?","?","?","?","?","?","?","?","?","?","?","?","?","?","?","?","?","?","?","?","?","?","?","?","?","?","?","?","?","?","?","?","?","?","?","?","?","?","?","?","?","?","?","?","?","?","?","?","?","?","?","?","?","?","?","?","?","?","?","?","?","?","?","?","?","?","?","?","?","?","?","?","?","?","?","?","?","?","?","?","?","?","?","?","?","?","?","?","?","?","?","?","?","?","?","?","?","?","?","?","?","?","?","?","?","?","?","?","?","?","?","?","?","?","?","?","?","?","?","?","?","?","?","?","?","?","?","?","?","?","?","?","?","?","?","?","?","?","?","?","?","?","?","?","?","?","?","?","?","?","?","?","?","?","?","?","?","?","?","?","?","?","?","?","?","?","?","?","?","?","?","?","?","?","?","?","?","?","?","?","?","?","?","?","?","?","?","?","?","?","?","?","?","?","?","?","?","?","?","?","?","?","?","?","?","?","?","?","?","?","?","?","?","?","?","?","?","?","?","?","?","?","?","?","?","?","?","?","?","?","?","?","?","?","?","?","?","?","?","?","?","?","?","?","?","?","?","?","?","?","?","?","?","?","?","?","?","?","?","?","?","?","?","?","?","?","?","?","?","?","?","?","?","?","?","?","?","?","?","?","?","?","?","?","?","?","?","?","?","?","?","?","?","?","?","?","?","?","?","?","?","?","?","?","?","?","?","?","?","?","?","?","?","?","?","?","?","?","?","?","?","?","?","?","?","?","?","?","?","?","?","?","?","?","?","?","?","?","?","?","?","?","?","?","?","?","?","?","?","?","?","?","?","?","?","?","?","?","?","?","?","?","?","?","?","?","?","?","?","?","?","?","?","?","?","?","?","?","?","?","?","?","?","?","?","?","?","?","?","?","?","?","?","?","?","?","?","?","?","?","?","?","?","?","?","?","?","?","?","?","?","?","?","?","?","?","?","?","?","?","?","?","?","?","?","?","?","?","?","?","?","?","?","?","?","?","?","?","?","?","?","?","?","?","?","?","?","?","?","?","?","?","?","?","?","?","?","?","?","?","?","?","?","?","?","?","?","?","?","?","?","?","?","?","?","?","?","?","?","?","?","?","?","?","?","?","?","?","?","?","?","?","?","?","?","?","?","?","?","?","?","?","?","?","?","?","?","?","?","?","?","?","?","?","?","?","?","?","?","?","?","?","?","?","?","?","?","?","?","?","?","?","?","?","?","?","?","?","?","?","?","?","?","?","?","?","?","?","?","?","?","?","?","?","?","?","?","?","?","?","?","?","?","?","?","?","?","?","?","?","?","?","?","?","?","?","?","?","?","?","?","?","?","?","?","?","?","?","?","?","?","?","?","?","?","?","?","?","?","?","?","?","?","?","?","?","?","?","?","?","?","?","?","?","?","?","?","?","?","?","?","?","?","?","?","?","?","?","?","?","?","?","?","?","?","?","?","?","?","?","?","?","?","?","?","?","?","?","?","?","?","?","?","?","?","?","?","?","?","?","?","?","?","?","?","?","?","?","?","?","?","?","?","?","?","?","?","?","?","?","?","?","?","?","?","?","?","?","?","?","?","?","?","?","?","?","?","?","?","?","?","?","?","?","?","?","?","?","?","?","?","?","?","?","?","?","?","?","?","?","?","?","?","?","?","?","?","?","?","?","?","?","?","?","?","?","?","?","?","?","?","?","?","?","?","?","?","?","?","?","?","?","?","?","?","?","?","?","?","?","?","?","?","?","?","?","?","?","?","?","?","?","?","?","?","?","?","?","?","?","?","?","?","?","?","?","?","?","?","?","?","?","?","?","?","?","?","?","?","?","?","?","?","?","?","?","?","?","?","?","?","?","?","?","?","?","?","?","?","?","?","?","?","?","?","?","?","?","?","?","?","?","?","?","?","?","?","?","?","?","?","?","?","?","?","?","?","?","?","?","?","?","?","?","?","?","?","?","?","?","?","?","?","?","?","?","?","?","?","?","?","?","?","?","?","?","?","?","?","?","?","?","?","?","?","?","?","?","?","?","?","?","?","?","?","?","?","?","?","?","?","?","?","?","?","?","?","?","?","?","?","?","?","?","?","?","?","?","?","?","?","?","?","?","?","?","?","?","?","?","?","?","?","?","?","?","?","?","?","?","?","?","?","?","?","?","?","?","?","?","?","?","?","?","?","?","?","?","?","?","?","?","?","?","?","?","?","?","?","?","?","?","?","?","?","?","?","?","?","?","?","?","?","?","?","?","?","?","?","?","?","?","?","?","?","?","?","?","?","?","?","?","?","?","?","?","?","?","?","?","?","?","?","?","?","?","?","?","?","?","?","?","?","?","?","?","?","?","?","?","?","?","?","?","?","?","?","?","?","?","?","?","?","?","?","?","?","?","?","?","?","?","?","?","?","?","?","?","?","?","?","?","?","?","?","?","?","?","?","?","?","?","?","?","?","?","?","?","?","?","?","?","?","?","?","?","?","?","?","?","?","?","?","?","?","?","?","?","?","?","?","?","?","?","?","?","?","?","?","?","?","?","?","?","?","?","?","?","?","?","?","?","?","?","?","?","?","?","?","?","?","?","?","?","?","?","?","?","?","?","?","?","?","?","?","?","?","?","?","?","?","?","?","?","?","?","?","?","?","?","?","?","?","?","?","?","?","?","?","?","?","?","?","?","?","?","?","?","?","?","?","?","?","?","?","?","?","?","?","?","?","?","?","?","?","?","?","?","?","?","?","?","?","?","?","?","?","?","?","?","?","?","?","?","?","?","?","?","?","?","?","?","?","?","?","?","?","?","?","?","?","?","?","?","?","?","?","?","?","?","?","?","?","?","?","?","?","?","?","?","?","?","?","?","?","?","?","?","?","?","?","?","?","?","?","?","?","?","?","?","?","?","?","?","?","?","?","?","?","?","?","?","?","?","?","?","?","?","?","?","?","?","?","?","?","?","?","?","?","?","?","?","?","?","?","?","?","?","?","?","?","?","?","?","?","?","?","?","?","?","?","?","?","?","?","?","?","?","?","?","?","?","?","?","?","?","?","?","?","?","?","?","?","?","?","?","?","?","?","?","?","?","?","?","?","?","?","?","?","?","?","?","?","?","?","?","?","?","?","?","?","?","?","?","?","?","?","?","?","?","?","?","?","?","?","?","?","?","?","?","?","?","?","?","?","?","?","?","?","?","?","?","?","?","?","?","?","?","?","?","?","?","?","?","?","?","?","?","?","?","?","?","?","?","?","?","?","?","?","?","?","?","?","?","?","?","?","?","?","?","?","?","?","?","?","?","?","?","?","?","?","?","?","?","?","?","?","?","?","?","?","?","?","?","?","?","?","?","?","?","?","?","?","?","?","?","?","?","?","?","?","?","?","?","?","?","?","?","?","?","?","?","?","?","?","?","?","?","?","?","?","?","?","?","?","?","?","?","?","?","?","?","?","?","?","?","?","?","?","?","?","?","?","?","?","?","?","?","?","?","?","?","?","?","?","?","?","?","?","?","?","?","?","?","?","?","?","?","?","?","?","?","?","?","?","?","?","?","?","?","?","?","?","?","?","?","?","?","?","?","?","?","?","?","?","?","?","?","?","?","?","?","?","?","?","?","?","?","?","?","?","?","?","?","?","?","?","?","?","?","?","?","?","?","?","?","?","?","?","?","?","?","?","?","?","?","?","?","?","?","?","?","?","?","?","?","?","?","?","?","?","?","?","?","?","?","?","?","?","?","?","?","?","?","?","?","?","?","?","?","?","?","?","?","?","?","?","?","?","?","?","?","?","?","?","?","?","?","?","?","?","?","?","?","?","?","?","?","?","?","?","?","?","?","?","?","?","?","?","?","?","?","?","?","?","?","?","?","?","?","?","?","?","?","?","?","?","?","?","?","?","?","?","?","?","?","?","?","?","?","?","?","?","?","?","?","?","?","?","?","?","?","?","?","?","?","?","?","?","?","?","?","?","?","?","?","?","?","?","?","?","?","?","?","?","?","?","?","?","?","?","?","?","?","?","?","?","?","?","?","?","?","?","?","?","?","?","?","?","?","?","?","?","?","?","?","?","?","?","?","?","?","?","?","?","?","?","?","?","?","?","?","?","?","?","?","?","?","?","?","?","?","?","?","?","?","?","?","?","?","?","?","?","?","?","?","?","?","?","?","?","?","?","?","?","?","?","?","?","?","?","?","?","?","?","?","?","?","?","?","?","?","?","?","?","?","?","?","?","?","?","?","?","?","?","?","?","?","?","?","?","?","?","?","?","?","?","?","?","?","?","?","?","?","?","?","?","?","?","?","?","?","?","?","?","?","?","?","?","?","?","?","?","?","?","?","?","?","?","?","?","?","?","?","?","?","?","?","?","?","?","?","?","?","?","?","?","?","?","?","?","?","?","?","?","?","?","?","?","?","?","?","?","?","?","?","?","?","?","?","?","?","?","?","?","?","?","?","?","?","?","?","?","?","?","?","?","?","?","?","E","E","E","E","E","E","E","E","E","E","E","E","E","E","E","E","E","E","E","E","E","E","E","E","E","E","E","E","E","E","E","E","E","E","E","E","E","E","E","E","E","E","E","E","E","E","E","E","E","E","E","E","E","E","E","E","E","E","E","E","E","E","E","E","E","E","E","E","E","E","E","E","E","E","E","E","E","E","E","E","E","E","E","E","E","E","E","E","E","E","E","E","E","E","E","E","E","E","E","?","F","F","?","?","?","?","?","?","?","?","?","?","?","?","?","?","?","?","?","?","?","?","?","?","?","?","?","?","?","?","?","?","?","?","?","?","?","?","?","?","?","?","?","?","?","?","?","?","?","?","?","?","?","?","?","?","?","?","?","?","?","?","?","?","?","?","?","?","?","?","?","?","?","?","?","?","?","?","?","?","?","?","?","?","?","?","?","?","?","?","?","?","?","?","?","?","?","?","?","?","?","?","?","?","?","?","?","?","?","?","?","?","?","?","?","?","?","?","?","?","?","?","?","?","?","?","?","?","?","?","?","?","?","?","?","?","?","?","?","?","?","?","?","?","?","?","?","?","?","?","?","?","?","?","?","?","?","?","?","?","?","?","?","?","?","?","?","?","?","?","?","?","?","?","?","?","?","?","?","?","?","?","?","?","?","?","?","?","?","?","?","?","?","?","?","?","?","?","?","?","?","?","?","?","?","?","?","?","?","?","?","?","?","?","?","?","?","?","?","?","?","?","?","?","?","?","?","?","?","?","?","?","?","?","?","?","?","?","?","?","?","?","?","?","?","?","?","?","?","?","?","?","?","?","?","?","?","?","?","?","?","?","?","?","?","?","?","?","?","?","?","?","?","?","?","?","?","?","?","?","?","?","?","?","?","?","?","?","?","?","?","?","?","?","?","?","?","?","?","?","?","?","?","?","?","?","?","?","?","?","?","?","?","?","?","?","?","?","?","?","?","?","?","?","?","?","?","?","?","?","?","?","?","?","?","?","?","?","?","?","?","?","?","?","?","?","?","?","?","?","?","?","?","?","?","?","?","?","?","?","?","?","?","?","?","?","?","?","?","?","?","?","?","?","?","?","?","?","?","?","?","?","?","?","?","?","?","?","?","?","?","?","?","?","?","?","?","?","?","?","?","?","?","?","?","?","?","?","?","?","?","?","?","?","?","?","?","?","?","?","?","?","?","?","?","?","?","?","?","?","?","?","?","?","?","?","?","?","?","?","?","?","?","?","?","?","?","?","?","?","?","?","?","?","?","?","?","?","?","?","?","?","?","?","?","?","?","?","?","?","?","?","?","?","?","?","?","?","?","?","?","?","?","?","?","?","?","?","?","?","?","?","?","?","?","?","?","?","?","?","?","?","?","?","?","?","?","?","?","?","?","?","?","?","?","?","?","?","?","?","?","?","?","?","?","?","?","?","?","?","?","?","?","?","?","?","?","?","?","?","?","?","?","?","?","?","?","?","?","?","?","?","?","?","?","?","?","?","?","?","?","?","?","?","?","?","?","?","?","?","?","?","?","?","?","?","?","?","?","?","?","?","?","?","?","?","?","?","?","?","?","?","?","?","?","?","?","?","?","?","?","?","?","?","?","?","?","?","?","?","?","?","?","?","?","?","?","?","?","?","?","?","?","?","?","?","?","?","?","?","?","?","?","?","?","?","?","?","?","?","?","?","?","?","?","?","?","?","?","?","?","?","?","?","?","?","?","?","?","?","?","?","?","?","?","?","?","?","?","?","?","?","?","?","?","?","?","?","?","?","?","?","?","?","?","?","?","?","?","?","?","?","?","?","?","?","?","?","?","?","?","?","?","?","?","?","?","?","?","?","?","?","?","?","?","?","?","?","?","?","?","?","?","?","?","?","?","?","?","?","?","?","?","?","?","?","?","?","?","?","?","?","?","?","?","?","?","?","?","?","?","?","?","?","?","?","?","?","?","?","?","?","?","?","?","?","?","?","?","?","?","?","?","?","?","?","?","?","?","?","?","?","?","?","?","?","?","?","?","?","?","?","?","?","?","?","?","?","?","?","?","?","?","?","?","?","?","?","?","?","?","?","?","?","?","?","?","?","?","?","?","?","?","?","?","?","?","?","?","?","?","?","?","?","?","?","?","?","?","?","?","?","?","?","?","?","?","?","?","?","?","?","?","?","?","?","?","?","?","?","?","?","?","?","?","?","?","?","?","?","?","?","?","?","?","?","?","?","?","?","?","?","?","?","?","?","?","?","?","?","?","?","?","?","?","?","?","?","?","?","?","?","?","?","?","?","?","?","?","?","?","?","?","?","?","?","?","?","?","?","?","?","?","?","?","?","?","?","?","?","?","?","?","?","?","?","?","?","?","?","?","?","?","?","?","?","?","?","?","?","?","?","?","?","?","?","?","?","?","?","?","?","?","?","?","?","?","?","?","?","?","?","?","?","?","?","?","?","?","?","?","?","?","?","?","?","?","?","?","?","?","?","?","?","?","?","?","?","?","?","?","?","?","?","?","?","?","?","?","?","?","?","?","?","?","?","?","?","?","?","?","?","?","?","?","?","?","?","?","?","?","?","?","?","?","?","?","?","?","?","?","?","?","?","?","?","?","?","?","?","?","?","?","?","?","?","?","?","?","?","?","?","?","?","?","?","?","?","?","?","?","?","?","?","?","?","?","?","?","?","?","?","?","?","?","?","?","?","?","?","?","?","?","?","?","?","?","?","?","?","?","?","?","?","?","?","?","?","?","?","?","?","?","?","?","?","?","?","?","?","?","?","?","?","?","?","?","?","?","?","?","?","?","?","?","?","?","?","?","?","?","?","?","?","?","?","?","?","?","?","?","?","?","?","?","?","?","?","?","?","?","?","?","?","?","?","?","?","?","?","?","?","?","?","?","?","?","?","?","?","?","?","?","?","?","?","?","?","?","?","?","?","?","?","?","?","?","?","?","?","?","?","?","?","?","?","?","?","?","?","?","?","?","?","?","?","?","?","?","?","?","?","?","?","?","?","?","?","?","?","?","?","?","?","?","?","?","?","?","?","?","?","?","?","?","?","?","?","?","?","?","?","?","?","?","?","?","?","?","?","?","?","?","?","?","?","?","?","?","?","?","?","?","?","?","?","?","?","?","?","?","?","?","?","?","?","?","?","?","?","?","?","?","?","?","?","?","?","?","?","?","?","?","?","?","?","?","?","?","?","?","?","?","?","?","?","?","?","?","?","?","?","?","?","?","?","?","?","?","?","?","?","?","?","?","?","?","?","?","?","?","?","?","?","?","?","?","?","?","?","?","?","?","?","?","?","?","?","?","?","?","?","?","?","?","?","?","?","?","?","?","?","?","?","?","?","?","?","?","?","?","?","?","?","?","?","?","?","?","?","?","?","?","?","?","?","?","?","?","?","?","?","?","?","?","?","?","?","?","?","?","?","?","?","?","?","?","?","?","?","?","?","?","?","?","?","?","?","?","?","?","?","?","?","?","?","?","?","?","?","?","?","?","?","?","?","?","?","?","?","?","?","?","?","?","?","?","?","?","?","?","?","?","?","?","?","?","?","?","?","?","?","?","?","?","?","?","?","?","?","?","?","?","?","?","?","?","?","?","?","?","?","?","?","?","?","?","?","?","?","?","?","?","?","?","?","?","?","?","?","?","?","?","?","?","?","?","?","?","?","?","?","?","?","?","?","?","?","?","?","?","?","?","?","?","?","?","?","?","?","?","?","?","?","?","?","?","?","?","?","?","?","?","?","?","?","?","?","?","?","?","?","?","?","?","?","?","?","?","?","?","?","?","?","?","?","?","?","?","?","?","?","?","?","?","?","?","?","?","?","?","?","?","?","?","?","?","?","?","?","?","?","?","?","?","?","?","?","?","?","?","?","?","?","?","?","?","?","?","?","?","?","?","?","?","?","?","?","?","?","?","?","?","?","?","?","?","?","?","?","?","?","?","?","?","?","?","?","?","?","?","?","?","?","?","?","?","?","?","?","?","?","?","?","?","?","?","?","?","?","?","?","?","?","?","?","?","?","?","?","?","?","?","?","?","?","?","?","?","?","?","?","?","?","?","?","?","?","?","?","?","?","?","?","?","?","?","?","?","?","?","?","?","?","?","?","?","?","?","?","?","?","?","?","?","?","?","?","?","?","?","?","?","?","?","?","?","?","?","?","?","?","?","?","?","?","?","?","?","?","?","?","?","?","?","?","?","?","?","?","?","?","?","?","?","?","?","?","?","?","?","?","?","?","?","?","?","?","?","?","?","?","?","?","?","?","?","?","?","?","?","?","?","?","?","?","?","?","?","?","?","?","?","?","?","?","?","?","?","?","?","?","?","?","?","?","?","?","?","?","?","?","?","?","?","?","?","?","?","?","?","?","?","?","?","?","?","?","?","?","?","?","?","?","F","F","F","F","F","F","F","F","?","?","?","?","?","N","N","N","N","N","?","?","?","M","M","M","M","M","M","M","?","?","?","?","?","?","?","?","?","?","?","?","?","?","?","?","?","T","T","T","T","T","T","T","T","T","T","T","T","T","T","T","T","T","T","T","T","T","T","T","T","T","T","T","T","T","T","T","T","T","T","T","T","T","T","T","T","T","T","T","T","T","T","T","T","T","T","T","T","T","T","T","T","T","T","T","T","T","T","T","T","T","T","T","T","T","T","T","T","T","T","T","T","T","T","T","T","T","T","T","T","T","T","T","T","T","T","T","T","T","T","T","T","T","T","T","T","T","T","T","T","U","U","?","?","?","?","?","?","?","?","?","?","?","?","?","?","?","?","?","?","?","?","?","?","?","?","?","?","?","?","?","?","?","?","?","?","?","?","?","?","?","?","?","?","?","?","?","?","?","?","?","?","?","?","?","?","?","?","?","?","?","?","?","?","?","?","?","?","?","?","?","?","?","?","?","?","?","?","?","?","?","?","?","?","?","?","?","?","?","?","?","?","?","?","?","?","?","?","?","?","?","?","?","?","?","?","?","?","?","?","?","?","?","?","?","?","?","?","?","?","?","?","?","?","?","?","?","?","?","?","?","?","?","?","?","?","?","?","?","?","?","?","?","?","?","?","?","?","?","?","?","?","?","?","?","?","?","?","?","?","?","?","?","?","?","?","?","?","?","?","?","?","?","?","?","?","?","?","?","?","?","?","?","?","?","?","?","?","?","?","?","?","?","?","?","?","?","?","?","?","?","?","?","?","?","?","?","?","?","?","?","?","?","?","?","?","?","?","?","?","?","?","?","?","?","?","?","?","?","?","?","?","?","?","?","?","?","?","?","?","?","?","?","?","?","?","?","?","?","?","?","?","?","?","?","?","?","?","?","?","?","?","?","?","?","?","?","?","?","?","?","?","?","?","?","?","?","?","?","?","?","?","?","?","?","?","?","?","?","?","?","?","?","?","?","?","?","?","?","?","?","?","?","?","?","?","?","?","?","?","?","?","?","?","?","?","?","?","?","?","?","?","?","?","?","?","?","?","?","?","?","?","?","?","?","?","?","?","?","?","?","?","?","?","?","?","?","?","?","?","?","?","?","?","?","?","?","?","?","?","?","?","?","?","?","?","?","?","?","?","?","?","?","?","?","?","?","?","?","?","?","?","?","?","?","?","?","?","?","?","?","?","?","?","?","?","?","?","?","?","?","?","?","?","?","?","E","E","E","E","E","E","E","E","?","?","?","?","?","?","?","?","?","?","?","?","?","?","P","P","P","P","P","P","P","P","P","P","P","P","P","P","P","P","P","P","P","P","P","P","P","P","P","P","?","Q","Q","Q","Q","Q","Q","Q","Q","Q","Q","Q","Q","Q","Q","Q","Q","Q","?","R","R","R","R","R","R","R","R","R","R","R","R","R","R","R","R","R","R","R","R","R","R","R","R","R","R","R","R","R","R","R","R","R","R","R","R","R","R","R","R","R","R","R","R","R","R","R","R","R","R","R","R","R","R","R","R","R","R","R","R","R","R","R","R","R","R","R","R","R","R","R","R","R","R","R","R","R","R","R","R","R","R","R","R","R","R","R","R","R","R","R","R","?","?","?","?","?","?","?","?","?","?","?","?","?","?","?","?","?","?","?","?","?","?","?","?","?","?","?","?","?","?","?","?","?","?","?","?","?","?","?","?","?","?","?","?","?","?","?","?","?","?","?","?","?","?","?","?","?","?","?","?","?","?","?","?","?","?","?","?","?","?","?","?","?","?","?","?","?","?","?","?","?","?","?","?","?","?","?","?","?","?","?","?","?","?","?","?","?","?","?","?","?","?","?","?","?","?","?","?","?","?","?","?","?","?","?","?","?","?","?","?","?","?","?","?","?","?","?","?","?","?","?","?","?","?","?","?","?","?","?","?","?","?","?","?","?","?","?","?","?","?","?","?","?","?","?","?","?","?","?","?","?","?","?","?","?","?","?","?","?","?","?","?","?","?","?","?","?","?","?","?","?","?","?","?","?","?","?","?","?","?","?","?","?","?","?","?","?","?","?","?","?","?","?","?","?","?","?","?","?","?","?","?","?","?","?","?","?","?","?","?","?","?","?","?","?","?","?","?","?","?","?","?","?","?","?","?","?","?","?","?","?","?","?","?","?","?","?","?","?","?","?","?","?","?","?","?","?","?","?","?","?","?","?","?","?","?","?","?","?","?","?","?","?","?","?","?","?","?","?","?","?","?","?","?","?","?","?","?","?","?","?","?","?","?","?","?","?","?","?","?","?","?","?","?","?","?","?","?","?","?","?","?","?","?","?","?","?","?","?","?","?","?","?","?","?","?","?","?","?","?","?","?","?","?","?","?","?","?","?","?","?","?","?","?","?","?","?","?","?","?","?","?","?","?","?","?","?","?","?","?","?","?","?","?","?","?","?","?","?","?","?","?","?","?","?","?","?","?","?","?","?","?","?","?","?","?","?","?","?","?","?","?","?","?","?","?","?","?","?","?","?","?","?","?","?","?","?","?","?","?","?","?","?","?","?","?","?","?","?","?","?","?","?","?","?","?","?","?","?","?","?","?","?","?","?","?","?","?","?","?","?","?","?","?","?","?","?","?","?","?","?","?","?","?","?","?","?","?","?","?","?","?","?","?","?","?","?","?","?","?","?","?","?","?","?","?","?","?","?","?","?","?","?","?","?","?","?","?","?","?","?","?","?","?","?","?","?","?","?","?","?","?","?","?","?","?","?","?","?","?","?","?","?","?","?","?","?","?","?","?","?","?","?","?","?","?","?","?","?","?","?","?","?","?","?","?","?","?","?","?","?","?","?","?","?","?","?","?","?","?","?","?","?","?","?","?","?","?","?","?","?","?","?","?","?","?","?","?","?","?","?","?","?","?","?","?","?","?","?","?","?","?","?","?","?","?","?","?","?","?","?","?","?","?","?","?","?","?","?","?","?","?","?","?","?","?","?","?","?","?","?","?","?","?","?","?","?","?","?","?","?","?","?","?","?","?","?","?","?","?","?","?","?","?","?","?","?","?","?","?","?","?","?","?","?","?","?","?","?","?","?","?","?","?","?","?","?","?","?","?","?","?","?","?","?","?","?","?","?","?","?","?","?","?","?","?","?","?","?","?","?","?","?","?","?","?","?","?","?","?","?","?","?","?","?","?","?","?","?","?","?","?","?","?","?","?","?","?","?","?","?","?","?","?","?","?","?","?","?","?","?","?","?","?","?","?","?","?","?","?","?","?","?","?","?","?","?","?","?","?","?","?","?","?","?","?","?","?","?","?","?","?","?","?","?","?","?","?","?","?","?","?","?","?","?","?","?","?","?","?","?","?","?","?","?","?","?","?","?","?","?","?","?","?","?","?","?","?","?","?","?","?","?","?","?","?","?","?","?","?","?","?","?","?","?","?","?","?","?","?","?","?","?","?","?","?","?","?","?","?","?","?","?","?","?","?","?","?","?","?","?","?","?","?","?","?","?","?","?","?","?","?","?","?","?","?","?","?","?","?","?","?","?","?","?","?","?","?","?","?","?","?","?","?","?","?","?","?","?","?","?","?","?","?","?","?","?","?","?","?","?","?","?","?","?","?","?","?","?","?","?","?","?","?","?","?","?","?","?","?","?","?","?","?","?","?","?","?","?","?","?","?","?","?","?","?","?","?","?","?","?","?","?","?","?","?","?","?","?","?","?","?","?","?","?","?","?","?","?","?","?","?","?","?","?","?","?","?","?","?","?","?","?","?","?","?","?","?","?","?","?","?","?","?","?","?","?","?","?","?","?","?","?","?","?","?","?","?","?","?","?","?","?","?","?","?","?","?","?","?","?","?","?","?","?","?","?","?","?","?","?","?","?","?","?","?","?","?","?","?","?","?","?","?","?","?","?","?","?","?","?","?","?","?","?","?","?","?","?","?","?","?","?","?","?","?","?","?","?","?","?","?","?","?","?","?","?","?","?","?","?","?","?","?","?","?","?","?","?","?","?","?","?","?","?","?","?","?","?","?","?","?","?","?","?","?","?","?","?","?","?","?","?","?","?","?","?","?","?","?","?","?","?","?","?","?","?","?","?","?","?","?","?","?","?","?","?","?","?","?","?","?","?","?","?","?","?","?","?","?","?","?","?","?","?","?","?","?","?","?","?","?","?","?","?","?","?","?","?","?","?","?","?","?","?","?","?","?","?","?","?","?","?","?","?","?","?","?","?","?","?","?","?","?","?","?","?","?","?","?","?","?","?","?","?","?","?","?","?","?","?","?","?","?","?","?","?","?","?","?","?","?","?","?","?","?","?","?","?","?","?","?","?","?","?","?","?","?","?","?","?","?","?","?","?","?","?","?","?","?","?","?","?","?","?","?","?","?","?","?","?","?","?","?","D","?","?","M","M","?","?","?","?","?","?","?","?","?","?","?","?","?","?","?","?","?","?","?","?","?","?","?","M","M","?","?","?","?","?","?","?","?","?","?","?","?","?","?","?","?","?","?","?","?","?","?","?","?","?","?","?","?","?","?","?","?","?","?","?","?","?","?","?","?","?","?","?","?","?","?","?","?","?","?","?","?","?","?","?","?","?","?","?","?","?","?","?","?","?","?","?","?","?","?","?","?","?","?","?","F","?","?","?","?","?","?","?","?","?","?","?","O","O","O","O","O","?","?","?","?","?","?","?","?","?","?","?","?","?","?","?","?","?","?","?","?","?","?","?","M","M","M","?","?","?","?","C","C","C","C","C","C","C","?","?","?","?","?","?","?","B","B","B","B","B","B","B","B","B","B","B","B","B","B","B","B","B","B","B","B","B","B","B","B","B","B","B","B","B","B","B","B","B","B","B","B","B","B","B","B","B","B","B","B","B","B","B","B","B","B","B","B","B","B","B","B","B","B","B","B","B","B","B","B","B","B","B","B","B","B","B","B","B","B","B","B","B","B","B","B","B","B","B","B","B","B","B","B","B","B","B","B","B","B","B","B","B","B","B","B","B","B","B","B","B","B","B","B","B","B","B","B","B","B","B","B","B","B","B","B","B","B","B","B","B","B","B","B","B","B","B","B","B","B","B","B","B","B","B","B","B","B","B","B","B","B","B","B","B","B","B","B","B","B","B","B","B","B","B","B","B","B","B","B","B","B","B","B","?","?","?","?","?","?","K","K","K","K","K","K","?","?","?","?","?","?","?","?","?","?","?","?","?","?","?","?","T","T","T","T","T","T","T","?","U","V","V","W","W","X","X","Y","Y","Y","?","Z","Z","Z","Z","Z","Z","Z","Z","Z","Z","Z","Z","Z","Z","Z","Z","Z","Z","Z","Z","Z","Z","Z","Z","Z","Z","Z","Z","Z","Z","Z","Z","Z","Z","Z","Z","Z","Z","Z","Z","Z","Z","Z","Z","Z","Z","Z","Z","Z","Z","Z","Z","Z","Z","Z","Z","Z","Z","Z","Z","Z","Z","Z","Z","Z","Z","Z","Z","Z","Z","Z","Z","Z","Z","Z","Z","Z","Z","Z","Z","Z","Z","Z","Z","Z","?","Y","Y","?","X","?","?","?","M","?","?","L","L","L","L","L","L","L","L","L","L","?","?","K","K","?","?","?","?","?","?","?","?","?","A","A","A","A","A","A","A","A","A","A","A","A","A","A","A","A","A","A","A","A","A","A","A","A","A","A","A","A","A","A","A","A","A","A","A","A","A","A","A","A","A","A","A","A","A","?","?","?","?","?","?","B","?","?","?","?","L","M","M","?","?","?","?","?","?","?","?","?","M","M","M","?","D","?","C","?","?","?","?","?","?","?","?","?","?","?","?","?","?","?","?","?","?","?","?","?","?","?","?","?","?","E","E","?","?","?","O","O","?","?","Y","Y","?","?","?","?","?","?","?","?","?","?","?","?","?","?","?","?","?","?","?","?","?","?","?","?","?","?","?","?","?","?","?","?","?","?","?","?","?","?","?","?","?","?","?","?","?","?","?","?","?","?","?","?","?","?","?","?"],"t":[26,32,47,61,75,88,102,116,130,145,158,172,186,199,213,226,240,254,269,283,296,310,324,338,352,366,380,394,407,421,436,449,464,477,491,505,519,533,547,561,574,588,602,616,630,644,658,672,685,699,713,727,741,755,769,783,797,811,825,839,852,866,880,894,908,922,936,949,963,977,991,1005,1019,1033,1046,1061,1074,1088,1102,1116,1130,1143,1157,1172,1185,1199,1213,1227,1242,1254,1268,1282,1296,1310,1324,1338,1352,1366,1380,1393,1408,1422,1436,1449,1463,1477,1491,1505,1519,1533,1547,1561,1575,1588,1602,1616,1630,1644,1658,1672,1686,1700,1713,1727,1740,1754,1768,1782,1796,1810,1824,1838,1851,1865,1879,1894,1907,1921,1935,1950,1963,1977,1991,2005,2019,2033,2046,2060,2075,2089,2102,2116,2129,2143,2157,2171,2185,2199,2213,2226,2240,2254,2268,2282,2296,2310,2324,2338,2351,2366,2380,2393,2407,2421,2435,2449,2463,2476,2490,2505,2518,2532,2546,2560,2574,2588,2602,2615,2629,2643,2657,2671,2685,2699,2712,2726,2740,2754,2768,2782,2796,2810,2824,2838,2851,2865,2879,2893,2907,2921,2935,2949,2963,2977,2991,3005,3019,3032,3046,3060,3074,3087,3101,3115,3129,3143,3157,3171,3185,3199,3213,3226,3241,3255,3268,3282,3296,3310,3324,3337,3351,3365,3379,3393,3407,3421,3435,3449,3463,3476,3490,3505,3519,3532,3546,3560,3574,3588,3602,3616,3629,3643,3657,3672,3685,3699,3713,3727,3741,3754,3768,3783,3797,3810,3824,3838,3851,3865,3879,3893,3907,3921,3935,3949,3963,3976,3991,4004,4018,4032,4046,4060,4074,4087,4102,4115,4129,4143,4157,4171,4185,4199,4213,4226,4240,4254,4268,4282,4296,4310,4324,4337,4351,4365,4379,4393,4407,4421,4435,4449,4462,4476,4490,4504,4518,4532,4546,4560,4574,4588,4601,4615,4629,4643,4657,4671,4685,4699,4713,4727,4741,4755,4768,4782,4796,4810,4824,4838,4852,4866,4879,4893,4907,4921,4935,4949,4963,4977,4990,5004,5018,5032,5046,5060,5074,5088,5102,5116,5129,5143,5157,5171,5185,5199,5213,5227,5241,5254,5268,5282,5296,5310,5324,5338,5352,5366,5380,5393,5407,5421,5435,5449,5462,5476,5490,5504,5518,5533,5547,5560,5574,5588,5602,5616,5630,5644,5658,5671,5685,5699,5712,5727,5741,5755,5769,5782,5797,5810,5824,5838,5853,5866,5880,5893,5907,5921,5935,5949,5963,5976,5991,6004,6018,6032,6047,6060,6074,6104,6122,6136,6150,6164,6178,6192,6206,6219,6233,6247,6261,6275,6289,6303,6317,6331,6345,6358,6372,6386,6400,6414,6428,6442,6456,6470,6483,6497,6511,6525,6539,6553,6567,6581,6594,6608,6623,6636,6650,6664,6678,6692,6706,6719,6733,6747,6761,6776,6789,6803,6817,6831,6844,6858,6872,6886,6900,6914,6928,6942,6956,6969,6983,6997,7011,7025,7039,7053,7067,7081,7094,7108,7122,7136,7150,7164,7178,7192,7206,7220,7233,7247,7261,7275,7289,7303,7317,7331,7344,7358,7372,7386,7400,7414,7428,7442,7456,7469,7483,7497,7511,7525,7539,7553,7567,7581,7595,7608,7623,7636,7652,7664,7678,7692,7706,7720,7734,7747,7761,7775,7789,7803,7817,7830,7844,7858,7872,7886,7900,7915,7928,7942,7956,7969,7983,7997,8011,8025,8039,8053,8067,8080,8095,8109,8123,8137,8150,8164,8178,8192,8206,8220,8234,8248,8261,8275,8289,8303,8317,8331,8345,8358,8372,8386,8400,8414,8428,8442,8456,8469,8483,8497,8511,8525,8539,8553,8567,8581,8595,8608,8622,8636,8650,8665,8678,8692,8706,8719,8733,8747,8761,8775,8789,8803,8817,8831,8845,8858,8872,8886,8900,8914,8928,8942,8956,8969,8983,8997,9011,9025,9039,9053,9067,9081,9094,9108,9122,9136,9150,9164,9178,9192,9206,9219,9234,9247,9261,9275,9289,9303,9317,9331,9344,9358,9372,9386,9400,9414,9428,9442,9456,9469,9484,9498,9511,9525,9539,9553,9567,9581,9594,9609,9623,9636,9650,9664,9679,9692,9706,9719,9733,9747,9761,9775,9789,9803,9817,9831,9844,9858,9872,9886,9900,9914,9928,9942,9955,9970,9983,9997,10011,10025,10039,10053,10067,10080,10094,10109,10123,10137,10150,10164,10178,10192,10205,10220,10233,10247,10261,10275,10289,10303,10317,10331,10345,10359,10373,10387,10401,10414,10428,10443,10456,10470,10484,10498,10511,10525,10540,10554,10568,10581,10595,10608,10622,10637,10650,10666,10678,10692,10706,10719,10733,10747,10761,10775,10789,10803,10817,10831,10845,10859,10872,10886,10901,10915,10929,10942,10956,10970,10984,10998,11012,11026,11040,11054,11067,11082,11096,11109,11122,11136,11150,11164,11179,11193,11206,11220,11234,11248,11262,11275,11289,11303,11317,11331,11345,11359,11373,11387,11401,11414,11428,11442,11456,11470,11484,11498,11512,11526,11540,11554,11568,11581,11595,11609,11623,11636,11650,11664,11679,11692,11707,11720,11734,11748,11762,11776,11789,11803,11817,11831,11844,11859,11872,11886,11901,11914,11928,11942,11956,11970,11983,11998,12011,12025,12039,12053,12067,12081,12094,12108,12122,12136,12150,12164,12178,12192,12206,12220,12234,12248,12262,12275,12289,12303,12317,12330,12344,12358,12373,12386,12400,12414,12428,12442,12456,12470,12483,12497,12511,12525,12539,12553,12567,12581,12595,12608,12622,12636,12650,12664,12678,12692,12706,12719,12734,12748,12761,12775,12789,12803,12817,12830,12844,12858,12872,12886,12900,12914,12928,12942,12955,12970,12983,12997,13011,13025,13039,13053,13067,13080,13094,13108,13122,13137,13151,13164,13178,13192,13206,13219,13233,13247,13261,13275,13289,13303,13317,13330,13345,13358,13372,13386,13400,13414,13428,13442,13455,13469,13483,13497,13511,13525,13539,13553,13566,13581,13595,13608,13622,13637,13650,13664,13678,13691,13706,13720,13733,13747,13761,13776,13790,13803,13817,13831,13845,13859,13873,13887,13900,13914,13928,13941,13955,13970,13984,13997,14012,14025,14039,14053,14067,14080,14094,14108,14122,14136,14150,14164,14178,14192,14205,14220,14233,14247,14261,14275,14289,14303,14317,14331,14345,14359,14372,14386,14400,14414,14428,14442,14455,14469,14483,14497,14511,14525,14539,14553,14567,14580,14594,14608,14622,14636,14650,14664,14678,14692,14706,14720,14734,14748,14762,14775,14789,14803,14817,14830,14845,14858,14872,14886,14901,14914,14928,14942,14955,14969,14983,14997,15011,15026,15040,15053,15067,15081,15095,15109,15123,15137,15151,15165,15179,15193,15206,15219,15233,15247,15262,15276,15290,15304,15317,15330,15345,15359,15372,15386,15400,15415,15428,15442,15456,15470,15483,15497,15511,15526,15540,15554,15567,15581,15595,15609,15623,15637,15651,15664,15678,15692,15706,15720,15734,15747,15761,15775,15789,15803,15817,15831,15845,15859,15873,15887,15901,15914,15928,15942,15956,15970,15984,15998,16011,16025,16039,16053,16067,16081,16095,16109,16123,16137,16151,16164,16178,16192,16206,16220,16233,16247,16262,16275,16289,16303,16317,16331,16345,16359,16373,16387,16400,16414,16428,16442,16455,16470,16484,16498,16512,16526,16540,16553,16568,16582,16595,16609,16623,16637,16650,16664,16678,16692,16706,16720,16733,16748,16762,16776,16789,16803,16817,16831,16845,16859,16873,16887,16901,16915,16928,16942,16956,16970,16984,16998,17012,17025,17039,17054,17068,17080,17094,17108,17122,17136,17150,17164,17178,17192,17205,17220,17234,17247,17261,17275,17289,17304,17317,17331,17345,17359,17373,17387,17401,17415,17428,17442,17456,17469,17483,17497,17511,17525,17539,17553,17567,17581,17594,17608,17622,17636,17650,17664,17678,17691,17706,17720,17735,17748,17761,17775,17789,17803,17817,17831,17844,17858,17872,17886,17900,17914,17928,17942,17955,17969,17983,17997,18011,18025,18039,18053,18067,18081,18094,18108,18122,18136,18150,18164,18178,18192,18205,18219,18233,18247,18261,18275,18289,18303,18317,18330,18344,18358,18372,18386,18401,18414,18428,18441,18456,18470,18484,18497,18511,18525,18540,18553,18567,18580,18594,18608,18622,18636,18650,18664,18678,18692,18705,18719,18734,18747,18761,18775,18789,18803,18817,18830,18844,18858,18872,18886,18900,18914,18928,18942,18956,18970,18984,18997,19011,19025,19040,19053,19066,19080,19094,19108,19122,19136,19150,19164,19178,19192,19205,19219,19233,19247,19261,19275,19289,19303,19317,19330,19344,19358,19372,19386,19400,19414,19428,19442,19455,19469,19483,19497,19511,19525,19539,19553,19567,19581,19595,19609,19623,19636,19651,19665,19678,19692,19706,19720,19734,19748,19762,19775,19789,19803,19818,19831,19845,19859,19873,19886,19900,19914,19928,19943,19957,19970,19984,19998,20012,20026,20040,20053,20067,20081,20095,20109,20123,20136,20150,20165,20178,20192,20206,20220,20233,20247,20261,20275,20289,20303,20317,20331,20344,20358,20373,20387,20401,20414,20428,20442,20456,20470,20483,20498,20511,20525,20539,20553,20567,20581,20595,20609,20623,20637,20651,20664,20678,20693,20706,20720,20733,20747,20762,20775,20789,20804,20818,20831,20845,20858,20872,20886,20900,20914,20928,20942,20956,20970,20984,20998,21012,21025,21039,21053,21067,21081,21095,21109,21123,21136,21150,21164,21178,21192,21206,21220,21234,21247,21261,21276,21290,21302,21316,21331,21344,21358,21372,21386,21400,21415,21428,21442,21455,21470,21483,21497,21511,21525,21539,21553,21567,21581,21595,21609,21623,21636,21650,21665,21678,21692,21706,21720,21734,21747,21762,21776,21790,21804,21818,21832,21845,21859,21873,21887,21901,21914,21928,21943,21956,21969,21984,21998,22012,22026,22039,22053,22067,22080,22094,22109,22122,22136,22150,22164,22177,22191,22206,22219,22234,22248,22262,22276,22289,22304,22318,22332,22345,22358,22372,22386,22400,22414,22428,22442,22455,22469,22483,22497,22511,22525,22539,22553,22567,22581,22594,22608,22622,22636,22650,22664,22678,22691,22706,22720,22733,22747,22761,22775,22789,22803,22817,22830,22844,22858,22872,22886,22900,22914,22928,22942,22956,22969,22983,22997,23011,23025,23039,23053,23066,23080,23094,23108,23122,23136,23150,23164,23178,23191,23205,23219,23233,23247,23261,23275,23289,23303,23318,23331,23344,23358,23372,23386,23401,23414,23428,23441,23455,23469,23483,23497,23511,23525,23539,23553,23567,23580,23595,23608,23623,23636,23650,23664,23677,23692,23706,23719,23733,23747,23761,23775,23789,23802,23817,23830,23844,23858,23873,23887,23901,23914,23928,23941,23955,23969,23983,23997,24011,24025,24039,24053,24067,24081,24095,24109,24122,24136,24150,24164,24177,24191,24205,24219,24233,24247,24261,24275,24289,24303,24316,24330,24344,24358,24372,24386,24400,24414,24428,24442,24456,24469,24483,24497,24511,24525,24539,24553,24566,24580,24594,24608,24622,24636,24650,24664,24678,24692,24706,24720,24734,24748,24762,24775,24789,24803,24817,24831,24845,24859,24873,24886,24900,24914,24928,24942,24955,24970,24984,24998,25012,25025,25039,25053,25067,25081,25095,25108,25122,25136,25150,25164,25178,25192,25206,25220,25234,25248,25261,25275,25289,25303,25317,25332,25345,25359,25373,25386,25401,25414,25428,25442,25455,25469,25484,25498,25511,25525,25539,25552,25566,25581,25596,25608,25623,25637,25651,25665,25679,25692,25705,25719,25734,25747,25762,25776,25789,25803,25817,25831,25845,25859,25873,25887,25901,25915,25928,25942,25956,25970,25984,25998,26012,26026,26039,26053,26067,26080,26095,26108,26122,26136,26150,26164,26178,26192,26206,26220,26233,26247,26261,26275,26289,26303,26316,26330,26344,26358,26372,26386,26400,26414,26428,26442,26456,26470,26483,26497,26511,26526,26540,26553,26567,26580,26594,26608,26622,26636,26651,26664,26678,26692,26706,26720,26734,26748,26761,26776,26790,26803,26817,26830,26844,26858,26872,26886,26901,26914,26928,26941,26956,26969,26983,26998,27011,27025,27039,27052,27066,27080,27094,27108,27122,27136,27150,27164,27178,27192,27205,27219,27233,27247,27261,27275,27289,27302,27317,27331,27344,27358,27372,27386,27400,27414,27428,27442,27456,27470,27485,27497,27511,27526,27539,27553,27567,27581,27595,27608,27622,27636,27650,27664,27677,27691,27706,27720,27733,27747,27761,27775,27789,27803,27816,27830,27844,27858,27872,27886,27900,27914,27927,27942,27956,27969,27984,27997,28011,28025,28039,28053,28067,28081,28094,28108,28122,28136,28150,28164,28178,28191,28205,28220,28233,28247,28261,28275,28289,28302,28316,28330,28344,28358,28372,28386,28400,28414,28428,28441,28455,28469,28483,28497,28511,28525,28539,28553,28567,28580,28594,28608,28622,28636,28650,28664,28678,28691,28705,28719,28733,28747,28761,28775,28789,28803,28816,28830,28844,28858,28872,28886,28900,28914,28928,28942,28956,28969,28983,28997,29011,29025,29039,29052,29066,29081,29095,29109,29123,29137,29151,29164,29178,29193,29205,29219,29234,29248,29261,29275,29289,29303,29316,29330,29344,29358,29372,29386,29400,29414,29428,29442,29455,29469,29483,29497,29511,29525,29539,29553,29566,29580,29594,29608,29622,29636,29650,29664,29678,29691,29705,29719,29733,29747,29761,29775,29789,29802,29816,29830,29844,29858,29873,29886,29901,29915,29928,29943,29956,29969,29983,29997,30011,30025,30039,30053,30066,30080,30094,30108,30122,30136,30150,30164,30178,30192,30205,30219,30233,30247,30261,30275,30289,30303,30316,30330,30344,30358,30372,30386,30400,30414,30427,30442,30456,30469,30483,30497,30511,30525,30539,30554,30568,30581,30595,30608,30622,30636,30650,30664,30678,30691,30705,30719,30733,30747,30761,30775,30789,30803,30816,30830,30844,30858,30872,30886,30900,30914,30928,30942,30955,30969,30983,30997,31011,31025,31040,31053,31067,31081,31095,31109,31123,31137,31150,31165,31178,31192,31206,31220,31234,31248,31262,31275,31289,31303,31317,31330,31344,31358,31372,31386,31400,31414,31428,31442,31455,31469,31484,31497,31511,31525,31539,31553,31567,31581,31595,31609,31624,31636,31650,31664,31677,31691,31706,31719,31733,31747,31761,31775,31789,31803,31817,31831,31845,31858,31872,31886,31900,31914,31928,31943,31956,31970,31984,31998,32012,32025,32039,32053,32067,32081,32095,32109,32123,32137,32151,32165,32179,32193,32207,32221,32233,32247,32262,32276,32290,32303,32317,32332,32345,32359,32373,32387,32401,32415,32428,32442,32455,32470,32484,32498,32512,32526,32540,32553,32567,32581,32595,32609,32622,32636,32650,32665,32679,32692,32706,32719,32733,32747,32761,32775,32789,32803,32816,32830,32844,32858,32872,32886,32900,32914,32927,32942,32956,32969,32983,32997,33011,33025,33039,33053,33066,33081,33095,33108,33122,33137,33150,33164,33178,33192,33205,33219,33233,33247,33261,33275,33289,33302,33316,33330,33344,33358,33372,33386,33400,33414,33428,33442,33456,33470,33484,33498,33511,33525,33540,33553,33567,33580,33595,33608,33622,33636,33650,33664,33678,33692,33706,33719,33733,33747,33761,33775,33789,33802,33816,33830,33844,33858,33872,33886,33900,33914,33929,33942,33955,33969,33983,33997,34011,34025,34039,34052,34067,34081,34094,34108,34122,34137,34151,34164,34179,34192,34206,34219,34233,34247,34261,34275,34289,34303,34316,34330,34344,34358,34372,34386,34400,34414,34428,34442,34455,34469,34483,34497,34511,34525,34539,34552,34566,34580,34594,34608,34622,34636,34650,34664,34677,34691,34705,34719,34733,34747,34761,34775,34789,34803,34816,34830,34844,34858,34872,34886,34900,34914,34927,34941,34955,34969,34983,34997,35011,35025,35039,35053,35067,35081,35095,35109,35122,35137,35151,35165,35178,35192,35206,35220,35233,35247,35261,35275,35289,35303,35317,35330,35344,35359,35373,35386,35400,35415,35428,35442,35456,35469,35484,35497,35511,35525,35539,35553,35567,35581,35595,35609,35623,35637,35650,35664,35678,35692,35706,35720,35734,35748,35761,35775,35789,35802,35816,35831,35845,35859,35872,35886,35900,35914,35928,35942,35956,35970,35983,35997,36011,36026,36039,36053,36066,36080,36094,36108,36122,36137,36151,36165,36178,36192,36205,36220,36233,36247,36261,36275,36289,36304,36316,36330,36344,36358,36372,36386,36400,36414,36428,36441,36455,36469,36483,36497,36511,36525,36539,36553,36566,36580,36594,36608,36622,36636,36650,36664,36678,36692,36705,36720,36734,36748,36762,36776,36790,36803,36817,36831,36845,36859,36872,36886,36900,36914,36928,36942,36956,36969,36983,36997,37011,37025,37039,37052,37066,37080,37095,37108,37122,37136,37150,37163,37177,37192,37206,37220,37234,37247,37261,37275,37289,37303,37317,37331,37345,37358,37373,37387,37401,37414,37428,37442,37456,37470,37484,37497,37511,37525,37539,37552,37566,37581,37594,37608,37622,37636,37650,37664,37678,37692,37706,37719,37733,37747,37762,37776,37789,37804,37817,37830,37844,37858,37872,37886,37900,37914,37927,37941,37955,37969,37983,37997,38011,38025,38039,38052,38066,38080,38094,38108,38122,38136,38150,38164,38177,38191,38205,38219,38233,38247,38261,38275,38289,38302,38316,38330,38344,38358,38372,38386,38400,38413,38427,38441,38455,38469,38483,38497,38511,38525,38539,38552,38566,38580,38595,38608,38622,38636,38651,38664,38678,38692,38705,38719,38733,38747,38761,38775,38789,38803,38816,38830,38844,38859,38872,38886,38900,38914,38927,38941,38955,38969,38983,38997,39011,39025,39039,39053,39067,39080,39094,39108,39122,39137,39150,39163,39177,39191,39205,39219,39233,39247,39261,39275,39289,39302,39316,39331,39345,39359,39374,39387,39400,39415,39427,39441,39455,39469,39483,39497,39511,39525,39539,39553,39567,39581,39595,39608,39622,39636,39650,39664,39678,39692,39706,39719,39733,39747,39761,39775,39788,39802,39816,39830,39844,39859,39872,39886,39900,39914,39927,39941,39955,39969,39984,39997,40011,40025,40039,40053,40066,40080,40094,40108,40122,40136,40150,40164,40178,40191,40205,40219,40233,40247,40262,40275,40289,40302,40316,40330,40344,40358,40372,40386,40400,40414,40428,40442,40456,40470,40483,40497,40511,40525,40539,40553,40567,40580,40595,40608,40622,40636,40650,40664,40678,40693,40706,40720,40734,40748,40762,40776,40790,40803,40817,40831,40845,40858,40872,40886,40900,40914,40928,40942,40956,40970,40984,40998,41011,41025,41039,41053,41067,41081,41095,41109,41122,41136,41150,41164,41178,41192,41206,41220,41234,41248,41262,41275,41289,41303,41317,41330,41344,41358,41372,41386,41401,41414,41428,41441,41455,41469,41484,41497,41511,41525,41539,41552,41567,41580,41594,41608,41622,41636,41650,41663,41677,41691,41705,41719,41733,41747,41761,41775,41789,41803,41817,41830,41845,41858,41872,41886,41900,41914,41928,41941,41955,41969,41983,41997,42011,42025,42039,42052,42066,42080,42095,42108,42122,42136,42150,42164,42178,42191,42205,42219,42234,42248,42261,42275,42289,42303,42317,42331,42345,42359,42373,42386,42399,42413,42427,42441,42456,42470,42484,42497,42511,42525,42539,42553,42566,42580,42594,42608,42623,42636,42650,42664,42678,42692,42706,42720,42733,42747,42761,42774,42789,42803,42817,42830,42844,42858,42872,42886,42901,42914,42928,42942,42956,42970,42983,42997,43011,43025,43039,43052,43066,43080,43094,43108,43122,43136,43150,43164,43177,43191,43205,43219,43233,43247,43261,43275,43289,43302,43316,43330,43344,43358,43372,43386,43400,43414,43427,43441,43455,43469,43483,43497,43511,43525,43539,43552,43566,43580,43594,43608,43622,43636,43650,43663,43677,43691,43705,43719,43733,43747,43761,43775,43789,43803,43817,43830,43844,43858,43872,43886,43900,43913,43927,43941,43955,43969,43983,43997,44011,44025,44038,44052,44066,44080,44094,44108,44122,44137,44150,44164,44177,44191,44205,44219,44233,44247,44261,44275,44289,44302,44316,44330,44344,44358,44372,44386,44400,44413,44427,44441,44455,44470,44484,44497,44511,44525,44538,44552,44566,44580,44594,44608,44622,44636,44650,44664,44677,44691,44706,44720,44733,44747,44761,44775,44788,44802,44816,44830,44844,44858,44872,44886,44899,44913,44927,44941,44955,44969,44983,44997,45011,45025,45039,45052,45066,45080,45094,45108,45122,45136,45150,45164,45177,45191,45205,45219,45233,45247,45261,45275,45288,45302,45316,45330,45344,45358,45372,45386,45399,45413,45427,45441,45455,45469,45483,45497,45511,45525,45539,45552,45566,45580,45594,45608,45622,45636,45650,45664,45678,45692,45706,45720,45734,45748,45761,45776,45790,45803,45817,45831,45845,45858,45872,45886,45901,45914,45927,45941,45955,45969,45984,45997,46011,46025,46039,46053,46067,46081,46095,46108,46123,46137,46150,46163,46177,46191,46206,46220,46234,46248,46262,46275,46289,46303,46317,46331,46345,46359,46373,46387,46400,46414,46428,46441,46455,46469,46483,46498,46511,46525,46538,46552,46566,46580,46594,46608,46622,46636,46650,46664,46678,46692,46706,46719,46733,46747,46761,46775,46789,46803,46817,46831,46844,46858,46872,46886,46900,46914,46927,46941,46955,46969,46983,46997,47011,47024,47038,47052,47066,47080,47094,47108,47122,47136,47149,47163,47177,47191,47205,47219,47233,47247,47261,47275,47288,47302,47316,47330,47344,47358,47372,47386,47400,47413,47427,47441,47455,47469,47483,47497,47511,47525,47539,47553,47566,47580,47594,47608,47622,47637,47650,47663,47678,47691,47705,47719,47733,47749,47761,47774,47788,47802,47816,47830,47844,47858,47872,47886,47901,47914,47928,47942,47956,47970,47983,47997,48011,48025,48038,48053,48066,48080,48094,48108,48122,48136,48150,48163,48177,48191,48205,48219,48233,48247,48261,48275,48289,48302,48316,48330,48344,48358,48372,48386,48400,48413,48427,48441,48455,48469,48483,48497,48511,48525,48538,48552,48566,48580,48594,48608,48622,48636,48650,48663,48677,48691,48705,48719,48733,48747,48761,48774,48788,48803,48816,48830,48844,48858,48872,48886,48900,48914,48928,48941,48955,48969,48983,48997,49011,49025,49039,49053,49066,49080,49094,49108,49122,49136,49150,49164,49178,49191,49205,49219,49233,49247,49261,49275,49289,49302,49317,49330,49344,49358,49372,49386,49399,49413,49427,49441,49455,49469,49483,49497,49511,49524,49538,49552,49566,49580,49594,49608,49622,49636,49650,49663,49677,49691,49705,49719,49733,49747,49761,49774,49788,49802,49816,49831,49844,49858,49872,49886,49900,49914,49928,49941,49955,49969,49983,49998,50011,50025,50039,50053,50067,50080,50095,50108,50122,50136,50150,50164,50177,50191,50205,50219,50233,50247,50261,50275,50289,50302,50316,50330,50344,50358,50372,50386,50399,50414,50428,50441,50455,50469,50483,50497,50511,50524,50538,50552,50566,50580,50594,50608,50622,50636,50650,50663,50677,50691,50705,50719,50733,50747,50761,50775,50789,50802,50816,50830,50844,50858,50872,50886,50900,50914,50928,50941,50955,50969,50983,50997,51011,51025,51041,51053,51066,51080,51094,51108,51122,51136,51150,51164,51178,51192,51205,51219,51233,51247,51260,51274,51289,51302,51316,51330,51344,51358,51372,51386,51399,51413,51427,51442,51456,51470,51484,51498,51511,51525,51539,51553,51567,51581,51595,51608,51622,51636,51651,51665,51678,51692,51706,51719,51734,51747,51762,51775,51789,51803,51817,51831,51844,51858,51872,51885,51900,51914,51928,51942,51956,51969,51983,51997,52011,52024,52039,52052,52067,52080,52095,52109,52123,52137,52151,52164,52178,52192,52206,52220,52233,52247,52260,52274,52288,52303,52317,52331,52345,52359,52372,52386,52400,52414,52427,52441,52455,52469,52484,52497,52511,52525,52539,52553,52567,52580,52595,52608,52622,52636,52649,52664,52678,52692,52706,52720,52734,52747,52761,52775,52789,52803,52816,52830,52844,52858,52872,52886,52899,52913,52927,52941,52955,52969,52984,52998,53011,53025,53039,53053,53067,53081,53095,53109,53122,53136,53150,53163,53177,53191,53205,53220,53233,53247,53261,53275,53289,53302,53316,53330,53344,53358,53372,53386,53400,53414,53427,53441,53455,53469,53483,53497,53511,53525,53539,53553,53566,53580,53594,53608,53622,53636,53650,53664,53678,53692,53705,53719,53734,53748,53762,53775,53789,53803,53817,53831,53845,53859,53873,53887,53900,53914,53928,53942,53955,53969,53983,53997,54011,54024,54038,54053,54066,54080,54094,54108,54122,54136,54150,54164,54178,54192,54205,54219,54233,54247,54261,54275,54288,54302,54316,54331,54344,54358,54372,54386,54399,54413,54427,54441,54455,54469,54484,54497,54511,54525,54539,54553,54567,54581,54595,54608,54622,54636,54651,54664,54678,54692,54706,54720,54734,54747,54761,54775,54790,54802,54817,54831,54845,54858,54872,54887,54901,54914,54928,54942,54956,54969,54983,54997,55010,55024,55038,55052,55067,55081,55095,55109,55123,55137,55151,55164,55178,55192,55206,55220,55234,55248,55261,55275,55289,55303,55316,55331,55344,55358,55373,55387,55400,55414,55428,55441,55455,55469,55483,55497,55511,55525,55540,55553,55567,55581,55595,55608,55622,55636,55650,55664,55678,55692,55706,55719,55733,55747,55761,55774,55789,55803,55817,55831,55844,55858,55872,55886,55900,55914,55928,55942,55956,55970,55984,55998,56011,56025,56039,56052,56066,56080,56094,56108,56122,56136,56149,56164,56178,56191,56206,56219,56233,56248,56261,56275,56288,56302,56317,56331,56345,56358,56372,56386,56400,56414,56428,56442,56455,56469,56484,56497,56511,56525,56539,56553,56567,56581,56594,56609,56623,56636,56650,56664,56678,56692,56706,56720,56734,56748,56762,56775,56789,56803,56817,56831,56845,56859,56872,56886,56901,56914,56928,56942,56956,56969,56984,56997,57011,57026,57039,57053,57067,57081,57094,57108,57122,57136,57149,57164,57178,57191,57206,57220,57234,57248,57262,57276,57289,57302,57316,57330,57344,57358,57373,57387,57400,57414,57428,57442,57456,57470,57483,57498,57511,57525,57539,57553,57567,57581,57595,57608,57622,57636,57650,57664,57678,57692,57705,57719,57733,57747,57761,57775,57789,57802,57816,57830,57844,57858,57872,57886,57900,57913,57927,57941,57955,57969,57983,57997,58011,58024,58038,58052,58066,58080,58094,58108,58122,58135,58149,58163,58177,58191,58205,58219,58233,58247,58261,58274,58288,58302,58317,58330,58344,58358,58372,58386,58401,58413,58427,58441,58456,58470,58484,58497,58511,58525,58539,58553,58567,58581,58594,58608,58622,58636,58650,58664,58677,58691,58705,58719,58733,58747,58761,58775,58789,58803,58817,58831,58845,58858,58872,58886,58900,58914,58928,58941,58955,58970,58984,58997,59012,59025,59039,59053,59067,59081,59095,59109,59123,59136,59150,59165,59179,59192,59205,59219,59233,59247,59261,59275,59289,59303,59317,59330,59344,59358,59373,59386,59400,59415,59428,59442,59455,59469,59483,59497,59511,59525,59539,59553,59567,59581,59595,59608,59622,59637,59650,59664,59678,59692,59706,59720,59734,59747,59761,59775,59790,59803,59817,59831,59845,59859,59873,59887,59900,59914,59928,59942,59956,59970,59983,59998,60011,60025,60039,60053,60067,60081,60095,60109,60123,60136,60150,60163,60178,60192,60206,60220,60234,60247,60260,60275,60288,60302,60316,60331,60345,60358,60373,60387,60401,60414,60428,60442,60456,60469,60484,60497,60511,60525,60539,60553,60567,60581,60594,60608,60622,60636,60650,60663,60678,60692,60706,60720,60734,60747,60762,60776,60789,60803,60816,60830,60844,60858,60873,60887,60900,60914,60929,60942,60956,60970,60984,60998,61011,61025,61039,61053,61067,61081,61095,61109,61123,61137,61150,61165,61178,61192,61206,61220,61233,61247,61261,61275,61289,61303,61316,61330,61344,61358,61372,61386,61400,61414,61427,61441,61455,61469,61483,61497,61511,61525,61539,61553,61567,61581,61595,61608,61622,61636,61650,61664,61678,61691,61705,61719,61733,61747,61761,61774,61788,61802,61817,61830,61844,61858,61872,61886,61900,61914,61927,61941,61956,61970,61984,61998,62011,62025,62039,62053,62067,62081,62095,62109,62122,62136,62150,62164,62178,62191,62206,62219,62233,62247,62261,62275,62289,62302,62316,62330,62344,62359,62371,62386,62399,62413,62427,62441,62455,62469,62483,62497,62510,62524,62538,62552,62566,62580,62594,62608,62622,62636,62650,62664,62678,62691,62705,62719,62734,62748,62761,62775,62788,62802,62816,62830,62845,62859,62872,62886,62900,62914,62928,62941,62956,62970,62983,62997,63011,63025,63039,63053,63067,63081,63095,63108,63122,63136,63150,63164,63177,63191,63206,63220,63233,63247,63261,63275,63289,63302,63317,63330,63344,63358,63372,63386,63400,63414,63427,63441,63455,63469,63483,63497,63511,63525,63539,63553,63567,63581,63594,63609,63623,63636,63650,63663,63677,63691,63705,63719,63733,63746,63761,63774,63788,63803,63816,63830,63844,63858,63872,63886,63901,63914,63928,63942,63955,63969,63983,63997,64011,64025,64039,64052,64066,64081,64095,64109,64122,64136,64150,64164,64178,64192,64206,64219,64234,64247,64261,64275,64289,64303,64316,64330,64344,64358,64372,64386,64399,64415,64427,64442,64456,64469,64483,64497,64511,64525,64539,64552,64566,64580,64594,64608,64622,64635,64650,64663,64677,64691,64706,64720,64734,64748,64761,64775,64790,64803,64817,64831,64845,64858,64872,64885,64899,64913,64927,64941,64955,64969,64983,64997,65011,65024,65039,65053,65067,65081,65094,65109,65123,65136,65150,65164,65178,65192,65206,65220,65233,65247,65261,65275,65288,65302,65316,65330,65344,65358,65371,65386,65399,65413,65427,65441,65455,65469,65483,65497,65511,65524,65538,65552,65566,65580,65594,65608,65622,65636,65649,65663,65677,65692,65706,65719,65733,65747,65761,65774,65788,65802,65816,65830,65844,65858,65872,65886,65900,65914,65928,65942,65956,65969,65983,65997,66011,66025,66039,66053,66067,66081,66094,66108,66122,66136,66151,66163,66178,66192,66206,66219,66233,66248,66261,66274,66288,66302,66316,66330,66344,66358,66372,66386,66400,66413,66428,66441,66455,66469,66483,66497,66511,66525,66539,66553,66567,66580,66594,66608,66622,66636,66650,66664,66678,66692,66705,66719,66733,66747,66761,66775,66789,66803,66817,66830,66844,66858,66872,66886,66901,66914,66928,66942,66956,66970,66983,66997,67012,67025,67039,67053,67068,67081,67094,67108,67122,67136,67150,67164,67178,67192,67205,67219,67234,67247,67261,67275,67289,67303,67317,67331,67345,67358,67372,67386,67400,67414,67428,67441,67455,67469,67484,67497,67511,67525,67539,67553,67567,67581,67595,67609,67622,67635,67649,67663,67678,67692,67706,67719,67733,67747,67762,67775,67789,67803,67817,67831,67845,67858,67872,67887,67900,67914,67928,67942,67956,67970,67984,67997,68011,68025,68040,68053,68067,68081,68095,68109,68123,68137,68150,68164,68178,68192,68206,68220,68234,68247,68261,68275,68289,68303,68316,68330,68344,68358,68372,68386,68400,68414,68428,68441,68455,68469,68484,68498,68512,68525,68538,68552,68566,68581,68595,68609,68622,68636,68649,68663,68677,68691,68705,68719,68734,68747,68761,68775,68789,68803,68817,68831,68847,68858,68872,68886,68900,68914,68928,68942,68956,68970,68984,68997,69011,69025,69039,69053,69067,69081,69094,69109,69122,69136,69150,69164,69178,69192,69205,69220,69233,69247,69261,69275,69288,69302,69316,69330,69344,69358,69372,69386,69400,69414,69427,69441,69455,69469,69483,69497,69511,69525,69539,69552,69566,69580,69594,69608,69622,69636,69650,69663,69677,69692,69706,69719,69733,69746,69760,69774,69788,69803,69817,69830,69845,69858,69872,69886,69900,69914,69927,69941,69955,69969,69984,69997,70011,70025,70039,70053,70067,70081,70094,70108,70123,70136,70150,70164,70178,70192,70206,70219,70233,70247,70261,70275,70289,70303,70317,70331,70345,70358,70373,70386,70400,70414,70428,70442,70456,70469,70482,70497,70511,70524,70539,70553,70567,70581,70595,70609,70622,70636,70650,70663,70677,70691,70705,70719,70733,70747,70761,70774,70788,70802,70816,70830,70844,70858,70872,70885,70900,70914,70928,70942,70956,70969,70984,70998,71011,71025,71039,71053,71067,71081,71095,71109,71123,71137,71150,71164,71178,71192,71205,71220,71233,71248,71262,71275,71289,71303,71317,71330,71344,71358,71372,71386,71399,71413,71427,71441,71455,71469,71483,71497,71511,71525,71539,71553,71566,71580,71594,71608,71622,71636,71650,71664,71678,71692,71706,71719,71733,71747,71761,71776,71788,71803,71817,71831,71844,71858,71872,71885,71899,71913,71928,71942,71956,71970,71984,71997,72011,72026,72039,72053,72067,72081,72095,72109,72122,72136,72150,72163,72177,72191,72205,72219,72233,72247,72261,72275,72289,72303,72316,72331,72344,72358,72372,72385,72399,72414,72428,72443,72456,72470,72484,72497,72511,72525,72539,72553,72567,72580,72594,72608,72622,72636,72651,72663,72677,72692,72706,72720,72734,72746,72761,72775,72788,72803,72817,72831,72845,72859,72872,72885,72899,72913,72927,72941,72955,72970,72983,72997,73011,73025,73039,73053,73067,73081,73095,73109,73122,73136,73150,73164,73178,73192,73206,73220,73233,73247,73262,73276,73290,73303,73316,73331,73345,73358,73372,73387,73400,73413,73427,73441,73455,73469,73483,73497,73511,73525,73539,73552,73566,73580,73594,73608,73622,73636,73650,73664,73677,73691,73705,73719,73733,73747,73761,73774,73788,73803,73817,73831,73844,73858,73872,73886,73900,73913,73928,73942,73955,73969,73982,73996,74010,74024,74038,74053,74067,74081,74095,74108,74123,74136,74149,74163,74178,74192,74206,74219,74235,74248,74261,74275,74289,74303,74317,74331,74345,74359,74373,74386,74399,74414,74427,74442,74455,74469,74483,74497,74511,74524,74538,74552,74566,74580,74594,74608,74622,74635,74649,74664,74678,74692,74705,74719,74733,74747,74761,74775,74788,74802,74817,74831,74845,74858,74872,74886,74900,74914,74928,74942,74955,74969,74983,74996,75010,75024,75038,75052,75066,75081,75095,75109,75123,75136,75150,75164,75178,75192,75206,75219,75233,75247,75260,75274,75288,75302,75316,75330,75344,75358,75372,75386,75400,75414,75428,75442,75456,75469,75482,75497,75511,75525,75539,75552,75566,75581,75594,75608,75622,75636,75650,75664,75678,75692,75706,75720,75733,75747,75761,75775,75789,75802,75816,75830,75844,75858,75873,75886,75901,75913,75927,75942,75955,75970,75983,75997,76011,76025,76038,76052,76066,76080,76094,76108,76122,76136,76149,76163,76178,76192,76206,76220,76234,76247,76261,76274,76288,76303,76316,76330,76344,76358,76372,76386,76400,76414,76427,76441,76456,76469,76483,76497,76510,76525,76538,76552,76566,76580,76594,76608,76621,76635,76649,76663,76678,76691,76705,76719,76733,76747,76760,76774,76788,76802,76816,76830,76844,76858,76872,76886,76900,76914,76928,76942,76956,76970,76984,76997,77011,77024,77039,77053,77067,77081,77095,77108,77121,77135,77149,77163,77178,77191,77206,77220,77234,77248,77261,77275,77289,77303,77317,77331,77344,77358,77372,77386,77400,77414,77428,77442,77456,77470,77484,77497,77510,77525,77538,77552,77567,77580,77594,77608,77622,77635,77649,77663,77677,77692,77706,77719,77733,77747,77761,77775,77789,77803,77817,77831,77845,77858,77872,77886,77899,77913,77927,77941,77955,77969,77983,77997,78011,78025,78039,78052,78066,78080,78094,78109,78123,78136,78149,78163,78177,78191,78205,78219,78233,78247,78261,78275,78289,78303,78317,78330,78345,78358,78372,78386,78400,78414,78428,78442,78456,78470,78483,78497,78511,78525,78539,78553,78567,78580,78594,78608,78621,78635,78649,78663,78677,78691,78705,78719,78733,78747,78761,78774,78788,78803,78816,78830,78845,78858,78871,78886,78900,78914,78928,78942,78956,78969,78983,78997,79010,79024,79039,79053,79067,79081,79095,79108,79122,79135,79150,79164,79178,79191,79205,79219,79233,79247,79261,79275,79289,79303,79316,79330,79344,79358,79372,79386,79400,79414,79427,79442,79456,79469,79483,79497,79511,79524,79538,79552,79567,79581,79595,79608,79622,79636,79650,79664,79677,79691,79705,79719,79733,79747,79761,79775,79789,79803,79817,79831,79844,79858,79872,79886,79899,79913,79927,79941,79956,79969,79983,79997,80011,80025,80038,80052,80066,80081,80095,80109,80122,80136,80150,80164,80178,80191,80205,80219,80232,80247,80260,80274,80288,80302,80316,80331,80345,80359,80373,80386,80399,80413,80427,80441,80455,80470,80484,80497,80511,80525,80539,80552,80566,80580,80594,80609,80621,80635,80649,80663,80677,80691,80705,80719,80733,80747,80761,80775,80789,80803,80816,80830,80844,80858,80872,80886,80899,80914,80928,80941,80955,80970,80983,80996,81010,81025,81039,81053,81067,81081,81095,81109,81123,81136,81150,81163,81178,81192,81206,81219,81234,81248,81262,81274,81288,81302,81316,81330,81344,81359,81372,81386,81400,81413,81427,81441,81456,81470,81483,81497,81511,81525,81539,81553,81566,81580,81595,81608,81623,81636,81649,81663,81677,81691,81705,81720,81733,81747,81760,81774,81789,81803,81817,81831,81844,81858,81871,81886,81900,81914,81928,81942,81955,81969,81984,81997,82011,82024,82038,82052,82067,82081,82094,82108,82121,82135,82149,82163,82178,82191,82205,82219,82232,82247,82261,82275,82289,82303,82317,82331,82344,82358,82371,82385,82399,82414,82428,82442,82456,82470,82484,82497,82511,82525,82538,82552,82566,82580,82594,82607,82621,82635,82649,82663,82677,82691,82705,82719,82733,82748,82761,82775,82789,82803,82817,82831,82845,82858,82873,82886,82900,82914,82928,82942,82955,82969,82983,82997,83011,83024,83038,83052,83066,83081,83094,83108,83122,83136,83150,83164,83178,83192,83207,83219,83233,83247,83261,83275,83288,83303,83317,83331,83344,83358,83372,83386,83399,83413,83427,83441,83455,83469,83483,83496,83510,83524,83538,83552,83566,83580,83594,83608,83622,83636,83649,83663,83677,83691,83705,83719,83733,83747,83760,83774,83788,83802,83816,83830,83844,83858,83871,83886,83900,83914,83928,83941,83955,83969,83983,83996,84010,84024,84038,84052,84066,84080,84094,84108,84122,84136,84149,84164,84177,84191,84206,84219,84233,84247,84260,84275,84289,84302,84316,84331,84345,84359,84372,84386,84399,84414,84427,84442,84455,84468,84482,84496,84510,84524,84539,84553,84567,84580,84594,84607,84621,84635,84650,84664,84678,84691,84705,84719,84733,84747,84761,84774,84789,84802,84816,84831,84844,84858,84871,84885,84900,84913,84927,84941,84955,84969,84983,84997,85010,85024,85038,85052,85066,85080,85094,85108,85121,85135,85149,85163,85177,85191,85205,85219,85233,85246,85260,85274,85288,85302,85316,85330,85344,85357,85372,85386,85400,85413,85427,85441,85455,85469,85483,85497,85511,85524,85538,85552,85566,85580,85594,85608,85622,85636,85650,85664,85677,85691,85705,85719,85733,85747,85761,85775,85789,85803,85817,85830,85844,85858,85872,85886,85900,85913,85927,85942,85955,85969,85983,85997,86011,86025,86039,86053,86067,86080,86094,86109,86122,86136,86150,86164,86178,86192,86205,86220,86233,86247,86261,86275,86289,86303,86316,86330,86344,86358,86372,86386,86400,86414,86427,86441,86455,86469,86483,86497,86511,86525,86539,86553,86566,86580,86593,86607,86622,86636,86650,86664,86678,86691,86705,86720,86732,86747,86761,86775,86789,86803,86817,86830,86844,86859,86872,86886,86899,86913,86928,86942,86955,86970,86983,86997,87011,87025,87039,87053,87067,87081,87095,87108,87122,87135,87149,87163,87178,87192,87206,87219,87233,87247,87261,87275,87289,87303,87317,87330,87344,87358,87372,87386,87400,87414,87428,87442,87455,87469,87483,87497,87510,87524,87538,87552,87566,87580,87594,87607,87621,87635,87649,87663,87677,87691,87705,87719,87733,87746,87760,87774,87788,87802,87816,87830,87844,87858,87872,87885,87900,87914,87928,87941,87955,87970,87983,87996,88011,88025,88039,88053,88067,88081,88095,88109,88121,88136,88149,88164,88178,88192,88205,88219,88233,88247,88261,88275,88288,88302,88316,88331,88344,88358,88373,88387,88399,88413,88427,88441,88456,88470,88483,88497,88511,88525,88539,88553,88567,88581,88594,88608,88623,88639,88656,88670,88684,88698,88712,88726,88740,88754,88768,88782,88795,88809,88824,88838,88852,88866,88879,88893,88906,88920,88934,88949,88963,88977,88990,89004,89018,89031,89046,89060,89074,89087,89102,89116,89129,89143,89157,89171,89185,89199,89213,89226,89240,89254,89268,89281,89296,89310,89324,89338,89351,89366,89379,89392,89406,89421,89434,89449,89463,89477,89490,89503,89517,89531,89546,89560,89574,89588,89602,89615,89629,89643,89657,89671,89685,89700,89711,89725,89739,89754,89768,89782,89796,89810,89823,89838,89851,89865,89879,89893,89907,89920,89935,89948,89963,89977,89991,90004,90018,90032,90046,90060,90073,90087,90101,90115,90129,90143,90157,90171,90185,90199,90213,90227,90240,90254,90268,90282,90296,90310,90324,90337,90352,90365,90379,90393,90407,90421,90435,90449,90462,90476,90490,90504,90518,90532,90546,90560,90573,90587,90601,90615,90629,90642,90656,90670,90684,90698,90712,90725,90739,90753,90767,90781,90795,90809,90824,90837,90851,90865,90879,90893,90906,90920,90934,90948,90962,90976,90990,91004,91018,91031,91045,91060,91074,91088,91102,91115,91129,91143,91157,91173,91192,91205,91220,91233,91247,91261,91275,91289,91303,91316,91330,91345,91359,91372,91386,91400,91414,91428,91442,91455,91468,91483,91497,91510,91525,91539,91553,91567,91581,91594,91608,91622,91636,91650,91664,91678,91692,91705,91720,91733,91747,91761,91775,91789,91802,91816,91830,91843,91858,91872,91886,91900,91913,91927,91941,91955,91970,91984,91997,92011,92024,92038,92052,92066,92081,92095,92108,92122,92136,92151,92163,92178,92191,92206,92220,92234,92246,92261,92275,92289,92302,92316,92330,92344,92358,92372,92385,92399,92414,92427,92442,92456,92470,92483,92497,92510,92524,92538,92552,92567,92581,92594,92608,92622,92636,92650,92664,92678,92691,92705,92719,92733,92747,92760,92774,92789,92803,92818,92830,92844,92857,92871,92885,92899,92913,92927,92942,92955,92969,92985,92998,93011,93025,93039,93052,93066,93080,93094,93108,93122,93136,93150,93164,93178,93192,93205,93220,93234,93248,93261,93275,93289,93302,93316,93331,93345,93358,93372,93386,93400,93414,93428,93442,93457,93469,93483,93497,93511,93525,93539,93553,93567,93580,93595,93609,93622,93636,93650,93664,93678,93692,93706,93719,93733,93747,93761,93775,93789,93803,93816,93830,93844,93858,93871,93885,93899,93913,93927,93941,93955,93969,93983,93998,94013,94025,94039,94053,94066,94080,94094,94108,94122,94136,94150,94164,94178,94192,94206,94220,94233,94247,94261,94275,94289,94302,94317,94331,94344,94357,94372,94386,94400,94414,94428,94442,94456,94470,94484,94497,94511,94524,94538,94552,94566,94581,94594,94608,94623,94636,94650,94664,94678,94692,94705,94719,94734,94747,94761,94774,94789,94802,94816,94830,94844,94858,94872,94886,94899,94913,94927,94941,94955,94968,94982,94996,95010,95024,95039,95052,95067,95080,95094,95108,95121,95136,95150,95163,95177,95191,95205,95219,95233,95247,95261,95274,95288,95303,95316,95330,95344,95358,95372,95386,95400,95414,95427,95441,95456],"hit":[null],"x":[-1.6870748299319729,-1.6870748299319729,-1.6870748299319729,-1.6870748299319729,-1.6870748299319729,-1.6870748299319729,-1.6870748299319729,-1.6870748299319729,-1.6870748299319729,-1.6870748299319729,-1.6870748299319729,-1.6870748299319729,-1.6870748299319729,-1.6870748299319729,-1.6870748299319729,-1.6870748299319729,-1.6870748299319729,-1.6870748299319729,-1.6870748299319729,-1.6870748299319729,-1.6904761904761905,-1.6938775510204083,-1.6938775510204083,-1.6938775510204083,-1.6938775510204083,-1.6938775510204083,-1.6938775510204083,-1.6938775510204083,-1.6904761904761905,-1.6904761904761905,-1.6870748299319729,-1.6802721088435375,-1.6666666666666667,-1.6598639455782314,-1.6258503401360545,-1.58843537414966,-1.530612244897959,-1.5034013605442176,-1.4489795918367347,-1.3877551020408163,-1.3231292517006803,-1.2925170068027212,-1.227891156462585,-1.1564625850340136,-1.0918367346938775,-1.0612244897959184,-0.9965986394557823,-0.9387755102040817,-0.9149659863945578,-0.8673469387755102,-0.8197278911564626,-0.7721088435374149,-0.7380952380952381,-0.6802721088435374,-0.6224489795918368,-0.5578231292517006,-0.5306122448979592,-0.47619047619047616,-0.43197278911564624,-0.391156462585034,-0.3707482993197279,-0.3299319727891156,-0.30272108843537415,-0.2687074829931973,-0.2585034013605442,-0.23469387755102042,-0.2108843537414966,-0.20068027210884354,-0.17006802721088435,-0.1292517006802721,-0.09183673469387756,-0.07142857142857142,-0.034013605442176874,-0.003401360544217687,0.02040816326530612,0.030612244897959183,0.05442176870748299,0.07142857142857142,0.08843537414965986,0.09183673469387756,0.09523809523809523,0.09523809523809523,0.09523809523809523,0.09523809523809523,0.09863945578231292,0.09863945578231292,0.10204081632653061,0.10884353741496598,0.11224489795918367,0.11904761904761904,0.12244897959183673,0.12244897959183673,0.12244897959183673,0.13945578231292516,0.14965986394557823,0.16666666666666666,0.18027210884353742,0.19727891156462585,0.20068027210884354,0.20748299319727892,0.2108843537414966,0.2108843537414966,0.2108843537414966,0.2108843537414966,0.2108843537414966,0.2108843537414966,0.2108843537414966,0.2108843537414966,0.2108843537414966,0.2108843537414966,0.2108843537414966,0.2108843537414966,0.2108843537414966,0.21428571428571427,0.21428571428571427,0.21428571428571427,0.21428571428571427,0.21428571428571427,0.21428571428571427,0.21428571428571427,0.21428571428571427,0.21428571428571427,0.20748299319727892,0.19387755102040816,0.18027210884353742,0.14965986394557823,0.12244897959183673,0.08163265306122448,0.05442176870748299,0.01020408163265306,-0.04081632653061224,-0.061224489795918366,-0.061224489795918366,-0.06462585034013606,-0.06462585034013606,-0.06462585034013606,-0.06462585034013606,-0.06462585034013606,-0.06462585034013606,-0.06462585034013606,-0.06462585034013606,-0.06462585034013606,-0.06462585034013606,-0.047619047619047616,-0.003401360544217687,0.034013605442176874,0.07482993197278912,0.10204081632653061,0.14625850340136054,0.17687074829931973,0.20068027210884354,0.2108843537414966,0.21768707482993196,0.21428571428571427,0.2108843537414966,0.20748299319727892,0.20068027210884354,0.19387755102040816,0.19047619047619047,0.17687074829931973,0.1598639455782313,0.14625850340136054,0.13945578231292516,0.12585034013605442,0.11904761904761904,0.11904761904761904,0.11904761904761904,0.11904761904761904,0.11904761904761904,0.11904761904761904,0.11904761904761904,0.11904761904761904,0.11904761904761904,0.11904761904761904,0.11904761904761904,0.11904761904761904,0.1292517006802721,0.14285714285714285,0.1836734693877551,0.22448979591836735,0.2755102040816326,0.29591836734693877,0.3469387755102041,0.3877551020408163,0.4217687074829932,0.42857142857142855,0.4387755102040816,0.445578231292517,0.4557823129251701,0.4557823129251701,0.46598639455782315,0.46598639455782315,0.46598639455782315,0.46598639455782315,0.46598639455782315,0.46598639455782315,0.46598639455782315,0.46598639455782315,0.46938775510204084,0.47278911564625853,0.47959183673469385,0.48299319727891155,0.4897959183673469,0.4931972789115646,0.4965986394557823,0.5102040816326531,0.5272108843537415,0.5510204081632653,0.5578231292517006,0.5714285714285714,0.5850340136054422,0.5850340136054422,0.5850340136054422,0.5850340136054422,0.5850340136054422,0.5850340136054422,0.5850340136054422,0.5884353741496599,0.5884353741496599,0.5884353741496599,0.5884353741496599,0.5918367346938775,0.5952380952380952,0.6020408163265306,0.6156462585034014,0.6360544217687075,0.6564625850340136,0.7074829931972789,0.7653061224489796,0.8129251700680272,0.8333333333333334,0.8571428571428571,0.8673469387755102,0.8741496598639455,0.8741496598639455,0.8741496598639455,0.8741496598639455,0.8741496598639455,0.8741496598639455,0.8775510204081632,0.8775510204081632,0.8843537414965986,0.891156462585034,0.9115646258503401,0.9319727891156463,0.9591836734693877,0.9625850340136054,0.9761904761904762,0.9829931972789115,0.9829931972789115,0.9829931972789115,0.9829931972789115,0.9863945578231292,0.9863945578231292,0.9761904761904762,0.9523809523809523,0.9217687074829932,0.9013605442176871,0.8503401360544217,0.8163265306122449,0.7857142857142857,0.7721088435374149,0.7482993197278912,0.7278911564625851,0.717687074829932,0.7006802721088435,0.6904761904761905,0.6870748299319728,0.6870748299319728,0.6836734693877551,0.6836734693877551,0.6700680272108843,0.6598639455782312,0.6224489795918368,0.5952380952380952,0.5714285714285714,0.5612244897959183,0.5340136054421769,0.5136054421768708,0.4931972789115646,0.4897959183673469,0.47619047619047616,0.47619047619047616,0.47619047619047616,0.47619047619047616,0.47619047619047616,0.47959183673469385,0.48639455782312924,0.4965986394557823,0.5034013605442177,0.5136054421768708,0.5136054421768708,0.5272108843537415,0.5374149659863946,0.5544217687074829,0.5714285714285714,0.6122448979591837,0.6632653061224489,0.717687074829932,0.7482993197278912,0.8061224489795918,0.8571428571428571,0.8809523809523809,0.9149659863945578,0.935374149659864,0.935374149659864,0.935374149659864,0.935374149659864,0.935374149659864,0.935374149659864,0.935374149659864,0.935374149659864,0.935374149659864,0.935374149659864,0.935374149659864,0.935374149659864,0.935374149659864,0.935374149659864,0.935374149659864,0.935374149659864,0.935374149659864,0.935374149659864,0.935374149659864,0.935374149659864,0.935374149659864,0.935374149659864,0.935374149659864,0.935374149659864,0.935374149659864,0.935374149659864,0.935374149659864,0.935374149659864,0.935374149659864,0.935374149659864,0.935374149659864,0.935374149659864,0.935374149659864,0.935374149659864,0.935374149659864,0.935374149659864,0.935374149659864,0.935374149659864,0.935374149659864,0.935374149659864,0.935374149659864,0.935374149659864,0.935374149659864,0.935374149659864,0.935374149659864,0.935374149659864,0.935374149659864,0.935374149659864,0.935374149659864,0.935374149659864,0.935374149659864,0.935374149659864,0.935374149659864,0.935374149659864,0.935374149659864,0.935374149659864,0.935374149659864,0.935374149659864,0.935374149659864,0.935374149659864,0.935374149659864,0.935374149659864,0.935374149659864,0.935374149659864,0.935374149659864,0.935374149659864,0.935374149659864,0.935374149659864,0.935374149659864,0.935374149659864,0.935374149659864,0.935374149659864,0.935374149659864,0.935374149659864,0.935374149659864,0.935374149659864,0.935374149659864,0.935374149659864,0.935374149659864,0.935374149659864,0.935374149659864,0.935374149659864,0.935374149659864,0.935374149659864,0.935374149659864,0.935374149659864,0.935374149659864,0.935374149659864,0.935374149659864,0.935374149659864,0.935374149659864,0.935374149659864,0.935374149659864,0.935374149659864,0.935374149659864,0.935374149659864,0.935374149659864,0.935374149659864,0.935374149659864,0.935374149659864,0.935374149659864,0.935374149659864,0.935374149659864,0.935374149659864,0.935374149659864,0.935374149659864,0.935374149659864,0.935374149659864,0.935374149659864,0.935374149659864,0.935374149659864,0.935374149659864,0.935374149659864,0.935374149659864,0.935374149659864,0.935374149659864,0.935374149659864,0.935374149659864,0.935374149659864,0.935374149659864,0.935374149659864,0.935374149659864,0.935374149659864,0.935374149659864,0.935374149659864,0.935374149659864,0.935374149659864,0.935374149659864,0.935374149659864,0.935374149659864,0.7959183673469388,0.7959183673469388,0.7959183673469388,0.7959183673469388,0.7993197278911565,0.7993197278911565,0.8027210884353742,0.8061224489795918,0.8061224489795918,0.8061224489795918,0.8061224489795918,0.8061224489795918,0.8061224489795918,0.8061224489795918,0.8061224489795918,0.8061224489795918,0.8061224489795918,0.8061224489795918,0.8061224489795918,0.8061224489795918,0.8061224489795918,0.8061224489795918,0.8061224489795918,0.8061224489795918,0.8061224489795918,0.8061224489795918,0.8061224489795918,0.8061224489795918,0.8061224489795918,0.8061224489795918,0.8061224489795918,0.8061224489795918,0.8061224489795918,0.8061224489795918,0.8061224489795918,0.8061224489795918,0.8061224489795918,0.8061224489795918,0.8061224489795918,0.8061224489795918,0.8061224489795918,0.8061224489795918,0.8061224489795918,0.8061224489795918,0.8061224489795918,0.8061224489795918,0.8061224489795918,0.8061224489795918,0.8061224489795918,0.8061224489795918,0.8061224489795918,0.8061224489795918,0.8061224489795918,0.8061224489795918,0.8061224489795918,0.8061224489795918,0.8061224489795918,0.8061224489795918,0.8061224489795918,0.8061224489795918,0.8061224489795918,0.8061224489795918,0.8061224489795918,0.8061224489795918,0.8061224489795918,0.8061224489795918,0.8061224489795918,0.8061224489795918,0.8061224489795918,0.8061224489795918,0.8061224489795918,0.8061224489795918,0.8061224489795918,0.8061224489795918,0.8061224489795918,0.8061224489795918,0.8061224489795918,0.8061224489795918,0.8061224489795918,0.8061224489795918,0.8061224489795918,0.8061224489795918,0.8061224489795918,0.8061224489795918,0.8061224489795918,0.8061224489795918,0.8061224489795918,0.8061224489795918,0.8061224489795918,0.8061224489795918,0.8061224489795918,0.8061224489795918,0.8061224489795918,0.8061224489795918,0.8061224489795918,0.8061224489795918,0.8061224489795918,0.8061224489795918,0.8061224489795918,0.8061224489795918,0.8061224489795918,0.8061224489795918,0.8061224489795918,0.8061224489795918,0.8061224489795918,0.8061224489795918,0.8061224489795918,0.8061224489795918,0.8061224489795918,0.8061224489795918,0.8061224489795918,0.8061224489795918,0.8061224489795918,0.8061224489795918,0.8061224489795918,0.8061224489795918,0.8061224489795918,0.8061224489795918,0.8061224489795918,0.8061224489795918,0.8061224489795918,0.8061224489795918,0.8061224489795918,0.8061224489795918,0.8061224489795918,0.8061224489795918,0.8061224489795918,0.8061224489795918,0.8061224489795918,0.8061224489795918,0.8061224489795918,0.8061224489795918,0.8061224489795918,0.8061224489795918,0.8061224489795918,0.8061224489795918,0.8061224489795918,0.8061224489795918,0.8061224489795918,0.8061224489795918,0.8061224489795918,0.8061224489795918,0.8061224489795918,0.8061224489795918,0.8061224489795918,0.8061224489795918,0.8061224489795918,0.8061224489795918,0.8061224489795918,0.8061224489795918,0.8061224489795918,0.8061224489795918,0.8061224489795918,0.8061224489795918,0.8061224489795918,0.8061224489795918,0.8061224489795918,0.8061224489795918,0.8061224489795918,0.8061224489795918,0.8061224489795918,0.8061224489795918,0.8061224489795918,0.8061224489795918,0.8061224489795918,0.8061224489795918,0.8061224489795918,0.8061224489795918,0.8061224489795918,0.8061224489795918,0.8061224489795918,0.8061224489795918,0.8061224489795918,0.8061224489795918,0.8061224489795918,0.8061224489795918,0.8061224489795918,0.8061224489795918,0.8061224489795918,0.8061224489795918,0.8061224489795918,0.8061224489795918,0.8061224489795918,0.8061224489795918,0.8061224489795918,0.8061224489795918,0.8061224489795918,0.8061224489795918,0.8061224489795918,0.8061224489795918,0.8061224489795918,0.8061224489795918,0.8061224489795918,0.8061224489795918,0.8061224489795918,0.8061224489795918,0.8061224489795918,0.8061224489795918,0.8061224489795918,0.8061224489795918,0.8061224489795918,0.8061224489795918,0.8061224489795918,0.8061224489795918,0.8061224489795918,0.8061224489795918,0.8061224489795918,0.8061224489795918,0.8061224489795918,0.8061224489795918,0.8061224489795918,0.8061224489795918,0.8061224489795918,0.8061224489795918,0.8061224489795918,0.8061224489795918,0.8061224489795918,0.8061224489795918,0.8061224489795918,0.8061224489795918,0.8061224489795918,0.8061224489795918,0.8061224489795918,0.8061224489795918,0.8061224489795918,0.8061224489795918,0.8061224489795918,0.8061224489795918,0.8061224489795918,0.8061224489795918,0.8061224489795918,0.8061224489795918,0.8061224489795918,0.8061224489795918,0.8061224489795918,0.8061224489795918,0.8061224489795918,0.8061224489795918,0.8061224489795918,0.8061224489795918,0.8061224489795918,0.8061224489795918,0.8061224489795918,0.8061224489795918,0.8061224489795918,0.8061224489795918,0.8061224489795918,0.8061224489795918,0.8061224489795918,0.8061224489795918,0.8061224489795918,0.8061224489795918,0.8061224489795918,0.8061224489795918,0.8061224489795918,0.8061224489795918,0.8061224489795918,0.8061224489795918,0.8061224489795918,0.8061224489795918,0.8061224489795918,0.8061224489795918,0.8061224489795918,0.8061224489795918,0.8061224489795918,0.8061224489795918,0.8061224489795918,0.8061224489795918,0.8061224489795918,0.8061224489795918,0.8061224489795918,0.8061224489795918,0.8061224489795918,0.8061224489795918,0.8061224489795918,0.8061224489795918,0.8061224489795918,0.8061224489795918,0.8061224489795918,0.8061224489795918,0.8061224489795918,0.8061224489795918,0.8061224489795918,0.8061224489795918,0.8061224489795918,0.8061224489795918,0.8061224489795918,0.8061224489795918,0.8061224489795918,0.8061224489795918,0.8061224489795918,0.8061224489795918,0.8061224489795918,0.8061224489795918,0.8061224489795918,0.8061224489795918,0.8061224489795918,0.8061224489795918,0.8061224489795918,0.8061224489795918,0.8061224489795918,0.8061224489795918,0.8061224489795918,0.8061224489795918,0.8061224489795918,0.8061224489795918,0.8061224489795918,0.8061224489795918,0.8061224489795918,0.8061224489795918,0.8061224489795918,0.8061224489795918,0.8061224489795918,0.8061224489795918,0.8061224489795918,0.8061224489795918,0.8061224489795918,0.8061224489795918,0.8061224489795918,0.8061224489795918,0.8061224489795918,0.8061224489795918,0.8061224489795918,0.8061224489795918,0.8061224489795918,0.8061224489795918,0.8061224489795918,0.8061224489795918,0.8061224489795918,0.8061224489795918,0.8061224489795918,0.8061224489795918,0.8061224489795918,0.8061224489795918,0.8061224489795918,0.8061224489795918,0.8061224489795918,0.8061224489795918,0.8061224489795918,0.8061224489795918,0.8061224489795918,0.8061224489795918,0.8061224489795918,0.8061224489795918,0.8061224489795918,0.8061224489795918,0.8061224489795918,0.8061224489795918,0.8061224489795918,0.8061224489795918,0.8061224489795918,0.8061224489795918,0.8061224489795918,0.8061224489795918,0.8061224489795918,0.8061224489795918,0.8061224489795918,0.8061224489795918,0.8061224489795918,0.8061224489795918,0.8061224489795918,0.8061224489795918,0.8061224489795918,0.8061224489795918,0.8061224489795918,0.8061224489795918,0.8061224489795918,0.8061224489795918,0.8061224489795918,0.8061224489795918,0.8061224489795918,0.8061224489795918,0.8061224489795918,0.8061224489795918,0.8061224489795918,0.8061224489795918,0.8061224489795918,0.8061224489795918,0.8061224489795918,0.8061224489795918,0.8061224489795918,0.8061224489795918,0.8061224489795918,0.8061224489795918,0.8061224489795918,0.8061224489795918,0.8061224489795918,0.8061224489795918,0.8061224489795918,0.8061224489795918,0.8061224489795918,0.8061224489795918,0.8061224489795918,0.8061224489795918,0.8061224489795918,0.8061224489795918,0.8061224489795918,0.8061224489795918,0.8061224489795918,0.8061224489795918,0.8061224489795918,0.8061224489795918,0.8061224489795918,0.8061224489795918,0.8061224489795918,0.8061224489795918,0.8061224489795918,0.8061224489795918,0.8061224489795918,0.8061224489795918,0.8061224489795918,0.8061224489795918,0.8061224489795918,0.8061224489795918,0.8061224489795918,0.8061224489795918,0.8061224489795918,0.8061224489795918,0.8061224489795918,0.8061224489795918,0.8061224489795918,0.8061224489795918,0.8061224489795918,0.8061224489795918,0.8061224489795918,0.8061224489795918,0.8061224489795918,0.8061224489795918,0.8061224489795918,0.8061224489795918,0.8061224489795918,0.8061224489795918,0.8061224489795918,0.8061224489795918,0.8061224489795918,0.8061224489795918,0.8061224489795918,0.8061224489795918,0.8061224489795918,0.8061224489795918,0.8061224489795918,0.8061224489795918,0.8061224489795918,0.8061224489795918,0.8061224489795918,0.8061224489795918,0.8061224489795918,0.8061224489795918,0.8061224489795918,0.8061224489795918,0.8061224489795918,0.8061224489795918,0.8061224489795918,0.8061224489795918,0.8061224489795918,0.8061224489795918,0.8061224489795918,0.8061224489795918,0.8061224489795918,0.8061224489795918,0.8061224489795918,0.8061224489795918,0.8061224489795918,0.8061224489795918,0.8061224489795918,0.8061224489795918,0.8061224489795918,0.8061224489795918,0.8061224489795918,0.8061224489795918,0.8061224489795918,0.8061224489795918,0.8061224489795918,0.8061224489795918,0.8061224489795918,0.8061224489795918,0.8061224489795918,0.8061224489795918,0.8061224489795918,0.8061224489795918,0.8061224489795918,0.8061224489795918,0.8061224489795918,0.8061224489795918,0.8061224489795918,0.8061224489795918,0.8061224489795918,0.8061224489795918,0.8061224489795918,0.8061224489795918,0.8061224489795918,0.8061224489795918,0.8061224489795918,0.8061224489795918,0.8061224489795918,0.8061224489795918,0.8061224489795918,0.8061224489795918,0.8061224489795918,0.8061224489795918,0.8061224489795918,0.8061224489795918,0.8061224489795918,0.8061224489795918,0.8061224489795918,0.8061224489795918,0.8061224489795918,0.8061224489795918,0.8061224489795918,0.8061224489795918,0.8061224489795918,0.8061224489795918,0.8061224489795918,0.8061224489795918,0.8061224489795918,0.8061224489795918,0.8061224489795918,0.8061224489795918,0.8061224489795918,0.8061224489795918,0.8061224489795918,0.8061224489795918,0.8061224489795918,0.8061224489795918,0.8061224489795918,0.8061224489795918,0.8061224489795918,0.8061224489795918,0.8061224489795918,0.8061224489795918,0.8061224489795918,0.8061224489795918,0.8061224489795918,0.8061224489795918,0.8061224489795918,0.8061224489795918,0.8061224489795918,0.8061224489795918,0.8061224489795918,0.8061224489795918,0.8061224489795918,0.8061224489795918,0.8061224489795918,0.8061224489795918,0.8061224489795918,0.8061224489795918,0.8061224489795918,0.8061224489795918,0.8061224489795918,0.8061224489795918,0.8061224489795918,0.8061224489795918,0.8061224489795918,0.8061224489795918,0.8061224489795918,0.8061224489795918,0.8061224489795918,0.8061224489795918,0.8061224489795918,0.8061224489795918,0.8061224489795918,0.8061224489795918,0.8061224489795918,0.8061224489795918,0.8061224489795918,0.8061224489795918,0.8061224489795918,0.8061224489795918,0.8061224489795918,0.8061224489795918,0.8061224489795918,0.8061224489795918,0.8061224489795918,0.8061224489795918,0.8061224489795918,0.8061224489795918,0.8061224489795918,0.8061224489795918,0.8061224489795918,0.8061224489795918,0.8061224489795918,0.8061224489795918,0.8061224489795918,0.8061224489795918,0.8061224489795918,0.8061224489795918,0.8061224489795918,0.8061224489795918,0.8061224489795918,0.8061224489795918,0.8061224489795918,0.8061224489795918,0.8061224489795918,0.8061224489795918,0.8061224489795918,0.8061224489795918,0.8061224489795918,0.8061224489795918,0.8061224489795918,0.8061224489795918,0.8061224489795918,0.8061224489795918,0.8061224489795918,0.8061224489795918,0.8061224489795918,0.8061224489795918,0.8061224489795918,0.8061224489795918,0.8061224489795918,0.8061224489795918,0.8061224489795918,0.8061224489795918,0.8061224489795918,0.8061224489795918,0.8061224489795918,0.8061224489795918,0.8061224489795918,0.8061224489795918,0.8061224489795918,0.8061224489795918,0.8061224489795918,0.8061224489795918,0.8061224489795918,0.8061224489795918,0.8061224489795918,0.8061224489795918,0.8061224489795918,0.8061224489795918,0.8061224489795918,0.8061224489795918,0.8061224489795918,0.8061224489795918,0.8061224489795918,0.8061224489795918,0.8061224489795918,0.8061224489795918,0.8061224489795918,0.8061224489795918,0.8061224489795918,0.8061224489795918,0.8061224489795918,0.8061224489795918,0.8061224489795918,0.8061224489795918,0.8061224489795918,0.8061224489795918,0.8061224489795918,0.8061224489795918,0.8061224489795918,0.8061224489795918,0.8061224489795918,0.8061224489795918,0.8061224489795918,0.8061224489795918,0.8061224489795918,0.8061224489795918,0.8061224489795918,0.8061224489795918,0.8061224489795918,0.8061224489795918,0.8061224489795918,0.8061224489795918,0.8061224489795918,0.8061224489795918,0.8061224489795918,0.8061224489795918,0.8061224489795918,0.8061224489795918,0.8061224489795918,0.8061224489795918,0.8061224489795918,0.8061224489795918,0.8061224489795918,0.8061224489795918,0.8061224489795918,0.8061224489795918,0.8061224489795918,0.8061224489795918,0.8061224489795918,0.8061224489795918,0.8061224489795918,0.8061224489795918,0.8061224489795918,0.8061224489795918,0.8061224489795918,0.8061224489795918,0.8061224489795918,0.8061224489795918,0.8061224489795918,0.8061224489795918,0.8061224489795918,0.8061224489795918,0.8061224489795918,0.8061224489795918,0.8061224489795918,0.8061224489795918,0.8061224489795918,0.8061224489795918,0.8061224489795918,0.8061224489795918,0.8061224489795918,0.8061224489795918,0.8061224489795918,0.8061224489795918,0.8061224489795918,0.8061224489795918,0.8061224489795918,0.8061224489795918,0.8061224489795918,0.8061224489795918,0.8061224489795918,0.8061224489795918,0.8061224489795918,0.8061224489795918,0.8061224489795918,0.8061224489795918,0.8061224489795918,0.8061224489795918,0.8061224489795918,0.8061224489795918,0.8061224489795918,0.8061224489795918,0.8061224489795918,0.8061224489795918,0.8061224489795918,0.8061224489795918,0.8061224489795918,0.8061224489795918,0.8061224489795918,0.8061224489795918,0.8061224489795918,0.8061224489795918,0.8061224489795918,0.8061224489795918,0.8061224489795918,0.8061224489795918,0.8061224489795918,0.8061224489795918,0.8061224489795918,0.8061224489795918,0.8061224489795918,0.8061224489795918,0.8061224489795918,0.8061224489795918,0.8061224489795918,0.8061224489795918,0.8061224489795918,0.8061224489795918,0.8061224489795918,0.8061224489795918,0.8061224489795918,0.8061224489795918,0.8061224489795918,0.8061224489795918,0.8061224489795918,0.8061224489795918,0.8061224489795918,0.8061224489795918,0.8061224489795918,0.8061224489795918,0.8061224489795918,0.8061224489795918,0.8061224489795918,0.8061224489795918,0.8061224489795918,0.8061224489795918,0.8061224489795918,0.8061224489795918,0.8061224489795918,0.8061224489795918,0.8061224489795918,0.8061224489795918,0.8061224489795918,0.8061224489795918,0.8061224489795918,0.8061224489795918,0.8061224489795918,0.8061224489795918,0.8061224489795918,0.8061224489795918,0.8061224489795918,0.8061224489795918,0.8061224489795918,0.8061224489795918,0.8061224489795918,0.8061224489795918,0.8061224489795918,0.8061224489795918,0.8061224489795918,0.8061224489795918,0.8061224489795918,0.8061224489795918,0.8061224489795918,0.8061224489795918,0.8061224489795918,0.8061224489795918,0.8061224489795918,0.8061224489795918,0.8061224489795918,0.8061224489795918,0.8061224489795918,0.8061224489795918,0.8061224489795918,0.8061224489795918,0.8061224489795918,0.8061224489795918,0.8061224489795918,0.8061224489795918,0.8061224489795918,0.8061224489795918,0.8061224489795918,0.8061224489795918,0.8061224489795918,0.8061224489795918,0.8061224489795918,0.8061224489795918,0.8061224489795918,0.8061224489795918,0.8061224489795918,0.8061224489795918,0.8061224489795918,0.8061224489795918,0.8061224489795918,0.8061224489795918,0.8061224489795918,0.8061224489795918,0.8061224489795918,0.8061224489795918,0.8061224489795918,0.8061224489795918,0.8061224489795918,0.8061224489795918,0.8061224489795918,0.8061224489795918,0.8061224489795918,0.8061224489795918,0.8061224489795918,0.8061224489795918,0.8061224489795918,0.8061224489795918,0.8061224489795918,0.8061224489795918,0.8061224489795918,0.8061224489795918,0.8061224489795918,0.8061224489795918,0.8061224489795918,0.8061224489795918,0.8061224489795918,0.8061224489795918,0.8061224489795918,0.8061224489795918,0.8061224489795918,0.8061224489795918,0.8061224489795918,0.8061224489795918,0.8061224489795918,0.8061224489795918,0.8061224489795918,0.8061224489795918,0.8061224489795918,0.8061224489795918,0.8061224489795918,0.8061224489795918,0.8061224489795918,0.8061224489795918,0.8061224489795918,0.8061224489795918,0.8061224489795918,0.8061224489795918,0.8061224489795918,0.8061224489795918,0.8061224489795918,0.8061224489795918,0.8061224489795918,0.8061224489795918,0.8061224489795918,0.8061224489795918,0.8061224489795918,0.8061224489795918,0.8061224489795918,0.8061224489795918,0.8061224489795918,0.8061224489795918,0.8061224489795918,0.8061224489795918,0.8061224489795918,0.8061224489795918,0.8061224489795918,0.8061224489795918,0.8061224489795918,0.8061224489795918,0.8061224489795918,0.8061224489795918,0.8061224489795918,0.8061224489795918,0.8061224489795918,0.8061224489795918,0.8061224489795918,0.8061224489795918,0.8061224489795918,0.8061224489795918,0.8061224489795918,0.8061224489795918,0.8061224489795918,0.8061224489795918,0.8061224489795918,0.8061224489795918,0.8061224489795918,0.8061224489795918,0.8061224489795918,0.8061224489795918,0.8061224489795918,0.8061224489795918,0.8061224489795918,0.8061224489795918,0.8061224489795918,0.8061224489795918,0.8061224489795918,0.8061224489795918,0.8061224489795918,0.8061224489795918,0.8061224489795918,0.8061224489795918,0.8061224489795918,0.8061224489795918,0.8061224489795918,0.8061224489795918,0.8061224489795918,0.8061224489795918,0.8061224489795918,0.8061224489795918,0.8061224489795918,0.8061224489795918,0.8061224489795918,0.8061224489795918,0.8061224489795918,0.8061224489795918,0.8061224489795918,0.8061224489795918,0.8061224489795918,0.8061224489795918,0.8061224489795918,0.8061224489795918,0.8061224489795918,0.8061224489795918,0.8061224489795918,0.8061224489795918,0.8061224489795918,0.8061224489795918,0.8061224489795918,0.8061224489795918,0.8061224489795918,0.8061224489795918,0.8061224489795918,0.8061224489795918,0.8061224489795918,0.8061224489795918,0.8061224489795918,0.8061224489795918,0.8061224489795918,0.8061224489795918,0.8061224489795918,0.8061224489795918,0.8061224489795918,0.8061224489795918,0.8061224489795918,0.8061224489795918,0.8061224489795918,0.8061224489795918,0.8061224489795918,0.8061224489795918,0.8061224489795918,0.8061224489795918,0.8061224489795918,0.8061224489795918,0.8061224489795918,0.8061224489795918,0.8061224489795918,0.8061224489795918,0.8061224489795918,0.8061224489795918,0.8061224489795918,0.8061224489795918,0.8061224489795918,0.8061224489795918,0.8061224489795918,0.8061224489795918,0.8061224489795918,0.8061224489795918,0.8061224489795918,0.8061224489795918,0.8061224489795918,0.8061224489795918,0.8061224489795918,0.8061224489795918,0.8061224489795918,0.8061224489795918,0.8061224489795918,0.8061224489795918,0.8061224489795918,0.8061224489795918,0.8061224489795918,0.8061224489795918,0.8061224489795918,0.8061224489795918,0.8061224489795918,0.8061224489795918,0.8061224489795918,0.8061224489795918,0.8061224489795918,0.8061224489795918,0.8061224489795918,0.8061224489795918,0.8061224489795918,0.8061224489795918,0.8061224489795918,0.8061224489795918,0.8061224489795918,0.8061224489795918,0.8061224489795918,0.8061224489795918,0.8061224489795918,0.8061224489795918,0.8061224489795918,0.8061224489795918,0.8061224489795918,0.8061224489795918,0.8061224489795918,0.8061224489795918,0.8061224489795918,0.8061224489795918,0.8061224489795918,0.8061224489795918,0.8061224489795918,0.8061224489795918,0.8061224489795918,0.8061224489795918,0.8061224489795918,0.8061224489795918,0.8061224489795918,0.8061224489795918,0.8061224489795918,0.8061224489795918,0.8061224489795918,0.8061224489795918,0.8061224489795918,0.8061224489795918,0.8061224489795918,0.8061224489795918,0.8061224489795918,0.8061224489795918,0.8061224489795918,0.8061224489795918,0.8061224489795918,0.8061224489795918,0.8061224489795918,0.8061224489795918,0.8061224489795918,0.8061224489795918,0.8061224489795918,0.8061224489795918,0.8061224489795918,0.8061224489795918,0.8061224489795918,0.8061224489795918,0.8061224489795918,0.8