[{"success":true,"trial_type":"fullscreen","trial_index":0,"time_elapsed":3707,"internal_node_id":"0.0-0.0","protocol_sum":"","subject_identifier":203,"subject_sum":[22,220,54,138,137,180,40,178,72,84,132,49,59,166,122,57,18,202,3,242,178,180,36,41,23,74,79,139,61,200,78,68],"subject_pair":101,"STUDY_ID":"669eec2e4270c76bc184a38e","PROLIFIC_PID":"667f2edfcd7d7ea5954dd47e","SESSION_ID":"669ef4ef435c678ef9f6031e","practice_instructions":1,"leaderboard_instructions":0,"bonus":0,"reveal_word":true,"self_rating":"3","confidence":"92"},{"view_history":"[{\"page_index\":0,\"viewing_time\":4580.800000011921}]","rt":4581,"trial_type":"instructions","trial_index":1,"time_elapsed":8289,"internal_node_id":"0.0-1.0","protocol_sum":"","subject_identifier":203,"subject_sum":[22,220,54,138,137,180,40,178,72,84,132,49,59,166,122,57,18,202,3,242,178,180,36,41,23,74,79,139,61,200,78,68],"subject_pair":101,"STUDY_ID":"669eec2e4270c76bc184a38e","PROLIFIC_PID":"667f2edfcd7d7ea5954dd47e","SESSION_ID":"669ef4ef435c678ef9f6031e","practice_instructions":1,"leaderboard_instructions":0,"bonus":0,"reveal_word":true,"self_rating":"3","confidence":"92"},{"view_history":"[{\"page_index\":0,\"viewing_time\":43612}]","rt":43612.09999996424,"trial_type":"instructions","trial_index":2,"time_elapsed":51901,"internal_node_id":"0.0-2.0-0.0","protocol_sum":"","subject_identifier":203,"subject_sum":[22,220,54,138,137,180,40,178,72,84,132,49,59,166,122,57,18,202,3,242,178,180,36,41,23,74,79,139,61,200,78,68],"subject_pair":101,"STUDY_ID":"669eec2e4270c76bc184a38e","PROLIFIC_PID":"667f2edfcd7d7ea5954dd47e","SESSION_ID":"669ef4ef435c678ef9f6031e","practice_instructions":1,"leaderboard_instructions":0,"bonus":0,"reveal_word":true,"self_rating":"3","confidence":"92"},{"rt":13006,"responses":"{\"Q0\":\"... reveal the word with as <b>few letter guesses</b> as possible\"}","question_order":"[0]","trial_type":"survey-multi-choice","trial_index":3,"time_elapsed":64910,"internal_node_id":"0.0-2.0-1.0","protocol_sum":"","subject_identifier":203,"subject_sum":[22,220,54,138,137,180,40,178,72,84,132,49,59,166,122,57,18,202,3,242,178,180,36,41,23,74,79,139,61,200,78,68],"subject_pair":101,"correct":true,"test_part":"multichoice_nonpretend","STUDY_ID":"669eec2e4270c76bc184a38e","PROLIFIC_PID":"667f2edfcd7d7ea5954dd47e","SESSION_ID":"669ef4ef435c678ef9f6031e","practice_instructions":1,"leaderboard_instructions":0,"bonus":0,"reveal_word":true,"self_rating":"3","confidence":"92"},{"view_history":"[{\"page_index\":0,\"viewing_time\":3025.800000011921}]","rt":3026,"trial_type":"instructions","trial_index":4,"time_elapsed":67940,"internal_node_id":"0.0-3.0","protocol_sum":"","subject_identifier":203,"subject_sum":[22,220,54,138,137,180,40,178,72,84,132,49,59,166,122,57,18,202,3,242,178,180,36,41,23,74,79,139,61,200,78,68],"subject_pair":101,"STUDY_ID":"669eec2e4270c76bc184a38e","PROLIFIC_PID":"667f2edfcd7d7ea5954dd47e","SESSION_ID":"669ef4ef435c678ef9f6031e","practice_instructions":1,"leaderboard_instructions":0,"bonus":0,"reveal_word":true,"self_rating":"3","confidence":"92"},{"word":"ZEBRA","click_log":{"letter":["","E","A","F","L","O","H","B","Z","R"],"t":[0,3329.699999988079,11352.699999988079,14569.5,21231.400000035763,29128.69999998808,30838,32734.900000035763,35886.40000003576,37329.69999998808],"hit":[null,1,1,0,0,0,0,1,1,1],"asked":["","E","EA","EAF","EAFL","EAFLO","EAFLOH","EAFLOHB","EAFLOHBZ","EAFLOHBZR"],"word_state":["_____","_E___","_E__A","_E__A","_E__A","_E__A","_E__A","_EB_A","ZEB_A","ZEBRA"]},"hover_log":{"letter":["?","?","?","?","?","?","?","?","?","?","?","?","?","?","?","?","?","?","?","?","?","?","?","?","?","?","?","?","?","?","?","?","?","?","?","?","?","?","?","?","?","?","?","?","?","?","?","?","?","?","?","?","?","?","?","?","?","?","?","?","?","?","?","?","?","?","?","?","?","?","?","?","?","?","?","?","?","?","?","?","?","?","?","?","?","?","?","?","?","?","?","?","?","?","?","?","?","?","?","?","?","?","?","?","?","?","?","?","?","?","?","?","?","S","?","K","K","?","?","?","?","?","?","?","?","?","?","?","?","?","?","?","?","?","?","C","C","C","C","C","C","C","C","C","C","C","C","C","C","C","C","C","C","C","C","?","?","?","?","?","?","?","?","?","?","D","D","D","D","D","D","D","D","D","D","D","D","D","D","D","D","D","D","D","D","D","D","?","?","?","?","?","?","?","?","?","?","?","?","?","?","?","E","E","E","E","E","E","E","E","E","E","E","E","E","E","E","E","E","E","E","E","E","E","E","E","E","E","E","E","E","E","E","E","E","E","E","E","E","E","E","E","E","E","E","E","E","E","E","E","E","E","E","E","E","E","E","E","E","E","E","E","E","E","E","E","E","E","E","E","E","E","E","E","E","E","E","E","E","E","E","E","E","E","E","E","E","E","E","E","E","E","E","E","E","E","E","E","E","E","E","E","E","E","E","E","E","E","E","E","E","E","E","E","E","E","E","E","E","E","E","E","E","E","E","E","E","E","E","E","E","E","E","E","E","E","E","?","?","D","D","D","D","D","D","D","D","?","?","?","?","?","?","?","?","?","?","K","K","K","K","K","K","K","K","K","K","K","K","K","?","?","?","?","?","?","?","?","?","?","T","T","T","T","T","T","T","T","T","T","T","T","T","T","T","T","T","T","T","T","T","T","T","T","T","T","T","T","T","T","T","T","T","T","T","T","T","T","T","T","T","T","T","T","?","?","?","?","?","?","?","?","?","?","?","?","?","?","?","?","?","?","?","?","?","?","?","?","?","?","?","?","?","?","?","?","?","?","?","?","?","?","?","?","?","?","?","?","?","?","?","?","?","?","?","?","?","?","?","?","?","?","?","?","?","?","?","?","?","?","?","?","?","?","?","?","?","?","?","?","?","?","?","?","?","?","?","?","?","?","?","?","?","?","?","?","?","?","?","?","?","?","?","?","?","?","?","?","?","?","?","?","?","?","?","?","?","?","?","?","?","?","?","?","?","?","?","?","?","?","?","?","?","?","?","?","?","?","?","?","?","?","?","?","?","?","?","?","?","?","?","?","?","?","?","?","?","?","?","?","?","?","?","?","?","?","?","?","?","?","?","?","?","?","?","?","?","?","?","?","?","?","?","?","?","?","?","?","?","?","?","?","?","?","?","?","?","?","?","?","?","?","?","?","U","U","U","U","U","U","U","?","U","?","?","?","?","?","?","?","?","?","?","?","?","?","?","?","?","?","L","L","L","L","L","?","L","L","L","L","?","?","?","?","?","?","M","M","M","M","M","M","M","M","M","M","M","M","M","M","M","M","M","M","M","M","M","M","M","M","M","M","M","M","M","M","M","M","M","M","M","M","M","M","M","M","M","M","M","M","M","M","M","M","M","M","M","M","M","M","M","M","?","?","?","?","?","?","?","?","F","F","F","F","F","F","F","F","F","F","F","?","?","?","?","?","?","?","?","?","?","?","G","G","G","G","G","G","G","?","?","?","?","?","?","?","?","?","?","?","?","?","?","?","?","?","?","?","?","?","?","?","?","?","?","?","?","?","?","?","?","?","?","?","?","?","?","C","C","C","C","?","?","B","B","B","B","B","B","B","B","B","B","B","B","B","B","B","B","B","B","B","B","B","B","B","B","B","B","B","B","B","B","B","B","B","B","B","B","B","B","B","B","B","B","B","B","B","B","B","B","B","B","B","B","B","?","?","?","?","?","?","?","?","?","?","?","A","A","A","A","A","A","A","A","A","A","A","A","A","A","A","A","A","A","A","A","A","A","A","A","A","A","A","A","A","A","A","A","A","A","A","A","A","A","A","A","A","A","A","A","A","A","A","A","A","A","A","A","A","A","A","A","A","A","A","A","A","A","A","A","A","A","A","A","A","A","A","A","A","A","A","A","A","A","A","A","A","?","B","B","?","C","C","?","D","D","D","D","D","D","?","E","E","E","E","E","?","?","?","?","?","?","?","?","?","?","O","O","O","?","?","?","X","?","?","?","?","?","?","?","?","?","?","?","?","?","?","?","?","?","?","?","?","?","?","?","?","?","?","?","?","?","?","?","?","?","?","?","?","?","?","?","?","?","?","?","?","?","?","?","?","?","?","?","?","?","?","?","?","?","?","?","?","?","?","?","?","?","?","?","?","?","?","?","?","?","?","?","?","?","?","?","?","?","?","?","?","?","?","?","?","?","?","?","?","?","?","?","?","?","?","?","?","?","?","?","?","?","?","?","X","X","X","X","?","?","?","?","?","?","?","?","?","?","?","P","P","?","?","?","?","?","?","?","?","?","?","?","?","?","?","?","F","F","F","F","F","F","F","F","F","F","F","F","F","F","F","F","F","F","F","F","F","F","F","F","F","F","F","F","F","F","F","F","F","F","F","F","F","F","F","F","F","F","F","F","F","F","F","F","F","F","F","F","F","F","F","F","F","F","F","F","F","F","F","F","F","?","N","N","N","?","?","?","V","V","V","V","V","?","?","?","?","?","?","?","?","?","?","?","?","?","?","?","?","?","?","?","?","?","?","?","?","?","?","?","?","?","?","?","?","?","?","?","?","?","?","?","?","?","?","?","?","?","?","?","?","?","?","?","?","?","?","?","?","?","?","?","?","?","?","?","?","?","?","?","?","?","?","?","?","?","?","?","?","?","?","?","?","?","?","?","?","?","?","?","?","?","?","?","?","?","?","?","?","?","?","?","?","?","?","?","?","?","?","?","?","?","?","?","?","?","?","?","?","?","?","?","?","?","?","?","?","?","?","?","?","?","?","?","?","?","?","?","?","?","?","?","?","?","?","?","?","?","?","?","?","?","?","?","?","?","?","?","?","?","?","?","?","?","?","?","?","?","?","?","?","?","?","?","?","?","?","?","?","?","?","?","?","?","?","?","?","?","?","?","?","?","?","?","?","?","?","?","?","?","?","?","?","?","?","?","?","?","?","?","?","?","?","?","?","?","?","?","?","?","?","?","?","?","?","?","?","?","?","?","?","?","?","?","?","?","?","?","?","?","?","?","?","?","?","?","?","?","?","?","?","?","?","?","?","?","?","?","U","U","U","U","U","U","U","U","U","?","?","?","?","?","?","L","L","L","L","L","L","L","L","L","L","L","L","L","L","L","L","L","L","L","L","L","L","L","L","L","L","L","L","L","L","L","L","L","L","L","L","L","L","L","L","L","L","L","L","L","L","L","L","L","L","L","L","L","L","L","L","L","L","L","L","L","L","L","L","L","L","L","L","L","L","L","L","L","L","L","L","L","L","L","L","L","L","L","L","L","L","L","L","L","L","L","L","L","L","L","L","L","L","L","L","L","L","L","L","L","L","L","L","L","L","L","L","L","L","L","L","L","L","L","L","L","L","L","L","L","L","?","?","?","?","?","?","?","?","?","?","?","?","?","?","?","?","?","?","?","?","?","?","?","T","T","T","T","T","T","T","T","T","T","T","T","T","T","T","T","T","T","T","T","T","T","T","?","?","?","?","?","?","?","?","?","?","?","?","?","L","L","L","L","L","L","L","L","L","L","L","L","L","L","L","L","L","L","L","L","L","L","L","L","L","L","L","L","L","L","L","L","L","L","L","L","L","L","L","L","L","L","L","L","L","L","L","L","L","L","L","L","L","L","L","L","L","L","L","L","?","?","?","?","?","?","?","?","?","?","?","?","?","?","?","?","?","?","?","?","?","?","?","?","?","?","?","?","?","?","?","?","?","?","?","?","?","?","?","?","?","?","?","?","?","?","?","?","?","?","?","?","?","?","?","?","?","?","?","?","?","?","?","?","?","?","?","?","?","?","?","?","?","?","?","?","?","?","?","?","?","?","?","?","?","?","?","?","?","?","?","?","?","?","?","?","?","?","?","?","?","?","?","?","?","?","?","?","?","?","?","?","?","?","?","?","?","?","?","?","?","?","?","?","?","?","?","?","?","?","?","?","?","?","?","?","?","?","?","?","?","?","?","?","?","?","?","?","?","?","?","?","?","?","?","?","?","?","?","?","?","?","?","?","?","?","?","?","?","?","?","?","?","?","?","?","?","?","?","?","?","?","?","?","?","?","?","?","?","?","?","?","?","?","?","?","?","?","?","?","?","?","?","?","?","?","?","?","?","?","?","?","?","?","?","?","?","?","?","?","?","?","?","?","?","?","?","?","?","?","?","?","?","?","?","?","?","?","?","?","?","?","?","?","?","?","?","?","?","?","?","?","?","?","?","?","?","?","?","?","?","?","?","?","?","?","?","?","?","?","?","?","?","?","?","?","?","?","?","?","?","?","?","?","?","?","?","?","?","?","?","?","?","?","?","?","?","?","?","?","?","?","?","?","?","?","?","?","?","?","?","?","?","?","?","?","?","?","?","?","?","?","?","?","?","?","?","?","?","?","?","?","?","?","?","?","?","?","?","?","?","?","?","?","?","?","?","?","?","?","?","?","?","?","?","?","?","?","?","?","?","?","?","?","?","?","?","?","?","?","?","?","?","?","?","?","?","?","?","?","?","?","?","?","?","?","?","?","?","?","?","?","?","?","?","?","?","?","?","?","?","?","?","?","?","?","?","?","?","?","?","?","?","?","?","?","?","?","?","?","?","?","?","?","?","?","?","?","?","?","?","?","?","?","?","?","?","?","?","?","?","?","?","?","?","?","?","?","?","?","?","?","?","?","?","?","?","?","?","?","?","?","?","?","?","?","?","?","?","?","?","?","?","?","?","?","?","?","?","?","?","?","?","?","?","?","?","?","?","?","?","?","?","?","?","?","?","?","?","?","?","?","?","?","?","?","?","?","?","?","?","?","?","?","?","?","?","?","?","?","?","?","O","?","?","F","F","F","F","F","F","F","F","F","F","F","F","F","F","F","F","F","F","F","F","F","F","F","F","F","?","?","?","?","?","?","?","?","?","?","?","?","O","O","O","O","O","O","O","O","O","O","O","O","O","O","O","O","O","O","O","O","O","O","O","O","O","O","O","O","O","O","O","O","O","O","O","O","O","O","O","O","O","O","O","O","O","O","O","O","O","O","O","O","O","O","O","O","O","O","O","O","O","O","O","O","O","O","O","O","O","O","O","?","?","N","N","N","?","?","M","?","?","?","?","?","?","?","U","U","U","U","U","U","U","U","U","U","U","U","V","W","W","?","X","?","?","?","?","P","P","P","P","P","P","?","?","?","?","?","?","?","?","?","?","?","?","?","?","?","?","?","?","?","?","?","?","?","?","?","H","H","H","H","H","H","H","H","H","H","H","H","H","H","H","H","H","H","H","H","H","H","H","H","H","H","H","H","H","H","H","H","H","H","H","H","H","H","H","H","H","H","H","H","H","H","H","H","H","H","H","H","H","H","H","H","H","H","H","H","H","H","H","H","H","H","?","?","P","P","?","X","X","?","?","?","?","?","?","?","?","?","?","?","?","?","?","?","?","?","?","?","?","?","?","?","?","?","V","V","?","?","?","?","M","M","M","M","M","M","M","?","?","?","?","?","?","?","?","?","?","?","?","?","?","?","?","?","?","?","C","C","C","C","C","C","C","C","C","C","C","C","C","C","C","C","C","C","C","C","C","C","C","?","?","B","B","B","B","B","B","B","B","B","B","B","B","B","B","B","B","B","B","B","B","B","B","B","B","B","B","B","B","B","B","B","B","B","B","B","B","B","B","B","B","B","B","B","B","B","B","B","B","B","B","B","B","B","B","B","B","B","B","B","B","B","B","B","B","B","B","B","B","B","B","B","B","B","B","B","B","B","B","B","B","B","B","B","B","B","B","B","B","B","B","B","B","B","B","B","B","B","B","B","B","B","B","?","?","?","?","?","C","C","C","C","?","?","?","?","?","?","?","?","?","?","?","?","?","?","?","?","?","?","L","L","L","L","L","L","?","?","?","?","?","?","?","?","?","?","?","?","?","?","?","?","?","?","?","?","?","?","?","?","?","L","L","L","L","L","L","L","L","L","?","?","?","?","?","?","?","?","?","?","?","?","?","?","?","?","?","?","?","?","?","?","T","T","T","T","T","T","T","T","T","?","V","V","?","?","?","?","?","W","W","W","?","?","?","?","?","?","?","?","?","X","X","X","X","X","X","?","?","?","Y","Y","Y","?","?","?","Z","Z","Z","Z","Z","Z","Z","Z","Z","Z","Z","Z","Z","Z","Z","Z","Z","Z","Z","Z","Z","Z","Z","Z","Z","Z","Z","Z","Z","Z","Z","Z","Z","Z","Z","Z","Z","Z","Z","Z","Z","Z","Z","Z","Z","Z","Z","Z","Z","Z","Z","Z","Z","Z","Z","Z","Z","Z","Z","Z","Z","Z","Z","Z","Z","Z","Z","Z","Z","Z","Z","Z","Z","?","?","?","?","P","P","?","O","O","O","O","O","O","O","O","O","O","O","O","O","O","O","O","O","P","P","P","?","Q","Q","Q","Q","Q","Q","Q","Q","Q","Q","Q","Q","Q","Q","Q","Q","Q","Q","Q","?","?","?","?","?","?","?","?","?","?","?","?","?","?","?","R","R","R","R","R","R","R","R","R","R","R","R","R","R","R","R","R","R","R","R","R","R","R","R","R","R","R","R","R","R","R","R","R","R","R","R","R","R","R","R","R","R","R","R","R","R","R","R","R","R","R","R","R","R","R","R","R","R","R","R","R","?","Q","Q","?","P","P","P","?","O","O","O","O","O","?","N","N","N","?","M","M","M","M","?","L","L","?","K","K","?","?","?","?","?","?","?","?","?","?","?","?","?","?","?","?","?","?","?","?","?","?","?","?","?","?","?","?","?","?","?","?","?","?","?","?","?","?","?","?","?","?","?","?","?","?","?","?","?","?","?","?","?","?","?","?","?","?","?","?","?","?","?","?","?","?","?","?","?","?","?","?","?","?","?","?","?","?","?","?","?","?","?","?","?","?","?","?","?","?","?"],"t":[26,36,51,63,75,88,106,113,125,137,150,163,175,187,200,213,225,238,250,262,275,287,300,312,325,337,349,362,375,387,400,412,425,437,450,462,475,487,500,512,525,537,549,562,575,587,600,612,625,637,650,662,675,687,700,712,724,737,749,762,774,787,800,812,825,837,849,862,874,887,900,912,925,937,950,962,974,987,1000,1012,1025,1037,1049,1062,1075,1087,1100,1112,1124,1137,1149,1162,1174,1187,1199,1212,1224,1237,1249,1262,1274,1287,1300,1312,1325,1337,1350,1362,1375,1387,1400,1412,1424,1439,1450,1463,1475,1487,1500,1512,1525,1537,1550,1562,1575,1587,1600,1612,1625,1637,1650,1662,1675,1687,1700,1713,1725,1737,1750,1762,1775,1787,1800,1812,1825,1837,1850,1862,1875,1887,1900,1912,1925,1937,1950,1962,1975,1987,2000,2012,2025,2037,2050,2062,2075,2087,2100,2112,2125,2137,2150,2162,2175,2187,2200,2212,2225,2237,2250,2262,2275,2287,2300,2312,2325,2337,2350,2362,2374,2388,2400,2413,2425,2437,2450,2462,2474,2487,2500,2512,2525,2537,2550,2562,2574,2587,2600,2612,2624,2637,2650,2662,2675,2687,2700,2712,2725,2737,2750,2762,2775,2787,2800,2812,2825,2837,2850,2862,2875,2887,2900,2912,2924,2937,2949,2962,2975,2987,3000,3012,3024,3037,3049,3062,3074,3087,3099,3112,3124,3137,3149,3162,3175,3187,3200,3212,3225,3237,3250,3263,3275,3288,3300,3312,3325,3338,3350,3362,3375,3387,3400,3412,3425,3437,3450,3462,3475,3487,3500,3512,3525,3537,3550,3562,3575,3587,3600,3612,3625,3637,3650,3662,3675,3687,3700,3712,3725,3737,3750,3762,3775,3787,3800,3812,3825,3837,3850,3862,3875,3887,3900,3912,3925,3937,3950,3962,3975,3988,4000,4012,4025,4037,4050,4062,4075,4087,4100,4112,4125,4137,4150,4162,4175,4188,4200,4212,4225,4237,4251,4266,4279,4291,4304,4317,4329,4341,4354,4366,4379,4392,4405,4421,4433,4445,4458,4470,4483,4496,4508,4520,4533,4546,4558,4571,4583,4596,4608,4621,4633,4645,4658,4671,4683,4695,4708,4721,4733,4745,4758,4770,4783,4796,4809,4820,4833,4845,4858,4871,4883,4895,4908,4920,4933,4945,4958,4970,4983,4995,5008,5021,5033,5045,5058,5070,5083,5095,5108,5120,5133,5145,5158,5171,5183,5195,5208,5220,5233,5245,5258,5271,5283,5296,5308,5320,5333,5346,5358,5371,5383,5395,5408,5420,5433,5445,5458,5471,5483,5495,5508,5520,5533,5546,5558,5570,5583,5595,5608,5620,5633,5647,5662,5675,5687,5699,5712,5725,5737,5750,5762,5775,5787,5799,5813,5829,5841,5854,5867,5879,5891,5904,5916,5929,5941,5954,5966,5979,5991,6004,6016,6029,6041,6054,6066,6079,6093,6108,6120,6133,6145,6158,6171,6183,6195,6208,6220,6233,6245,6258,6270,6283,6295,6308,6320,6333,6345,6358,6370,6383,6395,6408,6421,6435,6449,6463,6479,6491,6504,6516,6528,6541,6554,6566,6579,6591,6604,6616,6629,6641,6654,6666,6679,6691,6704,6716,6729,6741,6754,6766,6779,6791,6804,6816,6829,6841,6853,6866,6879,6891,6904,6916,6929,6941,6954,6966,6979,6991,7004,7016,7029,7041,7054,7066,7079,7091,7104,7116,7128,7141,7154,7166,7179,7191,7204,7216,7229,7241,7254,7266,7279,7291,7304,7316,7328,7341,7354,7366,7379,7391,7404,7416,7429,7441,7454,7466,7479,7491,7504,7517,7529,7542,7554,7566,7579,7591,7604,7616,7629,7641,7654,7666,7679,7691,7704,7716,7729,7741,7754,7767,7779,7791,7804,7816,7830,7845,7859,7871,7883,7895,7908,7920,7933,7945,7958,7970,7983,7996,8008,8020,8033,8045,8058,8071,8083,8096,8108,8121,8133,8145,8158,8171,8183,8195,8208,8221,8233,8245,8258,8270,8283,8296,8308,8321,8333,8345,8358,8370,8383,8395,8408,8421,8433,8446,8458,8471,8483,8495,8508,8521,8533,8548,8562,8575,8587,8600,8612,8625,8637,8650,8662,8674,8687,8700,8712,8724,8737,8750,8763,8775,8787,8799,8812,8825,8837,8849,8862,8874,8887,8900,8912,8924,8937,8950,8962,8975,8987,9000,9012,9024,9037,9049,9062,9074,9087,9100,9112,9125,9137,9150,9162,9174,9187,9199,9212,9224,9237,9250,9262,9274,9287,9300,9312,9324,9337,9350,9362,9374,9387,9400,9412,9425,9437,9450,9462,9474,9487,9499,9512,9524,9537,9550,9562,9574,9589,9604,9616,9629,9641,9654,9666,9679,9691,9704,9716,9729,9741,9754,9766,9779,9791,9804,9816,9829,9841,9854,9866,9879,9891,9904,9916,9929,9941,9954,9966,9979,9991,10004,10016,10029,10041,10054,10066,10079,10091,10104,10117,10129,10141,10154,10166,10179,10191,10204,10216,10228,10242,10254,10266,10279,10291,10304,10316,10329,10341,10354,10366,10379,10391,10404,10416,10429,10441,10453,10466,10479,10491,10503,10516,10528,10541,10554,10566,10579,10593,10606,10619,10633,10647,10661,10673,10686,10702,10717,10729,10743,10756,10768,10783,10795,10812,10824,10839,10853,10865,10877,10890,10903,10915,10929,10940,10953,10964,10977,10991,11003,11018,11034,11048,11061,11074,11089,11103,11115,11127,11141,11154,11165,11177,11189,11202,11214,11227,11241,11253,11265,11281,11294,11307,11318,11332,11344,11358,11373,11386,11398,11410,11423,11436,11448,11461,11473,11485,11498,11512,11524,11535,11548,11561,11573,11586,11599,11612,11623,11636,11648,11660,11674,11686,11698,11711,11724,11744,11756,11770,11783,11796,11807,11821,11834,11845,11858,11870,11883,11896,11907,11922,11934,11945,11959,11972,11988,12000,12013,12026,12038,12054,12066,12079,12091,12104,12116,12129,12143,12158,12171,12183,12195,12208,12221,12233,12246,12258,12270,12283,12296,12308,12321,12333,12346,12358,12370,12383,12395,12408,12421,12433,12446,12458,12470,12484,12500,12512,12525,12537,12550,12562,12575,12587,12600,12612,12624,12637,12650,12662,12674,12687,12700,12712,12724,12739,12750,12762,12774,12787,12800,12812,12824,12837,12850,12863,12874,12887,12899,12912,12925,12938,12950,12962,12974,12987,13000,13012,13024,13037,13049,13062,13075,13087,13100,13112,13125,13137,13149,13162,13174,13187,13199,13212,13224,13237,13249,13262,13275,13287,13300,13312,13324,13337,13350,13362,13375,13387,13400,13412,13424,13437,13450,13462,13475,13487,13499,13512,13524,13537,13549,13562,13574,13587,13600,13612,13624,13637,13650,13663,13675,13687,13700,13713,13728,13741,13754,13767,13779,13791,13804,13816,13829,13841,13854,13866,13879,13892,13904,13916,13929,13941,13954,13966,13979,13991,14004,14016,14029,14041,14054,14067,14079,14091,14104,14116,14129,14141,14154,14166,14179,14192,14204,14216,14229,14241,14254,14266,14279,14292,14304,14316,14328,14341,14354,14366,14379,14391,14404,14417,14429,14441,14454,14467,14479,14491,14504,14516,14528,14541,14554,14566,14579,14591,14604,14616,14629,14641,14654,14666,14679,14691,14704,14716,14731,14748,14761,14774,14787,14799,14813,14828,14840,14854,14865,14877,14891,14903,14915,14928,14940,14954,14966,14979,14993,15004,15017,15030,15045,15058,15070,15083,15096,15108,15120,15133,15146,15158,15170,15183,15195,15208,15221,15233,15246,15262,15275,15287,15299,15312,15325,15337,15350,15362,15375,15387,15400,15412,15424,15437,15449,15462,15475,15487,15500,15512,15524,15537,15550,15562,15575,15587,15600,15612,15625,15637,15650,15662,15675,15687,15700,15712,15725,15737,15750,15764,15779,15791,15804,15816,15829,15841,15854,15866,15879,15891,15904,15916,15929,15941,15954,15966,15979,15991,16004,16017,16029,16041,16054,16066,16079,16091,16104,16116,16129,16141,16153,16166,16179,16191,16204,16216,16229,16241,16254,16266,16279,16291,16304,16317,16329,16341,16354,16366,16379,16391,16404,16416,16429,16441,16454,16466,16479,16491,16503,16516,16529,16541,16554,16566,16579,16591,16604,16616,16629,16641,16653,16666,16679,16691,16704,16716,16728,16741,16754,16766,16779,16791,16804,16818,16833,16846,16858,16870,16883,16895,16908,16920,16933,16945,16958,16970,16983,16996,17008,17020,17033,17045,17058,17070,17083,17095,17108,17120,17133,17145,17158,17170,17183,17196,17208,17220,17233,17245,17258,17270,17283,17295,17308,17320,17333,17345,17358,17370,17383,17396,17408,17420,17433,17445,17458,17470,17483,17496,17508,17520,17533,17545,17558,17570,17583,17595,17608,17620,17633,17645,17658,17670,17683,17695,17708,17721,17733,17745,17758,17770,17783,17795,17808,17820,17833,17845,17858,17871,17883,17895,17908,17921,17933,17945,17958,17970,17983,17995,18008,18021,18033,18045,18058,18070,18083,18095,18108,18121,18133,18146,18158,18170,18183,18195,18208,18221,18233,18245,18258,18271,18283,18296,18308,18320,18333,18345,18359,18370,18383,18395,18408,18421,18433,18446,18458,18471,18483,18495,18508,18520,18533,18545,18558,18570,18583,18595,18608,18621,18633,18645,18658,18670,18683,18695,18708,18721,18733,18745,18758,18770,18783,18795,18808,18820,18833,18845,18858,18870,18883,18896,18908,18920,18933,18946,18958,18970,18983,18995,19008,19020,19033,19045,19060,19080,19092,19104,19117,19130,19142,19154,19166,19180,19191,19204,19217,19229,19242,19254,19266,19279,19291,19304,19317,19329,19342,19354,19366,19379,19391,19404,19416,19429,19441,19454,19467,19479,19491,19504,19516,19529,19541,19554,19566,19579,19591,19604,19616,19629,19642,19654,19666,19679,19691,19704,19716,19729,19741,19754,19767,19779,19791,19804,19816,19829,19841,19854,19866,19879,19891,19904,19916,19929,19941,19954,19966,19979,19991,20004,20016,20029,20041,20054,20066,20079,20091,20104,20118,20133,20145,20158,20170,20183,20195,20210,20225,20237,20249,20262,20275,20287,20300,20312,20324,20338,20349,20362,20375,20387,20400,20412,20425,20437,20450,20462,20474,20487,20500,20512,20525,20537,20550,20562,20574,20587,20599,20612,20624,20637,20650,20662,20675,20687,20699,20712,20725,20737,20750,20762,20775,20787,20801,20816,20829,20842,20858,20871,20883,20895,20908,20920,20933,20946,20958,20970,20983,20995,21013,21024,21036,21049,21063,21075,21086,21099,21113,21125,21141,21155,21166,21178,21191,21203,21216,21229,21241,21253,21267,21279,21292,21304,21319,21332,21344,21357,21370,21382,21396,21411,21424,21436,21449,21462,21474,21486,21498,21512,21525,21540,21553,21565,21578,21591,21604,21615,21629,21643,21660,21674,21692,21709,21721,21737,21750,21762,21775,21787,21800,21812,21824,21837,21849,21862,21875,21887,21900,21912,21925,21937,21950,21962,21975,21987,22000,22012,22025,22037,22050,22062,22075,22087,22100,22112,22125,22137,22150,22162,22174,22187,22200,22212,22224,22237,22249,22262,22274,22287,22300,22312,22324,22337,22350,22362,22375,22387,22400,22412,22424,22437,22450,22462,22474,22487,22500,22512,22525,22537,22549,22562,22575,22587,22599,22612,22625,22637,22650,22662,22674,22687,22700,22712,22724,22737,22750,22762,22775,22787,22799,22812,22824,22837,22849,22862,22875,22887,22900,22912,22925,22937,22949,22962,22974,22987,22999,23012,23024,23037,23049,23062,23075,23087,23100,23112,23125,23137,23150,23162,23175,23187,23200,23212,23225,23237,23250,23262,23275,23287,23299,23312,23324,23337,23350,23363,23375,23387,23399,23412,23425,23437,23449,23462,23475,23487,23500,23512,23525,23537,23550,23562,23574,23587,23599,23612,23625,23637,23650,23662,23675,23687,23700,23712,23724,23737,23750,23762,23775,23787,23800,23812,23825,23837,23850,23862,23875,23887,23899,23912,23925,23937,23950,23962,23974,23987,24000,24012,24024,24037,24049,24062,24075,24087,24100,24112,24124,24137,24149,24164,24179,24191,24204,24216,24229,24241,24254,24266,24279,24291,24304,24316,24329,24341,24353,24366,24379,24392,24404,24416,24429,24441,24453,24466,24478,24491,24504,24516,24529,24541,24554,24566,24579,24591,24604,24616,24629,24641,24655,24667,24679,24692,24705,24717,24730,24741,24754,24767,24779,24791,24804,24816,24829,24841,24853,24866,24879,24891,24904,24916,24929,24941,24954,24966,24979,24991,25003,25016,25029,25041,25054,25066,25079,25091,25105,25120,25133,25145,25158,25170,25185,25199,25213,25229,25244,25256,25268,25281,25294,25306,25319,25332,25343,25356,25369,25382,25394,25406,25421,25433,25446,25460,25473,25485,25498,25510,25523,25537,25548,25561,25574,25585,25597,25610,25622,25634,25647,25660,25672,25684,25697,25709,25721,25734,25746,25759,25771,25784,25796,25809,25822,25834,25846,25860,25872,25884,25896,25909,25922,25934,25946,25959,25972,25984,25997,26009,26022,26034,26047,26060,26072,26084,26096,26108,26121,26133,26145,26158,26170,26183,26195,26208,26220,26233,26245,26258,26270,26283,26296,26308,26321,26333,26346,26358,26370,26383,26395,26408,26421,26434,26445,26458,26471,26483,26496,26508,26521,26533,26546,26558,26570,26584,26596,26608,26621,26633,26646,26658,26670,26683,26696,26708,26721,26733,26746,26759,26770,26783,26795,26808,26820,26833,26845,26858,26870,26883,26895,26908,26920,26933,26945,26958,26970,26983,26995,27008,27020,27033,27045,27058,27070,27083,27095,27108,27120,27133,27145,27159,27171,27183,27195,27208,27220,27233,27245,27258,27270,27283,27295,27308,27321,27333,27345,27358,27371,27383,27396,27408,27421,27434,27445,27458,27471,27483,27495,27508,27520,27533,27545,27558,27570,27583,27596,27608,27621,27633,27646,27658,27670,27683,27696,27708,27720,27733,27746,27758,27770,27783,27795,27808,27820,27835,27848,27861,27874,27886,27898,27911,27924,27934,27946,27958,27970,27983,27995,28009,28021,28033,28045,28058,28070,28083,28095,28108,28120,28133,28145,28158,28170,28183,28195,28208,28221,28233,28245,28258,28270,28283,28295,28308,28321,28333,28346,28358,28371,28383,28395,28408,28420,28433,28445,28458,28470,28483,28496,28508,28521,28533,28546,28559,28571,28583,28595,28608,28621,28633,28645,28658,28670,28683,28695,28708,28721,28733,28746,28758,28770,28783,28796,28812,28824,28837,28850,28862,28875,28887,28900,28912,28925,28937,28950,28962,28975,28991,29004,29016,29030,29045,29058,29070,29083,29095,29108,29121,29133,29146,29158,29171,29183,29195,29208,29221,29233,29246,29258,29271,29283,29295,29308,29321,29333,29346,29358,29371,29383,29397,29412,29425,29437,29449,29462,29475,29487,29500,29512,29525,29537,29550,29562,29575,29587,29600,29612,29625,29637,29650,29662,29675,29687,29699,29712,29724,29737,29750,29762,29775,29787,29799,29812,29824,29837,29850,29862,29875,29887,29900,29912,29924,29937,29949,29962,29975,29987,30000,30012,30024,30037,30050,30062,30074,30087,30100,30113,30124,30137,30150,30162,30174,30187,30199,30212,30225,30237,30250,30262,30274,30287,30299,30312,30324,30337,30350,30362,30375,30387,30400,30413,30425,30437,30450,30462,30475,30487,30500,30512,30525,30537,30549,30562,30574,30587,30600,30612,30624,30637,30650,30663,30675,30687,30700,30712,30725,30737,30750,30762,30775,30787,30800,30812,30825,30838,30850,30862,30875,30887,30900,30912,30925,30937,30950,30962,30974,30987,31000,31012,31025,31040,31054,31065,31078,31091,31104,31116,31128,31142,31153,31164,31177,31190,31204,31216,31227,31241,31253,31266,31281,31296,31308,31321,31334,31345,31358,31371,31383,31396,31408,31421,31433,31445,31458,31470,31483,31495,31508,31521,31533,31545,31558,31571,31583,31595,31608,31620,31633,31645,31658,31670,31683,31696,31708,31720,31733,31745,31758,31770,31783,31796,31808,31820,31833,31845,31858,31870,31883,31895,31908,31920,31933,31945,31958,31971,31983,31996,32008,32020,32033,32045,32058,32070,32083,32095,32108,32121,32133,32145,32158,32170,32183,32196,32208,32220,32233,32245,32258,32270,32283,32295,32308,32320,32333,32345,32358,32370,32383,32395,32409,32421,32433,32445,32458,32471,32483,32495,32508,32520,32533,32546,32558,32570,32583,32596,32608,32621,32633,32646,32658,32671,32683,32695,32708,32720,32733,32746,32758,32770,32783,32795,32808,32820,32833,32846,32858,32871,32883,32896,32908,32920,32933,32945,32958,32971,32983,32995,33008,33021,33033,33045,33058,33070,33083,33095,33108,33121,33133,33146,33158,33170,33183,33195,33208,33220,33233,33246,33258,33270,33283,33295,33308,33320,33333,33345,33358,33371,33383,33395,33408,33421,33433,33448,33462,33475,33488,33500,33512,33525,33537,33550,33562,33574,33587,33600,33612,33625,33637,33650,33663,33675,33687,33700,33712,33725,33737,33750,33762,33775,33787,33799,33812,33825,33838,33854,33866,33879,33891,33904,33916,33929,33942,33954,33966,33979,33991,34004,34016,34029,34041,34054,34066,34079,34091,34104,34117,34129,34141,34154,34166,34179,34191,34204,34216,34229,34241,34254,34266,34279,34291,34304,34316,34329,34341,34354,34367,34378,34391,34404,34416,34429,34442,34454,34466,34479,34492,34504,34516,34529,34542,34554,34567,34579,34592,34604,34616,34629,34641,34654,34666,34679,34692,34704,34716,34729,34741,34754,34766,34779,34792,34804,34816,34829,34841,34854,34866,34879,34891,34904,34916,34929,34941,34954,34967,34983,34995,35008,35021,35033,35045,35058,35071,35083,35095,35108,35121,35133,35145,35158,35171,35184,35195,35208,35221,35233,35246,35258,35270,35283,35295,35308,35321,35333,35345,35358,35372,35387,35400,35413,35425,35437,35450,35463,35479,35491,35504,35516,35529,35541,35554,35566,35579,35591,35604,35616,35629,35641,35654,35666,35679,35691,35704,35716,35729,35741,35754,35766,35779,35791,35804,35816,35829,35841,35854,35866,35879,35891,35904,35916,35929,35941,35954,35966,35979,35991,36004,36016,36029,36041,36054,36066,36079,36091,36104,36116,36129,36141,36154,36166,36179,36191,36206,36223,36239,36255,36267,36279,36292,36309,36323,36336,36351,36365,36379,36392,36404,36417,36429,36441,36454,36466,36479,36491,36504,36516,36530,36545,36558,36571,36583,36596,36608,36621,36634,36650,36662,36675,36687,36700,36712,36724,36737,36750,36762,36774,36787,36800,36812,36824,36837,36850,36862,36874,36887,36899,36912,36924,36937,36950,36962,36975,36987,37000,37012,37024,37037,37049,37062,37074,37087,37100,37112,37125,37137,37150,37162,37174,37187,37200,37213,37225,37237,37250,37262,37274,37287,37300,37312,37325,37340,37355,37370,37383,37395,37409,37421,37433,37446,37458,37470,37483,37496,37508,37521,37533,37545,37558,37571,37583,37595,37608,37621,37633,37646,37658,37671,37683,37696,37708,37721,37733,37745,37759,37771,37784,37796,37808,37821,37833,37846,37858,37871,37883,37896,37912,37925,37938,37950,37962,37975,37987,38000,38012,38025,38037,38050,38062,38075,38088,38100,38113,38129,38141,38154,38167,38179,38191,38204,38217,38229,38242,38254,38266,38279,38292,38304,38316,38329,38341,38354,38367,38379,38391,38404,38416,38429,38441,38454,38466,38479,38491,38504,38516,38529,38541,38554,38566,38579,38591,38604,38616,38629,38641,38654,38666,38679,38691,38704,38716,38729,38741,38754,38766,38779,38791,38804,38816,38829,38841,38854,38866,38879,38891,38904,38916,38929,38941,38954,38966,38979,38991,39004,39016,39029,39041,39054,39066,39079,39091,39104,39116,39129,39141,39154,39166,39179,39191,39204,39216,39229,39241,39254,39266,39279,39291,39304,39316,39329,39342],"hit":[null],"x":[-1.965986394557823,-1.965986394557823,-1.965986394557823,-1.965986394557823,-1.965986394557823,-1.965986394557823,-1.965986394557823,-1.965986394557823,-1.965986394557823,-1.965986394557823,-1.965986394557823,-1.965986394557823,-1.965986394557823,-1.965986394557823,-1.965986394557823,-1.965986394557823,-1.965986394557823,-1.965986394557823,-1.965986394557823,-1.965986394557823,-1.965986394557823,-1.965986394557823,-1.965986394557823,-1.965986394557823,-1.965986394557823,-1.965986394557823,-1.965986394557823,-1.965986394557823,-1.965986394557823,-1.965986394557823,-1.965986394557823,-1.965986394557823,-1.965986394557823,-1.965986394557823,-1.965986394557823,-1.965986394557823,-1.965986394557823,-1.965986394557823,-1.965986394557823,-1.965986394557823,-1.965986394557823,-1.965986394557823,-1.965986394557823,-1.965986394557823,-1.965986394557823,-1.965986394557823,-1.965986394557823,-1.965986394557823,-1.965986394557823,-1.965986394557823,-1.965986394557823,-1.965986394557823,-1.965986394557823,-1.965986394557823,-1.965986394557823,-1.965986394557823,-1.965986394557823,-1.965986394557823,-1.965986394557823,-1.965986394557823,-1.965986394557823,-1.965986394557823,-1.965986394557823,-1.965986394557823,-1.965986394557823,-1.965986394557823,-1.965986394557823,-1.965986394557823,-1.965986394557823,-1.965986394557823,-1.965986394557823,-1.965986394557823,-1.965986394557823,-1.965986394557823,-1.965986394557823,-1.965986394557823,-1.965986394557823,-1.965986394557823,-1.965986394557823,-1.965986394557823,-1.965986394557823,-1.965986394557823,-1.965986394557823,-1.965986394557823,-1.965986394557823,-1.965986394557823,-1.965986394557823,-1.965986394557823,-1.965986394557823,-1.965986394557823,-1.965986394557823,-1.965986394557823,-1.965986394557823,-1.965986394557823,-1.965986394557823,-1.965986394557823,-1.965986394557823,-1.965986394557823,-1.965986394557823,-1.965986394557823,-1.965986394557823,-1.965986394557823,-1.965986394557823,-1.965986394557823,-1.965986394557823,-1.965986394557823,-1.965986394557823,-1.965986394557823,-1.965986394557823,-1.965986394557823,-1.965986394557823,-1.965986394557823,-1.965986394557823,0.05782312925170068,0.09863945578231292,0.1360544217687075,0.14285714285714285,0.17006802721088435,0.1836734693877551,0.1836734693877551,0.1836734693877551,0.1836734693877551,0.1836734693877551,0.1836734693877551,0.1870748299319728,0.19047619047619047,0.19727891156462585,0.2108843537414966,0.22789115646258504,0.24829931972789115,0.2619047619047619,0.2687074829931973,0.2755102040816326,0.2789115646258503,0.282312925170068,0.2857142857142857,0.2891156462585034,0.2925170068027211,0.30272108843537415,0.3129251700680272,0.3197278911564626,0.3197278911564626,0.32653061224489793,0.3333333333333333,0.3333333333333333,0.3333333333333333,0.3333333333333333,0.336734693877551,0.336734693877551,0.3401360544217687,0.3401360544217687,0.3401360544217687,0.3401360544217687,0.3435374149659864,0.3435374149659864,0.3469387755102041,0.3469387755102041,0.3469387755102041,0.3469387755102041,0.35034013605442177,0.35034013605442177,0.35374149659863946,0.35714285714285715,0.36054421768707484,0.3673469387755102,0.3707482993197279,0.3741496598639456,0.3843537414965986,0.391156462585034,0.3979591836734694,0.3979591836734694,0.4013605442176871,0.40476190476190477,0.41156462585034015,0.41156462585034015,0.41156462585034015,0.41496598639455784,0.41836734693877553,0.42517006802721086,0.42857142857142855,0.43537414965986393,0.4489795918367347,0.46258503401360546,0.47278911564625853,0.47278911564625853,0.48299319727891155,0.48639455782312924,0.4897959183673469,0.4931972789115646,0.4965986394557823,0.4965986394557823,0.5,0.5,0.5,0.5034013605442177,0.5034013605442177,0.5068027210884354,0.5102040816326531,0.5102040816326531,0.5102040816326531,0.5102040816326531,0.5102040816326531,0.5136054421768708,0.5136054421768708,0.5136054421768708,0.5170068027210885,0.5204081632653061,0.5238095238095238,0.5238095238095238,0.5238095238095238,0.5238095238095238,0.5238095238095238,0.5238095238095238,0.5238095238095238,0.5238095238095238,0.5272108843537415,0.5272108843537415,0.5272108843537415,0.5272108843537415,0.5272108843537415,0.5306122448979592,0.5340136054421769,0.5340136054421769,0.5340136054421769,0.5340136054421769,0.5340136054421769,0.5340136054421769,0.5340136054421769,0.5374149659863946,0.5374149659863946,0.5374149659863946,0.5374149659863946,0.5374149659863946,0.5374149659863946,0.5374149659863946,0.5374149659863946,0.5374149659863946,0.5374149659863946,0.5374149659863946,0.5374149659863946,0.5374149659863946,0.5374149659863946,0.5374149659863946,0.5374149659863946,0.5374149659863946,0.5374149659863946,0.5374149659863946,0.5374149659863946,0.5374149659863946,0.5374149659863946,0.5374149659863946,0.5374149659863946,0.5374149659863946,0.5374149659863946,0.5374149659863946,0.5374149659863946,0.5374149659863946,0.5374149659863946,0.5374149659863946,0.5374149659863946,0.5374149659863946,0.5374149659863946,0.5374149659863946,0.5374149659863946,0.5374149659863946,0.5374149659863946,0.5374149659863946,0.5374149659863946,0.5374149659863946,0.5374149659863946,0.5374149659863946,0.5374149659863946,0.5374149659863946,0.5374149659863946,0.5374149659863946,0.5374149659863946,0.5374149659863946,0.5374149659863946,0.5374149659863946,0.5374149659863946,0.5374149659863946,0.5374149659863946,0.5374149659863946,0.5374149659863946,0.5374149659863946,0.5374149659863946,0.5374149659863946,0.5374149659863946,0.5374149659863946,0.5374149659863946,0.5374149659863946,0.5374149659863946,0.5374149659863946,0.5374149659863946,0.5374149659863946,0.5374149659863946,0.5374149659863946,0.5374149659863946,0.5374149659863946,0.5374149659863946,0.5374149659863946,0.5374149659863946,0.5374149659863946,0.5374149659863946,0.5374149659863946,0.5374149659863946,0.5374149659863946,0.5374149659863946,0.5374149659863946,0.5374149659863946,0.5374149659863946,0.5374149659863946,0.5374149659863946,0.5374149659863946,0.5374149659863946,0.5374149659863946,0.5374149659863946,0.5374149659863946,0.5374149659863946,0.5374149659863946,0.5374149659863946,0.5374149659863946,0.5374149659863946,0.5374149659863946,0.5374149659863946,0.5374149659863946,0.5374149659863946,0.5374149659863946,0.5374149659863946,0.5374149659863946,0.5374149659863946,0.5374149659863946,0.5374149659863946,0.5374149659863946,0.5374149659863946,0.5340136054421769,0.5238095238095238,0.5102040816326531,0.5,0.48639455782312924,0.46938775510204084,0.4557823129251701,0.4421768707482993,0.43197278911564624,0.4217687074829932,0.4013605442176871,0.391156462585034,0.37755102040816324,0.36394557823129253,0.3435374149659864,0.29591836734693877,0.2653061224489796,0.25170068027210885,0.23809523809523808,0.21428571428571427,0.1836734693877551,0.18027210884353742,0.16666666666666666,0.16326530612244897,0.15306122448979592,0.14285714285714285,0.13945578231292516,0.1292517006802721,0.1292517006802721,0.12585034013605442,0.11904761904761904,0.11564625850340136,0.11224489795918367,0.11224489795918367,0.11224489795918367,0.10884353741496598,0.10884353741496598,0.10884353741496598,0.10884353741496598,0.10884353741496598,0.10884353741496598,0.11564625850340136,0.11564625850340136,0.11904761904761904,0.12244897959183673,0.1292517006802721,0.1292517006802721,0.1326530612244898,0.1360544217687075,0.13945578231292516,0.14625850340136054,0.15306122448979592,0.1564625850340136,0.16326530612244897,0.17006802721088435,0.17346938775510204,0.17687074829931973,0.17687074829931973,0.18027210884353742,0.1836734693877551,0.1836734693877551,0.1836734693877551,0.1836734693877551,0.1870748299319728,0.1870748299319728,0.1870748299319728,0.1870748299319728,0.1870748299319728,0.1870748299319728,0.1870748299319728,0.1870748299319728,0.1870748299319728,0.1870748299319728,0.1870748299319728,0.1870748299319728,0.1870748299319728,0.1870748299319728,0.1870748299319728,0.1870748299319728,0.1870748299319728,0.1870748299319728,0.1870748299319728,0.1870748299319728,0.1836734693877551,0.1836734693877551,0.1836734693877551,0.17687074829931973,0.17006802721088435,0.16326530612244897,0.1564625850340136,0.14965986394557823,0.14625850340136054,0.13945578231292516,0.1292517006802721,0.1292517006802721,0.1292517006802721,0.12585034013605442,0.12244897959183673,0.12244897959183673,0.12244897959183673,0.11904761904761904,0.11904761904761904,0.11904761904761904,0.11904761904761904,0.11904761904761904,0.11904761904761904,0.11904761904761904,0.11904761904761904,0.11904761904761904,0.11904761904761904,0.11904761904761904,0.11904761904761904,0.11904761904761904,0.11904761904761904,0.11904761904761904,0.11904761904761904,0.1292517006802721,0.1292517006802721,0.1326530612244898,0.1360544217687075,0.13945578231292516,0.14285714285714285,0.14285714285714285,0.14285714285714285,0.14625850340136054,0.14625850340136054,0.14625850340136054,0.14625850340136054,0.14965986394557823,0.14965986394557823,0.14965986394557823,0.15306122448979592,0.15306122448979592,0.15306122448979592,0.15306122448979592,0.15306122448979592,0.15306122448979592,0.15306122448979592,0.15306122448979592,0.15306122448979592,0.15306122448979592,0.15306122448979592,0.15306122448979592,0.15306122448979592,0.15306122448979592,0.15306122448979592,0.15306122448979592,0.15306122448979592,0.15306122448979592,0.1564625850340136,0.1564625850340136,0.1564625850340136,0.1564625850340136,0.1564625850340136,0.1564625850340136,0.1564625850340136,0.1564625850340136,0.1564625850340136,0.1564625850340136,0.1564625850340136,0.1564625850340136,0.1564625850340136,0.1564625850340136,0.1564625850340136,0.1564625850340136,0.1564625850340136,0.1564625850340136,0.1564625850340136,0.1564625850340136,0.1564625850340136,0.1564625850340136,0.1564625850340136,0.1564625850340136,0.1564625850340136,0.1564625850340136,0.1564625850340136,0.1564625850340136,0.1564625850340136,0.1598639455782313,0.1598639455782313,0.1598639455782313,0.1598639455782313,0.1598639455782313,0.1598639455782313,0.1598639455782313,0.1598639455782313,0.1598639455782313,0.1598639455782313,0.1598639455782313,0.1598639455782313,0.1598639455782313,0.1598639455782313,0.1598639455782313,0.16326530612244897,0.16326530612244897,0.16326530612244897,0.16326530612244897,0.16326530612244897,0.16326530612244897,0.16326530612244897,0.16326530612244897,0.16326530612244897,0.16326530612244897,0.16666666666666666,0.16666666666666666,0.16666666666666666,0.16666666666666666,0.16666666666666666,0.16666666666666666,0.16666666666666666,0.16666666666666666,0.16666666666666666,0.16666666666666666,0.16666666666666666,0.16666666666666666,0.16666666666666666,0.16666666666666666,0.17006802721088435,0.17006802721088435,0.17006802721088435,0.17006802721088435,0.17006802721088435,0.17006802721088435,0.17006802721088435,0.17006802721088435,0.17006802721088435,0.17006802721088435,0.17006802721088435,0.17006802721088435,0.17006802721088435,0.17006802721088435,0.17006802721088435,0.17006802721088435,0.17006802721088435,0.17006802721088435,0.17006802721088435,0.17006802721088435,0.17006802721088435,0.17006802721088435,0.17006802721088435,0.17006802721088435,0.17006802721088435,0.17006802721088435,0.17006802721088435,0.17006802721088435,0.17006802721088435,0.17006802721088435,0.17006802721088435,0.17006802721088435,0.17006802721088435,0.17006802721088435,0.17006802721088435,0.17006802721088435,0.17006802721088435,0.17006802721088435,0.17006802721088435,0.17006802721088435,0.17006802721088435,0.17006802721088435,0.17006802721088435,0.17006802721088435,0.17006802721088435,0.17006802721088435,0.17006802721088435,0.17006802721088435,0.17006802721088435,0.17006802721088435,0.17006802721088435,0.17006802721088435,0.17006802721088435,0.17006802721088435,0.17006802721088435,0.17006802721088435,0.17006802721088435,0.17006802721088435,0.17006802721088435,0.17346938775510204,0.18027210884353742,0.18027210884353742,0.18027210884353742,0.1836734693877551,0.20068027210884354,0.2108843537414966,0.2108843537414966,0.21428571428571427,0.21768707482993196,0.22108843537414966,0.22448979591836735,0.22448979591836735,0.23469387755102042,0.24829931972789115,0.25510204081632654,0.2585034013605442,0.2619047619047619,0.2653061224489796,0.2653061224489796,0.2687074829931973,0.272108843537415,0.272108843537415,0.2789115646258503,0.282312925170068,0.2857142857142857,0.2925170068027211,0.2925170068027211,0.29591836734693877,0.29931972789115646,0.30272108843537415,0.30272108843537415,0.30272108843537415,0.30612244897959184,0.30612244897959184,0.3129251700680272,0.3163265306122449,0.3197278911564626,0.3197278911564626,0.3231292517006803,0.32653061224489793,0.32653061224489793,0.3299319727891156,0.3299319727891156,0.3333333333333333,0.3333333333333333,0.3333333333333333,0.336734693877551,0.336734693877551,0.3401360544217687,0.3435374149659864,0.3469387755102041,0.36054421768707484,0.36054421768707484,0.36394557823129253,0.3707482993197279,0.3707482993197279,0.3741496598639456,0.3741496598639456,0.37755102040816324,0.37755102040816324,0.38095238095238093,0.38095238095238093,0.38095238095238093,0.3843537414965986,0.3877551020408163,0.3877551020408163,0.3877551020408163,0.3877551020408163,0.3877551020408163,0.3877551020408163,0.3877551020408163,0.3877551020408163,0.3877551020408163,0.3877551020408163,0.3877551020408163,0.3877551020408163,0.3877551020408163,0.3877551020408163,0.3877551020408163,0.3877551020408163,0.3877551020408163,0.3877551020408163,0.3877551020408163,0.3877551020408163,0.3877551020408163,0.3877551020408163,0.3877551020408163,0.3877551020408163,0.3877551020408163,0.391156462585034,0.3945578231292517,0.3945578231292517,0.4013605442176871,0.4013605442176871,0.40476190476190477,0.40816326530612246,0.41156462585034015,0.41496598639455784,0.41496598639455784,0.41496598639455784,0.41496598639455784,0.41836734693877553,0.4217687074829932,0.42857142857142855,0.42857142857142855,0.42857142857142855,0.43537414965986393,0.445578231292517,0.4557823129251701,0.46938775510204084,0.47959183673469385,0.5068027210884354,0.5272108843537415,0.5374149659863946,0.5510204081632653,0.5850340136054422,0.6190476190476191,0.6360544217687075,0.6700680272108843,0.7312925170068028,0.7517006802721088,0.7585034013605442,0.7585034013605442,0.7585034013605442,0.7653061224489796,0.7687074829931972,0.7687074829931972,0.7687074829931972,0.7687074829931972,0.7721088435374149,0.7721088435374149,0.7755102040816326,0.7755102040816326,0.7755102040816326,0.782312925170068,0.782312925170068,0.7891156462585034,0.7925170068027211,0.7959183673469388,0.8095238095238095,0.8197278911564626,0.8231292517006803,0.826530612244898,0.8367346938775511,0.8503401360544217,0.8639455782312925,0.8639455782312925,0.8707482993197279,0.8775510204081632,0.8775510204081632,0.8843537414965986,0.8877551020408163,0.8877551020408163,0.891156462585034,0.891156462585034,0.891156462585034,0.891156462585034,0.891156462585034,0.891156462585034,0.891156462585034,0.891156462585034,0.8809523809523809,0.8639455782312925,0.8129251700680272,0.782312925170068,0.7244897959183674,0.6802721088435374,0.6394557823129252,0.6054421768707483,0.5918367346938775,0.5782312925170068,0.5510204081632653,0.5238095238095238,0.5102040816326531,0.5068027210884354,0.5034013605442177,0.4965986394557823,0.4897959183673469,0.47959183673469385,0.4489795918367347,0.43197278911564624,0.3877551020408163,0.35034013605442177,0.3401360544217687,0.32653061224489793,0.30952380952380953,0.2925170068027211,0.2619047619047619,0.24489795918367346,0.22448979591836735,0.20748299319727892,0.1870748299319728,0.17687074829931973,0.17006802721088435,0.16666666666666666,0.16326530612244897,0.1598639455782313,0.1598639455782313,0.1564625850340136,0.1564625850340136,0.15306122448979592,0.15306122448979592,0.15306122448979592,0.14965986394557823,0.14965986394557823,0.14965986394557823,0.14965986394557823,0.14965986394557823,0.14965986394557823,0.14965986394557823,0.14965986394557823,0.14965986394557823,0.14965986394557823,0.14965986394557823,0.14965986394557823,0.14965986394557823,0.14965986394557823,0.14965986394557823,0.14965986394557823,0.14965986394557823,0.14965986394557823,0.14965986394557823,0.14965986394557823,0.14965986394557823,0.14965986394557823,0.14965986394557823,0.14965986394557823,0.14965986394557823,0.14965986394557823,0.14965986394557823,0.14965986394557823,0.14965986394557823,0.14965986394557823,0.14965986394557823,0.14965986394557823,0.14965986394557823,0.14965986394557823,0.14285714285714285,0.12244897959183673,0.11224489795918367,0.10204081632653061,0.10204081632653061,0.08843537414965986,0.08503401360544217,0.08163265306122448,0.07482993197278912,0.07482993197278912,0.07142857142857142,0.06802721088435375,0.06462585034013606,0.06462585034013606,0.061224489795918366,0.061224489795918366,0.061224489795918366,0.061224489795918366,0.05782312925170068,0.05782312925170068,0.05442176870748299,0.05442176870748299,0.05442176870748299,0.05102040816326531,0.05102040816326531,0.047619047619047616,0.047619047619047616,0.04421768707482993,0.04081632653061224,0.03741496598639456,0.034013605442176874,0.034013605442176874,0.034013605442176874,0.030612244897959183,0.030612244897959183,0.027210884353741496,0.027210884353741496,0.027210884353741496,0.027210884353741496,0.027210884353741496,0.027210884353741496,0.027210884353741496,0.027210884353741496,0.027210884353741496,0.027210884353741496,0.027210884353741496,0.027210884353741496,0.027210884353741496,0.027210884353741496,0.027210884353741496,0.027210884353741496,0.027210884353741496,0.027210884353741496,0.027210884353741496,0.027210884353741496,0.027210884353741496,0.027210884353741496,0.027210884353741496,0.027210884353741496,0.027210884353741496,0.027210884353741496,0.027210884353741496,0.027210884353741496,0.027210884353741496,0.027210884353741496,0.027210884353741496,0.027210884353741496,0.027210884353741496,0.027210884353741496,0.027210884353741496,0.027210884353741496,0.027210884353741496,0.027210884353741496,0.027210884353741496,0.027210884353741496,0.027210884353741496,0.027210884353741496,0.027210884353741496,0.027210884353741496,0.027210884353741496,0.027210884353741496,0.027210884353741496,0.027210884353741496,0.027210884353741496,0.027210884353741496,0.027210884353741496,0.027210884353741496,0.027210884353741496,0.027210884353741496,0.027210884353741496,0.027210884353741496,0.027210884353741496,0.027210884353741496,0.027210884353741496,0.027210884353741496,0.030612244897959183,0.030612244897959183,0.034013605442176874,0.047619047619047616,0.07482993197278912,0.12244897959183673,0.19047619047619047,0.22108843537414966,0.2925170068027211,0.3333333333333333,0.36054421768707484,0.3741496598639456,0.4013605442176871,0.41156462585034015,0.43537414965986393,0.4557823129251701,0.47959183673469385,0.5,0.5238095238095238,0.5476190476190477,0.564625850340136,0.5816326530612245,0.6054421768707483,0.6156462585034014,0.6292517006802721,0.6326530612244898,0.6428571428571429,0.6462585034013606,0.6598639455782312,0.6632653061224489,0.673469387755102,0.6836734693877551,0.6938775510204082,0.6972789115646258,0.7006802721088435,0.7006802721088435,0.6972789115646258,0.6938775510204082,0.6870748299319728,0.6666666666666666,0.6530612244897959,0.6190476190476191,0.5918367346938775,0.5612244897959183,0.54421768707483,0.4931972789115646,0.46938775510204084,0.46258503401360546,0.4489795918367347,0.4421768707482993,0.43197278911564624,0.4217687074829932,0.41496598639455784,0.40476190476190477,0.3877551020408163,0.38095238095238093,0.3741496598639456,0.3707482993197279,0.36394557823129253,0.36054421768707484,0.36054421768707484,0.35374149659863946,0.35374149659863946,0.35034013605442177,0.3469387755102041,0.3401360544217687,0.3333333333333333,0.32653061224489793,0.3197278911564626,0.30612244897959184,0.29591836734693877,0.2891156462585034,0.2755102040816326,0.2653061224489796,0.25170068027210885,0.24149659863945577,0.23809523809523808,0.23129251700680273,0.22108843537414966,0.21428571428571427,0.20408163265306123,0.20068027210884354,0.19387755102040816,0.1870748299319728,0.1836734693877551,0.1836734693877551,0.17687074829931973,0.17006802721088435,0.16326530612244897,0.1564625850340136,0.15306122448979592,0.14625850340136054,0.14285714285714285,0.1326530612244898,0.11564625850340136,0.10884353741496598,0.1054421768707483,0.09863945578231292,0.09863945578231292,0.09523809523809523,0.09183673469387756,0.09183673469387756,0.09183673469387756,0.09183673469387756,0.09183673469387756,0.09183673469387756,0.09523809523809523,0.10204081632653061,0.11564625850340136,0.12244897959183673,0.1360544217687075,0.1564625850340136,0.1870748299319728,0.22448979591836735,0.25170068027210885,0.30612244897959184,0.32653061224489793,0.35034013605442177,0.3673469387755102,0.3673469387755102,0.37755102040816324,0.3843537414965986,0.3877551020408163,0.3979591836734694,0.4013605442176871,0.41156462585034015,0.41836734693877553,0.42517006802721086,0.42517006802721086,0.42857142857142855,0.43197278911564624,0.4387755102040816,0.4421768707482993,0.4489795918367347,0.4557823129251701,0.46598639455782315,0.47619047619047616,0.4931972789115646,0.5,0.5238095238095238,0.5578231292517006,0.5884353741496599,0.6258503401360545,0.6598639455782312,0.6870748299319728,0.7142857142857143,0.7278911564625851,0.7414965986394558,0.7551020408163265,0.7687074829931972,0.7687074829931972,0.7755102040816326,0.7755102040816326,0.782312925170068,0.7857142857142857,0.7857142857142857,0.7857142857142857,0.7857142857142857,0.7925170068027211,0.7959183673469388,0.8061224489795918,0.8095238095238095,0.8095238095238095,0.8095238095238095,0.8095238095238095,0.8061224489795918,0.8061224489795918,0.8027210884353742,0.7993197278911565,0.7993197278911565,0.7993197278911565,0.7993197278911565,0.7959183673469388,0.7959183673469388,0.7959183673469388,0.7925170068027211,0.7857142857142857,0.782312925170068,0.7789115646258503,0.7721088435374149,0.7687074829931972,0.7619047619047619,0.7585034013605442,0.7551020408163265,0.7551020408163265,0.7551020408163265,0.7517006802721088,0.7517006802721088,0.7517006802721088,0.7482993197278912,0.7482993197278912,0.7448979591836735,0.7414965986394558,0.7414965986394558,0.7414965986394558,0.7414965986394558,0.7414965986394558,0.7380952380952381,0.7380952380952381,0.7346938775510204,0.7346938775510204,0.7346938775510204,0.7312925170068028,0.7312925170068028,0.7312925170068028,0.7312925170068028,0.7312925170068028,0.7312925170068028,0.7312925170068028,0.7312925170068028,0.7312925170068028,0.7312925170068028,0.7312925170068028,0.7312925170068028,0.7312925170068028,0.7312925170068028,0.7312925170068028,0.7312925170068028,0.7312925170068028,0.7312925170068028,0.7312925170068028,0.7312925170068028,0.7312925170068028,0.7312925170068028,0.7312925170068028,0.7312925170068028,0.7312925170068028,0.7312925170068028,0.7312925170068028,0.7312925170068028,0.7312925170068028,0.7312925170068028,0.7312925170068028,0.7312925170068028,0.7312925170068028,0.7312925170068028,0.7312925170068028,0.7312925170068028,0.7312925170068028,0.7312925170068028,0.7312925170068028,0.7312925170068028,0.7278911564625851,0.6870748299319728,0.608843537414966,0.5850340136054422,0.5544217687074829,0.5306122448979592,0.5,0.4931972789115646,0.46258503401360546,0.4387755102040816,0.41496598639455784,0.40816326530612246,0.4013605442176871,0.3877551020408163,0.3707482993197279,0.35034013605442177,0.3197278911564626,0.30612244897959184,0.2857142857142857,0.2755102040816326,0.2653061224489796,0.25510204081632654,0.24829931972789115,0.23809523809523808,0.22789115646258504,0.22108843537414966,0.2108843537414966,0.20068027210884354,0.19727891156462585,0.19387755102040816,0.1836734693877551,0.17006802721088435,0.13945578231292516,0.11904761904761904,0.11564625850340136,0.11224489795918367,0.10884353741496598,0.10204081632653061,0.10204081632653061,0.10204081632653061,0.10204081632653061,0.09863945578231292,0.09863945578231292,0.09523809523809523,0.09523809523809523,0.09523809523809523,0.09523809523809523,0.09523809523809523,0.09183673469387756,0.09183673469387756,0.09183673469387756,0.09183673469387756,0.09183673469387756,0.09183673469387756,0.09183673469387756,0.09183673469387756,0.09183673469387756,0.09183673469387756,0.09183673469387756,0.09183673469387756,0.09183673469387756,0.09183673469387756,0.09183673469387756,0.09183673469387756,0.09183673469387756,0.09183673469387756,0.09183673469387756,0.09183673469387756,0.09183673469387756,0.09183673469387756,0.09183673469387756,0.09183673469387756,0.09183673469387756,0.09183673469387756,0.09183673469387756,0.09183673469387756,0.09183673469387756,0.09183673469387756,0.09183673469387756,0.09183673469387756,0.09183673469387756,0.09183673469387756,0.09183673469387756,0.09183673469387756,0.09183673469387756,0.09183673469387756,0.09183673469387756,0.09183673469387756,0.09183673469387756,0.09183673469387756,0.09183673469387756,0.09183673469387756,0.09183673469387756,0.09183673469387756,0.09183673469387756,0.09183673469387756,0.09183673469387756,0.09183673469387756,0.09183673469387756,0.09183673469387756,0.09183673469387756,0.09183673469387756,0.09183673469387756,0.09183673469387756,0.09183673469387756,0.09183673469387756,0.09183673469387756,0.09183673469387756,0.09183673469387756,0.09183673469387756,0.09183673469387756,0.09183673469387756,0.09183673469387756,0.09183673469387756,0.09183673469387756,0.09183673469387756,0.09183673469387756,0.09183673469387756,0.09183673469387756,0.09183673469387756,0.09183673469387756,0.09183673469387756,0.09183673469387756,0.09183673469387756,0.09183673469387756,0.09183673469387756,0.09183673469387756,0.09183673469387756,0.09183673469387756,0.09183673469387756,0.09183673469387756,0.09183673469387756,0.09183673469387756,0.09183673469387756,0.09183673469387756,0.09183673469387756,0.09183673469387756,0.09183673469387756,0.09183673469387756,0.09183673469387756,0.09183673469387756,0.09183673469387756,0.09183673469387756,0.09183673469387756,0.09183673469387756,0.09183673469387756,0.09183673469387756,0.09183673469387756,0.09183673469387756,0.09183673469387756,0.09183673469387756,0.09183673469387756,0.09183673469387756,0.09183673469387756,0.09183673469387756,0.09183673469387756,0.09183673469387756,0.09183673469387756,0.09183673469387756,0.09183673469387756,0.09183673469387756,0.09183673469387756,0.09183673469387756,0.09183673469387756,0.09183673469387756,0.09183673469387756,0.09183673469387756,0.09183673469387756,0.09183673469387756,0.09183673469387756,0.09183673469387756,0.09183673469387756,0.09183673469387756,0.09183673469387756,0.09183673469387756,0.09183673469387756,0.09183673469387756,0.09183673469387756,0.09183673469387756,0.09183673469387756,0.09183673469387756,0.09183673469387756,0.09183673469387756,0.09183673469387756,0.09183673469387756,0.09183673469387756,0.09183673469387756,0.09183673469387756,0.09183673469387756,0.09183673469387756,0.09183673469387756,0.09183673469387756,0.09183673469387756,0.09183673469387756,0.09183673469387756,0.09183673469387756,0.09183673469387756,0.09183673469387756,0.09183673469387756,0.09183673469387756,0.09183673469387756,0.09183673469387756,0.09183673469387756,0.09183673469387756,0.09183673469387756,0.09183673469387756,0.09183673469387756,0.09183673469387756,0.09183673469387756,0.09183673469387756,0.09183673469387756,0.09183673469387756,0.09183673469387756,0.09183673469387756,0.09183673469387756,0.09183673469387756,0.09183673469387756,0.09183673469387756,0.09183673469387756,0.09183673469387756,0.09183673469387756,0.09183673469387756,0.09183673469387756,0.09183673469387756,0.09183673469387756,0.09183673469387756,0.09183673469387756,0.09183673469387756,0.09183673469387756,0.09183673469387756,0.09183673469387756,0.09183673469387756,0.09183673469387756,0.09183673469387756,0.09183673469387756,0.09183673469387756,0.09183673469387756,0.09183673469387756,0.09183673469387756,0.09183673469387756,0.09183673469387756,0.09183673469387756,0.09183673469387756,0.09183673469387756,0.09183673469387756,0.09183673469387756,0.09183673469387756,0.09183673469387756,0.09183673469387756,0.09183673469387756,0.09183673469387756,0.09183673469387756,0.09183673469387756,0.10204081632653061,0.1564625850340136,0.17687074829931973,0.22789115646258504,0.2585034013605442,0.2755102040816326,0.2789115646258503,0.282312925170068,0.2857142857142857,0.2891156462585034,0.2925170068027211,0.29591836734693877,0.29591836734693877,0.29931972789115646,0.30272108843537415,0.30612244897959184,0.30612244897959184,0.30612244897959184,0.30952380952380953,0.30952380952380953,0.3129251700680272,0.3129251700680272,0.3129251700680272,0.3163265306122449,0.3163265306122449,0.3163265306122449,0.3163265306122449,0.3163265306122449,0.3163265306122449,0.3163265306122449,0.3163265306122449,0.3163265306122449,0.3163265306122449,0.3163265306122449,0.3163265306122449,0.3163265306122449,0.3163265306122449,0.3163265306122449,0.3163265306122449,0.3163265306122449,0.3163265306122449,0.3163265306122449,0.3163265306122449,0.3163265306122449,0.3163265306122449,0.3163265306122449,0.3129251700680272,0.3129251700680272,0.3129251700680272,0.3129251700680272,0.3129251700680272,0.3129251700680272,0.3129251700680272,0.3129251700680272,0.3129251700680272,0.3129251700680272,0.3129251700680272,0.3129251700680272,0.3129251700680272,0.3129251700680272,0.3129251700680272,0.3129251700680272,0.3129251700680272,0.3129251700680272,0.3129251700680272,0.3129251700680272,0.3129251700680272,0.3129251700680272,0.3129251700680272,0.3129251700680272,0.3129251700680272,0.3129251700680272,0.3129251700680272,0.3129251700680272,0.3129251700680272,0.3129251700680272,0.3129251700680272,0.3129251700680272,0.3129251700680272,0.3129251700680272,0.3129251700680272,0.3129251700680272,0.3129251700680272,0.3129251700680272,0.3129251700680272,0.3129251700680272,0.3129251700680272,0.3129251700680272,0.3129251700680272,0.3129251700680272,0.3129251700680272,0.3129251700680272,0.3129251700680272,0.3129251700680272,0.3129251700680272,0.3129251700680272,0.3129251700680272,0.3129251700680272,0.3129251700680272,0.3129251700680272,0.3129251700680272,0.3129251700680272,0.3129251700680272,0.3129251700680272,0.3129251700680272,0.3129251700680272,0.3129251700680272,0.3129251700680272,0.3129251700680272,0.3129251700680272,0.3129251700680272,0.3129251700680272,0.3129251700680272,0.3129251700680272,0.3129251700680272,0.3129251700680272,0.3129251700680272,0.3129251700680272,0.3129251700680272,0.3129251700680272,0.3129251700680272,0.3129251700680272,0.3129251700680272,0.3129251700680272,0.3129251700680272,0.3129251700680272,0.3129251700680272,0.3129251700680272,0.3129251700680272,0.3129251700680272,0.3129251700680272,0.3129251700680272,0.3129251700680272,0.3129251700680272,0.3129251700680272,0.3129251700680272,0.3129251700680272,0.3129251700680272,0.3129251700680272,0.3129251700680272,0.3129251700680272,0.3129251700680272,0.3129251700680272,0.3129251700680272,0.3129251700680272,0.3129251700680272,0.3129251700680272,0.3129251700680272,0.3129251700680272,0.3129251700680272,0.3129251700680272,0.3129251700680272,0.3129251700680272,0.3129251700680272,0.3129251700680272,0.3129251700680272,0.3129251700680272,-0.01020408163265306,-0.01020408163265306,-0.01020408163265306,-0.01020408163265306,-0.01020408163265306,-0.01020408163265306,-0.01020408163265306,-0.01020408163265306,-0.01020408163265306,-0.01020408163265306,-0.01020408163265306,-0.01020408163265306,-0.01020408163265306,-0.01020408163265306,-0.01020408163265306,-0.01020408163265306,-0.01020408163265306,-0.01020408163265306,-0.01020408163265306,-0.01020408163265306,0.05442176870748299,0.1054421768707483,0.1360544217687075,0.14625850340136054,0.14965986394557823,0.14965986394557823,0.15306122448979592,0.1564625850340136,0.17006802721088435,0.17006802721088435,0.17346938775510204,0.17687074829931973,0.18027210884353742,0.18027210884353742,0.18027210884353742,0.18027210884353742,0.18027210884353742,0.18027210884353742,0.18027210884353742,0.18027210884353742,0.18027210884353742,0.1836734693877551,0.1836734693877551,0.1836734693877551,0.1870748299319728,0.19387755102040816,0.20748299319727892,0.22108843537414966,0.22448979591836735,0.22448979591836735,0.22789115646258504,0.23129251700680273,0.23129251700680273,0.23129251700680273,0.23469387755102042,0.23809523809523808,0.23809523809523808,0.24149659863945577,0.24829931972789115,0.25170068027210885,0.25170068027210885,0.25510204081632654,0.2585034013605442,0.2585034013605442,0.2585034013605442,0.2619047619047619,0.2653061224489796,0.2653061224489796,0.2653061224489796,0.2653061224489796,0.2653061224489796,0.2687074829931973,0.2687074829931973,0.2687074829931973,0.2687074829931973,0.2687074829931973,0.2687074829931973,0.2687074829931973,0.2687074829931973,0.2687074829931973,0.2687074829931973,0.2687074829931973,0.2687074829931973,0.2687074829931973,0.2687074829931973,0.2687074829931973,0.2687074829931973,0.2687074829931973,0.2687074829931973,0.2687074829931973,0.2687074829931973,0.2687074829931973,0.2687074829931973,0.2687074829931973,0.2687074829931973,0.2687074829931973,0.2687074829931973,0.2687074829931973,0.2687074829931973,0.2687074829931973,0.2687074829931973,0.2687074829931973,0.2687074829931973,0.2687074829931973,0.2687074829931973,0.2687074829931973,0.2687074829931973,0.2687074829931973,0.2687074829931973,0.2687074829931973,0.2687074829931973,0.2687074829931973,0.2687074829931973,0.2687074829931973,0.2687074829931973,0.2653061224489796,0.2653061224489796,0.2653061224489796,0.2619047619047619,0.20408163265306123,0.05102040816326531,-0.01020408163265306,-0.034013605442176874,-0.06802721088435375,-0.08843537414965986,-0.10204081632653061,-0.11564625850340136,-0.12585034013605442,-0.14285714285714285,-0.14625850340136054,-0.15306122448979592,-0.1564625850340136,-0.1598639455782313,-0.16326530612244897,-0.17006802721088435,-0.1836734693877551,-0.19047619047619047,-0.19727891156462585,-0.20068027210884354,-0.20748299319727892,-0.2108843537414966,-0.2108843537414966,-0.21428571428571427,-0.22108843537414966,-0.22448979591836735,-0.23129251700680273,-0.23809523809523808,-0.23809523809523808,-0.23809523809523808,-0.23809523809523808,-0.23809523809523808,-0.23809523809523808,-0.23809523809523808,-0.23809523809523808,-0.23809523809523808,-0.23809523809523808,-0.23809523809523808,-0.23809523809523808,-0.23809523809523808,-0.23809523809523808,-0.23809523809523808,-0.23809523809523808,-0.23809523809523808,-0.23809523809523808,-0.23809523809523808,-0.23809523809523808,-0.23809523809523808,-0.23809523809523808,-0.23809523809523808,-0.23809523809523808,-0.23809523809523808,-0.23809523809523808,-0.23809523809523808,-0.23809523809523808,-0.23809523809523808,-0.23809523809523808,-0.23809523809523808,-0.23809523809523808,-0.23809523809523808,-0.23809523809523808,-0.23809523809523808,-0.23809523809523808,-0.23809523809523808,-0.23809523809523808,-0.23809523809523808,-0.23809523809523808,-0.23809523809523808,-0.23809523809523808,-0.23809523809523808,-0.23809523809523808,-0.23809523809523808,-0.23809523809523808,-0.23809523809523808,-0.23809523809523808,-0.23809523809523808,-0.23809523809523808,-0.23809523809523808,-0.23809523809523808,-0.23809523809523808,-0.23809523809523808,-0.23809523809523808,-0.23809523809523808,-0.23809523809523808,-0.23809523809523808,-0.23809523809523808,-0.23809523809523808,-0.23809523809523808,-0.23809523809523808,-0.23809523809523808,-0.23809523809523808,-0.23809523809523808,-0.23809523809523808,-0.23809523809523808,-0.23809523809523808,-0.23809523809523808,-0.23809523809523808,-0.23809523809523808,-0.23809523809523808,-0.23809523809523808,-0.23809523809523808,-0.23809523809523808,-0.23809523809523808,-0.23809523809523808,-0.23809523809523808,-0.23809523809523808,-0.23809523809523808,-0.23809523809523808,-0.23809523809523808,-0.23809523809523808,-0.23809523809523808,-0.23809523809523808,-0.23809523809523808,-0.23809523809523808,-0.23809523809523808,-0.23809523809523808,-0.23809523809523808,-0.23809523809523808,-0.23809523809523808,-0.23809523809523808,-0.23809523809523808,-0.23809523809523808,-0.23809523809523808,-0.23809523809523808,-0.23809523809523808,-0.23809523809523808,-0.23809523809523808,-0.23809523809523808,-0.23809523809523808,-0.23809523809523808,-0.23809523809523808,-0.23809523809523808,-0.23809523809523808,-0.23809523809523808,-0.23809523809523808,-0.23809523809523808,-0.23809523809523808,-0.23809523809523808,-0.23809523809523808,-0.23809523809523808,-0.23809523809523808,-0.23809523809523808,-0.23809523809523808,-0.23809523809523808,-0.23809523809523808,-0.23809523809523808,-0.23809523809523808,-0.23809523809523808,-0.23809523809523808,-0.23809523809523808,-0.23809523809523808,-0.23809523809523808,-0.23809523809523808,-0.23809523809523808,-0.23809523809523808,-0.23809523809523808,-0.23809523809523808,-0.23809523809523808,-0.23809523809523808,-0.23809523809523808,-0.23809523809523808,-0.23809523809523808,-0.23809523809523808,-0.23809523809523808,-0.23809523809523808,-0.23809523809523808,-0.23809523809523808,-0.23809523809523808,-0.23809523809523808,-0.23809523809523808,-0.23809523809523808,-0.23809523809523808,-0.23809523809523808,-0.23809523809523808,-0.23809523809523808,-0.23809523809523808,-0.23809523809523808,-0.23809523809523808,-0.23809523809523808,-0.23809523809523808,-0.23809523809523808,-0.23809523809523808,-0.23809523809523808,-0.23809523809523808,-0.23809523809523808,-0.23809523809523808,-0.23809523809523808,-0.23809523809523808,-0.23809523809523808,-0.23809523809523808,-0.23809523809523808,-0.23809523809523808,-0.23809523809523808,-0.23809523809523808,-0.23809523809523808,-0.23809523809523808,-0.23809523809523808,-0.23809523809523808,-0.23809523809523808,-0.23809523809523808,-0.23809523809523808,-0.23809523809523808,-0.23809523809523808,-0.23809523809523808,-0.23809523809523808,-0.23809523809523808,-0.23809523809523808,-0.23809523809523808,-0.23809523809523808,-0.23809523809523808,-0.23809523809523808,-0.23809523809523808,-0.23809523809523808,-0.23809523809523808,-0.23809523809523808,-0.23809523809523808,-0.23809523809523808,-0.23809523809523808,-0.23809523809523808,-0.23809523809523808,-0.23809523809523808,-0.23809523809523808,-0.23809523809523808,-0.23809523809523808,-0.23809523809523808,-0.23809523809523808,-0.23809523809523808,-0.23809523809523808,-0.23809523809523808,-0.23809523809523808,-0.23809523809523808,-0.23809523809523808,-0.23809523809523808,-0.23809523809523808,-0.23809523809523808,-0.23809523809523808,-0.23809523809523808,-0.23809523809523808,-0.23809523809523808,-0.23809523809523808,-0.23809523809523808,-0.23809523809523808,-0.23809523809523808,-0.23809523809523808,-0.23809523809523808,-0.23809523809523808,-0.23809523809523808,-0.23809523809523808,-0.23809523809523808,-0.23809523809523808,-0.23809523809523808,-0.23809523809523808,-0.23809523809523808,-0.23809523809523808,-0.23809523809523808,-0.23809523809523808,-0.23809523809523808,-0.23809523809523808,-0.23809523809523808,-0.23809523809523808,-0.23809523809523808,-0.23809523809523808,-0.23809523809523808,-0.23809523809523808,-0.23809523809523808,-0.23809523809523808,-0.23809523809523808,-0.23809523809523808,-0.23809523809523808,-0.23809523809523808,-0.23809523809523808,-0.23809523809523808,-0.23809523809523808,-0.23809523809523808,-0.23809523809523808,-0.23809523809523808,-0.23809523809523808,-0.23809523809523808,-0.23809523809523808,-0.23809523809523808,-0.23809523809523808,-0.23809523809523808,-0.23809523809523808,-0.23809523809523808,-0.23809523809523808,-0.23809523809523808,-0.23809523809523808,-0.23809523809523808,-0.23809523809523808,-0.23809523809523808,-0.23809523809523808,-0.23809523809523808,-0.23809523809523808,-0.23809523809523808,-0.23809523809523808,-0.23809523809523808,-0.23809523809523808,-0.23809523809523808,-0.23809523809523808,-0.23809523809523808,-0.23809523809523808,-0.23809523809523808,-0.23809523809523808,-0.23809523809523808,-0.23809523809523808,-0.23809523809523808,-0.23809523809523808,-0.23809523809523808,-0.23809523809523808,-0.23809523809523808,-0.23809523809523808,-0.23809523809523808,-0.23809523809523808,-0.23809523809523808,-0.23809523809523808,-0.23809523809523808,-0.23809523809523808,-0.23809523809523808,-0.23809523809523808,-0.23809523809523808,-0.23809523809523808,-0.23809523809523808,-0.23809523809523808,-0.23809523809523808,-0.23809523809523808,-0.23809523809523808,-0.23809523809523808,-0.23809523809523808,-0.23809523809523808,-0.23809523809523808,-0.23809523809523808,-0.23809523809523808,-0.23809523809523808,-0.23809523809523808,-0.23809523809523808,-0.23809523809523808,-0.23809523809523808,-0.23809523809523808,-0.23809523809523808,-0.23809523809523808,-0.23809523809523808,-0.23809523809523808,-0.23809523809523808,-0.23809523809523808,-0.23809523809523808,-0.23809523809523808,-0.23809523809523808,-0.23809523809523808,-0.23809523809523808,-0.23809523809523808,-0.23809523809523808,-0.23809523809523808,-0.23809523809523808,-0.23809523809523808,-0.23809523809523808,-0.23809523809523808,-0.23809523809523808,-0.23809523809523808,-0.23809523809523808,-0.23809523809523808,-0.23809523809523808,-0.23809523809523808,-0.23809523809523808,-0.23809523809523808,-0.23809523809523808,-0.23809523809523808,-0.23809523809523808,-0.23809523809523808,-0.23809523809523808,-0.23809523809523808,-0.23809523809523808,-0.23809523809523808,-0.23809523809523808,-0.23809523809523808,-0.23809523809523808,-0.23809523809523808,-0.23809523809523808,-0.23809523809523808,-0.23809523809523808,-0.23809523809523808,-0.23809523809523808,-0.23809523809523808,-0.23809523809523808,-0.23809523809523808,-0.23809523809523808,-0.23809523809523808,-0.23809523809523808,-0.23809523809523808,-0.23809523809523808,-0.23809523809523808,-0.23809523809523808,-0.23809523809523808,-0.23809523809523808,-0.23809523809523808,-0.23809523809523808,-0.23809523809523808,-0.23809523809523808,-0.23809523809523808,-0.23809523809523808,-0.23809523809523808,-0.23809523809523808,-0.23809523809523808,-0.23809523809523808,-0.23809523809523808,-0.23809523809523808,-0.23809523809523808,-0.23809523809523808,-0.23809523809523808,-0.23809523809523808,-0.23809523809523808,-0.23809523809523808,-0.23809523809523808,-0.23809523809523808,-0.23809523809523808,-0.23809523809523808,-0.23809523809523808,-0.23809523809523808,-0.23809523809523808,-0.23809523809523808,-0.23809523809523808,-0.23809523809523808,-0.23809523809523808,-0.23809523809523808,-0.23809523809523808,-0.23809523809523808,-0.23809523809523808,-0.23809523809523808,-0.23809523809523808,-0.23809523809523808,-0.23809523809523808,-0.23809523809523808,-0.23809523809523808,-0.23809523809523808,-0.23809523809523808,-0.23809523809523808,-0.23809523809523808,-0.23809523809523808,-0.23809523809523808,-0.23809523809523808,-0.23809523809523808,-0.23809523809523808,-0.23809523809523808,-0.23809523809523808,-0.23809523809523808,-0.23809523809523808,-0.23809523809523808,-0.23809523809523808,-0.23809523809523808,-0.23809523809523808,-0.23809523809523808,-0.23809523809523808,-0.23809523809523808,-0.23809523809523808,-0.23809523809523808,-0.23809523809523808,-0.23809523809523808,-0.23809523809523808,-0.23809523809523808,-0.23809523809523808,-0.23809523809523808,-0.23809523809523808,-0.23809523809523808,-0.23809523809523808,-0.23809523809523808,-0.23809523809523808,-0.23809523809523808,-0.23809523809523808,-0.23809523809523808,-0.23809523809523808,-0.23809523809523808,-0.23809523809523808,-0.23809523809523808,-0.23809523809523808,-0.23809523809523808,-0.23809523809523808,-0.23809523809523808,-0.23809523809523808,-0.23809523809523808,-0.23809523809523808,-0.23809523809523808,-0.23809523809523808,-0.23809523809523808,-0.23809523809523808,-0.23809523809523808,-0.23809523809523808,-0.23809523809523808,-0.23809523809523808,-0.23809523809523808,-0.23809523809523808,-0.23809523809523808,-0.23809523809523808,-0.23809523809523808,-0.23809523809523808,-0.23809523809523808,-0.23809523809523808,-0.23809523809523808,-0.23809523809523808,-0.2108843537414966,-0.17687074829931973,-0.14285714285714285,-0.07482993197278912,-0.047619047619047616,0.04081632653061224,0.1360544217687075,0.19727891156462585,0.23809523809523808,0.30612244897959184,0.3741496598639456,0.4217687074829932,0.46938775510204084,0.48299319727891155,0.4897959183673469,0.4965986394557823,0.4965986394557823,0.4965986394557823,0.4965986394557823,0.4965986394557823,0.4965986394557823,0.5102040816326531,0.5714285714285714,0.6326530612244898,0.673469387755102,0.7108843537414966,0.7278911564625851,0.7346938775510204,0.7380952380952381,0.7380952380952381,0.7346938775510204,0.7312925170068028,0.7278911564625851,0.7278911564625851,0.7278911564625851,0.7244897959183674,0.7210884353741497,0.7210884353741497,0.7210884353741497,0.7210884353741497,0.7210884353741497,0.7210884353741497,0.7210884353741497,0.7210884353741497,0.7210884353741497,0.7210884353741497,0.717687074829932,0.717687074829932,0.717687074829932,0.7142857142857143,0.7142857142857143,0.7142857142857143,0.7142857142857143,0.7142857142857143,0.7142857142857143,0.7142857142857143,0.7142857142857143,0.7142857142857143,0.7142857142857143,0.7142857142857143,0.7142857142857143,0.7142857142857143,0.7142857142857143,0.7142857142857143,0.7142857142857143,0.7142857142857143,0.7142857142857143,0.7142857142857143,0.7142857142857143,0.7142857142857143,0.7142857142857143,0.717687074829932,0.717687074829932,0.7210884353741497,0.7210884353741497,0.7210884353741497,0.7210884353741497,0.7210884353741497,0.7210884353741497,0.7210884353741497,0.7210884353741497,0.7210884353741497,0.7210884353741497,0.7210884353741497,0.7210884353741497,0.7210884353741497,0.7210884353741497,0.7210884353741497,0.7210884353741497,0.7210884353741497,0.7210884353741497,0.7210884353741497,0.7210884353741497,0.7210884353741497,0.7210884353741497,0.7210884353741497,0.7210884353741497,0.7210884353741497,0.7210884353741497,0.7210884353741497,0.7210884353741497,0.7210884353741497,0.7210884353741497,0.7210884353741497,0.7210884353741497,0.7210884353741497,0.7210884353741497,0.7210884353741497,0.7210884353741497,0.7210884353741497,0.7210884353741497,0.7210884353741497,0.7210884353741497,0.7210884353741497,0.7210884353741497,0.7210884353741497,0.7210884353741497,0.7210884353741497,0.7210884353741497,0.7210884353741497,0.7210884353741497,0.7210884353741497,0.7210884353741497,0.7210884353741497,0.7210884353741497,0.7210884353741497,0.7210884353741497,0.7210884353741497,0.7210884353741497,0.7210884353741497,0.7210884353741497,0.7074829931972789,0.7006802721088435,0.6870748299319728,0.673469387755102,0.6564625850340136,0.6394557823129252,0.6326530612244898,0.608843537414966,0.5782312925170068,0.5272108843537415,0.4965986394557823,0.48299319727891155,0.4489795918367347,0.41496598639455784,0.3945578231292517,0.3741496598639456,0.36394557823129253,0.3469387755102041,0.3333333333333333,0.3197278911564626,0.30612244897959184,0.30612244897959184,0.2925170068027211,0.2789115646258503,0.272108843537415,0.2687074829931973,0.2653061224489796,0.2619047619047619,0.2619047619047619,0.2619047619047619,0.2653061224489796,0.29931972789115646,0.41496598639455784,0.5510204081632653,0.6190476190476191,0.6598639455782312,0.7006802721088435,0.7482993197278912,0.7687074829931972,0.7959183673469388,0.8061224489795918,0.8231292517006803,0.8367346938775511,0.8469387755102041,0.8639455782312925,0.8741496598639455,0.8877551020408163,0.8945578231292517,0.8979591836734694,0.9013605442176871,0.9047619047619048,0.9047619047619048,0.9047619047619048,0.9047619047619048,0.9047619047619048,0.9081632653061225,0.9115646258503401,0.9115646258503401,0.9149659863945578,0.9149659863945578,0.9183673469387755,0.9183673469387755,0.9183673469387755,0.9217687074829932,0.9251700680272109,0.9285714285714286,0.9319727891156463,0.9387755102040817,0.9421768707482994,0.9455782312925171,0.9489795918367347,0.95578231292517,0.9591836734693877,0.9591836734693877,0.9625850340136054,0.9659863945578231,0.9659863945578231,0.9693877551020408,0.9727891156462585,0.9727891156462585,0.9727891156462585,0.9727891156462585,0.9761904761904762,0.9761904761904762,0.9761904761904762,0.9795918367346939,0.9829931972789115,0.9829931972789115,0.9863945578231292,0.9863945578231292,0.9863945578231292,0.9863945578231292,0.9863945578231292,0.9863945578231292,0.9863945578231292,0.9863945578231292,0.9863945578231292,0.9863945578231292,0.9863945578231292,0.9863945578231292,0.9863945578231292,0.9863945578231292,0.9863945578231292,0.9863945578231292,0.9863945578231292,0.9863945578231292,0.9863945578231292,0.9863945578231292,0.9863945578231292,0.9863945578231292,0.9863945578231292,0.9863945578231292,0.9863945578231292,0.9863945578231292,0.9863945578231292,0.9863945578231292,0.9863945578231292,0.9863945578231292,0.9863945578231292,0.9863945578231292,0.9863945578231292,0.9863945578231292,0.9863945578231292,0.9863945578231292,0.9863945578231292,0.9863945578231292,0.9863945578231292,0.9863945578231292,0.9863945578231292,0.9863945578231292,0.9863945578231292,0.9863945578231292,0.9863945578231292,0.9863945578231292,0.9863945578231292,0.9829931972789115,0.9829931972789115,0.9727891156462585,0.95578231292517,0.9081632653061225,0.8741496598639455,0.8503401360544217,0.782312925170068,0.7244897959183674,0.6836734693877551,0.6462585034013606,0.6326530612244898,0.6020408163265306,0.5748299319727891,0.5578231292517006,0.5408163265306123,0.5340136054421769,0.5204081632653061,0.5034013605442177,0.4931972789115646,0.48299319727891155,0.47959183673469385,0.46938775510204084,0.46598639455782315,0.46258503401360546,0.45918367346938777,0.4557823129251701,0.4557823129251701,0.4557823129251701,0.4523809523809524,0.4523809523809524,0.4489795918367347,0.4489795918367347,0.46258503401360546,0.46938775510204084,0.47619047619047616,0.47619047619047616,0.47619047619047616,0.47278911564625853,0.46938775510204084,0.46598639455782315,0.4557823129251701,0.445578231292517,0.43197278911564624,0.41496598639455784,0.40476190476190477,0.391156462585034,0.37755102040816324,0.3707482993197279,0.36394557823129253,0.36054421768707484,0.36054421768707484,0.35374149659863946,0.3469387755102041,0.3469387755102041,0.3435374149659864,0.3401360544217687,0.3333333333333333,0.3333333333333333,0.3333333333333333,0.3299319727891156,0.3299319727891156,0.3299319727891156,0.32653061224489793,0.3197278911564626,0.3197278911564626,0.3197278911564626,0.3163265306122449,0.3163265306122449,0.3129251700680272,0.30952380952380953,0.30612244897959184,0.30612244897959184,0.29931972789115646,0.29931972789115646,0.29591836734693877,0.2925170068027211,0.2925170068027211,0.2925170068027211,0.2925170068027211,0.2857142857142857,0.282312925170068,0.2789115646258503,0.2755102040816326,0.2653061224489796,0.2619047619047619,0.25170068027210885,0.24489795918367346,0.23809523809523808,0.22789115646258504,0.21768707482993196,0.20408163265306123,0.19047619047619047,0.18027210884353742,0.17006802721088435,0.16326530612244897,0.1564625850340136,0.15306122448979592,0.14965986394557823,0.14625850340136054,0.14285714285714285,0.14285714285714285,0.13945578231292516,0.1360544217687075,0.1326530612244898,0.1326530612244898,0.1326530612244898,0.1326530612244898,0.1326530612244898,0.1326530612244898,0.1326530612244898,0.1326530612244898,0.1326530612244898,0.1326530612244898,0.1326530612244898,0.1326530612244898,0.1326530612244898,0.1326530612244898,0.1326530612244898,0.1326530612244898,0.1326530612244898,0.1326530612244898,0.1326530612244898,0.1326530612244898,0.1326530612244898,0.1326530612244898,0.1326530612244898,0.1326530612244898,0.1326530612244898,0.1326530612244898,0.1326530612244898,0.1326530612244898,0.1326530612244898,0.1326530612244898,0.1326530612244898,0.1326530612244898,0.1326530612244898,0.1326530612244898,0.1326530612244898,0.1326530612244898,0.1326530612244898,0.1326530612244898,0.1326530612244898,0.1326530612244898,0.1326530612244898,0.1326530612244898,0.1326530612244898,0.1326530612244898,0.1326530612244898,0.1326530612244898,0.1326530612244898,0.1326530612244898,0.1326530612244898,0.1326530612244898,0.1326530612244898,0.1326530612244898,0.1326530612244898,0.1326530612244898,0.1326530612244898,0.1326530612244898,0.1326530612244898,0.1326530612244898,0.1326530612244898,0.1326530612244898,0.1326530612244898,0.1326530612244898,0.1326530612244898,0.1326530612244898,0.1326530612244898,0.1326530612244898,0.1326530612244898,0.1326530612244898,0.1326530612244898,0.1326530612244898,0.1326530612244898,0.1326530612244898,0.1326530612244898,0.1326530612244898,0.1326530612244898,0.1326530612244898,0.1326530612244898,0.1360544217687075,0.1360544217687075,0.13945578231292516,0.13945578231292516,0.13945578231292516,0.14285714285714285,0.14285714285714285,0.15306122448979592,0.1598639455782313,0.17006802721088435,0.17687074829931973,0.1836734693877551,0.1870748299319728,0.20068027210884354,0.2108843537414966,0.22108843537414966,0.22448979591836735,0.23469387755102042,0.24489795918367346,0.25510204081632654,0.2653061224489796,0.2653061224489796,0.272108843537415,0.2789115646258503,0.2891156462585034,0.2925170068027211,0.29931972789115646,0.30272108843537415,0.30612244897959184,0.30612244897959184,0.30952380952380953,0.30952380952380953,0.30952380952380953,0.3129251700680272,0.3129251700680272,0.3163265306122449,0.3197278911564626,0.3197278911564626,0.3197278911564626,0.3197278911564626,0.3197278911564626,0.3197278911564626,0.3197278911564626,0.3197278911564626,0.3197278911564626,0.3197278911564626,0.3197278911564626,0.3197278911564626,0.3197278911564626,0.3163265306122449,0.3129251700680272,0.3129251700680272,0.3129251700680272,0.30952380952380953,0.30612244897959184,0.30612244897959184,0.29931972789115646,0.29931972789115646,0.2925170068027211,0.2891156462585034,0.282312925170068,0.2789115646258503,0.2789115646258503,0.272108843537415,0.2687074829931973,0.2653061224489796,0.2619047619047619,0.2619047619047619,0.2585034013605442,0.25510204081632654,0.25170068027210885,0.24829931972789115,0.24829931972789115,0.24829931972789115,0.24829931972789115,0.24829931972789115,0.25170068027210885,0.25510204081632654,0.25510204081632654,0.2619047619047619,0.2653061224489796,0.2653061224489796,0.2653061224489796,0.2653061224489796,0.2653061224489796,0.2653061224489796,0.2653061224489796,0.2653061224489796,0.2585034013605442,0.25170068027210885,0.24829931972789115,0.24149659863945577,0.23809523809523808,0.22789115646258504,0.22448979591836735,0.21768707482993196,0.21428571428571427,0.2108843537414966,0.20748299319727892,0.20748299319727892,0.20068027210884354,0.19727891156462585,0.19387755102040816,0.19047619047619047,0.1870748299319728,0.1836734693877551,0.1836734693877551,0.1836734693877551,0.1836734693877551,0.1836734693877551,0.19387755102040816,0.22448979591836735,0.3843537414965986,0.4523809523809524,0.48639455782312924,0.5102040816326531,0.5374149659863946,0.5476190476190477,0.5544217687074829,0.564625850340136,0.5714285714285714,0.5782312925170068,0.5884353741496599,0.5884353741496599,0.5952380952380952,0.6054421768707483,0.6224489795918368,0.6360544217687075,0.6428571428571429,0.6598639455782312,0.673469387755102,0.6870748299319728,0.7006802721088435,0.7040816326530612,0.7142857142857143,0.7278911564625851,0.7380952380952381,0.7551020408163265,0.7619047619047619,0.7891156462585034,0.826530612244898,0.8605442176870748,0.8979591836734694,0.9149659863945578,0.9285714285714286,0.9421768707482994,0.95578231292517,0.9591836734693877,0.9761904761904762,0.9897959183673469,0.9897959183673469,1,1.0034013605442176,1.010204081632653,1.0136054421768708,1.0170068027210883,1.0238095238095237,1.0238095238095237,1.0238095238095237,1.0272108843537415,1.0272108843537415,1.0272108843537415,1.0272108843537415,1.0272108843537415,1.0272108843537415,1.0272108843537415,1.0272108843537415,1.0238095238095237,1.0238095238095237,1.0204081632653061,1.0170068027210883,1.0170068027210883,1.0170068027210883,1.0136054421768708,1.0136054421768708,1.0136054421768708,1.0136054421768708,1.010204081632653,1.0068027210884354,1.0068027210884354,1.0068027210884354,1.0068027210884354,1.0068027210884354,1.0068027210884354,1.0068027210884354,1.0068027210884354,1.0068027210884354,1.0068027210884354,1.0068027210884354,1.0068027210884354,1.0068027210884354,1.0068027210884354,1.0068027210884354,1.0068027210884354,1.0068027210884354,1.0068027210884354,1.0068027210884354,1.0068027210884354,1.0068027210884354,1.0068027210884354,1.0068027210884354,1.0068027210884354,1.0068027210884354,1.0068027210884354,1.0068027210884354,1.0068027210884354,1.0068027210884354,1.0068027210884354,1.0068027210884354,1.0068027210884354,1.0068027210884354,1.0068027210884354,1.0068027210884354,1.0068027210884354,1.0068027210884354,0.9965986394557823,0.9829931972789115,0.9761904761904762,0.9659863945578231,0.9421768707482994,0.9183673469387755,0.8809523809523809,0.8673469387755102,0.8435374149659864,0.8231292517006803,0.7891156462585034,0.7687074829931972,0.7619047619047619,0.7551020408163265,0.7448979591836735,0.7414965986394558,0.7414965986394558,0.7312925170068028,0.7312925170068028,0.7278911564625851,0.7244897959183674,0.717687074829932,0.7142857142857143,0.7142857142857143,0.7142857142857143,0.7142857142857143,0.7278911564625851,0.7551020408163265,0.8129251700680272,0.8639455782312925,0.8843537414965986,0.9217687074829932,0.9421768707482994,0.9489795918367347,0.9591836734693877,0.9693877551020408,0.9727891156462585,0.9829931972789115,0.9863945578231292,0.9931972789115646,1,1.010204081632653,1.0136054421768708,1.0204081632653061,1.0238095238095237,1.0272108843537415,1.034013605442177,1.0374149659863945,1.0408163265306123,1.0476190476190477,1.054421768707483,1.0612244897959184,1.064625850340136,1.0680272108843538,1.0680272108843538,1.0748299319727892,1.0748299319727892,1.0748299319727892,1.0782312925170068,1.0816326530612246,1.0816326530612246,1.0816326530612246,1.0816326530612246,1.0850340136054422,1.0850340136054422,1.0850340136054422,1.08843537414966,1.08843537414966,1.08843537414966,1.08843537414966,1.08843537414966,1.08843537414966,1.0952380952380953,1.0952380952380953,1.0952380952380953,1.098639455782313,1.098639455782313,1.1020408163265305,1.1020408163265305,1.1020408163265305,1.1020408163265305,1.1020408163265305,1.1020408163265305,1.1020408163265305,1.1020408163265305,1.1020408163265305,1.1020408163265305,1.1020408163265305,1.1020408163265305,1.1020408163265305,1.1020408163265305,1.1020408163265305,1.1020408163265305,1.1020408163265305,1.1020408163265305,1.1020408163265305,1.1020408163265305,1.1020408163265305,1.1020408163265305,1.1020408163265305,1.1020408163265305,1.1020408163265305,1.1020408163265305,1.1020408163265305,1.1020408163265305,1.1020408163265305,1.1020408163265305,1.1020408163265305,1.1020408163265305,1.1020408163265305,1.1020408163265305,1.1020408163265305,1.1020408163265305,1.1020408163265305,1.1020408163265305,1.1020408163265305,1.1020408163265305,1.1020408163265305,1.1020408163265305,1.1020408163265305,1.1020408163265305,1.1020408163265305,1.1020408163265305,1.1020408163265305,1.1020408163265305,1.1020408163265305,1.1020408163265305,1.0850340136054422,1.054421768707483,0.9897959183673469,0.935374149659864,0.8809523809523809,0.8367346938775511,0.8163265306122449,0.782312925170068,0.7687074829931972,0.7517006802721088,0.7278911564625851,0.7142857142857143,0.6870748299319728,0.6462585034013606,0.6054421768707483,0.564625850340136,0.5476190476190477,0.4965986394557823,0.4557823129251701,0.41496598639455784,0.4013605442176871,0.3741496598639456,0.35374149659863946,0.3197278911564626,0.2925170068027211,0.22448979591836735,0.17346938775510204,0.1292517006802721,0.1054421768707483,0.061224489795918366,0.034013605442176874,0.023809523809523808,0.023809523809523808,0.023809523809523808,0.023809523809523808,0.023809523809523808,0.023809523809523808,0.023809523809523808,0.023809523809523808,0.023809523809523808,0.023809523809523808,0.023809523809523808,0.023809523809523808,0.023809523809523808,0.023809523809523808,0.023809523809523808,0.023809523809523808,0.023809523809523808,0.023809523809523808,0.023809523809523808,0.023809523809523808,0.023809523809523808,0.023809523809523808,0.023809523809523808,0.023809523809523808,0.023809523809523808,0.023809523809523808,0.023809523809523808,0.023809523809523808,0.023809523809523808,0.023809523809523808,0.023809523809523808,0.023809523809523808,0.023809523809523808,0.023809523809523808,0.023809523809523808,0.023809523809523808,0.023809523809523808,0.023809523809523808,0.023809523809523808,0.023809523809523808,0.023809523809523808,0.023809523809523808,0.023809523809523808,0.023809523809523808,0.023809523809523808,0.023809523809523808,0.023809523809523808,0.023809523809523808,0.023809523809523808,0.023809523809523808,0.023809523809523808,0.023809523809523808,0.023809523809523808,0.023809523809523808,0.023809523809523808,0.023809523809523808,0.023809523809523808,0.023809523809523808,0.023809523809523808,0.023809523809523808,0.023809523809523808,0.023809523809523808,0.023809523809523808,0.023809523809523808,0.023809523809523808,0.023809523809523808,0.023809523809523808,0.023809523809523808,0.023809523809523808,0.023809523809523808,0.023809523809523808,0.023809523809523808,0.023809523809523808,0.023809523809523808,0.023809523809523808,0.023809523809523808,0.023809523809523808,0.023809523809523808,0.023809523809523808,0.023809523809523808,0.023809523809523808,0.023809523809523808,0.023809523809523808,0.023809523809523808,0.023809523809523808,0.023809523809523808,0.023809523809523808,0.023809523809523808],"y":[-2.96031746031746,-2.96031746031746,-2.96031746031746,-2.96031746031746,-2.96031746031746,-2.96031746031746,-2.96031746031746,-2.96031746031746,-2.96031746031746,-2.96031746031746,-2.96031746031746,-2.96031746031746,-2.96031746031746,-2.96031746031746,-2.96031746031746,-2.96031746031746,-2.96031746031746,-2.96031746031746,-2.96031746031746,-2.96031746031746,-2.96031746031746,-2.96031746031746,-2.96031746031746,-2.96031746031746,-2.96031746031746,-2.96031746031746,-2.96031746031746,-2.96031746031746,-2.96031746031746,-2.96031746031746,-2.96031746031746,-2.96031746031746,-2.96031746031746,-2.96031746031746,-2.96031746031746,-2.96031746031746,-2.96031746031746,-2.96031746031746,-2.96031746031746,-2.96031746031746,-2.96031746031746,-2.96031746031746,-2.96031746031746,-2.96031746031746,-2.96031746031746,-2.96031746031746,-2.96031746031746,-2.96031746031746,-2.96031746031746,-2.96031746031746,-2.96031746031746,-2.96031746031746,-2.96031746031746,-2.96031746031746,-2.96031746031746,-2.96031746031746,-2.96031746031746,-2.96031746031746,-2.96031746031746,-2.96031746031746,-2.96031746031746,-2.96031746031746,-2.96031746031746,-2.96031746031746,-2.96031746031746,-2.96031746031746,-2.96031746031746,-2.96031746031746,-2.96031746031746,-2.96031746031746,-2.96031746031746,-2.96031746031746,-2.96031746031746,-2.96031746031746,-2.96031746031746,-2.96031746031746,-2.96031746031746,-2.96031746031746,-2.96031746031746,-2.96031746031746,-2.96031746031746,-2.96031746031746,-2.96031746031746,-2.96031746031746,-2.96031746031746,-2.96031746031746,-2.96031746031746,-2.96031746031746,-2.96031746031746,-2.96031746031746,-2.96031746031746,-2.96031746031746,-2.96031746031746,-2.96031746031746,-2.96031746031746,-2.96031746031746,-2.96031746031746,-2.96031746031746,-2.96031746031746,-2.96031746031746,-2.96031746031746,-2.96031746031746,-2.96031746031746,-2.96031746031746,-2.96031746031746,-2.96031746031746,-2.96031746031746,-2.96031746031746,-2.96031746031746,-2.96031746031746,-2.96031746031746,-2.96031746031746,-2.96031746031746,0.9920634920634922,0.7253968253968256,0.496825396825397,0.4492063492063494,0.3444444444444446,0.2873015873015875,0.2682539682539684,0.2682539682539684,0.2682539682539684,0.2682539682539684,0.2682539682539684,0.2682539682539684,0.2682539682539684,0.2682539682539684,0.2587301587301589,0.23015873015873034,0.2111111111111113,0.19206349206349224,0.18253968253968272,0.18253968253968272,0.1730158730158732,0.1730158730158732,0.16349206349206366,0.16349206349206366,0.15396825396825414,0.1253968253968256,0.11587301587301606,0.09682539682539701,0.08730158730158748,0.07777777777777796,0.07777777777777796,0.05873015873015891,0.05873015873015891,0.05873015873015891,0.05873015873015891,0.049206349206349385,0.03968253968253986,0.03968253968253986,0.03968253968253986,0.03968253968253986,0.03015873015873034,0.03015873015873034,0.03015873015873034,0.03015873015873034,0.03015873015873034,0.020634920634920815,0.020634920634920815,0.020634920634920815,0.020634920634920815,0.011111111111111292,0.0015873015873017677,0.0015873015873017677,0.0015873015873017677,0.0015873015873017677,0.0015873015873017677,0.0015873015873017677,0.0015873015873017677,0.0015873015873017677,0.0015873015873017677,0.0015873015873017677,0.0015873015873017677,0.0015873015873017677,0.0015873015873017677,0.0015873015873017677,0.0015873015873017677,0.0015873015873017677,0.0015873015873017677,0.0015873015873017677,0.0015873015873017677,0.0015873015873017677,0.0015873015873017677,0.0015873015873017677,0.0015873015873017677,0.0015873015873017677,0.0015873015873017677,0.0015873015873017677,0.0015873015873017677,0.0015873015873017677,0.011111111111111292,0.011111111111111292,0.011111111111111292,0.011111111111111292,0.011111111111111292,0.011111111111111292,0.011111111111111292,0.011111111111111292,0.011111111111111292,0.011111111111111292,0.011111111111111292,0.011111111111111292,0.011111111111111292,0.011111111111111292,0.011111111111111292,0.011111111111111292,0.011111111111111292,0.011111111111111292,0.011111111111111292,0.011111111111111292,0.011111111111111292,0.011111111111111292,0.011111111111111292,0.011111111111111292,0.011111111111111292,0.011111111111111292,0.011111111111111292,0.011111111111111292,0.011111111111111292,0.011111111111111292,0.011111111111111292,0.011111111111111292,0.011111111111111292,0.011111111111111292,0.011111111111111292,0.011111111111111292,0.011111111111111292,0.011111111111111292,0.011111111111111292,0.011111111111111292,0.011111111111111292,0.011111111111111292,0.011111111111111292,0.011111111111111292,0.011111111111111292,0.011111111111111292,0.011111111111111292,0.011111111111111292,0.011111111111111292,0.011111111111111292,0.011111111111111292,0.011111111111111292,0.011111111111111292,0.011111111111111292,0.011111111111111292,0.011111111111111292,0.011111111111111292,0.011111111111111292,0.011111111111111292,0.011111111111111292,0