[{"success":true,"trial_type":"fullscreen","trial_index":0,"time_elapsed":229144,"internal_node_id":"0.0-0.0","protocol_sum":"","subject_identifier":113,"subject_sum":[118,136,182,239,82,85,89,98,208,8,255,248,148,34,53,130,196,132,81,124,234,125,164,158,230,120,0,173,199,252,136,102],"subject_pair":56,"STUDY_ID":"669a702db1122fc5150a13ce","PROLIFIC_PID":"5748814f7fd0ec000fb6e5bf","SESSION_ID":"669abe06b6ec89cd554f36b4","practice_instructions":1,"leaderboard_instructions":1,"bonus":1,"reveal_word":true,"self_rating":"5","confidence":"28"},{"view_history":"[{\"page_index\":0,\"viewing_time\":27611.800000071526}]","rt":27612.399999976158,"trial_type":"instructions","trial_index":1,"time_elapsed":256758,"internal_node_id":"0.0-1.0","protocol_sum":"","subject_identifier":113,"subject_sum":[118,136,182,239,82,85,89,98,208,8,255,248,148,34,53,130,196,132,81,124,234,125,164,158,230,120,0,173,199,252,136,102],"subject_pair":56,"STUDY_ID":"669a702db1122fc5150a13ce","PROLIFIC_PID":"5748814f7fd0ec000fb6e5bf","SESSION_ID":"669abe06b6ec89cd554f36b4","practice_instructions":1,"leaderboard_instructions":1,"bonus":1,"reveal_word":true,"self_rating":"5","confidence":"28"},{"view_history":"[{\"page_index\":0,\"viewing_time\":15573.5}]","rt":15573.800000071526,"trial_type":"instructions","trial_index":2,"time_elapsed":272332,"internal_node_id":"0.0-2.0-0.0","protocol_sum":"","subject_identifier":113,"subject_sum":[118,136,182,239,82,85,89,98,208,8,255,248,148,34,53,130,196,132,81,124,234,125,164,158,230,120,0,173,199,252,136,102],"subject_pair":56,"STUDY_ID":"669a702db1122fc5150a13ce","PROLIFIC_PID":"5748814f7fd0ec000fb6e5bf","SESSION_ID":"669abe06b6ec89cd554f36b4","practice_instructions":1,"leaderboard_instructions":1,"bonus":1,"reveal_word":true,"self_rating":"5","confidence":"28"},{"rt":9625.199999928474,"responses":"{\"Q0\":\"... reveal the word with as <b>few letter guesses</b> as possible\"}","question_order":"[0]","trial_type":"survey-multi-choice","trial_index":3,"time_elapsed":281959,"internal_node_id":"0.0-2.0-1.0","protocol_sum":"","subject_identifier":113,"subject_sum":[118,136,182,239,82,85,89,98,208,8,255,248,148,34,53,130,196,132,81,124,234,125,164,158,230,120,0,173,199,252,136,102],"subject_pair":56,"correct":true,"test_part":"multichoice_nonpretend","STUDY_ID":"669a702db1122fc5150a13ce","PROLIFIC_PID":"5748814f7fd0ec000fb6e5bf","SESSION_ID":"669abe06b6ec89cd554f36b4","practice_instructions":1,"leaderboard_instructions":1,"bonus":1,"reveal_word":true,"self_rating":"5","confidence":"28"},{"view_history":"[{\"page_index\":0,\"viewing_time\":1459.2000000476837}]","rt":1459.3999999761581,"trial_type":"instructions","trial_index":4,"time_elapsed":283420,"internal_node_id":"0.0-3.0","protocol_sum":"","subject_identifier":113,"subject_sum":[118,136,182,239,82,85,89,98,208,8,255,248,148,34,53,130,196,132,81,124,234,125,164,158,230,120,0,173,199,252,136,102],"subject_pair":56,"STUDY_ID":"669a702db1122fc5150a13ce","PROLIFIC_PID":"5748814f7fd0ec000fb6e5bf","SESSION_ID":"669abe06b6ec89cd554f36b4","practice_instructions":1,"leaderboard_instructions":1,"bonus":1,"reveal_word":true,"self_rating":"5","confidence":"28"},{"word":"ZEBRA","click_log":{"letter":["","E","P","A","L","N","W","T","S","B","Z","R"],"t":[0,16052.600000023842,22720,31331,38804.60000002384,69717,70978,72859.90000009537,74172.80000007153,75629.80000007153,78297.80000007153,82361.80000007153],"hit":[null,1,0,1,0,0,0,0,0,1,1,1],"asked":["","E","EP","EPA","EPAL","EPALN","EPALNW","EPALNWT","EPALNWTS","EPALNWTSB","EPALNWTSBZ","EPALNWTSBZR"],"word_state":["_____","_E___","_E___","_E__A","_E__A","_E__A","_E__A","_E__A","_E__A","_EB_A","ZEB_A","ZEBRA"]},"hover_log":{"letter":["J","J","J","J","J","J","J","J","J","J","J","J","J","J","J","J","J","J","J","J","J","J","J","J","J","J","J","J","J","J","J","J","J","J","J","J","J","J","J","J","J","J","J","J","J","J","J","J","J","J","J","J","J","J","J","J","J","J","J","J","J","J","J","J","J","J","J","J","J","J","J","J","J","J","J","J","J","J","J","J","J","J","J","J","J","J","J","J","J","J","J","J","J","J","J","J","J","J","J","J","J","J","J","J","J","J","J","J","J","J","J","J","J","J","J","J","J","J","J","J","J","J","J","J","J","J","J","J","J","J","J","J","J","J","J","J","J","J","J","J","J","J","J","J","J","J","J","J","J","J","J","J","J","J","J","J","J","J","J","J","J","J","J","J","J","J","J","J","J","J","J","J","J","J","J","J","J","J","J","J","J","J","J","J","J","J","J","J","J","J","J","J","J","J","J","J","J","J","J","J","J","J","J","J","J","J","J","J","J","J","J","J","J","J","J","J","J","J","J","J","J","J","J","J","J","J","J","J","J","J","J","J","J","J","J","J","J","J","J","J","J","J","J","J","J","J","J","J","J","J","J","J","J","J","J","J","J","J","J","J","J","J","J","J","J","J","J","J","J","J","J","J","J","J","J","J","J","J","J","J","J","J","J","J","J","J","J","J","J","J","J","J","J","J","J","J","J","J","J","J","J","J","J","J","J","J","J","J","J","J","J","J","J","J","J","J","J","J","J","J","J","J","J","J","J","J","J","J","J","J","J","J","J","J","J","J","J","J","J","J","J","J","J","J","J","J","J","J","J","J","J","J","J","J","J","J","J","J","J","J","J","J","J","J","J","J","J","J","J","J","J","J","J","J","J","J","J","J","J","J","J","J","J","J","J","J","J","J","J","J","J","J","J","J","J","J","J","J","J","J","J","J","J","J","J","J","J","J","J","J","J","J","J","J","J","J","J","J","J","J","J","J","J","J","J","J","J","J","J","J","J","J","J","J","J","J","J","J","J","J","J","J","J","J","J","J","J","J","J","J","J","J","J","J","J","J","J","J","J","J","J","J","?","?","?","?","?","?","?","?","?","?","?","?","?","?","?","?","?","?","?","?","?","?","?","?","?","?","C","C","C","C","C","C","C","?","?","?","L","L","L","L","?","?","?","?","?","?","?","B","B","B","B","B","B","B","B","B","B","B","B","B","B","B","B","B","B","B","B","B","B","B","B","B","B","B","B","B","B","B","B","B","B","B","B","B","B","B","B","B","B","B","B","B","B","B","B","B","B","B","B","B","B","B","B","B","B","B","B","B","B","B","B","B","B","B","B","B","B","B","B","B","?","?","?","?","?","?","?","?","?","?","?","?","?","?","?","?","?","?","?","?","?","?","?","?","?","?","?","?","?","?","?","?","?","?","?","?","?","?","?","?","?","?","?","?","?","?","?","?","?","?","?","?","?","?","?","?","?","?","?","?","?","?","?","?","?","?","?","?","?","B","?","?","?","J","J","J","?","?","?","?","?","?","?","?","?","?","?","?","?","?","?","?","?","?","?","?","?","?","W","W","W","W","W","W","W","W","W","W","W","W","W","W","W","W","W","W","W","W","W","W","W","W","W","W","W","W","W","W","W","W","W","W","W","W","W","W","W","W","W","W","W","W","W","W","W","W","W","W","W","W","W","W","W","W","W","W","W","W","W","W","W","W","W","W","W","W","W","W","W","W","W","W","W","W","W","W","W","W","W","W","W","W","W","W","W","W","W","W","W","W","W","W","W","W","W","W","W","W","W","W","W","W","W","W","W","W","W","W","W","W","W","W","W","W","W","W","W","W","W","W","W","W","W","?","?","?","?","O","O","O","?","?","?","?","?","?","?","?","?","?","?","?","?","?","?","?","?","?","?","?","?","?","?","?","?","?","?","?","?","?","?","?","?","O","?","N","?","?","?","?","?","M","M","?","L","L","L","L","L","L","L","L","L","?","?","?","?","?","?","?","?","?","?","?","?","?","?","?","?","?","?","?","?","?","?","?","E","E","E","E","E","E","E","E","E","E","E","E","E","E","E","E","E","E","E","E","E","E","E","E","E","E","E","E","E","E","E","E","E","E","E","E","E","E","E","E","E","E","E","E","E","E","E","E","E","E","E","E","E","E","?","?","N","N","N","N","N","N","N","N","N","N","N","N","N","N","N","N","N","N","N","N","N","N","N","N","N","N","N","N","N","N","N","N","N","N","N","N","N","N","N","?","?","?","?","D","D","D","D","D","D","D","D","D","D","D","D","?","?","?","?","?","?","?","?","?","?","?","?","C","C","C","C","C","?","?","?","?","?","?","?","?","?","?","?","B","B","B","B","B","B","B","B","B","B","B","B","B","B","B","B","B","B","B","B","B","B","B","B","B","B","B","B","B","B","B","B","B","B","B","B","B","B","B","B","B","B","B","B","B","B","B","B","B","B","B","B","B","B","B","B","B","B","B","B","B","B","B","B","B","B","B","B","B","B","B","B","B","B","B","B","B","B","B","B","B","B","B","B","B","C","C","C","C","C","C","C","?","D","D","D","D","D","D","D","D","D","D","D","D","D","D","D","D","D","D","D","D","D","D","D","D","D","D","D","D","D","D","D","D","D","D","D","D","D","D","D","D","D","D","D","D","D","D","D","D","D","D","D","D","D","D","D","D","D","D","D","D","D","D","D","D","D","D","D","D","D","D","D","D","D","D","D","D","D","D","D","D","D","D","D","D","D","D","D","D","D","D","D","D","D","D","D","D","D","D","D","?","?","?","?","?","N","N","N","N","N","N","N","N","N","?","?","O","O","O","O","O","O","O","O","?","?","?","?","?","?","?","?","?","?","?","?","P","P","P","P","P","P","P","P","P","P","P","P","P","P","P","P","P","P","P","P","P","P","P","P","P","P","P","P","P","P","P","P","P","P","P","P","P","P","P","P","P","P","P","P","P","P","P","P","P","P","P","P","P","P","P","P","P","P","P","P","P","P","P","P","P","P","P","P","P","P","P","P","P","P","P","P","P","P","P","P","?","?","?","?","?","?","?","?","?","?","N","N","?","?","?","?","?","D","D","D","D","D","D","D","D","D","D","D","D","D","D","?","?","?","?","?","?","?","?","C","C","C","C","C","C","C","C","C","C","C","C","C","C","C","C","C","C","C","C","?","B","B","B","B","B","B","B","B","B","B","B","B","B","B","B","B","B","B","B","B","B","B","B","B","B","B","B","B","B","B","B","B","B","B","B","B","B","B","B","B","B","B","B","B","B","B","B","B","B","B","B","B","B","B","B","B","?","?","K","K","K","K","K","?","?","?","?","?","?","?","?","?","?","?","?","?","?","?","?","?","?","?","?","?","?","?","?","?","?","?","?","?","?","?","?","?","?","?","?","?","?","?","?","?","?","?","?","?","?","?","?","?","?","?","?","?","?","?","?","?","?","?","?","?","?","?","?","?","?","?","?","?","?","?","?","?","?","?","?","?","?","?","?","?","?","?","?","?","?","?","?","?","?","?","?","?","?","?","?","?","?","?","?","?","?","?","?","?","?","?","?","?","?","?","?","?","?","?","?","?","T","T","T","T","T","T","T","T","T","T","T","T","T","T","T","T","T","T","T","T","T","T","T","T","T","T","T","T","T","T","T","T","T","?","?","U","U","U","U","U","U","U","U","U","U","U","U","U","?","V","V","V","W","W","W","W","W","W","W","W","W","W","W","W","W","W","W","W","?","X","X","?","?","?","?","?","Y","Y","Y","?","?","?","?","?","?","?","?","Q","Q","Q","Q","Q","Q","Q","Q","Q","Q","Q","Q","Q","Q","Q","?","?","?","E","E","D","D","C","C","C","C","C","C","C","C","C","C","C","C","?","?","?","B","B","?","A","A","A","A","A","A","A","A","A","A","A","A","A","A","A","A","A","A","A","A","A","A","A","A","A","A","A","A","A","A","A","A","A","A","A","A","A","A","A","A","A","A","A","A","A","A","A","A","A","A","A","A","A","A","A","A","A","A","A","A","A","A","A","A","A","A","A","A","A","A","A","A","A","A","A","A","A","A","A","A","A","A","A","A","A","A","A","A","A","A","A","A","A","A","A","A","A","?","?","?","?","K","K","K","K","K","?","?","L","L","?","?","?","?","?","?","?","?","?","?","?","?","?","?","?","?","?","?","?","?","?","?","?","?","?","?","?","?","?","?","?","?","?","?","?","?","?","?","?","?","?","?","?","?","?","?","?","?","?","?","?","?","?","?","?","?","?","?","?","?","?","?","?","?","?","?","?","?","?","?","?","?","?","?","?","?","?","?","?","?","?","?","?","?","?","?","?","?","?","?","?","?","?","?","?","?","?","?","?","?","?","?","?","?","?","?","?","?","?","?","?","?","?","?","?","?","?","?","?","?","?","?","?","?","?","?","?","?","?","?","?","?","?","?","?","?","?","?","?","?","?","?","?","?","?","?","?","?","?","?","?","?","?","?","?","?","?","?","?","?","?","?","?","?","?","?","?","?","?","?","?","?","?","?","?","?","?","?","?","?","?","?","?","?","?","?","?","?","?","?","?","?","?","?","?","?","?","?","?","?","?","?","?","?","?","?","?","?","?","?","?","?","?","?","?","?","?","?","?","?","?","?","?","?","?","?","?","?","?","?","?","?","?","?","?","?","?","?","?","?","?","?","?","?","?","?","?","?","?","?","?","?","?","?","?","?","?","?","?","?","?","?","?","?","?","?","?","?","?","?","?","?","?","?","?","?","?","?","?","?","?","?","?","?","?","?","?","?","?","?","?","?","?","?","?","?","?","?","?","?","?","?","?","?","?","?","?","?","?","?","?","?","?","?","?","?","?","?","?","?","?","?","?","?","?","?","?","?","?","?","?","?","?","?","?","?","?","?","?","?","?","?","?","?","?","?","?","?","?","?","?","?","?","?","L","L","L","L","L","L","L","L","L","L","L","L","L","L","L","L","L","L","L","L","L","L","L","L","L","L","L","L","L","L","L","L","L","L","L","L","L","L","L","L","L","L","L","L","L","L","L","L","L","L","L","L","L","L","L","L","L","L","L","L","L","L","L","L","?","M","?","?","?","?","?","?","?","?","?","?","?","?","?","?","?","?","?","N","N","N","N","N","N","N","N","N","N","N","N","N","N","N","N","N","N","N","N","N","N","N","N","N","N","N","N","N","N","N","N","N","N","N","N","N","N","N","N","N","N","N","N","N","N","N","N","N","N","N","N","N","N","N","N","N","N","N","N","N","N","N","N","N","N","N","N","N","N","N","N","N","N","N","N","N","N","N","N","N","N","N","N","N","N","N","N","N","N","N","N","N","N","N","N","N","N","N","N","N","N","N","N","N","N","N","N","N","N","N","N","N","N","N","N","N","N","N","N","N","N","N","N","N","N","N","N","N","N","N","N","N","N","N","N","N","N","N","N","N","N","N","N","N","N","N","N","N","N","N","N","N","N","N","N","N","N","N","N","N","N","N","N","N","N","N","N","N","N","N","N","N","N","N","N","N","N","N","N","N","N","N","N","N","N","N","N","N","N","N","N","N","N","N","N","N","N","N","N","N","N","N","N","N","N","N","N","N","N","N","N","N","N","N","N","N","N","N","N","N","N","N","N","N","N","N","N","N","N","N","N","N","N","N","N","N","N","N","N","N","N","N","N","N","N","N","N","N","N","N","N","N","N","N","N","N","N","N","N","N","N","N","N","N","N","N","N","N","N","N","N","N","N","N","N","N","N","N","N","N","N","N","N","N","N","N","N","N","N","N","N","N","N","N","N","N","N","N","N","N","N","N","N","N","N","N","N","N","N","N","N","N","N","N","N","N","N","N","N","N","N","N","N","N","N","N","N","N","N","N","N","N","N","N","N","N","N","N","N","N","N","N","N","N","N","N","N","N","N","N","N","N","N","N","N","N","N","N","N","N","N","N","N","N","N","N","N","N","N","N","N","N","N","N","N","N","N","N","N","N","N","N","N","N","N","N","N","N","N","N","N","N","N","N","N","N","N","N","N","N","N","N","N","N","N","N","N","N","N","N","N","N","N","N","N","N","N","N","N","N","N","N","N","N","N","N","N","N","N","N","N","N","N","N","N","N","N","N","N","N","N","N","N","N","N","N","N","N","N","N","N","N","N","N","N","N","N","N","N","N","N","N","N","N","N","N","N","N","N","N","N","N","N","N","N","N","N","N","N","N","N","N","N","N","N","N","N","N","N","N","N","N","N","N","N","N","N","N","N","N","N","N","N","N","N","N","N","N","N","N","N","N","N","N","N","N","N","N","N","N","N","N","N","N","N","N","N","N","N","N","N","N","N","N","N","N","N","N","N","N","N","N","N","N","N","N","N","N","N","N","N","N","N","N","N","N","N","N","N","N","N","N","N","N","N","N","N","N","N","N","N","N","N","N","N","N","N","N","N","N","N","N","N","N","N","N","N","N","N","N","N","N","N","N","N","N","N","N","N","N","N","N","N","N","N","N","N","N","N","N","N","N","N","N","N","N","N","N","N","N","N","N","N","N","N","N","N","N","N","N","N","N","N","N","N","N","N","N","N","N","N","N","N","N","N","N","N","N","N","N","N","N","N","N","N","N","N","N","N","N","N","N","N","N","N","N","N","N","N","N","N","N","N","N","N","N","N","N","N","N","N","N","N","N","N","N","N","N","N","N","N","N","N","N","N","N","N","N","N","N","N","N","N","N","N","N","N","N","N","N","N","N","N","N","N","N","N","N","N","N","N","N","N","N","N","N","N","N","N","N","N","N","N","N","N","N","N","N","N","N","N","N","N","N","N","N","N","N","N","N","N","N","N","N","N","N","N","N","N","N","N","N","N","N","N","N","N","N","N","N","N","N","N","N","N","N","N","N","N","N","N","N","N","N","N","N","N","N","N","N","N","N","N","N","N","N","N","N","N","N","N","N","N","N","N","N","N","N","N","N","N","N","N","N","N","N","N","N","N","N","N","N","N","N","N","N","N","N","N","N","N","N","N","N","N","N","N","N","N","N","N","N","N","N","N","N","N","N","N","N","N","N","N","N","N","N","N","N","N","N","N","N","N","N","N","N","N","N","N","N","N","N","N","N","N","N","N","?","?","?","?","?","?","?","?","?","?","?","?","?","?","?","?","?","?","?","?","?","?","?","?","?","?","?","?","?","?","?","?","?","?","?","?","?","?","?","?","?","?","?","?","?","?","?","?","?","?","?","?","?","?","?","?","?","?","?","?","?","?","?","?","?","?","?","?","?","?","?","?","?","?","?","?","?","?","?","?","?","?","?","?","?","?","?","?","?","?","?","?","?","?","?","?","?","?","?","?","?","?","?","?","?","?","?","?","?","?","?","?","?","?","?","?","?","?","?","?","?","?","?","?","?","?","?","?","?","?","?","?","?","?","?","?","?","?","?","?","?","?","?","?","?","?","?","?","?","?","?","?","?","?","?","?","?","?","?","?","?","?","?","?","?","?","?","?","?","?","?","?","?","?","?","?","?","?","?","?","?","?","?","?","?","?","?","?","?","?","?","?","?","?","?","?","?","?","?","?","?","?","?","?","?","?","?","?","?","?","?","?","?","?","?","?","?","?","?","?","?","?","?","?","?","?","?","?","?","?","?","?","?","?","?","?","?","?","?","?","?","?","?","?","?","?","?","?","?","?","?","?","?","?","?","?","?","?","?","?","?","?","?","?","?","?","?","?","?","?","?","?","?","?","?","?","?","?","?","?","?","?","?","?","?","?","?","?","?","?","?","?","?","?","?","?","?","?","?","?","?","?","?","?","?","?","?","?","?","?","?","?","?","?","?","?","?","?","?","?","?","?","?","?","?","?","?","?","?","?","?","?","?","?","?","?","?","?","?","?","?","?","?","?","?","?","?","?","?","?","?","F","?","?","?","?","?","?","?","?","?","?","?","?","?","?","?","I","I","?","?","?","?","?","?","?","?","?","?","?","?","?","?","?","?","?","?","?","?","?","?","?","?","?","?","?","X","?","?","?","?","?","?","?","?","?","?","?","?","X","X","X","?","Y","Y","Y","Y","Y","Y","Y","Y","Y","Y","Y","Y","Y","Y","Y","Y","Y","Y","Y","Y","Y","Y","Y","Y","Y","Y","Y","Y","Y","Y","Y","Y","Y","Y","Y","Y","Y","Y","Y","Y","Y","Y","Y","Y","Y","Y","?","X","X","X","X","X","X","?","?","?","?","?","?","?","?","W","W","W","W","W","W","W","W","W","W","W","W","W","W","W","W","W","W","W","W","W","W","W","W","W","W","W","W","W","W","W","W","W","W","W","W","W","W","W","W","W","W","W","W","W","W","W","W","W","W","W","W","W","W","W","W","W","W","W","W","W","W","W","W","W","W","W","W","W","W","W","W","W","W","W","W","W","W","W","W","W","W","W","W","W","?","?","?","?","?","?","?","?","?","?","?","?","?","?","?","?","?","?","?","?","?","?","?","?","?","?","?","?","?","?","?","?","?","?","?","?","?","?","?","?","?","?","?","?","?","?","?","?","?","?","?","?","?","?","?","?","?","?","?","?","?","?","?","?","?","?","?","?","?","?","?","?","?","?","?","?","?","?","?","?","?","?","?","?","?","?","?","?","?","?","?","?","?","?","?","?","?","?","?","?","?","?","?","?","?","?","?","?","?","?","?","?","?","?","?","?","?","?","?","?","?","?","?","?","?","?","?","?","?","?","?","?","W","W","W","W","W","W","W","W","W","W","W","W","W","W","W","W","W","W","W","W","W","W","W","W","?","?","?","N","N","N","N","N","N","N","N","N","N","N","N","N","N","N","N","N","N","N","N","N","N","N","N","N","N","N","N","N","N","N","N","N","N","N","N","N","N","N","N","N","N","N","N","N","N","N","N","N","N","N","N","N","N","N","N","N","N","N","N","N","N","N","N","N","N","N","N","N","N","N","N","N","N","N","N","N","N","N","N","N","N","N","N","N","N","N","N","N","N","N","N","N","N","N","N","N","N","N","N","N","N","?","?","W","W","W","W","W","W","W","W","W","W","W","W","W","W","W","W","W","W","W","W","W","W","W","W","W","W","W","W","W","W","W","W","W","W","W","W","W","W","W","W","W","W","W","W","W","W","W","W","W","W","W","W","W","W","W","W","W","W","W","W","?","V","V","V","?","?","?","?","?","?","?","?","?","?","?","?","?","?","?","?","?","?","?","?","?","?","?","?","?","?","?","?","?","?","U","U","?","?","?","?","?","?","?","?","?","?","?","T","T","T","T","T","T","T","T","T","T","T","T","T","T","T","T","T","T","T","T","T","T","T","T","T","T","T","T","T","T","T","T","T","T","T","T","T","T","T","T","T","T","T","T","T","T","T","T","T","T","T","T","T","T","T","T","T","T","T","T","T","T","T","T","T","T","T","T","T","T","T","T","T","T","T","?","?","?","?","S","S","S","S","S","S","S","S","S","S","S","S","S","S","S","S","S","S","S","S","S","S","S","S","S","S","S","S","S","S","S","S","S","S","S","S","S","S","S","S","S","S","S","S","S","S","S","S","S","S","S","S","S","S","S","S","S","S","?","?","?","K","K","?","B","B","B","B","B","B","B","B","B","B","B","B","B","B","B","B","B","B","B","B","B","B","B","B","B","B","B","B","B","B","B","B","B","B","B","B","B","B","B","B","B","B","B","B","B","B","B","B","B","B","B","B","B","B","B","B","B","B","B","B","B","B","B","B","B","B","B","B","B","B","B","B","B","B","B","B","B","B","B","B","B","B","B","B","B","B","B","B","B","B","B","B","B","B","B","B","B","B","?","?","?","?","?","?","?","?","?","?","?","?","?","?","?","L","L","L","M","?","?","?","?","?","?","?","?","?","Y","Y","Y","Y","Y","Y","Y","Y","Y","Y","Y","Y","Y","Y","?","?","?","?","?","?","?","Z","Z","Z","Z","Z","Z","Z","Z","Z","Z","Z","Z","Z","Z","Z","Z","Z","Z","Z","Z","Z","Z","Z","Z","Z","Z","Z","Z","Z","Z","Z","Z","Z","Z","Z","Z","Z","Z","Z","Z","Z","Z","Z","Z","?","?","Y","?","X","?","?","?","?","?","?","?","?","?","?","?","?","?","?","?","?","?","?","?","M","M","M","M","M","M","?","?","?","?","?","?","?","?","?","?","?","X","X","X","X","X","X","X","X","X","X","X","X","X","X","X","X","X","X","X","X","?","?","O","O","O","O","O","O","O","O","?","?","?","?","O","O","O","O","O","O","?","?","?","?","?","?","?","?","?","?","?","?","?","?","?","?","?","?","?","?","?","?","?","?","?","?","?","?","?","?","?","?","?","?","?","?","?","?","?","?","?","?","?","?","?","?","?","?","?","?","?","?","?","?","?","?","?","?","?","?","?","?","M","M","M","M","M","M","M","M","M","M","M","M","M","M","M","M","N","?","P","P","P","P","P","P","P","P","?","?","Q","Q","Q","Q","Q","Q","Q","Q","Q","Q","Q","Q","Q","Q","Q","Q","?","R","R","R","R","R","R","R","R","R","R","R","R","R","R","R","R","R","R","R","R","R","R","R","R","R","R","R","R","R","R","R","R","R","R","R","R","R","R","R","R","R","R","R","R","R","R","R","R","R","R","R","R","R","R","R","R","R","R","R","R","R","R","R","R","R","R","R","R","R","R","R","R","R","R","R","R","R","R","R","R","R","R","R","R","R","R","R","R","R","R","R","R","R","R","R","R","R","R","R","R","R","R","R","R","R","R","R","R","R","R","R","R","R","R","R","R","R","R","R","R","R","R","R","R","R","R","R","R","R","R","R","R"],"t":[72,92,118,136,151,172,189,213,230,253,270,286,305,320,338,359,376,396,411,436,452,476,490,513,527,550,568,584,602,621,637,655,672,691,706,726,740,759,774,792,808,826,843,860,877,893,908,925,941,957,974,989,1004,1020,1035,1052,1068,1086,1102,1119,1135,1151,1169,1184,1201,1219,1234,1252,1268,1285,1303,1319,1336,1354,1373,1393,1419,1435,1454,1472,1491,1509,1525,1542,1558,1574,1590,1605,1621,1637,1653,1670,1687,1705,1723,1744,1764,1784,1804,1820,1840,1856,1878,1893,1918,1934,1950,1972,1986,2008,2021,2044,2058,2079,2093,2118,2135,2150,2171,2185,2206,2219,2240,2255,2275,2288,2309,2324,2345,2360,2385,2401,2421,2438,2462,2477,2501,2517,2538,2555,2576,2591,2611,2625,2650,2668,2684,2701,2719,2735,2755,2771,2792,2807,2827,2842,2857,2872,2886,2902,2918,2934,2952,2968,2985,3004,3018,3035,3052,3068,3085,3101,3118,3135,3151,3167,3184,3202,3219,3235,3252,3269,3286,3302,3319,3339,3360,3375,3393,3418,3434,3458,3475,3491,3508,3525,3541,3558,3575,3600,3618,3634,3654,3672,3689,3707,3721,3737,3753,3770,3785,3802,3819,3835,3852,3868,3884,3901,3917,3935,3950,3968,3984,4001,4018,4035,4051,4068,4084,4101,4118,4133,4151,4168,4185,4201,4218,4234,4250,4267,4285,4301,4318,4334,4352,4368,4385,4401,4418,4435,4451,4467,4484,4501,4519,4538,4555,4572,4589,4606,4623,4639,4655,4671,4687,4703,4720,4736,4753,4769,4786,4802,4818,4834,4855,4877,4892,4919,4934,4958,4972,4992,5008,5022,5036,5051,5068,5085,5101,5118,5134,5151,5167,5183,5201,5218,5234,5251,5268,5284,5301,5317,5334,5350,5368,5385,5403,5420,5436,5453,5469,5485,5501,5518,5534,5550,5568,5584,5601,5618,5635,5651,5668,5686,5702,5719,5735,5751,5767,5785,5801,5818,5835,5852,5869,5886,5903,5921,5938,5954,5970,5987,6003,6019,6036,6052,6068,6084,6101,6117,6135,6150,6167,6183,6200,6219,6234,6252,6267,6285,6300,6318,6334,6351,6368,6388,6409,6429,6444,6467,6484,6504,6523,6540,6559,6574,6589,6606,6622,6637,6654,6670,6687,6702,6718,6734,6750,6766,6784,6801,6817,6834,6850,6867,6885,6901,6917,6941,6956,6971,6987,7003,7020,7035,7051,7068,7085,7101,7118,7134,7150,7168,7185,7201,7218,7234,7252,7268,7283,7301,7317,7334,7351,7368,7386,7405,7421,7438,7454,7471,7488,7505,7522,7540,7558,7575,7600,7617,7634,7656,7670,7694,7708,7722,7737,7754,7772,7789,7806,7822,7838,7854,7869,7886,7903,7919,7935,7954,7975,7990,8005,8025,8040,8055,8069,8085,8101,8117,8134,8151,8168,8184,8201,8218,8235,8253,8270,8288,8306,8323,8340,8358,8373,8389,8406,8423,8439,8455,8473,8491,8507,8523,8540,8556,8575,8591,8618,8633,8656,8672,8697,8713,8739,8754,8778,8796,8817,8833,8856,8871,8892,8909,8925,8943,8959,8974,8989,9004,9019,9035,9050,9066,9084,9101,9117,9134,9150,9167,9183,9201,9217,9234,9251,9267,9283,9301,9317,9334,9351,9368,9384,9402,9420,9438,9457,9474,9491,9520,9535,9559,9572,9587,9602,9620,9638,9655,9672,9688,9704,9720,9738,9755,9772,9789,9805,9821,9838,9854,9871,9888,9904,9920,9936,9952,9968,9984,10000,10017,10033,10051,10066,10083,10101,10118,10135,10151,10168,10184,10201,10218,10235,10250,10268,10284,10301,10318,10334,10350,10368,10384,10401,10417,10433,10451,10468,10485,10502,10519,10536,10553,10569,10587,10604,10621,10638,10655,10672,10688,10705,10721,10739,10756,10774,10789,10805,10821,10838,10855,10871,10889,10905,10922,10939,10966,10984,11007,11024,11045,11061,11083,11100,11116,11134,11150,11170,11186,11203,11225,11240,11259,11275,11291,11308,11323,11340,11357,11373,11392,11417,11433,11456,11471,11491,11507,11531,11547,11569,11587,11609,11626,11643,11663,11683,11700,11719,11735,11757,11771,11791,11805,11826,11841,11856,11871,11886,11902,11917,11934,11950,11967,11984,12000,12017,12034,12051,12067,12085,12100,12116,12134,12149,12167,12184,12199,12217,12234,12250,12267,12284,12300,12318,12335,12352,12369,12387,12405,12422,12440,12457,12474,12500,12517,12537,12557,12576,12593,12618,12633,12656,12674,12694,12708,12732,12750,12766,12789,12804,12828,12841,12865,12883,12900,12916,12937,12950,12973,12987,13007,13022,13043,13057,13077,13091,13116,13133,13149,13167,13183,13200,13219,13237,13252,13273,13288,13307,13321,13345,13360,13382,13400,13418,13440,13456,13478,13492,13516,13533,13554,13570,13593,13609,13633,13649,13669,13685,13707,13724,13742,13764,13779,13799,13817,13833,13850,13866,13885,13900,13920,13934,13957,13971,13991,14006,14026,14041,14067,14083,14100,14117,14136,14153,14175,14193,14208,14224,14240,14255,14269,14284,14300,14316,14333,14350,14367,14384,14401,14417,14435,14452,14471,14488,14505,14523,14541,14566,14583,14607,14622,14644,14661,14683,14700,14722,14739,14759,14776,14801,14816,14840,14854,14875,14889,14909,14925,14943,14967,14990,15003,15026,15040,15062,15074,15099,15117,15133,15150,15166,15185,15200,15222,15237,15258,15276,15294,15308,15332,15350,15368,15388,15404,15424,15441,15459,15482,15500,15518,15536,15556,15575,15593,15617,15634,15652,15669,15686,15705,15726,15743,15766,15785,15807,15821,15844,15858,15882,15899,15917,15933,15952,15969,15986,16003,16022,16037,16060,16074,16089,16104,16119,16135,16151,16167,16184,16200,16217,16233,16250,16266,16283,16300,16317,16334,16351,16371,16391,16420,16438,16467,16485,16511,16529,16553,16570,16593,16612,16635,16653,16678,16694,16717,16734,16755,16771,16796,16811,16836,16851,16875,16890,16910,16925,16949,16966,16984,16999,17017,17034,17049,17069,17085,17107,17121,17142,17157,17182,17200,17215,17233,17250,17268,17285,17302,17321,17343,17363,17384,17404,17427,17446,17467,17484,17505,17522,17546,17561,17583,17601,17621,17640,17661,17677,17699,17718,17738,17759,17775,17801,17816,17836,17853,17875,17890,17907,17923,17939,17955,17971,17988,18004,18020,18035,18050,18066,18083,18100,18117,18134,18151,18167,18184,18201,18218,18234,18250,18267,18283,18300,18315,18333,18350,18367,18384,18401,18418,18434,18450,18467,18483,18501,18517,18533,18551,18568,18583,18600,18617,18636,18653,18671,18688,18705,18722,18738,18755,18772,18788,18805,18822,18840,18861,18890,18904,18929,18943,18967,18983,19002,19022,19037,19058,19073,19092,19109,19124,19139,19155,19169,19185,19200,19216,19233,19251,19266,19283,19299,19316,19333,19350,19366,19383,19401,19418,19435,19453,19471,19488,19505,19522,19539,19555,19572,19590,19608,19632,19650,19669,19688,19706,19729,19745,19770,19787,19808,19826,19844,19862,19884,19900,19919,19933,19954,19969,19990,20005,20025,20040,20054,20069,20085,20100,20119,20134,20150,20165,20183,20199,20216,20233,20248,20267,20283,20299,20319,20339,20355,20371,20388,20405,20422,20439,20456,20473,20499,20516,20536,20554,20574,20593,20608,20634,20649,20666,20689,20705,20729,20744,20766,20783,20803,20818,20836,20853,20872,20888,20907,20921,20942,20958,20982,20999,21017,21033,21050,21066,21085,21100,21124,21136,21160,21173,21198,21215,21232,21249,21264,21284,21299,21320,21335,21355,21375,21396,21416,21433,21453,21475,21491,21515,21535,21553,21577,21593,21618,21633,21655,21672,21693,21712,21727,21751,21766,21790,21804,21825,21841,21857,21873,21890,21907,21923,21940,21955,21976,21996,22016,22031,22051,22066,22089,22102,22123,22136,22157,22171,22192,22208,22233,22250,22265,22282,22301,22316,22335,22353,22372,22389,22408,22423,22439,22454,22470,22487,22505,22522,22539,22555,22572,22588,22606,22621,22636,22654,22671,22687,22703,22726,22741,22766,22782,22806,22821,22844,22858,22883,22900,22916,22935,22952,22968,22987,23005,23025,23040,23065,23082,23100,23118,23135,23154,23169,23190,23205,23225,23240,23254,23269,23285,23300,23316,23333,23350,23366,23382,23399,23417,23433,23451,23469,23488,23509,23533,23551,23572,23589,23611,23627,23651,23667,23688,23706,23722,23740,23757,23785,23800,23825,23839,23862,23877,23898,23916,23938,23953,23978,23992,24015,24033,24049,24067,24085,24100,24120,24136,24157,24172,24191,24208,24225,24241,24257,24272,24287,24303,24319,24337,24356,24372,24388,24405,24424,24441,24465,24483,24500,24521,24538,24558,24574,24599,24617,24632,24654,24671,24691,24709,24724,24750,24767,24788,24804,24823,24838,24861,24874,24899,24915,24932,24948,24968,24982,25002,25020,25035,25059,25077,25091,25114,25133,25148,25168,25182,25204,25219,25239,25253,25274,25288,25309,25323,25339,25356,25373,25390,25406,25423,25449,25466,25485,25502,25524,25538,25553,25570,25587,25603,25619,25634,25651,25669,25686,25705,25723,25740,25766,25783,25804,25820,25841,25862,25878,25899,25915,25939,25953,25974,25987,26008,26023,26038,26052,26067,26083,26099,26116,26132,26149,26166,26183,26199,26215,26233,26249,26266,26282,26300,26317,26333,26349,26366,26384,26401,26418,26434,26451,26467,26483,26502,26520,26541,26563,26581,26600,26622,26636,26661,26676,26701,26716,26741,26754,26768,26784,26801,26817,26834,26850,26867,26888,26904,26920,26936,26951,26967,26983,26998,27016,27032,27050,27066,27083,27098,27115,27132,27149,27165,27182,27197,27215,27232,27248,27266,27283,27298,27316,27333,27349,27365,27383,27399,27416,27434,27452,27470,27488,27505,27522,27538,27554,27570,27588,27605,27631,27648,27666,27690,27704,27725,27741,27767,27782,27804,27819,27841,27856,27872,27888,27903,27919,27935,27952,27968,27985,28001,28017,28034,28049,28068,28088,28102,28117,28133,28150,28166,28183,28199,28216,28231,28248,28266,28282,28299,28315,28332,28350,28367,28384,28401,28420,28438,28457,28482,28501,28524,28541,28567,28584,28612,28628,28651,28667,28693,28708,28733,28749,28775,28790,28816,28832,28852,28870,28887,28905,28922,28940,28955,28970,28987,29002,29019,29036,29052,29068,29084,29100,29117,29134,29150,29166,29182,29200,29216,29232,29250,29266,29283,29300,29315,29332,29351,29368,29386,29403,29423,29440,29465,29483,29499,29525,29540,29566,29582,29612,29624,29650,29665,29688,29706,29723,29749,29765,29786,29804,29823,29842,29858,29882,29899,29917,29936,29951,29972,29987,30007,30022,30041,30056,30077,30092,30115,30132,30149,30165,30185,30202,30222,30237,30255,30271,30288,30305,30323,30340,30357,30382,30399,30419,30434,30453,30474,30492,30508,30531,30548,30568,30584,30605,30621,30637,30654,30672,30689,30706,30732,30749,30769,30785,30805,30824,30841,30857,30873,30888,30904,30920,30935,30950,30965,30982,30999,31015,31031,31049,31066,31082,31098,31115,31132,31148,31167,31187,31202,31221,31237,31251,31266,31282,31299,31315,31333,31351,31368,31387,31405,31432,31449,31471,31487,31503,31520,31535,31554,31571,31587,31603,31620,31636,31654,31671,31688,31704,31721,31737,31755,31771,31788,31804,31820,31837,31854,31870,31888,31906,31932,31950,31966,31988,32003,32023,32039,32055,32070,32087,32103,32119,32136,32153,32170,32185,32201,32217,32232,32248,32264,32281,32298,32315,32333,32350,32366,32383,32400,32416,32433,32450,32466,32482,32499,32516,32532,32549,32566,32583,32602,32620,32637,32664,32678,32701,32718,32745,32760,32784,32800,32824,32841,32855,32869,32884,32899,32915,32932,32949,32966,32982,32999,33015,33032,33047,33065,33081,33098,33116,33131,33148,33166,33182,33199,33215,33232,33251,33267,33282,33299,33314,33332,33349,33366,33383,33401,33420,33437,33454,33472,33489,33514,33531,33550,33569,33589,33606,33623,33647,33665,33687,33704,33726,33743,33767,33782,33802,33820,33835,33856,33871,33885,33900,33915,33932,33948,33965,33983,33998,34015,34031,34048,34065,34083,34098,34115,34131,34148,34165,34186,34207,34226,34240,34264,34281,34298,34314,34334,34351,34374,34390,34415,34431,34452,34468,34493,34508,34530,34548,34567,34587,34603,34624,34642,34657,34681,34699,34716,34733,34752,34768,34788,34803,34821,34838,34856,34871,34894,34907,34931,34948,34965,34981,35000,35015,35032,35049,35065,35080,35098,35115,35132,35148,35165,35182,35198,35214,35232,35248,35264,35281,35298,35315,35332,35350,35369,35386,35404,35422,35438,35466,35481,35502,35518,35544,35559,35584,35599,35624,35639,35654,35671,35688,35717,35733,35754,35771,35786,35802,35817,35834,35851,35866,35882,35897,35915,35932,35948,35965,35982,35998,36015,36032,36048,36065,36082,36098,36115,36131,36148,36164,36182,36198,36215,36231,36248,36264,36280,36297,36315,36332,36350,36368,36386,36405,36432,36448,36474,36490,36515,36531,36551,36567,36590,36607,36622,36648,36665,36681,36700,36717,36739,36756,36773,36797,36814,36830,36850,36867,36884,36902,36920,36935,36956,36971,36985,37000,37015,37031,37048,37065,37081,37097,37115,37131,37147,37164,37181,37198,37215,37234,37254,37269,37284,37300,37315,37332,37349,37367,37385,37402,37420,37437,37455,37482,37499,37519,37537,37554,37573,37599,37615,37634,37651,37677,37691,37713,37731,37748,37768,37786,37804,37819,37840,37855,37873,37890,37906,37923,37940,37954,37969,37984,38000,38016,38031,38048,38065,38082,38097,38115,38132,38148,38165,38181,38197,38215,38231,38248,38265,38282,38298,38315,38332,38349,38368,38386,38402,38419,38437,38457,38483,38501,38524,38540,38565,38582,38600,38619,38635,38656,38673,38693,38715,38732,38755,38771,38786,38807,38824,38848,38864,38884,38900,38925,38940,38966,38981,39000,39016,39037,39051,39074,39088,39103,39119,39137,39152,39167,39183,39199,39215,39231,39247,39264,39281,39298,39315,39331,39348,39366,39384,39402,39420,39438,39467,39482,39506,39523,39547,39564,39582,39600,39625,39639,39664,39682,39703,39722,39739,39754,39780,39798,39817,39833,39856,39871,39891,39906,39922,39938,39952,39968,39984,40000,40015,40031,40048,40064,40080,40097,40114,40131,40147,40165,40182,40199,40216,40233,40249,40268,40287,40302,40318,40335,40353,40371,40388,40415,40431,40450,40468,40491,40508,40531,40547,40573,40587,40603,40619,40635,40653,40670,40687,40703,40730,40748,40769,40786,40805,40822,40839,40856,40873,40890,40905,40920,40936,40952,40968,40983,40999,41015,41030,41047,41065,41081,41098,41115,41131,41148,41164,41180,41197,41214,41230,41248,41264,41282,41298,41315,41331,41348,41366,41385,41403,41422,41449,41465,41489,41506,41531,41547,41567,41585,41607,41623,41647,41665,41681,41702,41718,41743,41757,41784,41803,41819,41838,41853,41873,41888,41907,41925,41940,41964,41980,41998,42014,42032,42049,42067,42085,42102,42122,42138,42155,42172,42190,42204,42225,42238,42264,42281,42296,42314,42330,42352,42370,42387,42409,42425,42450,42466,42487,42505,42524,42542,42565,42581,42602,42621,42638,42660,42675,42698,42713,42737,42751,42772,42787,42802,42817,42833,42849,42864,42881,42898,42915,42930,42948,42963,42982,42999,43015,43031,43048,43063,43081,43098,43114,43131,43148,43164,43183,43213,43232,43248,43267,43283,43302,43318,43341,43359,43384,43401,43423,43440,43456,43481,43497,43521,43537,43552,43568,43584,43600,43616,43632,43648,43666,43684,43700,43717,43733,43750,43768,43785,43803,43819,43836,43852,43869,43885,43901,43916,43932,43948,43964,43981,43998,44014,44031,44047,44064,44080,44097,44114,44131,44147,44164,44181,44198,44214,44230,44247,44264,44281,44297,44313,44331,44348,44366,44384,44402,44420,44438,44465,44480,44500,44518,44540,44560,44584,44601,44623,44639,44663,44682,44704,44724,44740,44763,44780,44804,44818,44841,44855,44868,44883,44898,44914,44931,44947,44964,44981,44997,45013,45031,45047,45064,45080,45097,45114,45131,45147,45164,45181,45197,45214,45230,45247,45264,45281,45296,45314,45332,45351,45370,45388,45409,45434,45450,45477,45492,45515,45531,45552,45569,45591,45607,45629,45647,45666,45685,45701,45722,45739,45764,45779,45798,45814,45833,45849,45868,45884,45904,45919,45939,45953,45967,45982,45998,46014,46031,46047,46064,46081,46096,46113,46130,46147,46164,46181,46200,46221,46234,46250,46265,46281,46297,46313,46330,46347,46365,46384,46404,46433,46450,46475,46492,46519,46536,46555,46583,46600,46623,46639,46663,46681,46699,46724,46741,46768,46783,46807,46822,46847,46864,46880,46898,46918,46932,46954,46969,46990,47005,47030,47047,47063,47080,47100,47115,47135,47150,47173,47185,47200,47229,47246,47264,47282,47300,47316,47336,47352,47377,47391,47413,47431,47451,47467,47484,47501,47518,47534,47551,47568,47584,47602,47619,47636,47653,47670,47687,47713,47731,47749,47767,47791,47808,47830,47847,47866,47881,47905,47918,47939,47954,47970,47987,48003,48018,48035,48051,48068,48084,48101,48116,48132,48148,48164,48180,48197,48212,48231,48246,48263,48279,48296,48314,48330,48347,48364,48382,48400,48418,48436,48453,48480,48497,48519,48536,48558,48576,48597,48616,48633,48656,48672,48695,48713,48737,48752,48773,48788,48813,48830,48847,48863,48882,48896,48917,48932,48952,48967,48988,49002,49022,49037,49051,49066,49081,49097,49114,49130,49147,49162,49180,49197,49213,49230,49247,49264,49284,49305,49320,49337,49365,49380,49405,49420,49436,49453,49478,49497,49516,49534,49553,49572,49592,49607,49629,49646,49663,49688,49705,49720,49747,49763,49780,49799,49816,49834,49850,49869,49884,49907,49921,49935,49951,49966,49982,49998,50014,50031,50047,50063,50080,50097,50114,50129,50147,50162,50180,50195,50214,50230,50247,50263,50280,50296,50313,50330,50348,50366,50384,50401,50418,50435,50452,50467,50484,50501,50518,50535,50552,50568,50584,50602,50618,50634,50651,50668,50685,50702,50720,50751,50767,50788,50805,50831,50847,50865,50884,50899,50920,50934,50955,50969,50986,51013,51030,51047,51070,51088,51104,51131,51147,51168,51184,51205,51219,51234,51263,51280,51296,51319,51334,51356,51374,51401,51415,51436,51453,51477,51492,51515,51531,51557,51572,51598,51614,51636,51652,51668,51684,51703,51719,51735,51752,51767,51782,51796,51812,51829,51846,51864,51879,51896,51913,51930,51947,51963,51980,51997,52013,52029,52047,52063,52079,52096,52113,52131,52147,52163,52179,52195,52213,52229,52247,52264,52280,52298,52317,52335,52354,52373,52397,52416,52442,52458,52483,52498,52522,52538,52564,52580,52606,52622,52647,52663,52688,52703,52719,52735,52753,52768,52784,52799,52815,52830,52846,52862,52879,52896,52913,52930,52946,52962,52980,52996,53012,53030,53047,53063,53080,53096,53113,53130,53147,53163,53178,53196,53212,53230,53247,53264,53281,53297,53312,53329,53348,53368,53387,53405,53429,53447,53468,53488,53505,53529,53546,53572,53588,53613,53630,53651,53668,53685,53702,53719,53747,53763,53789,53806,53830,53846,53864,53879,53901,53916,53935,53956,53975,53999,54013,54034,54049,54070,54084,54105,54120,54145,54163,54179,54195,54215,54230,54247,54265,54282,54305,54318,54340,54356,54373,54399,54417,54438,54456,54474,54499,54514,54539,54553,54579,54597,54618,54636,54657,54676,54696,54714,54733,54750,54767,54784,54805,54819,54839,54853,54868,54883,54899,54913,54929,54946,54962,54980,54995,55013,55030,55046,55063,55079,55097,55113,55129,55147,55163,55180,55196,55213,55230,55246,55263,55297,55313,55335,55352,55371,55387,55412,55429,55451,55476,55496,55514,55532,55551,55573,55591,55613,55631,55653,55669,55685,55703,55719,55745,55762,55782,55798,55817,55833,55854,55868,55889,55903,55919,55935,55949,55965,55981,55996,56012,56028,56047,56063,56079,56096,56113,56129,56146,56163,56180,56196,56212,56229,56247,56263,56280,56296,56313,56330,56349,56368,56386,56418,56435,56458,56474,56500,56515,56540,56555,56580,56596,56617,56633,56654,56674,56690,56713,56730,56752,56768,56788,56804,56819,56833,56849,56865,56880,56896,56913,56930,56945,56964,56980,56996,57016,57036,57051,57067,57083,57098,57115,57131,57148,57164,57180,57196,57214,57230,57246,57262,57279,57297,57314,57332,57351,57369,57388,57413,57430,57452,57469,57490,57506,57528,57546,57564,57583,57602,57620,57637,57662,57679,57700,57717,57740,57756,57779,57796,57817,57831,57854,57867,57888,57903,57925,57938,57961,57979,57995,58011,58028,58048,58064,58085,58099,58121,58135,58155,58170,58184,58199,58214,58230,58245,58263,58279,58296,58313,58330,58349,58368,58387,58412,58429,58455,58471,58495,58513,58542,58556,58582,58597,58622,58636,58661,58679,58698,58718,58734,58754,58769,58788,58803,58817,58831,58846,58862,58880,58897,58912,58930,58946,58963,58980,58995,59011,59030,59046,59063,59079,59096,59112,59129,59145,59163,59179,59195,59213,59229,59246,59262,59280,59297,59313,59330,59347,59364,59382,59399,59416,59433,59451,59469,59485,59502,59519,59536,59552,59579,59596,59617,59638,59657,59679,59694,59721,59735,59760,59774,59797,59812,59836,59850,59872,59887,59911,59928,59945,59963,59979,59998,60014,60033,60051,60067,60089,60104,60128,60145,60162,60179,60195,60213,60231,60248,60267,60282,60303,60317,60339,60355,60380,60396,60420,60435,60451,60468,60486,60513,60529,60549,60570,60587,60604,60630,60645,60670,60684,60709,60722,60746,60762,60782,60798,60816,60834,60851,60869,60885,60903,60921,60936,60951,60966,60982,60998,61013,61029,61045,61062,61079,61095,61113,61129,61146,61162,61179,61195,61211,61230,61246,61263,61280,61297,61314,61332,61349,61364,61385,61412,61430,61450,61472,61489,61512,61533,61554,61571,61597,61616,61643,61657,61682,61697,61721,61735,61750,61765,61780,61795,61812,61830,61845,61862,61878,61895,61912,61929,61947,61964,61981,61998,62014,62029,62044,62062,62079,62096,62113,62129,62147,62164,62180,62197,62216,62232,62249,62268,62285,62302,62320,62337,62363,62380,62402,62420,62437,62461,62479,62506,62522,62545,62564,62587,62604,62620,62646,62662,62689,62704,62730,62746,62770,62784,62805,62820,62837,62862,62878,62896,62917,62931,62953,62969,62986,63004,63021,63045,63062,63079,63096,63114,63132,63154,63168,63189,63203,63229,63245,63263,63281,63297,63317,63333,63352,63370,63395,63413,63437,63456,63478,63498,63520,63538,63562,63579,63601,63617,63640,63657,63679,63695,63720,63734,63755,63770,63794,63812,63829,63845,63862,63881,63898,63916,63933,63952,63969,63989,64003,64028,64046,64061,64079,64098,64114,64133,64149,64169,64183,64205,64220,64245,64262,64278,64298,64314,64331,64351,64370,64390,64412,64428,64454,64471,64498,64515,64541,64557,64578,64596,64622,64637,64662,64679,64704,64719,64744,64763,64781,64798,64815,64834,64849,64873,64886,64902,64917,64932,64947,64964,64979,64995,65012,65028,65045,65062,65078,65095,65111,65128,65145,65161,65178,65195,65211,65229,65246,65262,65278,65295,65312,65329,65346,65363,65382,65399,65416,65434,65450,65467,65483,65501,65517,65534,65552,65568,65584,65601,65619,65647,65663,65685,65705,65724,65745,65762,65785,65801,65823,65839,65864,65879,65897,65914,65931,65951,65967,65986,66003,66020,66038,66053,66068,66083,66099,66115,66129,66145,66162,66179,66194,66213,66232,66246,66262,66280,66296,66311,66328,66345,66363,66382,66401,66421,66445,66462,66486,66502,66519,66545,66562,66584,66600,66617,66635,66662,66679,66699,66721,66737,66763,66778,66800,66814,66836,66849,66872,66885,66899,66915,66930,66946,66961,66978,66996,67012,67028,67044,67060,67079,67095,67112,67129,67145,67161,67178,67194,67213,67228,67245,67261,67278,67295,67312,67329,67347,67366,67384,67402,67427,67446,67468,67487,67504,67527,67545,67567,67584,67606,67622,67647,67663,67687,67703,67732,67747,67766,67781,67804,67818,67833,67850,67865,67883,67899,67916,67931,67947,67962,67980,67997,68014,68030,68047,68062,68078,68095,68111,68128,68145,68163,68179,68196,68213,68228,68245,68261,68278,68295,68312,68328,68345,68363,68382,68401,68419,68444,68462,68483,68501,68519,68544,68562,68583,68600,68623,68640,68664,68682,68704,68721,68746,68761,68782,68797,68820,68835,68854,68870,68885,68901,68915,68931,68948,68963,68980,68995,69011,69027,69045,69061,69078,69096,69112,69128,69145,69162,69178,69196,69213,69229,69246,69264,69285,69300,69315,69333,69352,69368,69395,69411,69434,69450,69472,69487,69514,69530,69552,69568,69588,69607,69627,69645,69664,69684,69701,69728,69745,69770,69784,69798,69814,69830,69847,69863,69878,69896,69912,69928,69945,69962,69978,69995,70012,70028,70044,70061,70077,70095,70111,70127,70144,70162,70179,70195,70211,70228,70244,70261,70277,70294,70311,70328,70345,70363,70381,70399,70417,70436,70463,70481,70505,70523,70550,70566,70586,70602,70619,70635,70661,70678,70697,70717,70736,70757,70778,70796,70813,70830,70851,70866,70887,70902,70921,70935,70949,70963,70980,70997,71014,71030,71046,71062,71079,71095,71112,71128,71145,71161,71178,71195,71211,71228,71245,71262,71278,71295,71313,71330,71350,71370,71401,71419,71446,71462,71487,71502,71520,71544,71562,71585,71604,71627,71645,71666,71683,71705,71722,71744,71761,71778,71794,71813,71827,71848,71863,71884,71897,71919,71932,71952,71966,71987,72001,72021,72035,72049,72065,72082,72100,72116,72132,72149,72166,72182,72199,72215,72233,72251,72269,72287,72311,72330,72353,72370,72395,72415,72437,72456,72478,72497,72515,72539,72556,72579,72597,72618,72634,72651,72678,72693,72719,72734,72749,72764,72778,72795,72812,72828,72845,72863,72880,72895,72911,72927,72944,72961,72978,72994,73010,73028,73044,73062,73078,73095,73111,73127,73144,73160,73178,73194,73211,73227,73244,73260,73278,73294,73312,73329,73350,73368,73394,73411,73431,73450,73470,73487,73514,73530,73556,73571,73594,73611,73633,73652,73668,73683,73701,73718,73745,73761,73784,73799,73817,73833,73850,73871,73891,73911,73927,73944,73961,73979,73999,74015,74033,74052,74068,74089,74103,74127,74145,74160,74180,74195,74213,74230,74250,74265,74284,74301,74316,74335,74353,74372,74389,74411,74430,74453,74470,74493,74512,74538,74553,74578,74594,74615,74633,74654,74671,74696,74712,74733,74749,74768,74782,74802,74816,74836,74851,74866,74882,74897,74915,74933,74950,74966,74981,74998,75016,75033,75049,75064,75082,75098,75114,75129,75147,75164,75181,75198,75216,75231,75246,75265,75286,75306,75327,75345,75368,75386,75415,75432,75452,75471,75486,75513,75530,75555,75571,75593,75610,75633,75650,75671,75687,75712,75727,75749,75763,75783,75798,75819,75834,75854,75868,75882,75896,75913,75931,75949,75967,75983,76001,76018,76044,76061,76077,76094,76113,76129,76148,76163,76182,76197,76216,76232,76252,76268,76284,76299,76314,76331,76349,76367,76387,76411,76428,76455,76473,76496,76515,76541,76558,76581,76598,76621,76637,76659,76677,76696,76714,76735,76754,76769,76784,76803,76827,76847,76862,76881,76896,76918,76931,76954,76968,76983,76999,77016,77031,77048,77065,77082,77099,77115,77132,77149,77166,77184,77200,77215,77230,77246,77262,77278,77296,77313,77330,77349,77368,77394,77412,77438,77454,77477,77495,77517,77535,77552,77578,77594,77615,77632,77655,77672,77694,77713,77735,77750,77770,77784,77805,77819,77842,77860,77877,77895,77911,77930,77946,77964,77981,78001,78016,78035,78051,78069,78085,78103,78119,78136,78152,78169,78186,78202,78217,78231,78247,78265,78281,78300,78321,78343,78361,78386,78403,78427,78444,78466,78482,78504,78521,78544,78565,78582,78605,78622,78644,78662,78684,78701,78718,78735,78761,78777,78797,78813,78832,78848,78868,78883,78902,78918,78938,78954,78978,78994,79014,79029,79051,79068,79082,79099,79115,79133,79149,79165,79182,79198,79215,79232,79250,79267,79282,79298,79313,79330,79349,79369,79393,79410,79437,79456,79477,79496,79514,79536,79555,79572,79595,79613,79634,79651,79669,79695,79712,79733,79750,79766,79783,79812,79827,79847,79861,79882,79897,79918,79934,79956,79969,79993,80010,80026,80044,80060,80077,80095,80110,80134,80149,80167,80182,80201,80216,80235,80250,80269,80285,80300,80316,80333,80351,80370,80394,80412,80432,80453,80470,80496,80512,80533,80552,80569,80595,80610,80635,80651,80671,80687,80709,80727,80743,80762,80779,80795,80813,80830,80849,80864,80884,80898,80918,80933,80956,80971,80992,81010,81028,81044,81065,81079,81100,81115,81136,81150,81169,81185,81203,81219,81232,81248,81267,81284,81300,81323,81347,81363,81387,81404,81429,81449,81473,81492,81514,81532,81550,81568,81594,81610,81634,81651,81669,81694,81711,81731,81750,81766,81786,81801,81815,81830,81844,81860,81877,81894,81912,81929,81946,81965,81982,81999,82015,82032,82047,82064,82081,82096,82111,82128,82144,82160,82178,82193,82210,82226,82244,82262,82281,82299,82318,82343,82368,82388,82414,82433,82454,82480,82499,82518,82544,82563,82588,82606,82631,82649,82672,82688,82713,82730,82753,82770,82793,82810,82826,82849,82867,82882,82900,82917,82934,82951,82967,82985,83002,83018,83037,83051,83071,83086,83101,83117,83133,83149,83165,83181,83196,83211,83226,83243,83260,83278,83295,83311,83329,83349,83368,83392,83410,83434,83451,83477,83495,83517,83534,83557,83576,83597,83613,83635,83651,83668,83692,83710,83730,83746,83768,83781,83802,83817,83836,83851,83864,83880,83895,83910,83927,83943,83961,83980,83998,84015,84032,84047,84062,84078,84096,84113,84129,84147,84164,84182,84208,84225,84243,84260,84282,84298,84321,84345,84366],"hit":[null],"x":[0.03741496598639456,0.03741496598639456,0.03741496598639456,0.03741496598639456,0.03741496598639456,0.03741496598639456,0.03741496598639456,0.03741496598639456,0.03741496598639456,0.03741496598639456,0.03741496598639456,0.03741496598639456,0.03741496598639456,0.03741496598639456,0.03741496598639456,0.03741496598639456,0.03741496598639456,0.03741496598639456,0.03741496598639456,0.03741496598639456,0.03741496598639456,0.03741496598639456,0.03741496598639456,0.03741496598639456,0.03741496598639456,0.03741496598639456,0.03741496598639456,0.03741496598639456,0.03741496598639456,0.03741496598639456,0.03741496598639456,0.03741496598639456,0.03741496598639456,0.03741496598639456,0.03741496598639456,0.03741496598639456,0.03741496598639456,0.03741496598639456,0.03741496598639456,0.03741496598639456,0.03741496598639456,0.03741496598639456,0.03741496598639456,0.034013605442176874,0.03741496598639456,0.03741496598639456,0.03741496598639456,0.03741496598639456,0.03741496598639456,0.03741496598639456,0.03741496598639456,0.03741496598639456,0.03741496598639456,0.03741496598639456,0.03741496598639456,0.03741496598639456,0.03741496598639456,0.03741496598639456,0.03741496598639456,0.03741496598639456,0.03741496598639456,0.03741496598639456,0.03741496598639456,0.03741496598639456,0.03741496598639456,0.03741496598639456,0.03741496598639456,0.03741496598639456,0.03741496598639456,0.03741496598639456,0.03741496598639456,0.03741496598639456,0.03741496598639456,0.03741496598639456,0.03741496598639456,0.03741496598639456,0.03741496598639456,0.03741496598639456,0.03741496598639456,0.03741496598639456,0.03741496598639456,0.03741496598639456,0.03741496598639456,0.03741496598639456,0.03741496598639456,0.03741496598639456,0.03741496598639456,0.03741496598639456,0.03741496598639456,0.03741496598639456,0.03741496598639456,0.03741496598639456,0.03741496598639456,0.03741496598639456,0.03741496598639456,0.03741496598639456,0.03741496598639456,0.03741496598639456,0.03741496598639456,0.03741496598639456,0.03741496598639456,0.03741496598639456,0.03741496598639456,0.03741496598639456,0.03741496598639456,0.03741496598639456,0.03741496598639456,0.03741496598639456,0.03741496598639456,0.03741496598639456,0.03741496598639456,0.03741496598639456,0.03741496598639456,0.03741496598639456,0.03741496598639456,0.03741496598639456,0.03741496598639456,0.03741496598639456,0.03741496598639456,0.03741496598639456,0.03741496598639456,0.03741496598639456,0.03741496598639456,0.03741496598639456,0.03741496598639456,0.03741496598639456,0.03741496598639456,0.03741496598639456,0.03741496598639456,0.03741496598639456,0.03741496598639456,0.03741496598639456,0.03741496598639456,0.03741496598639456,0.03741496598639456,0.03741496598639456,0.03741496598639456,0.03741496598639456,0.03741496598639456,0.03741496598639456,0.03741496598639456,0.03741496598639456,0.03741496598639456,0.03741496598639456,0.03741496598639456,0.03741496598639456,0.03741496598639456,0.03741496598639456,0.03741496598639456,0.03741496598639456,0.03741496598639456,0.03741496598639456,0.03741496598639456,0.03741496598639456,0.03741496598639456,0.03741496598639456,0.03741496598639456,0.03741496598639456,0.03741496598639456,0.03741496598639456,0.03741496598639456,0.03741496598639456,0.03741496598639456,0.03741496598639456,0.03741496598639456,0.03741496598639456,0.03741496598639456,0.03741496598639456,0.03741496598639456,0.03741496598639456,0.03741496598639456,0.03741496598639456,0.03741496598639456,0.03741496598639456,0.03741496598639456,0.03741496598639456,0.03741496598639456,0.03741496598639456,0.03741496598639456,0.03741496598639456,0.03741496598639456,0.03741496598639456,0.03741496598639456,0.03741496598639456,0.03741496598639456,0.03741496598639456,0.03741496598639456,0.03741496598639456,0.03741496598639456,0.03741496598639456,0.03741496598639456,0.03741496598639456,0.03741496598639456,0.03741496598639456,0.03741496598639456,0.03741496598639456,0.03741496598639456,0.03741496598639456,0.03741496598639456,0.03741496598639456,0.03741496598639456,0.03741496598639456,0.03741496598639456,0.03741496598639456,0.03741496598639456,0.03741496598639456,0.03741496598639456,0.03741496598639456,0.03741496598639456,0.03741496598639456,0.03741496598639456,0.03741496598639456,0.03741496598639456,0.03741496598639456,0.03741496598639456,0.03741496598639456,0.03741496598639456,0.03741496598639456,0.03741496598639456,0.03741496598639456,0.03741496598639456,0.03741496598639456,0.03741496598639456,0.03741496598639456,0.03741496598639456,0.03741496598639456,0.03741496598639456,0.03741496598639456,0.03741496598639456,0.03741496598639456,0.03741496598639456,0.03741496598639456,0.03741496598639456,0.03741496598639456,0.03741496598639456,0.03741496598639456,0.03741496598639456,0.03741496598639456,0.03741496598639456,0.03741496598639456,0.03741496598639456,0.03741496598639456,0.03741496598639456,0.03741496598639456,0.03741496598639456,0.03741496598639456,0.03741496598639456,0.03741496598639456,0.03741496598639456,0.03741496598639456,0.03741496598639456,0.03741496598639456,0.03741496598639456,0.03741496598639456,0.03741496598639456,0.03741496598639456,0.03741496598639456,0.03741496598639456,0.03741496598639456,0.03741496598639456,0.03741496598639456,0.03741496598639456,0.03741496598639456,0.03741496598639456,0.03741496598639456,0.03741496598639456,0.03741496598639456,0.03741496598639456,0.03741496598639456,0.03741496598639456,0.03741496598639456,0.03741496598639456,0.03741496598639456,0.03741496598639456,0.03741496598639456,0.03741496598639456,0.03741496598639456,0.03741496598639456,0.03741496598639456,0.03741496598639456,0.03741496598639456,0.03741496598639456,0.03741496598639456,0.03741496598639456,0.03741496598639456,0.03741496598639456,0.03741496598639456,0.03741496598639456,0.03741496598639456,0.03741496598639456,0.03741496598639456,0.03741496598639456,0.03741496598639456,0.03741496598639456,0.03741496598639456,0.03741496598639456,0.03741496598639456,0.03741496598639456,0.03741496598639456,0.03741496598639456,0.03741496598639456,0.03741496598639456,0.03741496598639456,0.03741496598639456,0.03741496598639456,0.03741496598639456,0.03741496598639456,0.03741496598639456,0.03741496598639456,0.03741496598639456,0.03741496598639456,0.03741496598639456,0.03741496598639456,0.03741496598639456,0.03741496598639456,0.03741496598639456,0.03741496598639456,0.03741496598639456,0.03741496598639456,0.03741496598639456,0.03741496598639456,0.03741496598639456,0.03741496598639456,0.03741496598639456,0.03741496598639456,0.03741496598639456,0.03741496598639456,0.03741496598639456,0.03741496598639456,0.03741496598639456,0.03741496598639456,0.03741496598639456,0.03741496598639456,0.03741496598639456,0.03741496598639456,0.03741496598639456,0.03741496598639456,0.03741496598639456,0.03741496598639456,0.03741496598639456,0.03741496598639456,0.03741496598639456,0.03741496598639456,0.03741496598639456,0.03741496598639456,0.03741496598639456,0.03741496598639456,0.03741496598639456,0.03741496598639456,0.03741496598639456,0.03741496598639456,0.03741496598639456,0.03741496598639456,0.03741496598639456,0.03741496598639456,0.03741496598639456,0.03741496598639456,0.03741496598639456,0.03741496598639456,0.03741496598639456,0.03741496598639456,0.03741496598639456,0.03741496598639456,0.03741496598639456,0.03741496598639456,0.03741496598639456,0.03741496598639456,0.03741496598639456,0.03741496598639456,0.03741496598639456,0.03741496598639456,0.03741496598639456,0.03741496598639456,0.03741496598639456,0.03741496598639456,0.03741496598639456,0.03741496598639456,0.03741496598639456,0.03741496598639456,0.03741496598639456,0.03741496598639456,0.03741496598639456,0.03741496598639456,0.03741496598639456,0.03741496598639456,0.03741496598639456,0.03741496598639456,0.03741496598639456,0.03741496598639456,0.03741496598639456,0.03741496598639456,0.03741496598639456,0.03741496598639456,0.03741496598639456,0.03741496598639456,0.03741496598639456,0.03741496598639456,0.03741496598639456,0.03741496598639456,0.03741496598639456,0.03741496598639456,0.03741496598639456,0.03741496598639456,0.03741496598639456,0.03741496598639456,0.03741496598639456,0.03741496598639456,0.03741496598639456,0.03741496598639456,0.03741496598639456,0.03741496598639456,0.03741496598639456,0.03741496598639456,0.03741496598639456,0.03741496598639456,0.03741496598639456,0.03741496598639456,0.03741496598639456,0.03741496598639456,0.03741496598639456,0.03741496598639456,0.03741496598639456,0.03741496598639456,0.03741496598639456,0.03741496598639456,0.03741496598639456,0.03741496598639456,0.03741496598639456,0.03741496598639456,0.03741496598639456,0.03741496598639456,0.03741496598639456,0.03741496598639456,0.03741496598639456,0.03741496598639456,0.03741496598639456,0.03741496598639456,0.03741496598639456,0.03741496598639456,0.03741496598639456,0.03741496598639456,0.03741496598639456,0.03741496598639456,0.03741496598639456,0.03741496598639456,0.03741496598639456,0.03741496598639456,0.03741496598639456,0.03741496598639456,0.03741496598639456,0.03741496598639456,0.03741496598639456,0.03741496598639456,0.03741496598639456,0.03741496598639456,0.03741496598639456,0.03741496598639456,0.03741496598639456,0.03741496598639456,0.03741496598639456,0.03741496598639456,0.030612244897959183,0.25510204081632654,0.2585034013605442,0.2585034013605442,0.2585034013605442,0.2585034013605442,0.2585034013605442,0.2585034013605442,0.2585034013605442,0.2585034013605442,0.2585034013605442,0.2585034013605442,0.2585034013605442,0.2585034013605442,0.2687074829931973,0.2789115646258503,0.30612244897959184,0.336734693877551,0.35034013605442177,0.35034013605442177,0.35034013605442177,0.35034013605442177,0.3435374149659864,0.3435374149659864,0.3401360544217687,0.336734693877551,0.3197278911564626,0.29591836734693877,0.2925170068027211,0.2857142857142857,0.2857142857142857,0.2857142857142857,0.2857142857142857,0.2857142857142857,0.2857142857142857,0.2789115646258503,0.272108843537415,0.2653061224489796,0.2585034013605442,0.23809523809523808,0.23129251700680273,0.21768707482993196,0.21768707482993196,0.21768707482993196,0.21768707482993196,0.20408163265306123,0.19047619047619047,0.17006802721088435,0.16326530612244897,0.1598639455782313,0.1598639455782313,0.1598639455782313,0.1598639455782313,0.1598639455782313,0.1598639455782313,0.1598639455782313,0.1598639455782313,0.1598639455782313,0.1598639455782313,0.1598639455782313,0.1598639455782313,0.1598639455782313,0.1598639455782313,0.1598639455782313,0.1598639455782313,0.1598639455782313,0.1598639455782313,0.1598639455782313,0.1598639455782313,0.1598639455782313,0.1598639455782313,0.1598639455782313,0.1598639455782313,0.1598639455782313,0.1598639455782313,0.1598639455782313,0.1598639455782313,0.1598639455782313,0.1598639455782313,0.1598639455782313,0.1598639455782313,0.1598639455782313,0.1598639455782313,0.1598639455782313,0.1598639455782313,0.1598639455782313,0.1598639455782313,0.1598639455782313,0.1598639455782313,0.1598639455782313,0.1598639455782313,0.1598639455782313,0.1598639455782313,0.1598639455782313,0.1598639455782313,0.1598639455782313,0.1598639455782313,0.1598639455782313,0.1598639455782313,0.1598639455782313,0.1598639455782313,0.1598639455782313,0.1598639455782313,0.1598639455782313,0.1598639455782313,0.1598639455782313,0.1598639455782313,0.1598639455782313,0.1598639455782313,0.1598639455782313,0.1598639455782313,0.1598639455782313,0.1598639455782313,0.1598639455782313,0.1598639455782313,0.1598639455782313,0.1598639455782313,0.1598639455782313,0.1598639455782313,0.1598639455782313,0.1598639455782313,0.18027210884353742,0.20408163265306123,0.22108843537414966,0.24829931972789115,0.25510204081632654,0.2619047619047619,0.2619047619047619,0.2619047619047619,0.2619047619047619,0.2585034013605442,0.2585034013605442,0.2585034013605442,0.2585034013605442,0.2585034013605442,0.2585034013605442,0.2585034013605442,0.2585034013605442,0.2585034013605442,0.2585034013605442,0.2585034013605442,0.2585034013605442,0.2653061224489796,0.2789115646258503,0.30612244897959184,0.3299319727891156,0.35034013605442177,0.3707482993197279,0.37755102040816324,0.40816326530612246,0.445578231292517,0.5,0.6020408163265306,0.6428571428571429,0.6428571428571429,0.6428571428571429,0.6428571428571429,0.6462585034013606,0.6462585034013606,0.6462585034013606,0.6462585034013606,0.6462585034013606,0.6462585034013606,0.6462585034013606,0.6564625850340136,0.6802721088435374,0.6870748299319728,0.7142857142857143,0.7721088435374149,0.826530612244898,0.8605442176870748,0.8775510204081632,0.8877551020408163,0.891156462585034,0.891156462585034,0.891156462585034,0.891156462585034,0.891156462585034,0.891156462585034,0.891156462585034,0.891156462585034,0.8945578231292517,0.8843537414965986,0.8027210884353742,0.6666666666666666,0.5408163265306123,0.38095238095238093,0.3197278911564626,0.2789115646258503,0.21768707482993196,0.17687074829931973,0.1292517006802721,0.09183673469387756,0.06802721088435375,0.05102040816326531,0.04081632653061224,0.04081632653061224,0.034013605442176874,0.034013605442176874,0.04081632653061224,0.06462585034013606,0.12585034013605442,0.1326530612244898,0.2925170068027211,0.3979591836734694,0.5068027210884354,0.5306122448979592,0.54421768707483,0.54421768707483,0.54421768707483,0.54421768707483,0.5476190476190477,0.5544217687074829,0.5578231292517006,0.5578231292517006,0.5578231292517006,0.5578231292517006,0.5578231292517006,0.5578231292517006,0.5680272108843537,0.5714285714285714,0.5748299319727891,0.5782312925170068,0.5782312925170068,0.5782312925170068,0.5782312925170068,0.5782312925170068,0.5782312925170068,0.5782312925170068,0.5782312925170068,0.5782312925170068,0.5782312925170068,0.5782312925170068,0.5782312925170068,0.5782312925170068,0.5782312925170068,0.5782312925170068,0.5782312925170068,0.5782312925170068,0.5782312925170068,0.5782312925170068,0.5782312925170068,0.5782312925170068,0.5782312925170068,0.5782312925170068,0.5782312925170068,0.5782312925170068,0.5782312925170068,0.5782312925170068,0.5782312925170068,0.5782312925170068,0.5782312925170068,0.5782312925170068,0.5782312925170068,0.5782312925170068,0.5782312925170068,0.5782312925170068,0.5782312925170068,0.5782312925170068,0.5782312925170068,0.5782312925170068,0.5782312925170068,0.5782312925170068,0.5782312925170068,0.5782312925170068,0.5782312925170068,0.5782312925170068,0.5782312925170068,0.5782312925170068,0.5782312925170068,0.5782312925170068,0.5782312925170068,0.5782312925170068,0.5782312925170068,0.5782312925170068,0.5782312925170068,0.5782312925170068,0.5782312925170068,0.5782312925170068,0.5782312925170068,0.5782312925170068,0.5782312925170068,0.5782312925170068,0.5782312925170068,0.5782312925170068,0.5782312925170068,0.5782312925170068,0.5782312925170068,0.5782312925170068,0.5782312925170068,0.5782312925170068,0.5782312925170068,0.5782312925170068,0.5782312925170068,0.5782312925170068,0.5782312925170068,0.5782312925170068,0.5782312925170068,0.5782312925170068,0.5782312925170068,0.5782312925170068,0.5782312925170068,0.5782312925170068,0.5782312925170068,0.5782312925170068,0.5782312925170068,0.5782312925170068,0.5782312925170068,0.5782312925170068,0.5782312925170068,0.5782312925170068,0.5782312925170068,0.5782312925170068,0.5782312925170068,0.5782312925170068,0.5782312925170068,0.5782312925170068,0.5782312925170068,0.5782312925170068,0.5782312925170068,0.5782312925170068,0.5782312925170068,0.5782312925170068,0.5782312925170068,0.5782312925170068,0.5782312925170068,0.5782312925170068,0.5782312925170068,0.5782312925170068,0.5782312925170068,0.5782312925170068,0.5782312925170068,0.5782312925170068,0.5782312925170068,0.5782312925170068,0.5782312925170068,0.5782312925170068,0.5782312925170068,0.5782312925170068,0.5782312925170068,0.5782312925170068,0.5782312925170068,0.5782312925170068,0.5850340136054422,0.608843537414966,0.6156462585034014,0.6360544217687075,0.6462585034013606,0.6700680272108843,0.6802721088435374,0.7210884353741497,0.7789115646258503,0.8027210884353742,0.8435374149659864,0.8503401360544217,0.8503401360544217,0.8503401360544217,0.8503401360544217,0.8503401360544217,0.8503401360544217,0.8503401360544217,0.8503401360544217,0.8503401360544217,0.8503401360544217,0.8503401360544217,0.8503401360544217,0.8503401360544217,0.8503401360544217,0.8503401360544217,0.8503401360544217,0.8503401360544217,0.8503401360544217,0.8503401360544217,0.8503401360544217,0.8503401360544217,0.8537414965986394,0.8537414965986394,0.8469387755102041,0.8435374149659864,0.8299319727891157,0.8231292517006803,0.8095238095238095,0.7925170068027211,0.7482993197278912,0.7108843537414966,0.6394557823129252,0.5714285714285714,0.5102040816326531,0.48639455782312924,0.46598639455782315,0.46598639455782315,0.46258503401360546,0.4557823129251701,0.43537414965986393,0.38095238095238093,0.32653061224489793,0.3197278911564626,0.3197278911564626,0.3197278911564626,0.3197278911564626,0.3197278911564626,0.3197278911564626,0.3163265306122449,0.3163265306122449,0.3163265306122449,0.32653061224489793,0.36054421768707484,0.3945578231292517,0.43537414965986393,0.4965986394557823,0.5476190476190477,0.6224489795918368,0.6360544217687075,0.6394557823129252,0.6462585034013606,0.6462585034013606,0.6496598639455783,0.6496598639455783,0.6496598639455783,0.6496598639455783,0.6496598639455783,0.6496598639455783,0.6496598639455783,0.6496598639455783,0.6496598639455783,0.6496598639455783,0.6360544217687075,0.6224489795918368,0.6122448979591837,0.5816326530612245,0.5714285714285714,0.5680272108843537,0.5680272108843537,0.5680272108843537,0.5680272108843537,0.5680272108843537,0.5680272108843537,0.5680272108843537,0.5680272108843537,0.5680272108843537,0.5680272108843537,0.5680272108843537,0.5680272108843537,0.5680272108843537,0.5680272108843537,0.5680272108843537,0.5680272108843537,0.5680272108843537,0.5680272108843537,0.5680272108843537,0.5680272108843537,0.5680272108843537,0.5680272108843537,0.5680272108843537,0.5680272108843537,0.5680272108843537,0.5680272108843537,0.5680272108843537,0.5680272108843537,0.5680272108843537,0.5680272108843537,0.5680272108843537,0.5680272108843537,0.5680272108843537,0.5680272108843537,0.5680272108843537,0.5680272108843537,0.5680272108843537,0.5680272108843537,0.5680272108843537,0.5680272108843537,0.5680272108843537,0.5680272108843537,0.5680272108843537,0.5680272108843537,0.5680272108843537,0.5680272108843537,0.5680272108843537,0.564625850340136,0.5714285714285714,0.5748299319727891,0.5748299319727891,0.5748299319727891,0.5748299319727891,0.5748299319727891,0.5748299319727891,0.5748299319727891,0.5748299319727891,0.5714285714285714,0.5714285714285714,0.5714285714285714,0.5714285714285714,0.5714285714285714,0.5714285714285714,0.5680272108843537,0.5680272108843537,0.5680272108843537,0.5680272108843537,0.5680272108843537,0.5680272108843537,0.5680272108843537,0.5680272108843537,0.5680272108843537,0.5680272108843537,0.5680272108843537,0.5680272108843537,0.5680272108843537,0.564625850340136,0.564625850340136,0.564625850340136,0.564625850340136,0.5612244897959183,0.5612244897959183,0.5612244897959183,0.5612244897959183,0.5612244897959183,0.5612244897959183,0.5612244897959183,0.5612244897959183,0.5510204081632653,0.54421768707483,0.5306122448979592,0.5068027210884354,0.47619047619047616,0.46598639455782315,0.4523809523809524,0.42517006802721086,0.41496598639455784,0.41496598639455784,0.41496598639455784,0.41496598639455784,0.41496598639455784,0.41496598639455784,0.41496598639455784,0.4013605442176871,0.3979591836734694,0.3945578231292517,0.3945578231292517,0.391156462585034,0.3877551020408163,0.3673469387755102,0.3673469387755102,0.3673469387755102,0.3673469387755102,0.35714285714285715,0.3469387755102041,0.3469387755102041,0.3469387755102041,0.3469387755102041,0.3401360544217687,0.32653061224489793,0.30952380952380953,0.2755102040816326,0.2653061224489796,0.25170068027210885,0.23129251700680273,0.22108843537414966,0.22108843537414966,0.22108843537414966,0.22108843537414966,0.21768707482993196,0.21768707482993196,0.2108843537414966,0.20748299319727892,0.20408163265306123,0.20408163265306123,0.20068027210884354,0.19387755102040816,0.17687074829931973,0.16666666666666666,0.1598639455782313,0.14965986394557823,0.14965986394557823,0.14965986394557823,0.14965986394557823,0.14965986394557823,0.14965986394557823,0.14965986394557823,0.14965986394557823,0.14965986394557823,0.14965986394557823,0.14965986394557823,0.14965986394557823,0.14965986394557823,0.14965986394557823,0.14965986394557823,0.14965986394557823,0.14965986394557823,0.14965986394557823,0.14965986394557823,0.14965986394557823,0.14965986394557823,0.14965986394557823,0.14965986394557823,0.14965986394557823,0.14965986394557823,0.14965986394557823,0.14965986394557823,0.14965986394557823,0.14965986394557823,0.14965986394557823,0.14965986394557823,0.14965986394557823,0.14965986394557823,0.14965986394557823,0.14965986394557823,0.14965986394557823,0.14965986394557823,0.14965986394557823,0.14965986394557823,0.14965986394557823,0.14965986394557823,0.14965986394557823,0.14965986394557823,0.14965986394557823,0.14965986394557823,0.14965986394557823,0.14965986394557823,0.14965986394557823,0.14965986394557823,0.14965986394557823,0.14965986394557823,0.14965986394557823,0.14965986394557823,0.14965986394557823,0.14965986394557823,0.14965986394557823,0.14965986394557823,0.14965986394557823,0.14965986394557823,0.14965986394557823,0.14965986394557823,0.14965986394557823,0.14965986394557823,0.14965986394557823,0.14965986394557823,0.14965986394557823,0.14965986394557823,0.14965986394557823,0.14965986394557823,0.14965986394557823,0.14965986394557823,0.14965986394557823,0.14965986394557823,0.14965986394557823,0.14965986394557823,0.14965986394557823,0.14965986394557823,0.14965986394557823,0.14965986394557823,0.16666666666666666,0.24489795918367346,0.2891156462585034,0.3129251700680272,0.32653061224489793,0.3299319727891156,0.3299319727891156,0.3401360544217687,0.35374149659863946,0.3707482993197279,0.4013605442176871,0.40816326530612246,0.41156462585034015,0.41156462585034015,0.41156462585034015,0.41496598639455784,0.41836734693877553,0.41836734693877553,0.41836734693877553,0.41836734693877553,0.41836734693877553,0.41836734693877553,0.41836734693877553,0.41836734693877553,0.41836734693877553,0.41836734693877553,0.41836734693877553,0.41836734693877553,0.41836734693877553,0.41836734693877553,0.41836734693877553,0.41836734693877553,0.41836734693877553,0.41836734693877553,0.41836734693877553,0.41836734693877553,0.41836734693877553,0.41836734693877553,0.41836734693877553,0.41836734693877553,0.41836734693877553,0.41836734693877553,0.41836734693877553,0.41836734693877553,0.41836734693877553,0.41836734693877553,0.41836734693877553,0.41836734693877553,0.41836734693877553,0.41836734693877553,0.41836734693877553,0.41836734693877553,0.41836734693877553,0.41836734693877553,0.41836734693877553,0.41836734693877553,0.41836734693877553,0.41836734693877553,0.41836734693877553,0.41836734693877553,0.41836734693877553,0.41836734693877553,0.41836734693877553,0.41836734693877553,0.41836734693877553,0.41836734693877553,0.41836734693877553,0.41836734693877553,0.41836734693877553,0.41836734693877553,0.41836734693877553,0.41836734693877553,0.41836734693877553,0.41836734693877553,0.41836734693877553,0.41836734693877553,0.41836734693877553,0.41836734693877553,0.41836734693877553,0.41836734693877553,0.41836734693877553,0.41836734693877553,0.41836734693877553,0.41836734693877553,0.41836734693877553,0.41836734693877553,0.41836734693877553,0.41836734693877553,0.41836734693877553,0.41836734693877553,0.41836734693877553,0.41836734693877553,0.41836734693877553,0.41836734693877553,0.41836734693877553,0.41836734693877553,0.41836734693877553,0.41836734693877553,0.41836734693877553,0.41836734693877553,0.41836734693877553,0.41836734693877553,0.41836734693877553,0.41836734693877553,0.41836734693877553,0.41836734693877553,0.4217687074829932,0.4489795918367347,0.46598639455782315,0.5,0.5136054421768708,0.5374149659863946,0.5476190476190477,0.564625850340136,0.5884353741496599,0.5986394557823129,0.5986394557823129,0.5986394557823129,0.5986394557823129,0.5986394557823129,0.5986394557823129,0.5986394557823129,0.6360544217687075,0.6564625850340136,0.673469387755102,0.6870748299319728,0.6972789115646258,0.7006802721088435,0.7108843537414966,0.717687074829932,0.7448979591836735,0.7619047619047619,0.7789115646258503,0.782312925170068,0.782312925170068,0.782312925170068,0.782312925170068,0.782312925170068,0.782312925170068,0.782312925170068,0.782312925170068,0.782312925170068,0.782312925170068,0.7891156462585034,0.8027210884353742,0.8299319727891157,0.8401360544217688,0.8469387755102041,0.8469387755102041,0.8469387755102041,0.8469387755102041,0.8469387755102041,0.8469387755102041,0.8469387755102041,0.8469387755102041,0.8469387755102041,0.8469387755102041,0.8469387755102041,0.8469387755102041,0.8469387755102041,0.8469387755102041,0.8469387755102041,0.8469387755102041,0.8469387755102041,0.8469387755102041,0.8469387755102041,0.8469387755102041,0.8469387755102041,0.8469387755102041,0.8469387755102041,0.8469387755102041,0.8469387755102041,0.8469387755102041,0.8469387755102041,0.8469387755102041,0.8469387755102041,0.8469387755102041,0.8469387755102041,0.8469387755102041,0.8469387755102041,0.8469387755102041,0.8469387755102041,0.8469387755102041,0.8469387755102041,0.8469387755102041,0.8469387755102041,0.8469387755102041,0.8469387755102041,0.8469387755102041,0.8469387755102041,0.8469387755102041,0.8469387755102041,0.8469387755102041,0.8469387755102041,0.8469387755102041,0.8469387755102041,0.8469387755102041,0.8469387755102041,0.8469387755102041,0.8469387755102041,0.8469387755102041,0.8469387755102041,0.8469387755102041,0.8469387755102041,0.8469387755102041,0.8469387755102041,0.8469387755102041,0.8469387755102041,0.8469387755102041,0.8469387755102041,0.8469387755102041,0.8469387755102041,0.8469387755102041,0.8469387755102041,0.8469387755102041,0.8469387755102041,0.8469387755102041,0.8469387755102041,0.8469387755102041,0.8469387755102041,0.8469387755102041,0.8435374149659864,0.8299319727891157,0.8129251700680272,0.8027210884353742,0.7891156462585034,0.782312925170068,0.7687074829931972,0.7653061224489796,0.7380952380952381,0.7244897959183674,0.7040816326530612,0.6666666666666666,0.6530612244897959,0.6224489795918368,0.6054421768707483,0.5374149659863946,0.5204081632653061,0.47959183673469385,0.4489795918367347,0.4387755102040816,0.43537414965986393,0.41836734693877553,0.40476190476190477,0.40476190476190477,0.40476190476190477,0.40476190476190477,0.40476190476190477,0.40476190476190477,0.40476190476190477,0.40476190476190477,0.40476190476190477,0.40476190476190477,0.40476190476190477,0.4013605442176871,0.3877551020408163,0.38095238095238093,0.37755102040816324,0.3707482993197279,0.3707482993197279,0.3707482993197279,0.3673469387755102,0.35034013605442177,0.32653061224489793,0.29931972789115646,0.2857142857142857,0.282312925170068,0.282312925170068,0.282312925170068,0.272108843537415,0.2585034013605442,0.25510204081632654,0.25170068027210885,0.25170068027210885,0.25170068027210885,0.25170068027210885,0.25170068027210885,0.25170068027210885,0.25170068027210885,0.25170068027210885,0.25170068027210885,0.23809523809523808,0.23129251700680273,0.21768707482993196,0.19387755102040816,0.16326530612244897,0.13945578231292516,0.1326530612244898,0.1292517006802721,0.1292517006802721,0.1292517006802721,0.1292517006802721,0.1292517006802721,0.1292517006802721,0.1292517006802721,0.1292517006802721,0.1292517006802721,0.1292517006802721,0.1292517006802721,0.1292517006802721,0.1292517006802721,0.1292517006802721,0.1292517006802721,0.1292517006802721,0.1292517006802721,0.1292517006802721,0.1292517006802721,0.1292517006802721,0.1292517006802721,0.1292517006802721,0.1292517006802721,0.1292517006802721,0.1292517006802721,0.1292517006802721,0.1292517006802721,0.1292517006802721,0.1292517006802721,0.1292517006802721,0.1292517006802721,0.1292517006802721,0.1292517006802721,0.1292517006802721,0.1292517006802721,0.1292517006802721,0.1292517006802721,0.1292517006802721,0.1292517006802721,0.1292517006802721,0.1292517006802721,0.1292517006802721,0.1292517006802721,0.1292517006802721,0.1292517006802721,0.1292517006802721,0.1292517006802721,0.1292517006802721,0.12244897959183673,0.12244897959183673,0.1360544217687075,0.13945578231292516,0.14285714285714285,0.14285714285714285,0.14285714285714285,0.14285714285714285,0.14285714285714285,0.14285714285714285,0.14285714285714285,0.14285714285714285,0.14285714285714285,0.13945578231292516,0.13945578231292516,0.13945578231292516,0.13945578231292516,0.13945578231292516,0.13945578231292516,0.13945578231292516,0.13945578231292516,0.13945578231292516,0.13945578231292516,0.13945578231292516,0.13945578231292516,0.13945578231292516,0.13945578231292516,0.13945578231292516,0.13945578231292516,0.13945578231292516,0.13945578231292516,0.13945578231292516,0.13945578231292516,0.13945578231292516,0.13945578231292516,0.13945578231292516,0.13945578231292516,0.13945578231292516,0.13945578231292516,0.13945578231292516,0.13945578231292516,0.13945578231292516,0.13945578231292516,0.13945578231292516,0.13945578231292516,0.13945578231292516,0.13945578231292516,0.13945578231292516,0.13945578231292516,0.13945578231292516,0.13945578231292516,0.13945578231292516,0.13945578231292516,0.13945578231292516,0.13945578231292516,0.13945578231292516,0.13945578231292516,0.13945578231292516,0.13945578231292516,0.13945578231292516,0.13945578231292516,0.13945578231292516,0.13945578231292516,0.13945578231292516,0.13945578231292516,0.13945578231292516,0.13945578231292516,0.13945578231292516,0.13945578231292516,0.13945578231292516,0.13945578231292516,0.13945578231292516,0.13945578231292516,0.13945578231292516,0.13945578231292516,0.13945578231292516,0.13945578231292516,0.13945578231292516,0.13945578231292516,0.13945578231292516,0.13945578231292516,0.13945578231292516,0.13945578231292516,0.13945578231292516,0.13945578231292516,0.13945578231292516,0.13945578231292516,0.13945578231292516,0.13945578231292516,0.13945578231292516,0.13945578231292516,0.13945578231292516,0.13945578231292516,0.13945578231292516,0.13945578231292516,0.13945578231292516,0.13945578231292516,0.13945578231292516,0.13945578231292516,0.13945578231292516,0.13945578231292516,0.13945578231292516,0.13945578231292516,0.13945578231292516,0.13945578231292516,0.13945578231292516,0.13945578231292516,0.13945578231292516,0.13945578231292516,0.13945578231292516,0.13945578231292516,0.13945578231292516,0.13945578231292516,0.14285714285714285,0.15306122448979592,0.1564625850340136,0.1564625850340136,0.1564625850340136,0.1564625850340136,0.1564625850340136,0.1564625850340136,0.1564625850340136,0.1564625850340136,0.1564625850340136,0.1598639455782313,0.16326530612244897,0.16326530612244897,0.16326530612244897,0.17006802721088435,0.17006802721088435,0.17687074829931973,0.17687074829931973,0.17687074829931973,0.17687074829931973,0.17687074829931973,0.17687074829931973,0.17687074829931973,0.17687074829931973,0.17687074829931973,0.17687074829931973,0.17687074829931973,0.17687074829931973,0.17687074829931973,0.17687074829931973,0.17687074829931973,0.17687074829931973,0.17687074829931973,0.17687074829931973,0.17687074829931973,0.17687074829931973,0.17687074829931973,0.17687074829931973,0.17687074829931973,0.17687074829931973,0.17687074829931973,0.17687074829931973,0.17687074829931973,0.17687074829931973,0.17687074829931973,0.17687074829931973,0.1836734693877551,0.2108843537414966,0.22448979591836735,0.23809523809523808,0.24489795918367346,0.25170068027210885,0.25510204081632654,0.25510204081632654,0.25510204081632654,0.2687074829931973,0.272108843537415,0.272108843537415,0.272108843537415,0.272108843537415,0.29591836734693877,0.3231292517006803,0.3469387755102041,0.3843537414965986,0.41496598639455784,0.48639455782312924,0.5170068027210885,0.5374149659863946,0.5578231292517006,0.564625850340136,0.5680272108843537,0.5680272108843537,0.5714285714285714,0.5714285714285714,0.5748299319727891,0.5884353741496599,0.5918367346938775,0.6020408163265306,0.6020408163265306,0.6020408163265306,0.6054421768707483,0.6122448979591837,0.6360544217687075,0.6802721088435374,0.7040816326530612,0.7687074829931972,0.7755102040816326,0.782312925170068,0.7857142857142857,0.7925170068027211,0.8163265306122449,0.8367346938775511,0.8571428571428571,0.8979591836734694,0.9149659863945578,0.9319727891156463,0.935374149659864,0.9625850340136054,0.9659863945578231,0.9931972789115646,1.0068027210884354,1.0136054421768708,1.0204081632653061,1.0238095238095237,1.030612244897959,1.034013605442177,1.0476190476190477,1.0476190476190477,1.0476190476190477,1.0476190476190477,1.0476190476190477,1.0476190476190477,1.0476190476190477,1.0476190476190477,1.034013605442177,1.0170068027210883,0.9523809523809523,0.8231292517006803,0.7448979591836735,0.6122448979591837,0.5510204081632653,0.4557823129251701,0.38095238095238093,0.3333333333333333,0.2857142857142857,0.2857142857142857,0.2857142857142857,0.2857142857142857,0.2857142857142857,0.282312925170068,0.272108843537415,0.2653061224489796,0.24489795918367346,0.24149659863945577,0.23809523809523808,0.23129251700680273,0.23129251700680273,0.2108843537414966,0.17687074829931973,0.1360544217687075,0.07482993197278912,0.01020408163265306,-0.003401360544217687,-0.04081632653061224,-0.04081632653061224,-0.04081632653061224,-0.04081632653061224,-0.04081632653061224,-0.04081632653061224,-0.04081632653061224,-0.04081632653061224,-0.04081632653061224,-0.04081632653061224,-0.04081632653061224,-0.04081632653061224,-0.04081632653061224,-0.04081632653061224,-0.04081632653061224,-0.04081632653061224,-0.04081632653061224,-0.04081632653061224,-0.04081632653061224,-0.04081632653061224,-0.04081632653061224,-0.04081632653061224,-0.04081632653061224,-0.04081632653061224,-0.04081632653061224,-0.04081632653061224,-0.04081632653061224,-0.04081632653061224,-0.04081632653061224,-0.04081632653061224,-0.04081632653061224,-0.04081632653061224,-0.03741496598639456,-0.027210884353741496,-0.023809523809523808,-0.023809523809523808,-0.02040816326530612,-0.02040816326530612,-0.02040816326530612,-0.02040816326530612,-0.02040816326530612,-0.02040816326530612,-0.02040816326530612,-0.017006802721088437,-0.017006802721088437,-0.017006802721088437,-0.017006802721088437,-0.017006802721088437,-0.017006802721088437,-0.017006802721088437,-0.017006802721088437,-0.017006802721088437,-0.017006802721088437,-0.017006802721088437,-0.017006802721088437,-0.017006802721088437,-0.017006802721088437,-0.017006802721088437,-0.017006802721088437,-0.017006802721088437,-0.017006802721088437,-0.017006802721088437,-0.017006802721088437,-0.017006802721088437,-0.017006802721088437,-0.017006802721088437,-0.017006802721088437,-0.017006802721088437,-0.017006802721088437,-0.017006802721088437,-0.017006802721088437,-0.017006802721088437,-0.017006802721088437,-0.017006802721088437,-0.017006802721088437,-0.017006802721088437,-0.017006802721088437,-0.017006802721088437,-0.017006802721088437,-0.017006802721088437,-0.017006802721088437,-0.017006802721088437,-0.017006802721088437,-0.013605442176870748,-0.013605442176870748,-0.013605442176870748,-0.01020408163265306,-0.01020408163265306,0,0,0,0,0,0,0.023809523809523808,0.04081632653061224,0.061224489795918366,0.08163265306122448,0.10204081632653061,0.11564625850340136,0.12244897959183673,0.1360544217687075,0.1564625850340136,0.1836734693877551,0.20408163265306123,0.22789115646258504,0.25170068027210885,0.2653061224489796,0.272108843537415,0.2857142857142857,0.29591836734693877,0.30952380952380953,0.30952380952380953,0.3129251700680272,0.3129251700680272,0.3129251700680272,0.3129251700680272,0.3129251700680272,0.3129251700680272,0.3129251700680272,0.3129251700680272,0.3129251700680272,0.3129251700680272,0.3129251700680272,0.3129251700680272,0.3129251700680272,0.3129251700680272,0.3129251700680272,0.3129251700680272,0.3129251700680272,0.3129251700680272,0.3129251700680272,0.3129251700680272,0.3129251700680272,0.3129251700680272,0.3129251700680272,0.3129251700680272,0.3129251700680272,0.3129251700680272,0.3129251700680272,0.3129251700680272,0.3129251700680272,0.3129251700680272,0.3129251700680272,0.3129251700680272,0.3129251700680272,0.3129251700680272,0.3129251700680272,0.3129251700680272,0.3129251700680272,0.3129251700680272,0.3129251700680272,0.3129251700680272,0.3129251700680272,0.3129251700680272,0.3129251700680272,0.3129251700680272,0.3129251700680272,0.3129251700680272,0.3129251700680272,0.3129251700680272,0.3129251700680272,0.3129251700680272,0.3129251700680272,0.3129251700680272,0.3129251700680272,0.3129251700680272,0.3129251700680272,0.3129251700680272,0.3129251700680272,0.3129251700680272,0.3129251700680272,0.3129251700680272,0.3129251700680272,0.3129251700680272,0.3129251700680272,0.3129251700680272,0.3129251700680272,0.3129251700680272,0.3129251700680272,0.3129251700680272,0.3129251700680272,0.3129251700680272,0.3129251700680272,0.3129251700680272,0.3129251700680272,0.3129251700680272,0.3129251700680272,0.3129251700680272,0.3129251700680272,0.3129251700680272,0.3129251700680272,0.3129251700680272,0.3129251700680272,0.3129251700680272,0.3129251700680272,0.3129251700680272,0.3129251700680272,0.3129251700680272,0.3129251700680272,0.3129251700680272,0.3129251700680272,0.3129251700680272,0.3129251700680272,0.3129251700680272,0.3129251700680272,0.3129251700680272,0.3129251700680272,0.3129251700680272,0.3129251700680272,0.3129251700680272,0.3129251700680272,0.3129251700680272,0.3129251700680272,0.3129251700680272,0.3129251700680272,0.3129251700680272,0.3129251700680272,0.3129251700680272,0.3129251700680272,0.3129251700680272,0.3129251700680272,0.3129251700680272,0.3129251700680272,0.3129251700680272,0.3129251700680272,0.3129251700680272,0.3129251700680272,0.3129251700680272,0.3129251700680272,0.3129251700680272,0.3129251700680272,0.3129251700680272,0.3129251700680272,0.3129251700680272,0.3129251700680272,0.3129251700680272,0.3129251700680272,0.3129251700680272,0.3129251700680272,0.3129251700680272,0.3129251700680272,0.3129251700680272,0.3129251700680272,0.3129251700680272,0.3129251700680272,0.3129251700680272,0.3129251700680272,0.3129251700680272,0.3129251700680272,0.3129251700680272,0.3129251700680272,0.3129251700680272,0.3129251700680272,0.3129251700680272,0.3129251700680272,0.3129251700680272,0.3129251700680272,0.3129251700680272,0.3129251700680272,0.3129251700680272,0.3129251700680272,0.3129251700680272,0.3129251700680272,0.3129251700680272,0.3129251700680272,0.3129251700680272,0.3129251700680272,0.3129251700680272,0.3129251700680272,0.3129251700680272,0.3129251700680272,0.3129251700680272,0.3129251700680272,0.3129251700680272,0.3129251700680272,0.3129251700680272,0.3129251700680272,0.3129251700680272,0.3129251700680272,0.3129251700680272,0.3129251700680272,0.3129251700680272,0.3129251700680272,0.3129251700680272,0.3129251700680272,0.3129251700680272,0.3129251700680272,0.3129251700680272,0.3129251700680272,0.3129251700680272,0.3129251700680272,0.3129251700680272,0.3129251700680272,0.3129251700680272,0.3129251700680272,0.3129251700680272,0.3129251700680272,0.3129251700680272,0.3129251700680272,0.3129251700680272,0.3129251700680272,0.3129251700680272,0.3129251700680272,0.3129251700680272,0.3129251700680272,0.3129251700680272,0.3129251700680272,0.3129251700680272,0.3129251700680272,0.3129251700680272,0.3129251700680272,0.3129251700680272,0.3129251700680272,0.3129251700680272,0.3129251700680272,0.3129251700680272,0.3129251700680272,0.3129251700680272,0.3129251700680272,0.3129251700680272,0.3129251700680272,0.3129251700680272,0.3129251700680272,0.3129251700680272,0.3129251700680272,0.3129251700680272,0.3129251700680272,0.3129251700680272,0.3129251700680272,0.3129251700680272,0.3129251700680272,0.3129251700680272,0.3129251700680272,0.3129251700680272,0.3129251700680272,0.3129251700680272,0.3129251700680272,0.3129251700680272,0.3129251700680272,0.3129251700680272,0.3129251700680272,0.3129251700680272,0.3129251700680272,0.3129251700680272,0.3129251700680272,0.3129251700680272,0.3129251700680272,0.3129251700680272,0.3129251700680272,0.3129251700680272,0.3129251700680272,0.3129251700680272,0.3129251700680272,0.3129251700680272,0.3129251700680272,0.3129251700680272,0.3129251700680272,0.3129251700680272,0.3129251700680272,0.3129251700680272,0.3129251700680272,0.3129251700680272,0.3129251700680272,0.3129251700680272,0.3129251700680272,0.3129251700680272,0.3129251700680272,0.3129251700680272,0.3129251700680272,0.3129251700680272,0.3129251700680272,0.3129251700680272,0.3129251700680272,0.3129251700680272,0.3129251700680272,0.3129251700680272,0.3129251700680272,0.3129251700680272,0.3129251700680272,0.3129251700680272,0.3129251700680272,0.3129251700680272,0.3129251700680272,0.3129251700680272,0.3129251700680272,0.3129251700680272,0.3129251700680272,0.3129251700680272,0.3129251700680272,0.3129251700680272,0.3129251700680272,0.3129251700680272,0.3129251700680272,0.3129251700680272,0.3129251700680272,0.3129251700680272,0.3129251700680272,0.3129251700680272,0.3129251700680272,0.3129251700680272,0.3129251700680272,0.3129251700680272,0.3129251700680272,0.3129251700680272,0.3129251700680272,0.3129251700680272,0.3129251700680272,0.3129251700680272,0.3129251700680272,0.3129251700680272,0.3129251700680272,0.3129251700680272,0.3129251700680272,0.3129251700680272,0.3129251700680272,0.3129251700680272,0.3129251700680272,0.3129251700680272,0.3129251700680272,0.3129251700680272,0.3129251700680272,0.3129251700680272,0.3129251700680272,0.3129251700680272,0.3129251700680272,0.3129251700680272,0.3129251700680272,0.3129251700680272,0.3129251700680272,0.3129251700680272,0.3129251700680272,0.3129251700680272,0.3129251700680272,0.3129251700680272,0.3129251700680272,0.3129251700680272,0.3129251700680272,0.3129251700680272,0.3129251700680272,0.3129251700680272,0.3129251700680272,0.3129251700680272,0.3129251700680272,0.3129251700680272,0.3129251700680272,0.3129251700680272,0.3129251700680272,0.3129251700680272,0.3129251700680272,0.3129251700680272,0.3129251700680272,0.3129251700680272,0.3129251700680272,0.3129251700680272,0.30272108843537415,0.29931972789115646,0.29931972789115646,0.29931972789115646,0.29931972789115646,0.29591836734693877,0.2857142857142857,0.2857142857142857,0.2857142857142857,0.282312925170068,0.282312925170068,0.282312925170068,0.282312925170068,0.282312925170068,0.282312925170068,0.282312925170068,0.282312925170068,0.282312925170068,0.282312925170068,0.282312925170068,0.282312925170068,0.282312925170068,0.282312925170068,0.282312925170068,0.282312925170068,0.282312925170068,0.282312925170068,0.282312925170068,0.282312925170068,0.282312925170068,0.282312925170068,0.282312925170068,0.282312925170068,0.282312925170068,0.282312925170068,0.282312925170068,0.282312925170068,0.282312925170068,0.282312925170068,0.282312925170068,0.282312925170068,0.282312925170068,0.282312925170068,0.282312925170068,0.282312925170068,0.282312925170068,0.282312925170068,0.282312925170068,0.282312925170068,0.282312925170068,0.282312925170068,0.282312925170068,0.282312925170068,0.282312925170068,0.282312925170068,0.282312925170068,0.282312925170068,0.282312925170068,0.282312925170068,0.282312925170068,0.282312925170068,0.282312925170068,0.282312925170068,0.282312925170068,0.282312925170068,0.282312925170068,0.282312925170068,0.282312925170068,0.282312925170068,0.29931972789115646,0.3197278911564626,0.38095238095238093,0.4523809523809524,0.47278911564625853,0.47619047619047616,0.47619047619047616,0.47619047619047616,0.47619047619047616,0.47619047619047616,0.47619047619047616,0.47619047619047616,0.47619047619047616,0.47619047619047616,0.47619047619047616,0.47959183673469385,0.4897959183673469,0.4897959183673469,0.5,0.5068027210884354,0.5272108843537415,0.5578231292517006,0.5816326530612245,0.5884353741496599,0.5952380952380952,0.608843537414966,0.608843537414966,0.608843537414966,0.608843537414966,0.608843537414966,0.608843537414966,0.608843537414966,0.608843537414966,0.608843537414966,0.608843537414966,0.608843537414966,0.608843537414966,0.608843537414966,0.608843537414966,0.608843537414966,0.608843537414966,0.608843537414966,0.608843537414966,0.608843537414966,0.608843537414966,0.608843537414966,0.608843537414966,0.608843537414966,0.608843537414966,0.608843537414966,0.608843537414966,0.608843537414966,0.608843537414966,0.608843537414966,0.608843537414966,0.608843537414966,0.608843537414966,0.608843537414966,0.608843537414966,0.608843537414966,0.608843537414966,0.608843537414966,0.608843537414966,0.608843537414966,0.608843537414966,0.608843537414966,0.608843537414966,0.608843537414966,0.6054421768707483,0.6020408163265306,0.5952380952380952,0.5952380952380952,0.5952380952380952,0.5952380952380952,0.5884353741496599,0.5850340136054422,0.5850340136054422,0.5850340136054422,0.5850340136054422,0.5850340136054422,0.5850340136054422,0.5850340136054422,0.5714285714285714,0.5714285714285714,0.5714285714285714,0.5714285714285714,0.5714285714285714,0.5714285714285714,0.5680272108843537,0.5680272108843537,0.5578231292517006,0.5578231292517006,0.5544217687074829,0.5510204081632653,0.5476190476190477,0.54421768707483,0.54421768707483,0.54421768707483,0.54421768707483,0.54421768707483,0.54421768707483,0.54421768707483,0.54421768707483,0.54421768707483,0.54421768707483,0.54421768707483,0.54421768707483,0.54421768707483,0.54421768707483,0.54421768707483,0.54421768707483,0.54421768707483,0.54421768707483,0.54421768707483,0.54421768707483,0.54421768707483,0.54421768707483,0.54421768707483,0.54421768707483,0.54421768707483,0.54421768707483,0.54421768707483,0.54421768707483,0.54421768707483,0.54421768707483,0.54421768707483,0.54421768707483,0.54421768707483,0.54421768707483,0.54421768707483,0.54421768707483,0.54421768707483,0.54421768707483,0.54421768707483,0.54421768707483,0.54421768707483,0.54421768707483,0.54421768707483,0.54421768707483,0.54421768707483,0.54421768707483,0.54421768707483,0.54421768707483,0.54421768707483,0.54421768707483,0.54421768707483,0.54421768707483,0.54421768707483,0.54421768707483,0.54421768707483,0.54421768707483,0.54421768707483,0.54421768707483,0.54421768707483,0.54421768707483,0.54421768707483,0.54421768707483,0.54421768707483,0.54421768707483,0.54421768707483,0.54421768707483,0.54421768707483,0.54421768707483,0.54421768707483,0.54421768707483,0.54421768707483,0.54421768707483,0.54421768707483,0.54421768707483,0.54421768707483,0.54421768707483,0.54421768707483,0.54421768707483,0.54421768707483,0.54421768707483,0.54421768707483,0.54421768707483,0.54421768707483,0.54421768707483,0.54421768707483,0.54421768707483,0.54421768707483,0.54421768707483,0.54421768707483,0.54421768707483,0.54421768707483,0.54421768707483,0.5374149659863946,0.5374149659863946,0.5374149659863946,0.5374149659863946,0.5374149659863946,0.5374149659863946,0.5374149659863946,0.5374149659863946,0.5374149659863946,0.5374149659863946,0.5374149659863946,0.5374149659863946,0.5374149659863946,0.5374149659863946,0.5374149659863946,0.5374149659863946,0.5374149659863946,0.5374149659863946,0.5374149659863946,0.5374149659863946,0.5374149659863946,0.5374149659863946,0.5374149659863946,0.5374149659863946,0.5374149659863946,0.5374149659863946,0.5374149659863946,0.5374149659863946,0.5374149659863946,0.5374149659863946,0.5374149659863946,0.5374149659863946,0.5374149659863946,0.5374149659863946,0.5374149659863946,0.5374149659863946,0.5374149659863946,0.5374149659863946,0.5374149659863946,0.5374149659863946,0.5374149659863946,0.5374149659863946,0.5374149659863946,0.5374149659863946,0.5374149659863946,0.5374149659863946,0.5374149659863946,0.5374149659863946,0.5374149659863946,0.5374149659863946,0.5374149659863946,0.5374149659863946,0.5374149659863946,0.5374149659863946,0.5374149659863946,0.5374149659863946,0.5374149659863946,0.5374149659863946,0.5374149659863946,0.5374149659863946,0.5374149659863946,0.5374149659863946,0.5374149659863946,0.5374149659863946,0.5374149659863946,0.5374149659863946,0.5374149659863946,0.5374149659863946,0.5374149659863946,0.5374149659863946,0.5374149659863946,0.5374149659863946,0.5374149659863946,0.5374149659863946,0.5374149659863946,0.5374149659863946,0.5374149659863946,0.5374149659863946,0.5374149659863946,0.5374149659863946,0.5374149659863946,0.5374149659863946,0.5374149659863946,0.5374149659863946,0.5374149659863946,0.5374149659863946,0.5374149659863946,0.5374149659863946,0.5374149659863946,0.5374149659863946,0.5374149659863946,0.5374149659863946,0.5374149659863946,0.5374149659863946,0.5374149659863946,0.5374149659863946,0.5374149659863946,0.5374149659863946,0.5374149659863946,0.5374149659863946,0.5374149659863946,0.5374149659863946,0.5374149659863946,0.5374149659863946,0.5374149659863946,0.5374149659863946,0.5374149659863946,0.5374149659863946,0.5374149659863946,0.5374149659863946,0.5374149659863946,0.5374149659863946,0.5374149659863946,0.5374149659863946,0.5374149659863946,0.5374149659863946,0.5374149659863946,0.5374149659863946,0.5374149659863946,0.5374149659863946,0.5374149659863946,0.5374149659863946,0.5374149659863946,0.5374149659863946,0.5374149659863946,0.5374149659863946,0.5374149659863946,0.5374149659863946,0.5374149659863946,0.5374149659863946,0.5374149659863946,0.5374149659863946,0.5374149659863946,0.5374149659863946,0.5374149659863946,0.5374149659863946,0.5374149659863946,0.5374149659863946,0.5374149659863946,0.5374149659863946,0.5374149659863946,0.5374149659863946,0.5374149659863946,0.5374149659863946,0.5374149659863946,0.5374149659863946,0.5374149659863946,0.5374149659863946,0.5374149659863946,0.5374149659863946,0.5374149659863946,0.5374149659863946,0.5374149659863946,0.5374149659863946,0.5374149659863946,0.5374149659863946,0.5374149659863946,0.5374149659863946,0.5374149659863946,0.5374149659863946,0.5374149659863946,0.5374149659863946,0.5374149659863946,0.5374149659863946,0.5374149659863946,0.5374149659863946,0.5374149659863946,0.5374149659863946,0.5374149659863946,0.5374149659863946,0.537414965986