[{"success":true,"trial_type":"fullscreen","trial_index":0,"time_elapsed":264309,"internal_node_id":"0.0-0.0","protocol_sum":"","subject_identifier":538,"subject_sum":[247,71,135,10,230,102,195,155,88,159,87,120,86,160,247,25,139,59,129,38,156,176,50,109,232,109,128,70,242,207,114,219],"subject_pair":269,"STUDY_ID":"66a3ed3c5d10d0e7d8a6b9da","PROLIFIC_PID":"66978d2616be96682f9f87ed","SESSION_ID":"66a484dd1fb1e691f96a005a","practice_instructions":3,"leaderboard_instructions":1,"bonus":1,"reveal_word":false,"self_rating":"4","confidence":"87"},{"view_history":"[{\"page_index\":0,\"viewing_time\":2429}]","rt":2429.4000000059605,"trial_type":"instructions","trial_index":1,"time_elapsed":266742,"internal_node_id":"0.0-1.0","protocol_sum":"","subject_identifier":538,"subject_sum":[247,71,135,10,230,102,195,155,88,159,87,120,86,160,247,25,139,59,129,38,156,176,50,109,232,109,128,70,242,207,114,219],"subject_pair":269,"STUDY_ID":"66a3ed3c5d10d0e7d8a6b9da","PROLIFIC_PID":"66978d2616be96682f9f87ed","SESSION_ID":"66a484dd1fb1e691f96a005a","practice_instructions":3,"leaderboard_instructions":1,"bonus":1,"reveal_word":false,"self_rating":"4","confidence":"87"},{"view_history":"[{\"page_index\":0,\"viewing_time\":6815}]","rt":6815.300000011921,"trial_type":"instructions","trial_index":2,"time_elapsed":273558,"internal_node_id":"0.0-2.0-0.0","protocol_sum":"","subject_identifier":538,"subject_sum":[247,71,135,10,230,102,195,155,88,159,87,120,86,160,247,25,139,59,129,38,156,176,50,109,232,109,128,70,242,207,114,219],"subject_pair":269,"STUDY_ID":"66a3ed3c5d10d0e7d8a6b9da","PROLIFIC_PID":"66978d2616be96682f9f87ed","SESSION_ID":"66a484dd1fb1e691f96a005a","practice_instructions":3,"leaderboard_instructions":1,"bonus":1,"reveal_word":false,"self_rating":"4","confidence":"87"},{"rt":12599,"responses":"{\"Q0\":\"... go <b>really slow</b> and finish the game as slowly as possible\"}","question_order":"[0]","trial_type":"survey-multi-choice","trial_index":3,"time_elapsed":286159,"internal_node_id":"0.0-2.0-1.0","protocol_sum":"","subject_identifier":538,"subject_sum":[247,71,135,10,230,102,195,155,88,159,87,120,86,160,247,25,139,59,129,38,156,176,50,109,232,109,128,70,242,207,114,219],"subject_pair":269,"correct":false,"test_part":"multichoice_nonpretend","STUDY_ID":"66a3ed3c5d10d0e7d8a6b9da","PROLIFIC_PID":"66978d2616be96682f9f87ed","SESSION_ID":"66a484dd1fb1e691f96a005a","practice_instructions":3,"leaderboard_instructions":1,"bonus":1,"reveal_word":false,"self_rating":"4","confidence":"87"},{"view_history":"[{\"page_index\":0,\"viewing_time\":10082.59999999404}]","rt":10082.90000000596,"trial_type":"instructions","trial_index":4,"time_elapsed":296244,"internal_node_id":"0.0-2.1-0.1","protocol_sum":"","subject_identifier":538,"subject_sum":[247,71,135,10,230,102,195,155,88,159,87,120,86,160,247,25,139,59,129,38,156,176,50,109,232,109,128,70,242,207,114,219],"subject_pair":269,"STUDY_ID":"66a3ed3c5d10d0e7d8a6b9da","PROLIFIC_PID":"66978d2616be96682f9f87ed","SESSION_ID":"66a484dd1fb1e691f96a005a","practice_instructions":3,"leaderboard_instructions":1,"bonus":1,"reveal_word":false,"self_rating":"4","confidence":"87"},{"rt":3413.9000000059605,"responses":"{\"Q0\":\"... click on letters in <b>alphabetical order</b>\"}","question_order":"[0]","trial_type":"survey-multi-choice","trial_index":5,"time_elapsed":299659,"internal_node_id":"0.0-2.1-1.1","protocol_sum":"","subject_identifier":538,"subject_sum":[247,71,135,10,230,102,195,155,88,159,87,120,86,160,247,25,139,59,129,38,156,176,50,109,232,109,128,70,242,207,114,219],"subject_pair":269,"correct":false,"test_part":"multichoice_nonpretend","STUDY_ID":"66a3ed3c5d10d0e7d8a6b9da","PROLIFIC_PID":"66978d2616be96682f9f87ed","SESSION_ID":"66a484dd1fb1e691f96a005a","practice_instructions":3,"leaderboard_instructions":1,"bonus":1,"reveal_word":false,"self_rating":"4","confidence":"87"},{"view_history":"[{\"page_index\":0,\"viewing_time\":3251.300000011921}]","rt":3251.5,"trial_type":"instructions","trial_index":6,"time_elapsed":302911,"internal_node_id":"0.0-2.2-0.2","protocol_sum":"","subject_identifier":538,"subject_sum":[247,71,135,10,230,102,195,155,88,159,87,120,86,160,247,25,139,59,129,38,156,176,50,109,232,109,128,70,242,207,114,219],"subject_pair":269,"STUDY_ID":"66a3ed3c5d10d0e7d8a6b9da","PROLIFIC_PID":"66978d2616be96682f9f87ed","SESSION_ID":"66a484dd1fb1e691f96a005a","practice_instructions":3,"leaderboard_instructions":1,"bonus":1,"reveal_word":false,"self_rating":"4","confidence":"87"},{"rt":3047.199999988079,"responses":"{\"Q0\":\"... reveal the word with as <b>few letter guesses</b> as possible\"}","question_order":"[0]","trial_type":"survey-multi-choice","trial_index":7,"time_elapsed":305959,"internal_node_id":"0.0-2.2-1.2","protocol_sum":"","subject_identifier":538,"subject_sum":[247,71,135,10,230,102,195,155,88,159,87,120,86,160,247,25,139,59,129,38,156,176,50,109,232,109,128,70,242,207,114,219],"subject_pair":269,"correct":true,"test_part":"multichoice_nonpretend","STUDY_ID":"66a3ed3c5d10d0e7d8a6b9da","PROLIFIC_PID":"66978d2616be96682f9f87ed","SESSION_ID":"66a484dd1fb1e691f96a005a","practice_instructions":3,"leaderboard_instructions":1,"bonus":1,"reveal_word":false,"self_rating":"4","confidence":"87"},{"view_history":"[{\"page_index\":0,\"viewing_time\":1248.2999999821186}]","rt":1248.5999999940395,"trial_type":"instructions","trial_index":8,"time_elapsed":307208,"internal_node_id":"0.0-3.0","protocol_sum":"","subject_identifier":538,"subject_sum":[247,71,135,10,230,102,195,155,88,159,87,120,86,160,247,25,139,59,129,38,156,176,50,109,232,109,128,70,242,207,114,219],"subject_pair":269,"STUDY_ID":"66a3ed3c5d10d0e7d8a6b9da","PROLIFIC_PID":"66978d2616be96682f9f87ed","SESSION_ID":"66a484dd1fb1e691f96a005a","practice_instructions":3,"leaderboard_instructions":1,"bonus":1,"reveal_word":false,"self_rating":"4","confidence":"87"},{"word":"ZEBRA","click_log":{"letter":["","S","H","O","A","P","N","D","L","E","Z","B","R"],"t":[0,24357.90000000596,28190.09999999404,30273.90000000596,33340.79999998212,39328.5,41658.19999998808,45089.90000000596,74575.59999999404,90294.09999999404,92058,93358,96558.5],"hit":[null,0,0,0,1,0,0,0,0,1,1,1,1],"asked":["","S","SH","SHO","SHOA","SHOAP","SHOAPN","SHOAPND","SHOAPNDL","SHOAPNDLE","SHOAPNDLEZ","SHOAPNDLEZB","SHOAPNDLEZBR"],"word_state":["_____","_____","_____","_____","____A","____A","____A","____A","____A","_E__A","ZE__A","ZEB_A","ZEBRA"]},"hover_log":{"letter":["?","?","?","?","?","?","?","?","?","?","?","?","?","?","?","?","?","?","?","?","?","?","?","?","?","?","?","?","?","?","?","?","?","?","?","?","?","Z","Z","Z","Z","Z","Z","Z","Z","Z","Z","Z","Z","Z","Z","Z","Z","Z","Z","Z","Z","Z","Z","Z","Z","Z","Z","Z","Z","Z","Z","Z","Z","Z","Z","Z","Z","Z","Z","Z","Z","Z","Z","Z","Q","?","?","?","?","?","?","?","?","?","?","?","?","?","?","?","?","?","?","?","?","?","?","?","?","?","?","?","?","?","?","?","?","?","?","?","?","?","?","?","?","?","?","?","?","?","?","?","?","?","?","?","?","?","?","?","?","?","?","?","?","?","?","?","?","?","?","?","?","?","?","?","?","?","?","?","?","?","?","?","?","?","?","?","?","?","?","?","?","?","?","?","?","?","?","?","?","?","?","?","?","?","?","?","?","?","?","?","?","?","?","?","?","?","?","?","?","?","?","?","?","?","?","?","?","?","?","?","?","?","?","?","?","?","?","?","?","?","?","?","?","?","?","?","?","?","?","?","?","?","?","?","?","?","?","?","?","?","?","?","?","?","?","?","?","?","?","?","?","?","?","?","?","?","?","?","?","?","?","?","?","?","?","?","?","?","?","?","?","?","?","?","?","?","?","?","?","?","?","?","?","?","?","?","?","?","?","?","?","?","?","?","?","?","?","?","?","?","?","?","?","?","?","?","?","?","?","?","?","?","?","?","?","?","?","?","?","?","?","?","?","?","?","?","?","?","?","?","?","?","?","?","?","?","?","?","?","?","?","?","?","?","?","?","?","?","?","?","?","?","?","?","?","?","?","?","?","?","?","?","?","?","?","?","?","?","?","?","?","?","?","?","?","?","?","?","?","?","?","?","?","?","?","?","?","?","?","?","?","?","?","?","?","?","?","?","?","?","?","?","?","?","?","?","?","?","?","?","?","?","?","?","?","?","?","?","?","?","?","?","?","?","?","?","?","?","?","?","?","?","?","?","?","?","?","?","?","?","?","?","?","?","?","?","?","?","?","?","?","?","?","?","?","?","?","?","?","?","?","?","?","?","?","?","?","?","?","?","?","?","?","?","?","?","?","?","?","?","?","?","?","?","?","?","?","?","?","?","?","?","?","?","?","?","?","?","?","?","?","?","?","?","?","?","?","?","?","?","?","?","?","?","?","?","?","?","?","?","?","?","?","?","?","?","?","?","?","?","?","?","?","?","?","?","?","?","?","?","?","?","?","?","?","?","?","?","?","?","?","?","?","?","?","?","?","?","?","?","?","?","?","?","?","?","?","?","?","?","?","?","?","?","?","?","?","?","?","?","?","?","?","?","?","?","?","?","?","?","?","?","?","?","?","?","?","?","?","?","?","?","?","?","?","?","?","?","?","?","?","?","?","?","?","?","?","?","?","?","?","?","?","?","?","?","?","?","?","?","?","?","?","?","?","?","?","?","?","?","?","?","?","?","?","?","?","?","?","?","?","?","?","?","?","?","?","?","?","?","?","?","?","?","?","?","?","?","?","?","?","?","?","?","?","?","?","?","?","?","?","?","?","?","?","?","?","?","?","?","?","?","?","?","?","?","?","?","?","?","?","?","?","?","?","?","?","?","?","?","?","?","?","?","?","?","?","?","?","?","?","?","?","?","?","?","?","?","?","?","?","?","?","?","?","?","?","?","?","?","?","?","?","?","?","?","?","?","?","?","?","?","?","?","?","?","?","?","?","?","?","?","?","?","?","?","?","?","?","?","?","?","?","?","?","?","?","?","?","?","?","?","?","?","?","?","?","?","?","?","?","?","?","?","?","?","?","?","?","?","?","?","?","?","?","?","?","?","?","?","?","?","?","?","?","?","?","?","?","?","?","?","?","?","?","?","?","?","?","?","?","?","?","?","?","?","?","?","?","?","?","?","?","?","?","?","?","?","?","?","?","?","?","?","?","?","?","?","?","?","?","?","?","?","?","?","?","?","?","?","?","?","?","?","?","?","?","?","?","?","?","?","?","?","?","?","?","?","?","?","?","?","?","?","?","?","?","?","?","?","?","?","?","?","?","?","?","?","?","?","?","?","?","?","?","?","?","?","?","?","?","?","?","?","?","?","?","?","?","?","?","?","?","?","?","?","?","?","?","?","?","L","L","L","L","L","L","L","L","?","?","?","B","B","B","B","?","?","?","?","?","?","?","?","?","?","?","?","?","?","?","?","?","?","?","?","?","?","?","?","?","?","?","?","?","?","?","?","?","?","?","?","?","?","?","?","?","?","?","?","?","?","?","?","?","?","?","?","?","?","?","B","B","B","B","B","B","B","B","B","B","B","B","B","B","B","B","B","B","B","B","B","B","B","B","B","B","B","B","B","B","B","B","B","B","B","B","B","B","B","B","B","B","B","B","B","B","B","?","K","K","K","K","K","K","K","K","?","?","?","?","?","?","?","C","C","C","C","C","C","?","?","?","?","?","?","?","?","?","?","?","?","?","?","?","?","?","?","?","?","?","?","?","?","?","?","?","?","?","?","?","?","?","?","?","?","?","?","?","?","?","?","?","?","?","?","?","?","?","?","?","?","?","?","?","?","?","?","?","?","?","?","?","?","?","?","?","?","?","?","?","?","?","?","?","?","?","?","?","?","?","?","?","?","?","?","?","?","?","?","?","?","?","?","?","?","?","?","?","?","?","?","?","?","?","?","?","?","?","?","?","?","?","?","?","?","?","?","?","?","?","?","?","?","?","?","?","?","?","?","?","?","?","?","?","?","?","?","?","?","?","?","?","?","?","?","?","D","D","?","?","?","?","?","?","?","?","?","?","?","?","?","?","?","?","?","?","?","?","C","C","C","C","C","C","C","C","C","C","?","?","L","L","L","L","L","L","L","L","L","L","L","L","L","L","L","L","?","M","M","M","M","M","M","?","L","L","?","?","?","?","?","?","?","?","?","S","S","S","S","S","S","S","S","S","S","S","S","S","S","S","S","S","S","S","S","S","S","S","S","S","S","S","S","S","S","S","S","?","?","T","T","?","?","L","M","M","?","N","N","N","N","N","N","N","N","N","N","N","N","N","N","N","N","N","N","N","N","N","N","N","N","N","N","N","N","N","N","N","N","N","?","?","?","?","?","?","?","?","?","?","?","?","?","?","?","?","?","?","?","?","?","?","?","?","?","?","?","?","?","?","?","?","N","N","?","W","W","?","?","?","?","?","?","?","?","?","?","?","?","?","?","?","?","?","?","?","?","?","?","?","?","?","?","?","?","?","?","?","?","?","?","?","?","?","?","?","?","?","?","?","?","?","?","?","?","?","?","?","?","?","?","?","?","?","?","?","?","?","?","?","?","?","?","?","?","X","X","?","?","?","?","?","?","?","?","?","?","?","?","?","?","?","?","?","?","?","?","?","?","?","?","G","G","G","G","G","G","G","G","G","G","?","?","?","?","?","?","?","?","?","?","?","?","?","?","?","?","?","?","?","?","H","H","H","H","H","H","H","H","H","H","H","H","H","H","H","H","H","H","H","H","H","H","H","H","H","H","H","H","H","H","H","H","H","H","H","H","H","H","H","H","H","H","H","H","H","H","H","H","H","H","H","H","H","H","H","H","H","H","H","H","H","H","H","H","H","H","H","H","H","H","?","?","Q","?","Z","?","?","?","?","?","?","?","?","?","?","?","?","?","V","?","?","?","?","?","?","?","?","?","?","?","?","?","?","?","?","?","?","?","?","?","?","?","?","?","?","?","O","O","O","O","O","O","O","O","O","O","O","O","O","O","O","O","O","O","O","O","O","O","O","O","O","O","O","O","O","O","O","O","O","O","O","O","O","O","O","O","O","O","O","O","O","O","O","O","O","O","?","?","X","X","?","?","?","?","?","?","?","?","?","?","?","?","?","?","?","?","?","?","?","?","?","?","?","W","W","?","?","?","?","?","?","?","?","?","?","?","?","?","?","?","?","?","?","?","?","?","?","?","?","?","?","?","?","?","?","?","?","?","?","?","?","?","?","?","?","?","?","?","?","?","?","?","?","?","?","?","?","?","?","?","?","?","?","?","?","?","?","?","?","?","?","?","?","?","K","K","K","K","K","K","K","K","K","?","?","?","?","?","A","A","A","A","A","A","?","?","?","?","?","?","?","?","?","?","?","?","?","?","?","?","?","?","?","?","?","?","A","A","A","A","A","A","A","A","A","A","A","A","A","A","A","A","A","A","A","A","A","A","A","A","A","A","A","A","A","A","A","A","A","A","A","A","A","A","A","A","A","A","A","A","A","A","A","A","A","A","A","A","A","A","A","A","A","A","A","A","A","A","A","?","?","K","K","?","?","?","?","?","?","?","?","?","?","?","?","?","?","?","?","?","?","?","?","?","?","?","?","?","?","?","?","?","?","?","?","?","?","?","?","?","?","?","?","?","?","?","?","?","?","?","?","?","?","?","?","?","?","?","?","?","?","?","?","?","?","?","?","?","?","?","?","?","?","?","?","?","?","?","?","?","?","?","?","?","?","?","?","?","?","?","?","?","?","?","?","?","?","?","?","?","?","?","?","?","?","?","?","?","?","?","?","?","?","?","?","?","?","?","?","?","?","?","?","?","?","?","?","?","?","?","?","?","?","?","?","?","?","?","?","?","?","?","?","?","?","?","?","?","?","?","?","?","?","?","?","?","?","?","?","?","?","?","?","?","?","?","?","?","?","?","?","?","?","?","?","?","?","?","?","?","?","?","?","?","?","?","?","?","?","?","?","?","?","?","?","?","?","?","?","?","?","?","?","?","?","?","?","?","?","?","?","?","?","?","?","?","?","?","?","?","?","?","?","?","?","?","?","?","?","?","?","?","?","?","?","?","?","?","?","?","?","?","?","?","?","?","U","U","U","U","U","U","U","U","U","U","U","U","U","U","U","U","U","U","U","U","?","?","?","N","O","O","O","?","?","?","?","?","?","?","?","?","?","?","?","?","?","?","?","?","?","?","?","?","?","?","P","P","P","P","P","P","P","P","P","P","P","P","P","P","P","P","P","P","P","P","P","P","P","P","P","P","P","P","P","P","P","P","P","P","P","P","P","P","P","P","P","P","P","P","P","P","P","P","P","P","P","P","P","P","P","P","P","P","P","P","P","P","P","P","P","P","P","P","P","?","Y","?","?","?","?","?","?","?","?","?","?","?","?","?","?","?","?","?","?","?","?","?","?","?","?","?","?","?","?","?","?","?","?","?","?","?","?","?","?","?","?","?","?","?","?","?","?","X","X","X","X","X","X","X","X","X","X","?","?","?","?","?","?","?","?","N","N","N","N","N","N","N","N","N","N","N","N","N","N","N","N","N","N","N","N","N","N","N","N","N","N","N","N","N","N","N","N","N","N","N","N","N","N","N","N","N","N","N","N","N","N","N","N","N","N","N","N","N","N","N","?","?","?","X","?","?","?","?","?","?","?","?","?","?","?","?","?","?","?","?","?","?","?","?","?","?","?","?","?","?","?","?","?","?","?","?","?","?","?","?","?","?","?","?","?","?","?","?","?","?","?","?","?","?","?","?","?","?","?","?","?","?","?","?","?","?","?","?","?","?","?","?","?","?","?","?","?","?","?","?","?","?","?","?","?","?","?","?","?","?","?","?","?","?","?","?","?","?","?","?","?","?","?","W","?","M","?","?","?","?","?","?","?","?","?","?","?","?","?","?","?","?","?","?","?","?","?","?","?","?","?","?","?","C","C","C","C","?","D","D","E","E","E","E","?","?","?","E","E","E","E","E","?","?","?","?","D","D","D","D","D","D","D","D","D","D","D","D","D","D","D","D","D","D","D","D","D","D","D","D","D","D","D","D","D","D","D","D","D","D","D","D","D","D","D","D","D","D","D","D","D","D","D","D","?","?","?","N","N","N","?","?","?","?","X","?","?","?","?","?","?","?","?","?","?","?","?","?","?","?","?","?","?","?","?","?","?","?","?","?","?","?","?","?","?","?","?","?","?","?","?","?","?","?","?","?","?","?","?","?","?","?","X","X","O","O","?","F","F","F","F","F","F","F","F","F","?","?","?","?","?","?","?","?","?","?","?","?","?","?","?","?","?","?","?","?","?","?","?","?","?","?","?","?","?","?","?","?","?","?","?","?","?","?","?","?","?","?","?","?","?","?","?","?","?","?","?","?","?","?","?","?","?","?","?","?","?","?","?","?","?","?","?","?","?","?","?","?","?","?","?","?","?","?","?","?","?","?","?","?","?","?","?","?","?","?","?","?","?","?","?","?","?","?","?","?","?","?","?","?","?","?","?","?","?","?","?","?","?","?","?","?","?","?","?","?","?","?","?","?","?","?","?","?","?","?","?","?","?","?","?","?","?","?","?","?","?","?","O","O","O","O","O","O","O","O","O","O","O","O","O","O","O","O","O","O","O","O","O","O","O","O","O","O","O","O","O","O","O","O","O","O","O","O","O","O","O","O","O","O","O","O","O","O","O","O","O","O","O","O","O","O","O","O","O","O","O","O","O","O","O","O","O","O","O","O","O","O","O","O","O","O","?","?","?","?","?","?","?","?","?","?","?","?","?","?","?","?","?","?","?","?","?","?","?","?","?","?","?","?","?","?","?","?","?","?","?","?","?","?","?","?","?","?","?","?","?","?","?","?","?","?","?","?","?","?","?","?","?","?","?","?","?","?","?","?","?","?","?","?","?","?","?","?","?","?","?","?","?","?","?","?","?","?","?","?","?","?","?","?","?","?","?","?","?","?","?","?","?","?","?","?","?","?","?","?","?","?","?","?","?","?","?","?","?","?","?","?","?","?","?","?","?","?","?","?","?","?","?","?","?","?","?","?","F","?","N","?","?","?","V","V","V","V","V","V","V","V","V","V","V","V","V","V","V","V","V","V","V","V","V","V","V","V","V","V","V","V","V","V","V","V","V","V","V","V","V","V","V","V","V","V","V","V","V","V","V","V","V","V","V","V","V","V","V","V","V","V","V","V","V","V","V","V","V","V","V","V","V","V","V","V","V","V","V","V","V","V","V","V","V","V","V","V","V","V","V","V","V","V","V","V","V","V","V","V","V","V","V","V","V","V","V","V","V","V","V","V","V","V","V","V","V","V","V","V","V","V","V","V","V","V","V","V","V","V","V","V","V","V","V","V","V","V","V","V","V","V","V","V","V","V","V","V","V","V","V","V","V","V","V","V","V","V","V","V","V","V","V","V","V","V","V","V","V","V","V","V","V","V","V","V","V","V","V","V","V","V","V","V","V","V","V","V","V","V","V","V","V","V","V","V","V","V","V","V","V","V","V","V","V","V","V","V","V","V","V","V","V","V","V","V","V","V","V","V","V","V","V","V","V","V","V","V","V","V","V","V","V","V","V","V","V","V","V","V","V","V","V","V","V","V","V","V","V","V","V","V","V","V","V","V","V","V","V","V","V","V","V","V","V","V","V","V","V","V","V","V","V","V","V","V","V","V","V","V","V","V","V","V","V","V","V","V","V","V","V","V","V","V","V","V","V","V","V","V","V","V","V","V","V","V","V","V","V","V","V","V","V","V","V","V","V","V","V","V","V","V","V","V","V","V","V","V","V","V","V","V","V","V","V","V","V","V","V","V","V","V","V","V","V","V","V","V","V","V","V","V","V","V","V","V","V","V","V","V","V","V","V","V","V","V","V","V","V","V","V","V","V","V","V","V","V","V","V","V","V","V","V","V","V","V","V","V","V","V","V","V","V","V","V","V","V","V","V","V","V","V","V","V","V","V","V","V","V","V","V","V","V","V","V","V","V","V","V","V","V","V","V","V","V","V","V","V","V","V","V","V","V","V","V","V","V","V","V","V","V","V","V","V","V","V","V","V","V","V","V","V","V","V","V","V","V","V","V","V","V","V","V","V","V","V","V","V","V","V","V","V","V","V","V","V","V","V","V","V","V","V","V","V","V","V","V","V","V","V","V","V","V","V","V","V","V","V","V","V","V","V","V","V","V","V","V","V","V","V","V","V","V","V","V","V","V","V","V","V","V","V","V","V","V","V","V","V","V","V","V","V","V","V","V","V","V","V","V","V","V","V","V","V","V","V","V","V","V","V","V","V","V","V","V","V","V","V","V","V","V","V","V","V","V","V","V","V","V","V","V","V","V","V","V","V","V","V","V","V","V","V","V","V","V","V","V","V","V","V","V","V","V","V","V","V","V","V","V","V","V","V","V","V","V","V","V","V","V","V","V","V","V","V","V","V","V","V","V","V","V","V","V","V","V","V","V","V","V","V","V","V","V","V","V","V","V","V","V","V","V","V","V","V","V","V","V","V","V","V","V","V","V","V","V","V","V","V","V","V","V","V","V","V","V","V","V","V","V","V","V","V","V","V","V","V","V","V","V","V","V","V","V","V","V","V","V","V","V","V","V","V","V","V","V","V","V","V","V","V","V","V","V","V","V","V","V","V","V","V","V","V","V","V","V","V","V","V","V","V","V","V","V","V","V","V","V","V","V","V","V","V","V","V","V","V","V","V","V","V","V","V","V","V","V","V","V","V","V","V","V","V","V","V","V","V","V","V","V","V","V","V","V","V","V","V","V","V","V","V","V","V","V","V","V","V","V","V","V","V","V","V","V","V","V","V","V","V","V","V","V","V","V","V","V","V","V","V","V","V","V","V","V","V","V","V","V","V","V","V","V","V","V","V","V","V","V","V","V","V","V","V","V","V","V","V","V","V","V","V","V","V","V","V","V","V","V","V","V","V","V","V","V","V","V","V","V","V","V","V","V","V","V","V","V","V","V","V","V","V","V","V","V","V","V","V","V","V","V","V","V","V","V","V","V","V","V","V","V","V","V","V","V","V","V","V","V","V","V","V","V","V","V","V","V","V","V","V","V","V","V","V","V","V","V","V","V","V","V","V","V","V","V","V","V","V","V","V","V","V","V","V","V","V","V","V","V","V","V","V","V","V","V","V","V","V","V","V","V","V","V","V","V","V","V","V","V","V","V","V","V","V","V","V","V","V","V","V","V","V","V","V","V","V","?","?","?","?","?","L","L","L","L","L","L","?","M","N","N","O","O","O","?","P","P","P","P","P","P","P","P","P","P","P","P","P","?","?","?","?","?","?","?","?","?","?","?","?","?","?","?","?","?","?","?","?","?","?","?","?","?","?","?","?","?","?","?","?","?","?","?","?","?","?","?","?","?","?","?","?","?","?","?","?","?","?","?","?","?","?","?","?","?","?","?","?","?","?","?","?","?","?","?","?","?","?","?","?","?","?","?","?","?","?","?","?","?","?","?","?","?","?","?","?","?","?","?","?","?","?","?","?","?","?","?","?","?","?","?","?","?","?","?","?","?","?","?","?","?","?","?","?","?","?","?","?","?","?","?","?","?","Q","Q","Q","Q","Q","?","?","P","P","P","P","P","P","P","P","P","P","P","P","P","P","P","P","P","P","P","P","P","P","P","P","P","P","P","P","P","P","P","P","P","P","P","P","P","P","P","P","P","P","P","P","P","P","P","P","P","P","P","P","P","P","P","P","P","P","P","P","P","P","P","P","P","P","P","P","P","P","P","P","P","P","P","P","P","P","P","P","P","P","P","P","P","P","P","P","P","P","P","P","P","P","P","P","P","P","P","P","P","P","P","P","P","P","P","P","P","P","P","P","P","P","P","P","P","P","P","P","P","P","P","P","P","P","P","?","?","?","?","?","?","?","?","?","?","?","?","P","P","P","P","P","P","P","?","O","O","O","?","N","N","?","?","M","M","M","M","M","M","M","M","M","M","?","L","L","L","L","L","L","L","L","L","L","L","L","L","L","L","L","L","L","L","L","L","L","L","L","L","L","L","L","L","L","L","L","L","L","L","L","L","L","L","L","L","L","L","L","L","L","L","L","L","L","L","L","L","L","L","L","L","L","L","L","L","L","L","L","L","L","L","L","L","L","L","L","L","L","L","L","L","L","L","L","L","L","L","L","L","L","L","L","L","L","L","L","L","L","L","L","L","L","L","L","L","L","L","L","L","L","L","L","L","L","L","L","L","L","L","L","L","L","L","L","L","L","L","L","L","L","L","L","L","L","L","L","L","L","L","L","L","L","L","L","L","L","L","L","L","L","L","L","L","L","L","L","L","L","L","L","L","L","L","L","L","L","L","L","L","L","L","L","L","L","L","L","L","L","L","L","L","L","L","L","L","L","L","L","L","L","L","L","L","L","L","L","L","L","L","L","L","L","L","L","L","L","L","L","L","L","L","L","L","L","L","L","L","L","L","L","L","L","L","L","L","L","L","L","L","L","L","L","L","L","L","L","L","L","L","L","L","L","L","L","L","L","L","L","L","L","L","L","L","L","L","L","L","L","L","L","L","L","L","L","L","L","L","L","L","L","L","L","L","L","L","L","L","L","L","L","L","L","L","L","L","L","L","L","L","L","L","L","L","L","L","L","L","L","L","L","L","L","L","L","L","L","L","L","L","L","L","L","L","L","L","L","L","L","L","L","L","L","L","L","L","L","L","L","L","L","L","L","L","L","L","L","L","L","L","L","L","L","L","L","L","L","L","L","L","L","L","L","L","L","L","L","L","L","L","L","L","L","L","L","L","L","L","L","L","L","L","L","L","L","L","L","L","L","L","L","L","L","L","L","L","L","L","L","L","L","L","L","L","L","L","L","L","L","L","L","L","L","L","L","L","L","L","L","L","L","L","L","L","L","L","L","L","L","L","L","L","L","L","L","L","L","L","L","L","L","L","L","L","L","L","L","L","L","L","L","L","L","L","L","L","L","L","L","L","L","L","L","L","L","L","L","L","L","L","L","L","L","L","L","L","L","L","L","L","L","L","L","L","L","L","L","L","L","L","L","L","L","L","L","L","L","L","L","L","L","L","L","L","L","L","L","L","L","L","L","L","L","L","L","L","L","L","L","L","L","L","L","L","L","L","L","L","L","L","L","L","L","L","L","L","L","L","L","L","L","L","L","L","L","L","L","L","L","L","L","L","L","L","L","L","L","L","L","L","L","L","L","L","L","L","L","L","L","L","L","L","L","L","L","L","L","L","L","L","L","L","L","L","L","L","L","L","L","L","L","L","L","L","L","L","L","L","L","L","L","L","L","L","L","L","L","L","L","L","L","L","L","L","L","L","L","L","L","L","L","L","L","L","L","L","L","L","L","L","L","L","L","L","L","L","L","L","L","L","L","L","L","L","L","L","L","L","L","L","L","L","L","L","L","L","L","L","L","L","L","L","L","L","L","L","L","L","L","L","L","L","L","L","L","L","L","L","L","L","L","L","L","L","L","L","L","L","L","L","L","L","L","L","L","L","L","L","L","L","L","L","L","L","L","L","L","L","L","L","L","L","L","L","L","L","L","L","L","L","L","L","L","L","L","L","L","L","L","L","L","L","L","L","L","L","L","L","L","L","L","L","L","L","L","L","L","L","L","L","L","L","L","L","L","L","L","L","L","L","L","L","L","L","L","L","L","L","L","L","L","L","L","L","L","L","L","L","L","L","L","L","L","L","L","L","L","L","L","L","L","L","L","L","L","L","L","L","L","L","L","L","L","L","L","L","L","L","L","L","L","L","L","L","L","L","L","L","L","L","L","L","L","L","L","L","L","L","L","L","L","L","L","L","L","L","L","L","L","L","L","L","L","L","L","L","L","L","L","L","L","L","L","L","L","L","L","L","L","L","L","L","L","L","L","L","L","L","L","L","L","L","L","L","L","L","L","L","L","?","M","M","M","?","?","N","N","N","N","N","N","N","N","N","N","N","N","N","N","N","N","N","?","M","M","?","?","?","?","?","U","U","U","U","U","?","?","T","T","T","T","T","T","T","T","T","?","?","?","?","?","?","L","L","?","?","?","M","M","M","M","M","M","M","M","M","?","?","?","?","?","?","?","?","?","?","?","?","?","?","?","?","E","E","E","E","E","E","E","E","E","E","E","E","E","E","E","E","E","E","E","E","E","E","E","E","E","E","E","E","E","E","E","E","E","E","E","E","E","E","E","E","E","E","E","E","E","E","E","E","E","E","E","?","?","?","O","O","O","O","O","?","?","?","?","X","X","X","X","X","X","X","X","X","X","X","X","X","X","?","Y","Y","Y","Y","Y","Y","Y","Y","Y","Y","Y","Y","Y","Y","?","?","Z","Z","Z","Z","Z","Z","Z","Z","Z","Z","Z","Z","Z","Z","Z","Z","Z","Z","Z","Z","Z","Z","Z","Z","Z","Z","Z","Z","Z","Z","Z","Z","Z","Z","Z","Z","Z","Z","Z","Z","Z","Z","Z","Z","Z","Z","Z","Z","?","?","P","O","O","?","?","?","?","?","?","?","?","?","?","?","?","?","?","?","?","?","D","D","D","D","?","C","C","C","C","C","C","C","?","?","?","B","B","B","B","B","B","B","B","B","B","B","B","B","B","B","B","B","B","B","B","B","B","B","B","B","B","B","B","B","B","B","B","B","B","B","B","B","B","B","B","B","B","B","B","B","B","B","B","B","?","C","?","?","?","?","?","M","M","M","M","M","M","M","M","M","M","?","?","?","?","?","?","?","?","V","V","V","V","V","?","?","U","U","U","?","T","T","T","T","T","T","T","T","T","T","T","?","?","?","?","?","?","?","?","?","?","?","?","L","L","L","M","M","N","N","?","O","O","O","O","O","O","O","O","O","O","?","?","?","?","?","?","?","?","?","?","?","?","?","?","?","?","?","?","X","X","X","X","X","X","X","X","X","X","X","X","X","?","?","?","?","?","?","?","?","P","P","P","P","P","P","P","P","P","?","?","Q","Q","Q","Q","Q","Q","Q","Q","Q","Q","Q","Q","Q","Q","Q","Q","?","R","R","R","R","R","R","R","R","R","R","R","R","R","R","R","R","R","R","R","R","R","R","R","R","R","R","R","R","R","R","R","R","R","R","R","R","R","R","R","R","R","R","R","R","R","R","R","R","R","R","R","R","R","R","R","R","R","R","R","R","R","R","R","R","R","R","R","R","R","R","R","R","R","R","R","R","R","R","R","R","R","R","R","R","R","R","R","R","?","?","Q","Q","Q","Q","Q","Q","Q","Q","Q","?","?","?","?","?","G","?","?","?","?","?","?","?","?","?","?","?","?","?","?","?","?","?","?","?","?","?","?","?","?","?","?","?","?","?","?","?","C","C","B","?"],"t":[34,44,60,77,94,110,127,143,160,177,194,210,227,244,261,277,294,310,328,343,361,378,394,410,426,444,461,477,494,511,527,544,561,577,593,611,627,644,661,677,694,711,728,745,760,778,794,810,827,844,860,877,894,910,927,944,960,977,994,1010,1027,1044,1061,1078,1095,1111,1126,1144,1161,1177,1194,1211,1228,1244,1261,1276,1294,1310,1327,1344,1361,1377,1394,1410,1427,1443,1460,1477,1493,1510,1528,1544,1561,1576,1594,1610,1627,1644,1660,1677,1694,1710,1726,1744,1760,1777,1794,1810,1827,1844,1860,1877,1893,1910,1927,1944,1960,1977,1994,2011,2027,2044,2061,2077,2094,2111,2127,2144,2160,2177,2194,2210,2227,2244,2260,2277,2294,2310,2327,2344,2361,2378,2395,2411,2428,2444,2461,2478,2493,2511,2527,2543,2561,2577,2594,2610,2628,2644,2661,2677,2694,2711,2728,2744,2760,2777,2794,2810,2827,2844,2860,2877,2894,2910,2927,2943,2960,2977,2993,3010,3027,3043,3060,3077,3093,3110,3127,3143,3160,3177,3193,3210,3226,3243,3259,3277,3293,3310,3327,3343,3360,3377,3394,3410,3427,3443,3460,3477,3493,3510,3527,3544,3560,3577,3593,3610,3627,3644,3660,3677,3693,3710,3727,3743,3760,3777,3794,3810,3827,3843,3860,3877,3893,3910,3927,3944,3960,3977,3993,4010,4027,4043,4060,4077,4093,4110,4127,4143,4160,4177,4193,4210,4227,4243,4260,4277,4293,4310,4327,4344,4360,4376,4394,4410,4427,4444,4460,4477,4493,4510,4527,4544,4560,4577,4594,4609,4627,4643,4660,4677,4693,4710,4726,4743,4760,4777,4793,4810,4827,4843,4861,4878,4893,4911,4927,4945,4960,7424,7444,7460,7477,7493,7512,7527,7544,7561,7578,7594,7611,7627,7643,7660,7677,7693,7710,7727,7743,7760,7777,7793,7810,7827,7844,7861,7878,7894,7911,7927,7944,7961,7977,7994,8010,8027,8044,8060,8077,8094,8110,8127,8143,8160,8177,8193,8210,8227,8243,8260,8277,8294,8310,8327,8344,8360,8377,8394,8411,8428,8444,8461,8478,8494,8511,8528,8544,8561,8578,8594,8610,8627,8644,8660,8677,8694,8711,8727,8744,8761,8778,8795,8811,8828,8843,8861,8878,8894,8911,8928,8945,8960,8977,8994,9011,9026,9044,9061,9078,9094,9111,9127,9144,9161,9177,9194,9211,9228,9244,9260,9277,9294,9311,9328,9344,9361,9378,9394,9410,9428,9444,9461,9478,9494,9511,9528,9543,9561,9578,9594,9610,9627,9644,9660,9677,9694,9710,9727,9744,9761,9778,9794,9811,9828,9844,9861,9878,9894,9911,9927,9944,9960,9977,9994,10011,10028,10044,10061,10077,10093,10111,10127,10144,10160,10177,10194,10210,10227,10243,10260,10277,10294,10310,10327,10344,10360,10378,10394,10411,10427,10443,10460,10477,10494,10511,10527,10543,10560,10577,10594,10610,10627,10644,10661,10677,10695,10711,10728,10744,10760,10777,10794,10810,10827,10844,10860,10877,10893,10911,10928,10943,10960,10977,10993,11010,11027,11044,11060,11077,11093,11110,11126,11143,11160,11177,11193,11210,11227,11243,11260,11277,11294,11310,11327,11343,11360,11377,11394,11410,11427,11444,11460,11477,11493,11510,11527,11544,11560,11577,11594,11610,11627,11644,11660,11677,11693,11710,11727,11743,11760,11777,11793,11810,11827,11844,11860,11877,11893,11910,11927,11943,11960,11977,11993,12010,12027,12043,12060,12077,12094,12110,12127,12145,12161,12178,12194,12211,12228,12244,12261,12278,12295,12311,12327,12344,12360,12377,12393,12411,12427,12443,12460,12477,12493,12510,12527,12543,12560,12577,12593,12610,12627,12643,12660,12677,12693,12710,12727,12744,12760,12777,12794,12811,12827,12844,12860,12877,12894,12910,12927,12944,12960,12977,12993,13010,13027,13044,13060,13077,13094,13110,13127,13144,13160,13177,13193,13210,13227,13244,13260,13277,13294,13310,13327,13344,13360,13377,13394,13410,13427,13443,13460,13477,13494,13511,13527,13543,13559,13576,13593,13611,13627,13643,13660,13676,13694,13710,13727,13743,13761,13778,13794,13810,13827,13844,13861,13877,13894,13911,13927,13944,13961,13978,13994,14011,14027,14044,14060,14077,14094,14111,14128,14144,14161,14177,14194,14211,14228,14244,14261,14278,14294,14310,14327,14344,14361,14377,14394,14411,14428,14444,14461,14478,14494,14511,14528,14544,14560,14577,14594,14611,14628,14643,14661,14677,14694,14710,14727,14744,14761,14777,14794,14811,14828,14844,14860,14876,14893,14910,14927,14944,14960,14977,14993,15010,15027,15044,15060,15078,15094,15111,15127,15144,15161,15177,15194,15210,15227,15244,15260,15277,15293,15310,15327,15344,15360,15377,15394,15410,15427,15443,15460,15477,15494,15511,15527,15544,15560,15577,15594,15610,15627,15644,15660,15677,15693,15710,15727,15744,15761,15777,15794,15810,15827,15844,15860,15877,15894,15910,15927,15944,15960,15977,15993,16010,16026,16043,16060,16076,16093,16110,16127,16143,16160,16178,16194,16211,16228,16244,16261,16277,16294,16311,16328,16344,16361,16377,16394,16411,16428,16444,16460,16477,16493,16510,16527,16544,16560,16577,16593,16610,16627,16643,16660,16677,16693,16710,16727,16743,16760,16777,16794,16810,16827,16844,16861,16877,16894,16910,16927,16944,16960,16977,16994,17010,17027,17044,17060,17077,17094,17110,17127,17144,17160,17177,17194,17211,17228,17244,17261,17278,17293,17311,17327,17344,17361,17377,17394,17411,17427,17444,17460,17477,17494,17511,17527,17544,17561,17577,17594,17610,17628,17644,17661,17676,17694,17711,17727,17744,17761,17778,17795,17811,17828,17844,17861,17878,17894,17911,17927,17944,17960,17977,17993,18010,18027,18044,18060,18077,18094,18111,18127,18144,18160,18177,18194,18211,18227,18244,18260,18277,18294,18310,18327,18344,18361,18377,18394,18411,18427,18444,18460,18477,18494,18510,18527,18544,18560,18577,18594,18610,18627,18644,18660,18677,18694,18711,18728,18744,18761,18777,18794,18811,18827,18844,18861,18877,18894,18910,18927,18944,18961,18977,18994,19011,19027,19044,19060,19077,19094,19110,19127,19144,19161,19177,19194,19210,19227,19244,19261,19277,19294,19310,19327,19344,19361,19377,19394,19410,19427,19444,19461,19477,19494,19510,19527,19544,19560,19577,19594,19610,19627,19644,19661,19678,19695,19711,19726,19744,19761,19777,19794,19810,19827,19844,19860,19877,19894,19911,19927,19944,19960,19977,19994,20010,20027,20044,20060,20077,20094,20111,20127,20144,20160,20177,20194,20210,20227,20244,20260,20277,20294,20310,20327,20344,20361,20377,20394,20410,20427,20444,20460,20477,20494,20510,20527,20544,20561,20577,20594,20610,20627,20644,20661,20677,20694,20710,20727,20744,20760,20777,20794,20810,20827,20844,20861,20878,20894,20911,20928,20944,20961,20977,20994,21011,21027,21044,21060,21077,21094,21111,21127,21144,21160,21177,21194,21211,21227,21244,21260,21277,21294,21310,21327,21344,21360,21377,21394,21411,21427,21444,21460,21477,21494,21510,21527,21544,21560,21577,21594,21610,21627,21644,21661,21677,21695,21711,21728,21744,21761,21778,21794,21811,21828,21843,21861,21878,21894,21911,21928,21943,21961,21977,21994,22010,22027,22044,22060,22077,22094,22110,22127,22144,22161,22177,22194,22211,22227,22244,22260,22277,22294,22311,22327,22344,22361,22377,22394,22410,22427,22444,22461,22478,22494,22511,22528,22544,22561,22578,22594,22611,22627,22644,22661,22678,22694,22711,22728,22744,22761,22777,22794,22811,22827,22844,22860,22877,22894,22910,22927,22944,22961,22977,22994,23011,23028,23044,23060,23078,23094,23111,23127,23144,23161,23177,23194,23210,23227,23244,23261,23277,23294,23311,23327,23344,23361,23377,23394,23411,23427,23444,23461,23477,23494,23510,23527,23544,23559,23577,23594,23611,23627,23644,23661,23677,23694,23711,23727,23744,23760,23777,23794,23810,23827,23844,23861,23877,23894,23911,23927,23944,23961,23977,23994,24011,24027,24044,24061,24077,24094,24111,24127,24144,24160,24177,24194,24211,24227,24244,24260,24277,24296,24310,24327,24344,24361,24377,24395,24411,24428,24445,24461,24478,24495,24511,24527,24544,24561,24577,24594,24611,24627,24644,24661,24677,24694,24711,24727,24744,24761,24777,24794,24811,24827,24844,24860,24878,24894,24911,24928,24945,24960,24978,24995,25011,25028,25045,25061,25078,25095,25111,25127,25144,25161,25178,25194,25211,25228,25244,25261,25277,25294,25311,25327,25344,25361,25377,25394,25410,25428,25444,25461,25477,25494,25511,25528,25545,25561,25577,25595,25611,25628,25644,25661,25678,25696,25710,25727,25744,25761,25777,25794,25811,25827,25844,25861,25878,25894,25911,25927,25944,25961,25977,25994,26011,26027,26044,26061,26078,26094,26111,26128,26145,26161,26178,26194,26211,26228,26245,26261,26278,26294,26311,26328,26345,26361,26378,26395,26411,26427,26445,26461,26478,26494,26511,26528,26545,26561,26578,26594,26611,26627,26644,26661,26678,26694,26711,26728,26745,26761,26777,26794,26811,26827,26845,26861,26877,26895,26911,26927,26944,26961,26977,26994,27011,27027,27044,27061,27077,27094,27111,27127,27144,27161,27178,27194,27211,27227,27244,27260,27277,27294,27311,27327,27344,27361,27377,27394,27411,27427,27444,27461,27477,27494,27511,27528,27544,27561,27577,27594,27610,27627,27644,27661,27677,27694,27711,27727,27744,27761,27777,27794,27811,27827,27844,27861,27877,27894,27911,27927,27944,27961,27977,27994,28011,28027,28044,28061,28077,28094,28111,28127,28144,28161,28178,28194,28211,28227,28244,28261,28277,28294,28311,28328,28345,28361,28378,28394,28411,28428,28444,28461,28478,28495,28511,28528,28544,28561,28577,28595,28612,28627,28644,28661,28678,28694,28711,28728,28745,28761,28778,28795,28811,28828,28845,28861,28878,28895,28911,28928,28945,28961,28978,28993,29011,29028,29045,29061,29076,29094,29111,29127,29146,29161,29177,29194,29211,29227,29244,29261,29277,29294,29311,29327,29344,29361,29377,29394,29411,29427,29444,29461,29477,29494,29511,29528,29545,29561,29578,29594,29611,29627,29645,29660,29677,29694,29711,29728,29744,29761,29777,29794,29811,29827,29844,29861,29877,29894,29911,29927,29944,29961,29977,29994,30011,30027,30044,30061,30077,30094,30111,30127,30144,30161,30177,30194,30211,30227,30244,30261,30277,30294,30311,30327,30344,30361,30378,30395,30411,30428,30445,30461,30478,30495,30511,30528,30544,30560,30578,30595,30611,30627,30645,30661,30678,30694,30710,30727,30744,30761,30777,30794,30811,30827,30844,30861,30877,30894,30911,30928,30945,30961,30978,30995,31011,31027,31044,31061,31077,31094,31111,31127,31144,31161,31177,31194,31211,31227,31244,31261,31277,31294,31311,31328,31344,31361,31378,31395,31411,31428,31445,31461,31478,31495,31510,31527,31544,31561,31578,31595,31611,31628,31645,31661,31678,31695,31712,31728,31745,31762,31777,31795,31811,31827,31844,31861,31878,31894,31911,31928,31944,31961,31978,31995,32011,32028,32045,32061,32078,32095,32111,32128,32144,32161,32178,32194,32211,32228,32245,32261,32277,32294,32311,32327,32344,32361,32377,32394,32411,32428,32444,32461,32477,32494,32511,32527,32544,32561,32577,32594,32611,32627,32644,32661,32677,32694,32711,32727,32744,32761,32777,32794,32811,32827,32844,32860,32877,32894,32911,32927,32945,32961,32977,32994,33011,33027,33044,33061,33077,33094,33111,33127,33144,33161,33177,33194,33211,33227,33244,33261,33277,33294,33311,33328,33348,33361,33377,33394,33412,33428,33444,33462,33478,33494,33512,33529,33545,33562,33578,33594,33612,33628,33645,33662,33678,33694,33712,33728,33744,33762,33778,33794,33812,33828,33845,33862,33878,33894,33911,33928,33945,33961,33978,33995,34011,34028,34045,34060,34078,34094,34111,34128,34144,34161,34177,34194,34211,34227,34244,34261,34277,34294,34311,34327,34344,34361,34378,34394,34412,34427,34444,34461,34478,34495,34511,34528,34545,34561,34577,34595,34611,34627,34644,34661,34677,34694,34711,34728,34744,34761,34778,34794,34811,34828,34844,34861,34878,34894,34911,34928,34944,34961,34978,34995,35011,35028,35045,35061,35078,35094,35111,35128,35145,35162,35178,35195,35211,35228,35244,35261,35278,35294,35311,35327,35345,35361,35378,35395,35412,35428,35444,35461,35478,35495,35511,35528,35545,35561,35578,35594,35611,35628,35645,35661,35678,35694,35711,35728,35745,35761,35778,35795,35812,35828,35845,35863,35877,35894,35911,35928,35945,35961,35978,35994,36011,36028,36044,36061,36077,36095,36111,36128,36144,36161,36178,36195,36211,36228,36245,36262,36278,36295,36312,36328,36345,36362,36378,36394,36411,36429,36445,36462,36478,36495,36512,36528,36545,36562,36578,36595,36612,36629,36645,36662,36678,36695,36711,36728,36745,36762,36778,36795,36812,36828,36844,36862,36878,36894,36912,36928,36944,36961,36978,36994,37011,37028,37045,37061,37078,37094,37112,37128,37144,37162,37178,37195,37212,37227,37245,37262,37278,37295,37312,37329,37344,37361,37378,37394,37412,37427,37445,37461,37477,37495,37511,37528,37545,37562,37576,37594,37611,37628,37645,37661,37678,37695,37712,37728,37745,37760,37778,37795,37812,37827,37845,37861,37878,37895,37911,37928,37945,37962,37978,37995,38011,38028,38045,38062,38078,38095,38111,38128,38145,38162,38178,38195,38211,38228,38244,38261,38277,38294,38311,38328,38344,38361,38378,38394,38411,38428,38444,38461,38477,38494,38511,38528,38545,38561,38578,38594,38611,38628,38644,38661,38678,38694,38711,38727,38744,38761,38777,38794,38811,38828,38845,38861,38878,38895,38912,38928,38945,38962,38978,38995,39012,39027,39044,39060,39078,39095,39110,39128,39144,39161,39178,39194,39211,39228,39244,39261,39277,39294,39310,39327,39344,39361,39378,39395,39411,39428,39445,39461,39478,39495,39511,39528,39545,39562,39578,39594,39612,39628,39645,39662,39678,39695,39711,39728,39745,39761,39778,39795,39812,39828,39845,39862,39878,39894,39911,39928,39945,39962,39978,39995,40012,40027,40045,40062,40078,40095,40112,40128,40145,40162,40178,40194,40211,40228,40244,40261,40277,40294,40311,40327,40344,40361,40377,40394,40411,40428,40444,40461,40477,40494,40511,40527,40545,40561,40578,40595,40611,40628,40643,40661,40678,40694,40711,40728,40744,40761,40778,40794,40811,40828,40844,40861,40878,40894,40911,40928,40944,40961,40978,40994,41011,41028,41044,41061,41078,41094,41111,41127,41144,41161,41177,41194,41211,41228,41244,41261,41277,41294,41311,41328,41344,41361,41377,41394,41411,41427,41445,41461,41478,41495,41512,41527,41544,41561,41577,41594,41611,41628,41644,41661,41677,41694,41711,41728,41745,41762,41778,41795,41812,41828,41845,41861,41878,41895,41911,41928,41945,41961,41978,41995,42011,42028,42044,42062,42078,42095,42111,42128,42144,42161,42178,42194,42211,42228,42244,42261,42278,42294,42311,42328,42344,42361,42378,42395,42411,42428,42444,42461,42478,42495,42512,42528,42545,42561,42578,42595,42611,42628,42645,42662,42678,42695,42712,42728,42745,42762,42778,42795,42812,42828,42845,42861,42877,42895,42912,42928,42945,42962,42978,42995,43011,43028,43045,43062,43079,43094,43111,43128,43144,43161,43178,43194,43211,43228,43244,43261,43278,43295,43312,43328,43345,43362,43378,43395,43411,43428,43445,43462,43478,43495,43511,43527,43545,43562,43578,43595,43612,43628,43645,43662,43677,43695,43712,43727,43744,43762,43778,43795,43812,43828,43845,43861,43878,43894,43911,43928,43944,43961,43978,43994,44011,44028,44044,44061,44077,44094,44111,44128,44144,44161,44178,44194,44211,44228,44245,44261,44278,44294,44311,44328,44345,44361,44378,44394,44411,44428,44444,44461,44478,44495,44511,44528,44544,44561,44578,44594,44611,44628,44644,44661,44678,44694,44711,44728,44744,44761,44778,44794,44811,44827,44844,44861,44878,44894,44911,44928,44944,44961,44978,44994,45011,45028,45044,45061,45078,45094,45111,45128,45144,45161,45178,45195,45212,45228,45245,45262,45278,45295,45312,45329,45345,45362,45378,45395,45412,45428,45445,45461,45478,45495,45511,45528,45545,45561,45578,45594,45611,45628,45644,45661,45678,45694,45711,45728,45744,45761,45778,45794,45811,45828,45844,45861,45878,45895,45911,45927,45944,45961,45978,45995,46012,46028,46044,46062,46078,46095,46111,46128,46145,46161,46177,46194,46212,46228,46245,46262,46278,46295,46312,46328,46345,46362,46377,46395,46412,46428,46444,46461,46478,46495,46512,46528,46543,46561,46578,46594,46611,46628,46644,46661,46678,46694,46711,46728,46744,46761,46778,46794,46811,46828,46844,46861,46878,46895,46911,46928,46944,46961,46977,46994,47011,47027,47044,47061,47077,47094,47111,47128,47144,47161,47178,47194,47211,47228,47244,47261,47278,47294,47311,47328,47344,47361,47378,47394,47411,47428,47445,47461,47478,47494,47511,47528,47545,47561,47578,47594,47611,47628,47644,47661,47678,47694,47711,47728,47744,47761,47778,47795,47811,47828,47844,47861,47878,47894,47911,47928,47945,47962,47978,47994,48012,48028,48044,48062,48077,48095,48111,48128,48145,48162,48178,48195,48212,48228,48244,48262,48278,48294,48312,48328,48346,48362,48378,48394,48411,48427,48444,48461,48477,48494,48511,48528,48545,48562,48578,48595,48611,48628,48645,48662,48678,48695,48712,48728,48746,48761,48778,48795,48811,48828,48845,48861,48878,48894,48912,48928,48944,48962,48977,48995,49011,49028,49045,49062,49077,49094,49111,49128,49144,49161,49178,49194,49211,49228,49244,49261,49278,49295,49311,49328,49344,49361,49377,49395,49411,49428,49445,49461,49478,49495,49512,49528,49544,49562,49578,49595,49611,49628,49644,49661,49678,49695,49711,49727,49745,49762,49777,49795,49812,49828,49845,49861,49878,49895,49911,49928,49944,49961,49978,49995,50011,50028,50045,50062,50078,50094,50112,50128,50144,50161,50178,50194,50211,50228,50244,50261,50278,50295,50311,50328,50346,50361,50377,50394,50411,50428,50445,50461,50478,50494,50511,50528,50544,50561,50578,50594,50611,50628,50644,50661,50678,50695,50711,50728,50744,50761,50778,50794,50811,50828,50844,50861,50878,50895,50912,50928,50944,50961,50978,50994,51011,51028,51044,51061,51078,51094,51111,51128,51144,51161,51178,51195,51211,51228,51245,51261,51278,51294,51311,51328,51344,51361,51378,51394,51411,51428,51444,51461,51478,51495,51512,51528,51545,51563,51578,51594,51611,51629,51644,51661,51678,51694,51711,51728,51744,51761,51778,51794,51811,51828,51845,51861,51878,51894,51911,51928,51944,51961,51978,51994,52011,52028,52045,52061,52078,52095,52112,52128,52145,52161,52178,52194,52211,52228,52244,52261,52278,52295,52311,52328,52345,52361,52378,52395,52412,52428,52445,52461,52478,52495,52512,52529,52545,52562,52578,52593,52611,52628,52644,52661,52678,52694,52711,52728,52744,52761,52778,52794,52811,52828,52845,52862,52878,52895,52911,52928,52944,52961,52978,52994,53011,53028,53044,53062,53077,53095,53112,53129,53145,53162,53177,53195,53211,53228,53245,53262,53278,53294,53312,53329,53345,53362,53378,53395,53411,53428,53444,53462,53478,53495,53512,53528,53544,53562,53578,53595,53612,53629,53644,53661,53679,53695,53711,53729,53745,53762,53778,53794,53812,53827,53845,53861,53878,53895,53912,53928,53945,53962,53978,53995,54012,54028,54044,54062,54079,54095,54112,54127,54145,54162,54178,54194,54212,54227,54245,54262,54279,54295,54312,54329,54345,54362,54378,54395,54412,54428,54444,54461,54478,54495,54511,54527,54546,54562,54579,54595,54612,54629,54645,54662,54679,54696,54712,54728,54745,54762,54778,54795,54811,54828,54845,54862,54878,54895,54912,54929,54944,54961,54978,54995,55011,55028,55045,55062,55077,55095,55112,55128,55144,55161,55178,55195,55212,55227,55246,55262,55278,55295,55312,55329,55346,55361,55379,55395,55412,55429,55446,55462,55478,55495,55512,55527,55545,55562,55578,55594,55612,55629,55645,55662,55679,55695,55712,55729,55745,55761,55779,55795,55812,55828,55845,55862,55878,55895,55911,55928,55944,55961,55978,55995,56012,56027,56045,56062,56078,56094,56112,56127,56144,56161,56178,56195,56212,56229,56245,56262,56279,56295,56312,56327,56344,56362,56379,56395,56412,56428,56445,56462,56478,56495,56512,56528,56545,56562,56578,56595,56612,56629,56645,56662,56678,56695,56712,56729,56746,56762,56777,56794,56812,56828,56845,56862,56878,56895,56912,56928,56945,56961,56978,56995,57012,57029,57044,57062,57079,57095,57111,57129,57145,57161,57178,57195,57212,57228,57245,57261,57278,57295,57312,57329,57345,57362,57379,57395,57412,57428,57445,57462,57478,57495,57512,57528,57544,57562,57579,57595,57612,57629,57645,57662,57679,57694,57712,57729,57745,57762,57778,57795,57812,57828,57846,57861,57879,57895,57911,57929,57945,57962,57979,57995,58012,58029,58044,58062,58079,58095,58112,58128,58145,58162,58179,58194,58212,58228,58244,58262,58278,58295,58312,58329,58346,58361,58379,58395,58412,58429,58445,58461,58478,58495,58512,58528,58545,58561,58578,58595,58612,58628,58645,58662,58679,58696,58711,58728,58746,58762,58778,58795,58811,58829,58845,58861,58878,58895,58911,58928,58945,58961,58979,58994,59011,59029,59045,59062,59079,59094,59112,59129,59145,59162,59179,59196,59212,59229,59244,59261,59277,59295,59311,59328,59344,59362,59378,59395,59412,59428,59445,59462,59479,59494,59511,59528,59545,59561,59579,59595,59612,59628,59645,59662,59679,59695,59712,59729,59745,59762,59779,59795,59812,59829,59845,59862,59879,59895,59911,59928,59945,59960,59978,59995,60012,60027,60045,60062,60078,60095,60112,60129,60145,60162,60178,60195,60212,60228,60245,60262,60279,60295,60312,60328,60345,60361,60379,60395,60412,60428,60445,60462,60479,60495,60512,60529,60545,60562,60578,60595,60612,60629,60645,60662,60678,60695,60712,60729,60745,60762,60779,60795,60812,60829,60845,60862,60879,60895,60911,60928,60946,60962,60979,60994,61012,61029,61045,61062,61078,61095,61112,61129,61145,61161,61178,61195,61212,61227,61245,61262,61279,61295,61312,61329,61345,61362,61379,61395,61412,61428,61445,61461,61478,61495,61512,61529,61545,61562,61579,61595,61611,61629,61645,61661,61679,61694,61712,61728,61745,61762,61779,61795,61812,61828,61844,61861,61878,61894,61911,61928,61944,61962,61978,61995,62012,62029,62046,62062,62079,62095,62112,62127,62145,62162,62178,62195,62212,62228,62245,62262,62279,62295,62312,62328,62345,62362,62378,62395,62412,62429,62445,62462,62479,62495,62512,62529,62544,62562,62579,62595,62612,62628,62645,62662,62679,62695,62711,62728,62745,62762,62779,62795,62812,62829,62845,62862,62878,62895,62912,62929,62945,62962,62979,62995,63012,63029,63045,63062,63079,63094,63112,63129,63145,63162,63179,63195,63212,63229,63244,63261,63278,63295,63311,63328,63345,63362,63379,63394,63412,63428,63444,63462,63478,63494,63511,63529,63544,63562,63579,63595,63612,63629,63645,63662,63678,63695,63712,63729,63745,63762,63778,63794,63812,63829,63845,63862,63878,63896,63912,63928,63945,63961,63978,63995,64012,64029,64045,64062,64079,64095,64112,64128,64144,64162,64178,64196,64212,64229,64244,64262,64279,64295,64312,64329,64345,64362,64379,64395,64412,64429,64444,64462,64479,64495,64512,64528,64545,64561,64579,64594,64612,64629,64644,64662,64678,64695,64712,64729,64745,64761,64778,64795,64812,64829,64844,64862,64879,64895,64912,64929,64944,64961,64978,64995,65012,65028,65045,65062,65079,65095,65111,65129,65145,65162,65183,65212,65229,65245,65262,65279,65296,65312,65329,65345,65361,65379,65395,65412,65429,65445,65462,65478,65494,65512,65529,65546,65562,65579,65594,65612,65628,65645,65662,65679,65695,65711,65728,65745,65762,65779,65795,65812,65829,65845,65862,65879,65895,65912,65929,65946,65961,65978,65995,66012,66028,66045,66062,66077,66095,66112,66128,66145,66162,66178,66195,66211,66229,66246,66261,66278,66295,66312,66328,66345,66362,66378,66395,66412,66429,66445,66462,66479,66495,66512,66528,66545,66562,66578,66595,66611,66629,66644,66662,66678,66695,66712,66728,66745,66762,66778,66796,66813,66829,66845,66862,66878,66896,66911,66929,66945,66962,66978,66994,67012,67029,67045,67062,67079,67095,67112,67129,67145,67162,67179,67195,67212,67229,67244,67262,67279,67295,67312,67329,67345,67363,67378,67396,67411,67429,67445,67462,67478,67495,67512,67529,67544,67562,67579,67595,67612,67629,67645,67662,67679,67695,67712,67729,67745,67762,67779,67796,67812,67829,67846,67862,67879,67895,67912,67928,67945,67961,67978,67994,68011,68029,68044,68062,68079,68095,68112,68129,68146,68162,68179,68195,68212,68229,68245,68262,68279,68295,68312,68329,68345,68362,68379,68396,68412,68429,68445,68462,68479,68496,68512,68529,68545,68561,68579,68596,68612,68629,68645,68661,68677,68695,68712,68728,68745,68761,68778,68795,68811,68828,68845,68862,68878,68895,68911,68927,68945,68960,68978,68995,69011,69028,69045,69061,69078,69095,69111,69128,69145,69161,69178,69195,69212,69228,69245,69261,69278,69295,69311,69328,69345,69362,69378,69395,69411,69428,69445,69462,69479,69495,69512,69529,69545,69562,69579,69595,69612,69629,69645,69662,69679,69696,69712,69728,69745,69762,69779,69795,69812,69829,69844,69862,69878,69895,69912,69929,69945,69961,69979,69996,70011,70029,70046,70062,70079,70095,70112,70128,70146,70162,70179,70195,70212,70229,70245,70262,70279,70295,70312,70329,70346,70363,70379,70395,70412,70429,70446,70462,70479,70495,70511,70529,70546,70562,70579,70595,70612,70628,70645,70660,70678,70695,70712,70729,70744,70762,70778,70795,70812,70829,70845,70862,70879,70895,70912,70928,70945,70962,70978,70995,71012,71028,71045,71061,71078,71095,71111,71128,71145,71161,71178,71195,71212,71228,71245,71260,71278,71295,71312,71328,71345,71362,71378,71394,71412,71428,71444,71461,71477,71494,71511,71528,71545,71561,71578,71595,71612,71628,71645,71662,71678,71695,71712,71728,71745,71762,71778,71795,71810,71828,71845,71862,71879,71895,71911,71928,71945,71962,71979,71996,72012,72029,72045,72062,72079,72095,72111,72128,72145,72162,72179,72195,72212,72229,72245,72262,72279,72294,72312,72329,72345,72362,72379,72396,72411,72427,72445,72461,72478,72496,72512,72529,72544,72562,72578,72595,72611,72628,72645,72662,72679,72695,72712,72728,72745,72762,72779,72796,72811,72828,72845,72862,72879,72895,72912,72928,72945,72961,72978,72995,73012,73029,73044,73062,73079,73095,73112,73128,73145,73161,73179,73195,73211,73228,73245,73262,73279,73295,73312,73328,73345,73362,73379,73395,73412,73429,73445,73462,73477,73494,73511,73528,73545,73561,73578,73595,73611,73628,73645,73660,73677,73695,73712,73729,73745,73762,73778,73795,73811,73827,73844,73860,73878,73895,73911,73928,73945,73962,73978,73995,74012,74028,74044,74060,74077,74094,74112,74128,74145,74162,74178,74195,74211,74228,74245,74261,74278,74295,74312,74328,74345,74362,74378,74395,74412,74429,74445,74461,74477,74495,74510,74528,74544,74561,74578,74595,74612,74629,74646,74662,74679,74696,74711,74728,74746,74761,74778,74795,74812,74828,74844,74862,74879,74896,74912,74928,74945,74962,74979,74994,75010,75028,75045,75062,75079,75095,75112,75128,75145,75162,75178,75195,75212,75227,75244,75262,75279,75296,75312,75329,75345,75362,75379,75396,75412,75428,75446,75462,75478,75495,75511,75528,75545,75563,75579,75596,75612,75629,75646,75662,75678,75695,75712,75728,75746,75762,75779,75794,75812,75829,75845,75862,75879,75896,75912,75929,75944,75962,75979,75995,76012,76029,76045,76062,76079,76095,76112,76129,76145,76162,76179,76195,76212,76229,76246,76261,76279,76296,76312,76329,76346,76362,76379,76396,76413,76429,76447,76460,76478,76495,76512,76528,76545,76562,76579,76596,76611,76629,76645,76662,76679,76695,76711,76728,76745,76761,76778,76795,76812,76828,76846,76861,76879,76896,76913,76929,76946,76961,76979,76995,77012,77029,77046,77062,77079,77096,77112,77129,77146,77162,77178,77197,77212,77229,77246,77262,77278,77295,77312,77329,77346,77361,77378,77395,77411,77429,77446,77462,77478,77496,77511,77529,77546,77563,77579,77596,77612,77628,77646,77662,77678,77696,77712,77728,77745,77762,77778,77795,77811,77829,77846,77861,77878,77896,77913,77928,77945,77962,77979,77995,78012,78028,78046,78062,78079,78095,78112,78128,78146,78162,78179,78196,78212,78228,78246,78262,78278,78295,78312,78329,78346,78362,78378,78395,78413,78428,78446,78462,78479,78496,78512,78529,78546,78562,78578,78595,78612,78629,78646,78661,78679,78696,78712,78729,78746,78762,78779,78795,78811,78829,78846,78863,78879,78896,78912,78929,78946,78962,78979,78995,79012,79028,79046,79062,79079,79096,79112,79129,79145,79161,79179,79196,79213,79229,79246,79261,79279,79296,79312,79329,79345,79362,79380,79394,79412,79429,79445,79462,79479,79495,79512,79529,79545,79561,79579,79596,79612,79629,79646,79662,79679,79696,79711,79728,79746,79762,79779,79795,79812,79829,79845,79862,79879,79896,79912,79929,79945,79962,79979,79996,80012,80029,80046,80062,80078,80095,80113,80129,80145,80163,80178,80196,80212,80229,80246,80262,80279,80296,80312,80329,80346,80362,80379,80396,80412,80429,80446,80462,80479,80496,80513,80529,80546,80562,80579,80595,80612,80628,80646,80662,80678,80696,80712,80729,80746,80762,80778,80795,80812,80828,80845,80862,80879,80896,80912,80929,80945,80961,80978,80995,81012,81029,81046,81062,81078,81096,81112,81128,81146,81161,81178,81195,81211,81228,81246,81261,81279,81295,81313,81329,81346,81362,81379,81396,81412,81429,81446,81462,81479,81496,81512,81529,81546,81562,81579,81595,81612,81629,81645,81662,81679,81695,81712,81729,81746,81762,81778,81796,81813,81829,81844,81862,81879,81896,81912,81929,81945,81961,81978,81995,82011,82028,82044,82061,82078,82095,82111,82127,82144,82160,82178,82195,82212,82229,82245,82262,82278,82296,82312,82328,82344,82361,82379,82395,82412,82429,82445,82461,82478,82496,82512,82528,82546,82562,82579,82596,82612,82629,82646,82661,82679,82696,82712,82728,82746,82761,82778,82796,82812,82828,82845,82861,82878,82895,82911,82929,82946,82962,82978,82996,83012,83029,83046,83062,83078,83095,83112,83129,83146,83161,83178,83196,83211,83229,83246,83261,83279,83295,83313,83329,83346,83361,83379,83396,83412,83429,83446,83462,83479,83496,83512,83529,83546,83562,83578,83595,83612,83629,83646,83662,83678,83695,83711,83728,83745,83762,83778,83794,83812,83828,83846,83863,83879,83896,83911,83929,83945,83962,83979,83996,84013,84029,84046,84062,84079,84095,84111,84129,84145,84162,84179,84195,84212,84228,84245,84263,84280,84296,84312,84328,84345,84363,84379,84396,84412,84429,84446,84463,84479,84496,84513,84529,84546,84562,84579,84596,84612,84628,84646,84663,84679,84695,84713,84729,84746,84763,84779,84796,84812,84829,84845,84862,84879,84895,84913,84928,84946,84962,84978,84994,85012,85029,85046,85062,85079,85096,85112,85129,85145,85161,85178,85196,85212,85229,85246,85261,85277,85294,85312,85329,85346,85363,85379,85395,85412,85429,85446,85461,85479,85496,85511,85528,85546,85562,85578,85596,85612,85629,85645,85662,85679,85696,85712,85729,85745,85762,85779,85795,85811,85829,85846,85862,85878,85895,85913,85929,85946,85961,85979,85996,86013,86029,86046,86061,86078,86096,86112,86129,86145,86162,86178,86195,86213,86229,86246,86262,86279,86296,86312,86329,86345,86362,86379,86396,86412,86428,86445,86462,86479,86495,86512,86529,86546,86562,86578,86596,86612,86628,86646,86661,86678,86695,86712,86729,86746,86762,86779,86796,86812,86828,86846,86862,86878,86896,86912,86928,86946,86962,86979,86996,87012,87029,87046,87062,87079,87096,87113,87128,87145,87161,87178,87194,87212,87229,87246,87262,87279,87295,87311,87329,87346,87362,87379,87395,87412,87429,87445,87462,87478,87496,87513,87529,87546,87562,87578,87596,87613,87628,87646,87662,87678,87695,87712,87728,87745,87762,87779,87796,87812,87829,87846,87862,87879,87895,87912,87929,87946,87961,87978,87996,88012,88029,88046,88062,88078,88096,88112,88129,88146,88162,88179,88196,88212,88228,88245,88262,88279,88296,88312,88328,88346,88361,88378,88395,88411,88429,88446,88462,88479,88495,88512,88528,88544,88561,88577,88594,88612,88629,88645,88662,88677,88694,88712,88728,88745,88761,88777,88794,88812,88829,88845,88861,88878,88895,88911,88929,88944,88961,88978,88995,89012,89027,89044,89061,89077,89094,89112,89127,89145,89162,89178,89195,89212,89229,89244,89262,89278,89295,89312,89329,89345,89362,89379,89395,89412,89428,89445,89462,89479,89495,89512,89529,89545,89562,89578,89595,89612,89629,89645,89662,89678,89695,89712,89728,89745,89762,89778,89795,89812,89828,89845,89862,89879,89895,89912,89928,89945,89962,89979,89995,90012,90028,90045,90062,90079,90095,90112,90129,90145,90162,90179,90196,90212,90228,90245,90262,90279,90295,90311,90328,90345,90362,90379,90396,90413,90429,90446,90463,90478,90495,90512,90529,90546,90563,90579,90596,90613,90628,90646,90662,90679,90696,90712,90729,90746,90763,90778,90794,90811,90829,90846,90862,90879,90895,90912,90929,90945,90962,90979,90995,91012,91028,91045,91062,91078,91095,91111,91129,91145,91162,91178,91195,91211,91229,91246,91262,91278,91294,91312,91329,91344,91361,91377,91394,91411,91428,91445,91461,91478,91495,91512,91529,91545,91562,91578,91594,91611,91627,91644,91661,91677,91694,91711,91729,91744,91761,91778,91796,91812,91829,91845,91862,91879,91895,91912,91929,91945,91962,91978,91994,92012,92029,92046,92062,92077,92094,92113,92128,92145,92162,92179,92195,92212,92228,92246,92263,92279,92295,92312,92328,92346,92361,92378,92395,92412,92428,92444,92462,92478,92495,92511,92529,92545,92562,92579,92595,92612,92629,92644,92661,92678,92695,92712,92729,92745,92762,92779,92795,92812,92829,92845,92862,92879,92895,92911,92928,92944,92961,92979,92995,93012,93029,93045,93062,93079,93095,93112,93128,93146,93162,93179,93194,93211,93228,93244,93262,93279,93295,93312,93329,93345,93362,93379,93395,93412,93429,93446,93463,93479,93496,93512,93529,93547,93563,93579,93597,93611,93628,93645,93663,93679,93696,93713,93729,93746,93762,93778,93796,93812,93828,93844,93862,93879,93895,93911,93929,93945,93962,93978,93995,94011,94029,94044,94061,94079,94095,94112,94129,94144,94161,94179,94194,94211,94228,94244,94261,94278,94294,94312,94328,94344,94361,94378,94394,94412,94428,94444,94461,94477,94494,94511,94528,94545,94562,94579,94595,94612,94629,94645,94662,94678,94695,94712,94729,94745,94762,94779,94795,94812,94829,94845,94862,94879,94896,94912,94929,94945,94962,94979,94995,95012,95028,95044,95061,95078,95094,95112,95129,95144,95161,95179,95195,95212,95229,95245,95261,95278,95294,95311,95328,95345,95361,95377,95394,95411,95428,95445,95462,95479,95495,95512,95529,95544,95562,95579,95595,95612,95629,95646,95662,95679,95695,95712,95729,95745,95762,95778,95794,95811,95829,95845,95862,95878,95894,95911,95928,95944,95962,95978,95995,96012,96028,96045,96063,96079,96095,96111,96129,96146,96163,96178,96194,96211,96229,96245,96262,96278,96294,96311,96327,96345,96362,96378,96396,96412,96429,96446,96461,96479,96494,96512,96528,96545,96566,96579,96595,96612,96629,96646,96662,96678,96696,96712,96728,96746,96762,96779,96795,96813,96829,96846,96862,96879,96896,96912,96929,96945,96963,96979,96996,97012,97029,97045,97063,97079,97096,97113,97129,97146,97163,97179,97195,97215,97230,97246,97263,97280,97296,97313,97330,97346,97362,97379,97396,97413,97429,97446,97463,97480,97496,97513,97528,97546,97563,97579,97596,97612,97629,97646,97662,97679,97695,97712,97729,97745,97762,97778,97795,97811,97828,97846,97862,97879,97895,97912,97929,97945,97962,97979,97994,98012,98029,98045,98062,98079,98096,98112,98129,98145,98162,98179,98196,98213,98229,98246,98262,98278,98296,98313,98328,98346,98363,98379,98395,98412,98428,98444,98461,98479,98495,98512,98529,98546,98564],"hit":[null],"x":[-0.8316326530612245,-0.8316326530612245,-0.8316326530612245,-0.8316326530612245,-0.8316326530612245,-0.8316326530612245,-0.8316326530612245,-0.8316326530612245,-0.8316326530612245,-0.8316326530612245,-0.8316326530612245,-0.8316326530612245,-0.8316326530612245,-0.8316326530612245,-0.8316326530612245,-0.8316326530612245,-0.8316326530612245,-0.8316326530612245,-0.8316326530612245,-0.8316326530612245,-0.8316326530612245,-0.8316326530612245,-0.8316326530612245,-0.8316326530612245,-0.8316326530612245,-0.8316326530612245,-0.8316326530612245,-0.8316326530612245,-0.8316326530612245,-0.8316326530612245,-0.8316326530612245,-0.8316326530612245,-0.8316326530612245,-0.8316326530612245,-0.8316326530612245,1.0697278911564625,1.0561224489795917,1.0391156462585034,1.0255102040816326,1.022108843537415,1.022108843537415,1.022108843537415,1.022108843537415,1.022108843537415,1.022108843537415,1.022108843537415,1.022108843537415,1.022108843537415,1.022108843537415,1.022108843537415,1.022108843537415,1.022108843537415,1.022108843537415,1.022108843537415,1.022108843537415,1.022108843537415,1.022108843537415,1.022108843537415,1.022108843537415,1.022108843537415,1.022108843537415,1.022108843537415,1.022108843537415,1.022108843537415,1.022108843537415,1.022108843537415,1.022108843537415,1.022108843537415,1.022108843537415,1.022108843537415,1.022108843537415,1.022108843537415,1.022108843537415,1.022108843537415,1.022108843537415,1.022108843537415,1.022108843537415,1.0187074829931972,1.0119047619047619,1.0051020408163265,0.9982993197278912,0.9812925170068028,0.9812925170068028,0.9812925170068028,0.9914965986394558,1.001700680272109,1.0153061224489797,1.0153061224489797,1.0153061224489797,1.0153061224489797,1.0153061224489797,1.0153061224489797,1.0153061224489797,1.0153061224489797,1.0153061224489797,1.0153061224489797,1.0153061224489797,1.0153061224489797,1.0153061224489797,1.0153061224489797,1.0119047619047619,1.0051020408163265,0.9914965986394558,0.9744897959183674,0.967687074829932,0.9574829931972789,0.9472789115646258,0.9404761904761905,0.9336734693877551,0.9268707482993197,0.9268707482993197,0.9268707482993197,0.9268707482993197,0.9268707482993197,0.9268707482993197,0.9268707482993197,0.9268707482993197,0.9268707482993197,0.9268707482993197,0.9268707482993197,0.9268707482993197,0.9268707482993197,0.9268707482993197,0.9268707482993197,0.9268707482993197,0.9268707482993197,0.9200680272108843,0.8962585034013606,0.8520408163265306,0.7295918367346939,0.5459183673469388,0.45408163265306123,0.39625850340136054,0.39625850340136054,0.39625850340136054,0.39625850340136054,0.39625850340136054,0.39625850340136054,0.39625850340136054,0.39625850340136054,0.39625850340136054,0.39625850340136054,0.39625850340136054,0.39625850340136054,0.39625850340136054,0.39625850340136054,0.39625850340136054,0.39625850340136054,0.39625850340136054,0.39625850340136054,0.39625850340136054,0.39625850340136054,0.39625850340136054,0.39625850340136054,0.39625850340136054,0.39625850340136054,0.39625850340136054,0.39625850340136054,0.39625850340136054,0.39625850340136054,0.39625850340136054,0.39625850340136054,0.39625850340136054,0.39625850340136054,0.39625850340136054,0.39625850340136054,0.39625850340136054,0.39625850340136054,0.39625850340136054,0.39625850340136054,0.532312925170068,1.0187074829931972,1.7670068027210883,2.307823129251701,2.651360544217687,2.7193877551020407,2.7193877551020407,2.7193877551020407,2.7193877551020407,2.7193877551020407,2.7193877551020407,2.7193877551020407,2.7193877551020407,2.7193877551020407,2.7193877551020407,2.7193877551020407,2.7193877551020407,2.7193877551020407,2.7193877551020407,2.7193877551020407,2.7193877551020407,2.7193877551020407,2.7193877551020407,2.7193877551020407,2.7193877551020407,2.7193877551020407,2.7193877551020407,2.7193877551020407,2.7193877551020407,2.7193877551020407,2.7193877551020407,2.7193877551020407,2.7193877551020407,2.7193877551020407,2.7193877551020407,2.7193877551020407,2.7193877551020407,2.7193877551020407,2.7193877551020407,2.7193877551020407,2.7193877551020407,2.7193877551020407,2.7193877551020407,2.7193877551020407,2.7193877551020407,2.7193877551020407,2.7193877551020407,2.7193877551020407,2.7193877551020407,2.7193877551020407,2.7193877551020407,2.7193877551020407,2.7193877551020407,2.7193877551020407,2.7193877551020407,2.7193877551020407,2.7193877551020407,2.7193877551020407,2.7193877551020407,2.7193877551020407,2.7193877551020407,2.7193877551020407,2.7193877551020407,2.7193877551020407,2.7193877551020407,2.7193877551020407,2.7193877551020407,2.7193877551020407,2.7193877551020407,2.7193877551020407,2.7193877551020407,2.7193877551020407,2.7193877551020407,2.7193877551020407,2.7193877551020407,2.7193877551020407,2.7193877551020407,2.7193877551020407,2.7193877551020407,2.7193877551020407,2.7193877551020407,2.7193877551020407,2.7193877551020407,2.7193877551020407,2.7193877551020407,2.7193877551020407,2.7193877551020407,2.7193877551020407,2.7193877551020407,2.7193877551020407,2.7193877551020407,2.7193877551020407,2.7193877551020407,2.7193877551020407,2.7193877551020407,2.7193877551020407,2.7193877551020407,2.7193877551020407,2.7193877551020407,2.7193877551020407,2.7193877551020407,2.7193877551020407,2.7193877551020407,2.7193877551020407,2.7193877551020407,2.7193877551020407,2.7193877551020407,2.7193877551020407,2.7193877551020407,2.7193877551020407,2.7193877551020407,2.7193877551020407,2.7193877551020407,2.7193877551020407,2.7193877551020407,2.7193877551020407,2.7193877551020407,2.7193877551020407,2.7193877551020407,2.7193877551020407,2.7193877551020407,2.7193877551020407,2.7193877551020407,2.7193877551020407,2.7193877551020407,2.7193877551020407,2.7193877551020407,2.7193877551020407,2.7193877551020407,2.7193877551020407,2.7193877551020407,2.7193877551020407,2.7193877551020407,2.7193877551020407,2.7193877551020407,2.7193877551020407,2.7193877551020407,2.7193877551020407,2.7193877551020407,2.7193877551020407,2.7193877551020407,2.7193877551020407,2.770408163265306,2.770408163265306,2.770408163265306,2.770408163265306,2.770408163265306,2.770408163265306,2.770408163265306,2.770408163265306,2.770408163265306,2.770408163265306,2.770408163265306,2.770408163265306,2.770408163265306,2.770408163265306,2.770408163265306,2.770408163265306,2.770408163265306,2.7670068027210886,2.7261904761904763,2.671768707482993,2.61734693877551,2.4200680272108843,2.29421768707483,2.2193877551020407,2.1683673469387754,2.1377551020408165,2.1377551020408165,2.1377551020408165,2.1377551020408165,2.1377551020408165,2.1377551020408165,2.1377551020408165,2.1377551020408165,2.1377551020408165,2.1377551020408165,2.1377551020408165,2.1377551020408165,2.1139455782312924,2.0493197278911564,1.933673469387755,1.7534013605442176,1.630952380952381,1.5629251700680271,1.5629251700680271,1.5629251700680271,1.5629251700680271,1.5629251700680271,1.5629251700680271,1.5629251700680271,1.5629251700680271,1.5629251700680271,1.5629251700680271,1.5629251700680271,1.5629251700680271,1.5629251700680271,1.5629251700680271,1.5629251700680271,1.5629251700680271,1.5629251700680271,1.5629251700680271,1.5629251700680271,1.5629251700680271,1.5629251700680271,1.5629251700680271,1.5629251700680271,1.5629251700680271,1.5629251700680271,1.5629251700680271,1.5629251700680271,1.5629251700680271,1.5629251700680271,1.5629251700680271,1.5629251700680271,1.5629251700680271,1.5629251700680271,1.5629251700680271,1.5629251700680271,1.5629251700680271,1.5629251700680271,1.5629251700680271,1.5629251700680271,1.5629251700680271,1.5629251700680271,1.5629251700680271,1.5629251700680271,1.5629251700680271,1.5629251700680271,1.5629251700680271,1.5629251700680271,1.5629251700680271,1.5629251700680271,1.5629251700680271,1.5629251700680271,1.5629251700680271,1.5629251700680271,1.5629251700680271,1.5629251700680271,1.5629251700680271,1.5629251700680271,1.5629251700680271,1.5629251700680271,1.5629251700680271,1.5629251700680271,1.5629251700680271,1.5629251700680271,1.5629251700680271,1.5629251700680271,1.5629251700680271,1.5629251700680271,1.5629251700680271,1.5629251700680271,1.5629251700680271,1.5629251700680271,1.5629251700680271,1.5629251700680271,1.532312925170068,1.4098639455782314,1.2227891156462585,1.001700680272109,0.7976190476190477,0.6751700680272109,0.5867346938775511,0.5085034013605442,0.5085034013605442,0.5085034013605442,0.5085034013605442,0.5085034013605442,0.5085034013605442,0.5085034013605442,0.5085034013605442,0.5085034013605442,0.5085034013605442,0.5085034013605442,0.5085034013605442,0.5085034013605442,0.5085034013605442,0.5085034013605442,0.5085034013605442,0.5085034013605442,0.5085034013605442,0.5085034013605442,0.5085034013605442,0.5085034013605442,0.5085034013605442,0.5085034013605442,0.5085034013605442,0.5085034013605442,0.5085034013605442,0.5085034013605442,0.5085034013605442,0.5085034013605442,0.5085034013605442,0.5085034013605442,0.5085034013605442,0.5085034013605442,0.5085034013605442,0.5085034013605442,0.5085034013605442,0.5085034013605442,0.5085034013605442,0.5085034013605442,0.5085034013605442,0.5085034013605442,0.5085034013605442,0.5085034013605442,0.5085034013605442,0.5085034013605442,0.5085034013605442,0.5085034013605442,0.5085034013605442,0.5085034013605442,0.5085034013605442,0.5085034013605442,0.5085034013605442,0.5085034013605442,0.5085034013605442,0.5085034013605442,0.5085034013605442,0.5085034013605442,0.5085034013605442,0.5085034013605442,0.5085034013605442,0.5085034013605442,0.5085034013605442,0.5085034013605442,0.5085034013605442,0.4812925170068027,0.42346938775510207,0.3486394557823129,0.2193877551020408,0.015306122448979591,-0.09013605442176871,-0.15816326530612246,-0.15816326530612246,-0.15816326530612246,-0.15816326530612246,-0.15816326530612246,-0.15816326530612246,-0.15816326530612246,-0.15816326530612246,-0.15816326530612246,-0.15816326530612246,-0.15816326530612246,-0.15816326530612246,-0.15816326530612246,-0.15816326530612246,-0.15816326530612246,-0.15816326530612246,-0.15816326530612246,-0.15816326530612246,-0.15816326530612246,-0.15816326530612246,-0.15816326530612246,-0.15816326530612246,-0.15816326530612246,-0.15816326530612246,-0.15816326530612246,-0.15816326530612246,-0.15816326530612246,-0.15816326530612246,-0.15816326530612246,-0.15816326530612246,-0.15816326530612246,-0.15816326530612246,-0.15816326530612246,-0.15816326530612246,-0.15816326530612246,-0.15816326530612246,-0.15816326530612246,-0.15816326530612246,-0.15816326530612246,-0.15816326530612246,-0.15816326530612246,-0.15816326530612246,-0.15816326530612246,-0.15816326530612246,-0.15816326530612246,-0.15816326530612246,-0.15816326530612246,-0.15816326530612246,-0.15816326530612246,-0.15816326530612246,-0.15816326530612246,-0.15816326530612246,-0.15816326530612246,-0.15816326530612246,-0.15816326530612246,-0.15816326530612246,-0.15816326530612246,-0.15816326530612246,-0.15816326530612246,-0.15816326530612246,-0.15816326530612246,-0.15816326530612246,-0.15816326530612246,-0.15816326530612246,-0.15816326530612246,-0.15816326530612246,-0.15816326530612246,-0.15816326530612246,-0.15816326530612246,-0.15816326530612246,-0.15816326530612246,-0.15816326530612246,-0.15816326530612246,-0.15816326530612246,-0.15816326530612246,-0.15816326530612246,-0.15816326530612246,-0.15816326530612246,-0.15816326530612246,-0.15816326530612246,-0.15816326530612246,-0.15816326530612246,-0.15816326530612246,-0.15816326530612246,-0.15816326530612246,-0.15816326530612246,-0.15816326530612246,-0.15816326530612246,-0.15816326530612246,-0.15816326530612246,-0.15816326530612246,-0.15816326530612246,-0.15816326530612246,-0.15816326530612246,-0.15816326530612246,-0.15816326530612246,-0.15816326530612246,-0.15816326530612246,-0.15816326530612246,-0.15816326530612246,-0.15816326530612246,-0.15816326530612246,-0.15816326530612246,-0.15816326530612246,-0.15816326530612246,-0.15816326530612246,-0.15816326530612246,-0.15816326530612246,-0.15816326530612246,-0.15816326530612246,-0.15816326530612246,-0.15816326530612246,-0.15816326530612246,-0.15816326530612246,-0.15816326530612246,-0.15816326530612246,-0.15816326530612246,-0.15816326530612246,-0.15816326530612246,-0.15816326530612246,-0.15816326530612246,-0.15816326530612246,-0.15816326530612246,-0.15816326530612246,-0.15816326530612246,-0.15816326530612246,-0.15816326530612246,-0.15816326530612246,-0.15816326530612246,-0.15816326530612246,-0.15816326530612246,0.5714285714285714,0.5884353741496599,0.6054421768707483,0.6190476190476191,0.6224489795918368,0.6224489795918368,0.6224489795918368,0.6224489795918368,0.6224489795918368,0.6224489795918368,0.6224489795918368,0.6224489795918368,0.6224489795918368,0.6224489795918368,0.6224489795918368,0.6224489795918368,0.6224489795918368,0.6224489795918368,0.6224489795918368,0.6224489795918368,0.6224489795918368,0.6224489795918368,0.6224489795918368,0.6224489795918368,0.6224489795918368,0.6224489795918368,0.6224489795918368,0.6224489795918368,0.6224489795918368,0.6224489795918368,0.6224489795918368,0.6224489795918368,0.6224489795918368,0.6224489795918368,0.6224489795918368,0.6224489795918368,0.6224489795918368,0.6224489795918368,0.6224489795918368,0.6224489795918368,0.6224489795918368,0.6224489795918368,0.6224489795918368,0.6224489795918368,0.6224489795918368,0.6224489795918368,0.6224489795918368,0.6224489795918368,0.6224489795918368,0.6224489795918368,0.6224489795918368,0.6224489795918368,0.6224489795918368,0.6224489795918368,0.6224489795918368,0.6224489795918368,0.6224489795918368,0.6224489795918368,0.6224489795918368,0.6224489795918368,0.6224489795918368,0.6224489795918368,0.6224489795918368,0.6224489795918368,0.6224489795918368,0.6224489795918368,0.6224489795918368,0.6224489795918368,0.6224489795918368,0.6224489795918368,0.6224489795918368,0.6224489795918368,0.6224489795918368,0.6224489795918368,0.6224489795918368,0.6224489795918368,0.6224489795918368,0.6224489795918368,0.6224489795918368,0.6224489795918368,0.6224489795918368,0.6224489795918368,0.6224489795918368,0.6224489795918368,0.6224489795918368,0.6224489795918368,0.6224489795918368,0.6224489795918368,0.6224489795918368,0.6224489795918368,0.6224489795918368,0.6224489795918368,0.6224489795918368,0.6224489795918368,0.6224489795918368,0.6224489795918368,0.6224489795918368,0.6224489795918368,0.6224489795918368,0.6224489795918368,0.6224489795918368,0.6224489795918368,0.6224489795918368,0.6224489795918368,0.6224489795918368,0.6224489795918368,0.6224489795918368,0.6224489795918368,0.6224489795918368,0.6224489795918368,0.6224489795918368,0.6224489795918368,0.6224489795918368,0.6224489795918368,0.6224489795918368,0.6224489795918368,0.6224489795918368,0.6224489795918368,0.6224489795918368,0.6224489795918368,0.6224489795918368,0.6224489795918368,0.6224489795918368,0.6224489795918368,0.6224489795918368,0.6224489795918368,0.6224489795918368,0.6224489795918368,0.6224489795918368,0.6224489795918368,0.6156462585034014,0.608843537414966,0.5986394557823129,0.5986394557823129,0.5986394557823129,0.5986394557823129,0.5986394557823129,0.5986394557823129,0.5986394557823129,0.5986394557823129,0.5986394557823129,0.5986394557823129,0.5986394557823129,0.5986394557823129,0.5986394557823129,0.5986394557823129,0.5986394557823129,0.5986394557823129,0.5986394557823129,0.5986394557823129,0.5986394557823129,0.5986394557823129,0.5986394557823129,0.5986394557823129,0.5986394557823129,0.5986394557823129,0.5986394557823129,0.5986394557823129,0.5986394557823129,0.5986394557823129,0.5986394557823129,0.5986394557823129,0.5986394557823129,0.5986394557823129,0.5986394557823129,0.5986394557823129,0.5986394557823129,0.5986394557823129,0.5986394557823129,0.5986394557823129,0.5986394557823129,0.5986394557823129,0.5986394557823129,0.5986394557823129,0.5986394557823129,0.5986394557823129,0.5986394557823129,0.5986394557823129,0.5986394557823129,0.5986394557823129,0.5986394557823129,0.5986394557823129,0.5986394557823129,0.5986394557823129,0.5986394557823129,0.5986394557823129,0.5986394557823129,0.5986394557823129,0.5986394557823129,0.5986394557823129,0.5986394557823129,0.5986394557823129,0.5986394557823129,0.5986394557823129,0.5986394557823129,0.5986394557823129,0.5986394557823129,0.5986394557823129,0.5986394557823129,0.5986394557823129,0.5986394557823129,0.5986394557823129,0.5986394557823129,0.5986394557823129,0.5986394557823129,0.5986394557823129,0.5986394557823129,0.5986394557823129,-0.6139455782312925,-0.23299319727891157,-0.23299319727891157,-0.23299319727891157,-0.23299319727891157,-0.23299319727891157,-0.23299319727891157,-0.23299319727891157,-0.23299319727891157,-0.23299319727891157,-0.23299319727891157,-0.23299319727891157,-0.23299319727891157,-0.23299319727891157,-0.23299319727891157,-0.23299319727891157,-0.23299319727891157,-0.23299319727891157,-0.2465986394557823,-0.2568027210884354,-0.28741496598639454,-0.3078231292517007,-0.32482993197278914,-0.33843537414965985,-0.3486394557823129,-0.3554421768707483,-0.3554421768707483,-0.3554421768707483,-0.3554421768707483,-0.34523809523809523,-0.3282312925170068,-0.2976190476190476,-0.24319727891156462,-0.17517006802721088,-0.12755102040816327,-0.09693877551020408,-0.06972789115646258,-0.05612244897959184,-0.05612244897959184,-0.05612244897959184,-0.05612244897959184,-0.05612244897959184,-0.05612244897959184,-0.05612244897959184,-0.05612244897959184,-0.05612244897959184,-0.05612244897959184,-0.05612244897959184,-0.05612244897959184,-0.05612244897959184,-0.05612244897959184,-0.05612244897959184,-0.05612244897959184,-0.05612244897959184,-0.05612244897959184,-0.05612244897959184,-0.05612244897959184,-0.05612244897959184,-0.05612244897959184,-0.05612244897959184,-0.05612244897959184,-0.05612244897959184,-0.05612244897959184,-0.05612244897959184,-0.05612244897959184,-0.05612244897959184,-0.05612244897959184,-0.05612244897959184,-0.05612244897959184,-0.05612244897959184,-0.05612244897959184,-0.05612244897959184,-0.05612244897959184,-0.05612244897959184,-0.05612244897959184,-0.05612244897959184,-0.05612244897959184,-0.05612244897959184,-0.05612244897959184,-0.05612244897959184,-0.05612244897959184,-0.05612244897959184,-0.05612244897959184,-0.05612244897959184,-0.05612244897959184,-0.05612244897959184,-0.05612244897959184,-0.05612244897959184,-0.05612244897959184,-0.0391156462585034,0.015306122448979591,0.07312925170068027,0.12755102040816327,0.18877551020408162,0.2193877551020408,0.25,0.26360544217687076,0.27380952380952384,0.27380952380952384,0.27721088435374147,0.27721088435374147,0.27040816326530615,0.2568027210884354,0.24319727891156462,0.2193877551020408,0.1989795918367347,0.17857142857142858,0.1649659863945578,0.15136054421768708,0.14795918367346939,0.14795918367346939,0.14795918367346939,0.14795918367346939,0.14795918367346939,0.15476190476190477,0.15816326530612246,0.16156462585034015,0.1649659863945578,0.1683673469387755,0.1717687074829932,0.17517006802721088,0.17857142857142858,0.17857142857142858,0.17857142857142858,0.18197278911564627,0.18197278911564627,0.18197278911564627,0.18197278911564627,0.18197278911564627,0.18197278911564627,0.18197278911564627,0.18197278911564627,0.18197278911564627,0.18197278911564627,0.18197278911564627,0.18197278911564627,0.18197278911564627,0.18197278911564627,0.18197278911564627,0.18197278911564627,0.17857142857142858,0.17517006802721088,0.1717687074829932,0.1649659863945578,0.15816326530612246,0.15136054421768708,0.141156462585034,0.13435374149659865,0.12755102040816327,0.12074829931972789,0.11734693877551021,0.11054421768707483,0.10714285714285714,0.10374149659863946,0.10374149659863946,0.10034013605442177,0.10034013605442177,0.09693877551020408,0.09693877551020408,0.0935374149659864,0.0935374149659864,0.0935374149659864,0.0935374149659864,0.0935374149659864,0.0935374149659864,0.0935374149659864,0.0935374149659864,0.0935374149659864,0.0935374149659864,0.0935374149659864,0.09693877551020408,0.09693877551020408,0.09693877551020408,0.09693877551020408,0.10034013605442177,0.10374149659863946,0.11054421768707483,0.11394557823129252,0.12074829931972789,0.12414965986394558,0.13435374149659865,0.1377551020408163,0.141156462585034,0.141156462585034,0.1445578231292517,0.1445578231292517,0.1445578231292517,0.1445578231292517,0.1445578231292517,0.1445578231292517,0.1445578231292517,0.1445578231292517,0.1445578231292517,0.1445578231292517,0.1445578231292517,0.1445578231292517,0.1445578231292517,0.1445578231292517,0.141156462585034,0.141156462585034,0.141156462585034,0.141156462585034,0.141156462585034,0.141156462585034,0.141156462585034,0.141156462585034,0.141156462585034,0.141156462585034,0.141156462585034,0.141156462585034,0.141156462585034,0.141156462585034,0.1377551020408163,0.1377551020408163,0.1377551020408163,0.141156462585034,0.14795918367346939,0.15476190476190477,0.16156462585034015,0.1717687074829932,0.195578231292517,0.195578231292517,0.2193877551020408,0.25,0.26360544217687076,0.27380952380952384,0.28061224489795916,0.28401360544217685,0.28401360544217685,0.28401360544217685,0.28401360544217685,0.28401360544217685,0.28401360544217685,0.28061224489795916,0.27721088435374147,0.27721088435374147,0.27721088435374147,0.27721088435374147,0.27721088435374147,0.28061224489795916,0.29081632653061223,0.3010204081632653,0.3078231292517007,0.31802721088435376,0.3282312925170068,0.33843537414965985,0.3486394557823129,0.358843537414966,0.3656462585034014,0.36904761904761907,0.3758503401360544,0.3792517006802721,0.3826530612244898,0.3826530612244898,0.38605442176870747,0.38605442176870747,0.38605442176870747,0.38605442176870747,0.38605442176870747,0.38605442176870747,0.38605442176870747,0.38605442176870747,0.38605442176870747,0.38605442176870747,0.38605442176870747,0.38605442176870747,0.38605442176870747,0.38605442176870747,0.38605442176870747,0.38605442176870747,0.38605442176870747,0.38605442176870747,0.38605442176870747,0.38605442176870747,0.38605442176870747,0.38605442176870747,0.38945578231292516,0.4064625850340136,0.4302721088435374,0.4642857142857143,0.5051020408163265,0.5391156462585034,0.5595238095238095,0.5833333333333334,0.5969387755102041,0.6037414965986394,0.6071428571428571,0.6071428571428571,0.6105442176870748,0.6105442176870748,0.6105442176870748,0.6105442176870748,0.6105442176870748,0.6105442176870748,0.6173469387755102,0.6207482993197279,0.6275510204081632,0.6343537414965986,0.641156462585034,0.6479591836734694,0.6547619047619048,0.6683673469387755,0.6717687074829932,0.6785714285714286,0.6785714285714286,0.6819727891156463,0.6819727891156463,0.6819727891156463,0.6819727891156463,0.6819727891156463,0.6819727891156463,0.6819727891156463,0.6819727891156463,0.6819727891156463,0.6819727891156463,0.6819727891156463,0.6819727891156463,0.6819727891156463,0.6819727891156463,0.6819727891156463,0.6819727891156463,0.6819727891156463,0.6819727891156463,0.6819727891156463,0.6819727891156463,0.6819727891156463,0.6819727891156463,0.6819727891156463,0.6819727891156463,0.6819727891156463,0.6819727891156463,0.6819727891156463,0.6819727891156463,0.6887755102040817,0.6955782312925171,0.7023809523809523,0.7091836734693877,0.7159863945578231,0.7227891156462585,0.7261904761904762,0.7329931972789115,0.7431972789115646,0.7465986394557823,0.75,0.7534013605442177,0.7534013605442177,0.7534013605442177,0.7568027210884354,0.7568027210884354,0.7568027210884354,0.7568027210884354,0.7568027210884354,0.7568027210884354,0.7568027210884354,0.7568027210884354,0.7568027210884354,0.7568027210884354,0.7568027210884354,0.7568027210884354,0.7568027210884354,0.7568027210884354,0.7568027210884354,0.7568027210884354,0.7568027210884354,0.7568027210884354,0.7568027210884354,0.7568027210884354,0.7568027210884354,0.7568027210884354,0.7568027210884354,0.7568027210884354,0.7568027210884354,0.7568027210884354,0.7568027210884354,0.7568027210884354,0.7534013605442177,0.7431972789115646,0.7159863945578231,0.6751700680272109,0.6173469387755102,0.5425170068027211,0.4914965986394558,0.44727891156462585,0.413265306122449,0.38605442176870747,0.3656462585034014,0.3520408163265306,0.34183673469387754,0.34183673469387754,0.34183673469387754,0.34183673469387754,0.34183673469387754,0.34183673469387754,0.34183673469387754,0.34183673469387754,0.34183673469387754,0.34183673469387754,0.34183673469387754,0.34183673469387754,0.34183673469387754,0.33503401360544216,0.32482993197278914,0.32142857142857145,0.3112244897959184,0.304421768707483,0.2976190476190476,0.29081632653061223,0.28741496598639454,0.28741496598639454,0.28401360544217685,0.28401360544217685,0.28401360544217685,0.28401360544217685,0.28741496598639454,0.29081632653061223,0.29081632653061223,0.29081632653061223,0.29081632653061223,0.29081632653061223,0.28401360544217685,0.28401360544217685,0.28061224489795916,0.28061224489795916,0.27721088435374147,0.27380952380952384,0.27380952380952384,0.27380952380952384,0.27380952380952384,0.27380952380952384,0.28401360544217685,0.3078231292517007,0.33843537414965985,0.3622448979591837,0.39285714285714285,0.4030612244897959,0.4098639455782313,0.4098639455782313,0.4098639455782313,0.39625850340136054,0.36904761904761907,0.3112244897959184,0.27040816326530615,0.2227891156462585,0.18537414965986396,0.15816326530612246,0.12755102040816327,0.11054421768707483,0.08673469387755102,0.07312925170068027,0.06292517006802721,0.04931972789115646,0.04251700680272109,0.03231292517006803,0.025510204081632654,0.015306122448979591,0.011904761904761904,0.008503401360544218,0.00510204081632653,0.00510204081632653,0.00510204081632653,0.0017006802721088435,0.0017006802721088435,0.0017006802721088435,0.0017006802721088435,0.0017006802721088435,0.0017006802721088435,0.0017006802721088435,0.0017006802721088435,0.0017006802721088435,0.0017006802721088435,0.0017006802721088435,0.0017006802721088435,0.0017006802721088435,0.0017006802721088435,0.0017006802721088435,0.0017006802721088435,0.0017006802721088435,0.0017006802721088435,0.0017006802721088435,0.008503401360544218,0.01870748299319728,0.02891156462585034,0.04591836734693878,0.05952380952380952,0.07993197278911565,0.10034013605442177,0.12755102040816327,0.18197278911564627,0.2465986394557823,0.3078231292517007,0.38605442176870747,0.4370748299319728,0.49489795918367346,0.5221088435374149,0.5493197278911565,0.5629251700680272,0.5731292517006803,0.576530612244898,0.576530612244898,0.576530612244898,0.576530612244898,0.576530612244898,0.576530612244898,0.576530612244898,0.576530612244898,0.576530612244898,0.576530612244898,0.576530612244898,0.576530612244898,0.576530612244898,0.576530612244898,0.576530612244898,0.576530612244898,0.576530612244898,0.576530612244898,0.576530612244898,0.576530612244898,0.576530612244898,0.576530612244898,0.576530612244898,0.576530612244898,0.576530612244898,0.576530612244898,0.5697278911564626,0.5595238095238095,0.5459183673469388,0.5357142857142857,0.5221088435374149,0.5153061224489796,0.5119047619047619,0.5085034013605442,0.5085034013605442,0.5085034013605442,0.5051020408163265,0.5051020408163265,0.5051020408163265,0.5051020408163265,0.5051020408163265,0.5051020408163265,0.5051020408163265,0.5051020408163265,0.5051020408163265,0.5051020408163265,0.5017006802721088,0.5017006802721088,0.5017006802721088,0.5017006802721088,0.5017006802721088,0.5017006802721088,0.5017006802721088,0.5017006802721088,0.5017006802721088,0.5017006802721088,0.5017006802721088,0.5017006802721088,0.5051020408163265,0.5085034013605442,0.5187074829931972,0.532312925170068,0.5459183673469388,0.5629251700680272,0.576530612244898,0.5867346938775511,0.5901360544217688,0.5935374149659864,0.5935374149659864,0.5935374149659864,0.5935374149659864,0.5867346938775511,0.5799319727891157,0.576530612244898,0.576530612244898,0.576530612244898,0.576530612244898,0.576530612244898,0.576530612244898,0.576530612244898,0.576530612244898,0.576530612244898,0.576530612244898,0.576530612244898,0.576530612244898,0.576530612244898,0.576530612244898,0.576530612244898,0.576530612244898,0.576530612244898,0.576530612244898,0.576530612244898,0.576530612244898,0.576530612244898,0.576530612244898,0.576530612244898,0.576530612244898,0.576530612244898,0.576530612244898,0.576530612244898,0.576530612244898,0.576530612244898,0.576530612244898,0.576530612244898,0.576530612244898,0.576530612244898,0.576530612244898,0.576530612244898,0.576530612244898,0.576530612244898,0.576530612244898,0.576530612244898,0.576530612244898,0.576530612244898,0.576530612244898,0.576530612244898,0.576530612244898,0.576530612244898,0.576530612244898,0.576530612244898,0.576530612244898,0.576530612244898,0.576530612244898,0.576530612244898,0.576530612244898,0.576530612244898,0.576530612244898,0.576530612244898,0.5935374149659864,0.6173469387755102,0.6513605442176871,0.6819727891156463,0.7091836734693877,0.7329931972789115,0.75,0.7670068027210885,0.7772108843537415,0.7840136054421769,0.7840136054421769,0.7840136054421769,0.7840136054421769,0.7840136054421769,0.7840136054421769,0.7806122448979592,0.7772108843537415,0.7738095238095238,0.7670068027210885,0.7636054421768708,0.7602040816326531,0.7534013605442177,0.75,0.7465986394557823,0.7431972789115646,0.7431972789115646,0.7431972789115646,0.7431972789115646,0.7534013605442177,0.7636054421768708,0.7806122448979592,0.7976190476190477,0.8112244897959183,0.8282312925170068,0.8418367346938775,0.8554421768707483,0.8724489795918368,0.8792517006802721,0.8860544217687075,0.8962585034013606,0.9030612244897959,0.9098639455782312,0.9132653061224489,0.9166666666666666,0.9166666666666666,0.9200680272108843,0.9200680272108843,0.923469387755102,0.923469387755102,0.9268707482993197,0.9302721088435374,0.9336734693877551,0.9370748299319728,0.9370748299319728,0.9404761904761905,0.9404761904761905,0.9404761904761905,0.9404761904761905,0.9404761904761905,0.9404761904761905,0.9404761904761905,0.9438775510204082,0.9472789115646258,0.9574829931972789,0.967687074829932,0.9710884353741497,0.9778911564625851,0.9812925170068028,0.9846938775510204,0.9846938775510204,0.9846938775510204,0.9846938775510204,0.9846938775510204,0.9846938775510204,0.9846938775510204,0.9846938775510204,0.9846938775510204,0.9846938775510204,0.9846938775510204,0.9846938775510204,0.9846938775510204,0.9846938775510204,0.9846938775510204,0.9846938775510204,0.9846938775510204,0.9846938775510204,0.9846938775510204,0.9846938775510204,0.9846938775510204,0.9846938775510204,0.9846938775510204,0.9846938775510204,0.9846938775510204,0.9846938775510204,0.9846938775510204,0.9846938775510204,0.9846938775510204,0.9846938775510204,0.9846938775510204,0.9846938775510204,0.9846938775510204,0.9846938775510204,0.9846938775510204,0.9846938775510204,0.9846938775510204,0.9846938775510204,0.9846938775510204,0.9846938775510204,0.9846938775510204,0.9846938775510204,0.9846938775510204,0.9846938775510204,0.9846938775510204,0.9846938775510204,0.9846938775510204,0.9846938775510204,0.9846938775510204,0.9846938775510204,0.9846938775510204,0.9846938775510204,0.9846938775510204,0.9846938775510204,0.9846938775510204,0.9846938775510204,0.9846938775510204,0.9846938775510204,0.9846938775510204,0.9846938775510204,0.9846938775510204,0.9846938775510204,0.9846938775510204,0.9846938775510204,0.9846938775510204,0.9846938775510204,0.9846938775510204,0.9744897959183674,0.9574829931972789,0.9370748299319728,0.923469387755102,0.9098639455782312,0.9064625850340136,0.8996598639455783,0.8860544217687075,0.8792517006802721,0.8656462585034014,0.8350340136054422,0.7772108843537415,0.6581632653061225,0.5697278911564626,0.467687074829932,0.4098639455782313,0.3758503401360544,0.34183673469387754,0.33163265306122447,0.33163265306122447,0.33163265306122447,0.33163265306122447,0.33163265306122447,0.33163265306122447,0.33163265306122447,0.33163265306122447,0.33163265306122447,0.33163265306122447,0.33163265306122447,0.33163265306122447,0.33163265306122447,0.33163265306122447,0.33163265306122447,0.33503401360544216,0.38945578231292516,0.45068027210884354,0.5017006802721088,0.5561224489795918,0.6105442176870748,0.6377551020408163,0.6649659863945578,0.6819727891156463,0.6887755102040817,0.6955782312925171,0.6955782312925171,0.6989795918367347,0.6989795918367347,0.6989795918367347,0.7023809523809523,0.7023809523809523,0.7023809523809523,0.7023809523809523,0.70578231292517,0.70578231292517,0.7091836734693877,0.7091836734693877,0.7091836734693877,0.7125850340136054,0.7125850340136054,0.7125850340136054,0.7125850340136054,0.7125850340136054,0.7125850340136054,0.7125850340136054,0.7125850340136054,0.7125850340136054,0.7125850340136054,0.7125850340136054,0.7125850340136054,0.7125850340136054,0.7125850340136054,0.7125850340136054,0.7125850340136054,0.7125850340136054,0.7125850340136054,0.7125850340136054,0.7125850340136054,0.7125850340136054,0.7125850340136054,0.7125850340136054,0.7125850340136054,0.7125850340136054,0.7125850340136054,0.7125850340136054,0.7125850340136054,0.7125850340136054,0.7125850340136054,0.7125850340136054,0.7125850340136054,0.7125850340136054,0.7125850340136054,0.7125850340136054,0.7125850340136054,0.7125850340136054,0.7125850340136054,0.7125850340136054,0.7125850340136054,0.7125850340136054,0.7023809523809523,0.6955782312925171,0.6887755102040817,0.6785714285714286,0.6785714285714286,0.6785714285714286,0.6785714285714286,0.6785714285714286,0.6785714285714286,0.6785714285714286,0.6785714285714286,0.6785714285714286,0.6785714285714286,0.6785714285714286,0.6785714285714286,0.6785714285714286,0.6751700680272109,0.6649659863945578,0.641156462585034,0.6207482993197279,0.5935374149659864,0.5663265306122449,0.5391156462585034,0.5221088435374149,0.5051020408163265,0.4914965986394558,0.4846938775510204,0.477891156462585,0.4744897959183674,0.4710884353741497,0.4710884353741497,0.4710884353741497,0.467687074829932,0.467687074829932,0.467687074829932,0.467687074829932,0.467687074829932,0.467687074829932,0.467687074829932,0.467687074829932,0.467687074829932,0.467687074829932,0.467687074829932,0.467687074829932,0.467687074829932,0.467687074829932,0.467687074829932,0.467687074829932,0.467687074829932,0.467687074829932,0.467687074829932,0.467687074829932,0.467687074829932,0.467687074829932,0.467687074829932,0.467687074829932,0.467687074829932,0.467687074829932,0.467687074829932,0.467687074829932,0.467687074829932,0.467687074829932,0.467687074829932,0.467687074829932,0.467687074829932,0.467687074829932,0.467687074829932,0.467687074829932,0.467687074829932,0.467687074829932,0.467687074829932,0.467687074829932,0.467687074829932,0.467687074829932,0.467687074829932,0.467687074829932,0.467687074829932,0.467687074829932,0.467687074829932,0.467687074829932,0.467687074829932,0.467687074829932,0.467687074829932,0.467687074829932,0.467687074829932,0.467687074829932,0.4642857142857143,0.45408163265306123,0.45408163265306123,0.3758503401360544,0.3282312925170068,0.26360544217687076,0.21258503401360543,0.17857142857142858,0.16156462585034015,0.1445578231292517,0.13095238095238096,0.12755102040816327,0.12755102040816327,0.12755102040816327,0.12414965986394558,0.11734693877551021,0.10714285714285714,0.09693877551020408,0.08333333333333333,0.06972789115646258,0.05612244897959184,0.0391156462585034,0.02891156462585034,0.008503401360544218,-0.0017006802721088435,-0.008503401360544218,-0.015306122448979591,-0.022108843537414966,-0.025510204081632654,-0.025510204081632654,-0.025510204081632654,-0.025510204081632654,-0.025510204081632654,-0.025510204081632654,-0.025510204081632654,-0.025510204081632654,-0.025510204081632654,-0.025510204081632654,-0.025510204081632654,-0.025510204081632654,-0.025510204081632654,-0.025510204081632654,-0.025510204081632654,-0.025510204081632654,-0.025510204081632654,-0.025510204081632654,-0.025510204081632654,-0.025510204081632654,-0.025510204081632654,-0.025510204081632654,-0.025510204081632654,-0.025510204081632654,-0.022108843537414966,-0.01870748299319728,-0.01870748299319728,-0.01870748299319728,-0.01870748299319728,-0.015306122448979591,-0.015306122448979591,-0.015306122448979591,-0.015306122448979591,-0.015306122448979591,-0.015306122448979591,-0.015306122448979591,-0.015306122448979591,-0.015306122448979591,-0.015306122448979591,-0.015306122448979591,-0.015306122448979591,-0.015306122448979591,-0.015306122448979591,-0.015306122448979591,-0.015306122448979591,-0.015306122448979591,-0.015306122448979591,-0.015306122448979591,-0.015306122448979591,-0.015306122448979591,-0.015306122448979591,-0.015306122448979591,-0.015306122448979591,-0.015306122448979591,-0.015306122448979591,-0.015306122448979591,-0.015306122448979591,-0.015306122448979591,-0.015306122448979591,-0.015306122448979591,-0.015306122448979591,-0.015306122448979591,-0.015306122448979591,-0.015306122448979591,-0.015306122