[{"success":true,"trial_type":"fullscreen","trial_index":0,"time_elapsed":2484,"internal_node_id":"0.0-0.0","protocol_sum":"","subject_identifier":338,"subject_sum":[245,126,92,177,244,83,44,0,129,131,5,126,204,148,40,56,1,252,181,175,226,209,193,144,227,223,211,140,77,160,128,66],"subject_pair":169,"STUDY_ID":"66a0b3911f23dfc7665bb169","PROLIFIC_PID":"663a7dc83986ee24fb6ec0e6","SESSION_ID":"66a185380c31e132349e2dda","practice_instructions":1,"leaderboard_instructions":0,"bonus":0,"reveal_word":false,"self_rating":"5","confidence":"70"},{"view_history":"[{\"page_index\":0,\"viewing_time\":2801.7999999523163}]","rt":2802,"trial_type":"instructions","trial_index":1,"time_elapsed":5287,"internal_node_id":"0.0-1.0","protocol_sum":"","subject_identifier":338,"subject_sum":[245,126,92,177,244,83,44,0,129,131,5,126,204,148,40,56,1,252,181,175,226,209,193,144,227,223,211,140,77,160,128,66],"subject_pair":169,"STUDY_ID":"66a0b3911f23dfc7665bb169","PROLIFIC_PID":"663a7dc83986ee24fb6ec0e6","SESSION_ID":"66a185380c31e132349e2dda","practice_instructions":1,"leaderboard_instructions":0,"bonus":0,"reveal_word":false,"self_rating":"5","confidence":"70"},{"view_history":"[{\"page_index\":0,\"viewing_time\":16969.200000047684}]","rt":16969.5,"trial_type":"instructions","trial_index":2,"time_elapsed":22257,"internal_node_id":"0.0-2.0-0.0","protocol_sum":"","subject_identifier":338,"subject_sum":[245,126,92,177,244,83,44,0,129,131,5,126,204,148,40,56,1,252,181,175,226,209,193,144,227,223,211,140,77,160,128,66],"subject_pair":169,"STUDY_ID":"66a0b3911f23dfc7665bb169","PROLIFIC_PID":"663a7dc83986ee24fb6ec0e6","SESSION_ID":"66a185380c31e132349e2dda","practice_instructions":1,"leaderboard_instructions":0,"bonus":0,"reveal_word":false,"self_rating":"5","confidence":"70"},{"rt":8502.900000095367,"responses":"{\"Q0\":\"... reveal the word with as <b>few letter guesses</b> as possible\"}","question_order":"[0]","trial_type":"survey-multi-choice","trial_index":3,"time_elapsed":30761,"internal_node_id":"0.0-2.0-1.0","protocol_sum":"","subject_identifier":338,"subject_sum":[245,126,92,177,244,83,44,0,129,131,5,126,204,148,40,56,1,252,181,175,226,209,193,144,227,223,211,140,77,160,128,66],"subject_pair":169,"correct":true,"test_part":"multichoice_nonpretend","STUDY_ID":"66a0b3911f23dfc7665bb169","PROLIFIC_PID":"663a7dc83986ee24fb6ec0e6","SESSION_ID":"66a185380c31e132349e2dda","practice_instructions":1,"leaderboard_instructions":0,"bonus":0,"reveal_word":false,"self_rating":"5","confidence":"70"},{"view_history":"[{\"page_index\":0,\"viewing_time\":1920.7999999523163}]","rt":1920.8999999761581,"trial_type":"instructions","trial_index":4,"time_elapsed":32683,"internal_node_id":"0.0-3.0","protocol_sum":"","subject_identifier":338,"subject_sum":[245,126,92,177,244,83,44,0,129,131,5,126,204,148,40,56,1,252,181,175,226,209,193,144,227,223,211,140,77,160,128,66],"subject_pair":169,"STUDY_ID":"66a0b3911f23dfc7665bb169","PROLIFIC_PID":"663a7dc83986ee24fb6ec0e6","SESSION_ID":"66a185380c31e132349e2dda","practice_instructions":1,"leaderboard_instructions":0,"bonus":0,"reveal_word":false,"self_rating":"5","confidence":"70"},{"word":"ZEBRA","click_log":{"letter":["","E","M","T","S","B","F","G","L","K","W","P","N","C","D","A","Z","R"],"t":[0,6416.600000023842,11055.399999976158,13500.100000023842,15213.299999952316,17314.299999952316,21905.100000023842,22838.100000023842,25303.899999976158,27074.399999976158,28935.399999976158,30364.699999928474,31341.299999952316,32849.699999928474,33464.10000002384,34459.60000002384,38021.89999997616,39208.60000002384],"hit":[null,1,0,0,0,1,0,0,0,0,0,0,0,0,0,1,1,1],"asked":["","E","EM","EMT","EMTS","EMTSB","EMTSBF","EMTSBFG","EMTSBFGL","EMTSBFGLK","EMTSBFGLKW","EMTSBFGLKWP","EMTSBFGLKWPN","EMTSBFGLKWPNC","EMTSBFGLKWPNCD","EMTSBFGLKWPNCDA","EMTSBFGLKWPNCDAZ","EMTSBFGLKWPNCDAZR"],"word_state":["_____","_E___","_E___","_E___","_E___","_EB__","_EB__","_EB__","_EB__","_EB__","_EB__","_EB__","_EB__","_EB__","_EB__","_EB_A","ZEB_A","ZEBRA"]},"hover_log":{"letter":["?","?","?","?","?","?","?","?","?","?","?","?","?","?","?","?","?","?","?","?","?","?","?","?","?","?","?","?","?","?","?","?","K","K","?","A","?","?","?","?","?","?","?","?","?","?","?","?","?","?","?","?","?","?","?","?","?","?","?","?","?","?","?","?","?","?","?","?","?","?","?","?","?","?","?","?","?","?","?","?","?","?","?","?","?","?","?","?","?","?","?","?","?","?","?","?","?","?","?","?","?","?","?","?","?","?","?","?","?","?","?","?","?","?","?","?","?","?","?","?","?","?","?","?","?","?","?","?","?","?","?","?","?","?","?","?","?","?","?","?","?","?","?","?","?","?","?","?","?","?","?","?","?","?","E","E","E","E","E","E","E","E","E","E","E","E","E","E","E","E","E","E","E","?","?","?","?","?","?","?","?","?","?","?","?","?","?","?","?","?","?","?","?","?","?","?","?","?","?","?","?","?","?","?","?","?","?","?","?","?","?","?","?","?","?","?","?","?","?","?","?","D","D","D","?","?","?","?","?","?","?","?","?","?","?","?","?","?","?","?","?","?","?","?","?","?","?","?","?","?","?","?","?","D","D","D","D","D","D","D","D","D","D","D","D","D","D","D","D","D","D","D","D","D","D","D","D","?","?","?","?","?","?","?","?","?","?","?","?","?","?","?","?","?","?","?","?","?","?","O","?","?","N","N","N","N","N","?","?","?","?","?","?","?","?","?","?","?","?","?","?","?","?","?","?","?","?","?","?","?","?","?","?","?","?","?","?","?","?","?","?","?","?","D","D","D","D","D","D","D","D","D","D","D","D","D","D","D","D","D","D","D","?","E","E","E","E","E","E","E","E","E","E","E","E","E","E","E","E","E","E","E","E","E","E","E","E","E","E","E","E","E","E","E","E","E","E","E","E","E","E","E","E","E","E","E","E","E","E","E","E","E","E","E","E","E","E","E","E","E","D","?","?","?","?","?","?","?","?","?","?","?","?","?","?","?","?","?","?","?","B","C","M","?","?","?","?","?","?","?","?","?","?","?","?","?","?","?","?","?","?","?","W","X","X","X","?","?","?","?","?","?","?","?","?","?","?","?","?","?","?","?","?","?","?","?","?","?","?","?","?","?","?","?","?","?","?","?","?","?","?","?","?","?","?","?","?","N","D","C","C","?","?","?","?","?","?","?","?","?","?","?","?","?","?","?","?","?","?","?","?","D","D","?","E","?","?","?","?","?","?","?","?","?","?","?","?","?","?","?","?","O","O","?","?","?","Z","Z","Z","Z","Z","Z","Z","Z","Z","Z","Z","Z","Z","Z","Z","Z","?","?","?","?","?","?","?","?","?","?","?","?","?","?","?","?","?","?","?","Q","Q","Q","Q","Q","Q","Q","Q","Q","Q","Q","Q","Q","Q","Q","Q","Q","Q","Q","Q","Q","Q","Q","Q","Q","?","?","P","P","P","P","?","?","O","O","O","O","O","O","O","O","O","O","O","O","O","O","O","O","O","O","O","?","N","N","N","N","?","?","?","M","M","M","M","M","M","M","M","M","M","M","M","M","M","M","M","M","M","M","M","M","M","M","M","M","M","M","M","M","M","M","M","M","M","M","M","M","M","M","M","M","?","?","?","?","W","W","W","W","W","W","W","W","W","W","W","W","W","W","W","W","W","W","W","W","W","?","M","?","A","A","?","?","?","?","?","?","?","?","?","?","?","?","?","?","?","?","?","?","A","?","?","?","?","?","?","K","K","K","K","K","K","K","K","K","K","K","K","K","K","K","K","K","K","K","?","?","?","?","?","?","?","?","?","?","?","?","?","?","?","?","?","?","?","?","?","?","?","?","?","?","?","?","?","?","?","?","?","?","?","?","?","?","?","T","T","T","T","T","T","T","T","T","T","T","T","T","T","T","T","T","T","T","T","T","T","T","T","T","T","T","T","T","T","T","T","T","T","T","T","T","T","T","T","T","T","T","T","T","T","T","T","T","T","T","T","T","T","T","T","T","T","T","?","?","?","?","?","?","?","?","?","?","?","?","?","?","?","?","?","T","T","T","T","T","T","T","?","?","?","?","?","?","?","?","?","?","?","S","S","S","S","S","S","S","S","S","S","S","S","S","S","S","S","S","S","S","S","S","S","S","S","S","S","S","S","S","S","S","S","S","S","S","S","S","S","S","S","S","S","S","?","?","?","?","?","?","?","?","?","?","?","?","?","?","?","?","?","?","?","?","?","?","?","?","?","?","?","?","?","?","?","?","?","?","?","?","?","?","?","?","?","?","?","?","?","?","?","?","?","L","?","?","?","?","?","?","?","?","?","?","?","?","?","?","?","?","?","?","?","?","?","?","?","?","?","?","?","?","?","?","?","?","B","B","B","B","B","B","B","B","B","B","B","B","B","B","B","B","B","B","B","B","B","B","B","B","B","B","B","B","B","B","B","B","B","B","B","B","B","B","B","B","B","B","B","B","B","B","B","B","B","B","B","?","?","?","L","?","?","?","V","V","V","V","V","V","V","V","V","V","V","V","V","V","V","V","V","V","V","V","V","V","V","?","?","L","?","?","B","B","?","?","?","?","?","?","?","?","?","?","?","?","?","?","?","?","?","?","?","?","?","?","?","?","?","?","?","?","?","?","?","?","?","B","B","B","B","?","C","C","C","C","C","C","C","C","C","C","C","C","C","C","C","C","C","C","C","C","C","C","C","C","C","C","C","C","C","C","C","C","C","C","?","?","?","?","?","?","?","?","?","?","?","?","?","?","?","?","?","?","?","?","?","?","?","?","D","D","D","?","?","?","E","E","E","E","E","E","E","E","E","E","E","E","E","E","E","E","E","E","E","E","E","E","E","?","?","?","?","?","?","?","?","?","?","?","?","?","?","?","?","?","?","?","?","?","?","?","?","?","?","?","?","?","?","?","?","?","?","?","?","?","?","F","F","F","F","F","F","F","?","?","?","G","G","G","G","G","G","G","G","G","G","?","F","F","F","F","F","F","F","F","F","F","F","F","F","F","F","F","F","F","F","F","F","F","F","F","F","F","F","F","F","F","F","F","F","F","F","F","F","F","F","F","F","F","F","F","F","F","F","F","F","?","?","G","G","G","G","G","G","G","G","G","G","G","G","G","G","G","G","G","G","G","G","G","G","G","G","G","G","G","G","G","G","G","G","G","G","G","G","G","G","G","G","G","G","G","G","G","G","G","G","G","G","G","G","G","G","?","?","?","?","?","P","P","P","P","P","P","P","P","P","P","P","P","P","P","P","P","P","P","P","P","?","?","?","D","D","D","D","D","D","D","D","D","D","D","D","D","D","D","D","D","D","D","D","?","?","?","?","?","?","?","?","?","?","?","?","?","?","?","?","?","?","?","?","?","?","?","?","?","?","?","?","?","?","?","?","?","?","?","?","?","?","?","?","?","?","?","?","?","?","?","?","?","?","?","?","?","?","?","?","L","L","L","L","L","L","L","L","L","L","L","L","L","L","L","L","L","L","L","L","L","L","L","L","L","L","L","L","L","L","L","L","L","L","L","L","L","L","L","L","L","L","L","L","L","L","L","L","L","L","L","L","L","L","L","L","L","?","?","?","?","?","?","?","?","?","?","?","?","?","?","?","?","?","?","?","K","K","K","K","K","K","K","K","K","K","K","K","K","K","K","K","K","K","K","K","K","K","K","K","K","K","K","K","K","K","K","K","K","K","K","K","K","K","K","K","K","K","K","K","K","K","K","K","K","K","K","K","K","K","K","K","K","K","K","K","K","K","K","K","K","K","K","?","?","?","?","?","?","?","?","?","?","?","?","?","?","?","?","?","?","?","?","?","?","?","?","?","?","?","?","V","V","V","V","V","V","V","V","V","V","?","?","?","W","W","W","W","W","W","?","?","?","?","?","?","?","?","?","?","?","?","?","?","?","?","?","?","?","?","?","?","?","?","?","?","?","W","W","W","W","W","W","W","W","W","W","W","W","W","W","W","W","W","W","W","W","W","W","W","W","W","W","W","W","W","W","W","W","W","W","W","W","W","W","W","W","W","W","W","X","X","X","X","X","X","?","?","Y","Y","Y","Y","Y","Y","Y","Y","Y","Y","Y","Y","Y","Y","?","?","?","?","?","?","?","?","?","?","?","?","?","?","?","?","?","?","?","?","?","P","P","P","P","P","P","P","P","P","P","P","P","P","P","P","P","P","P","P","P","P","P","P","P","P","P","P","P","P","P","P","P","P","P","P","P","P","P","P","P","P","P","P","P","P","P","P","P","O","O","O","O","O","O","O","?","?","?","?","N","N","N","N","N","N","N","N","N","N","N","N","N","N","N","N","N","N","N","N","N","N","N","N","N","N","N","N","N","N","N","N","N","N","N","N","N","?","?","?","?","?","?","?","?","?","?","?","?","?","?","?","?","?","?","?","?","?","?","?","?","?","?","?","?","?","?","?","?","?","?","?","?","?","?","C","C","C","C","C","C","C","C","C","C","C","C","C","C","C","C","C","C","C","C","C","C","C","C","C","C","C","C","C","C","C","C","C","C","C","C","C","C","C","C","C","C","C","C","C","C","C","C","C","C","C","?","D","D","D","D","D","D","D","D","D","D","D","D","D","D","D","D","D","D","D","D","D","D","D","D","D","D","D","D","D","D","D","D","?","C","?","B","B","B","B","B","B","B","B","B","B","B","B","B","B","B","B","B","B","B","B","B","B","B","B","?","A","A","A","A","A","A","A","A","A","A","A","A","A","A","A","A","A","A","A","A","A","A","A","A","A","A","A","A","A","A","A","A","A","A","A","A","A","A","A","A","A","A","A","A","A","A","A","A","A","A","A","A","A","?","?","?","?","?","?","?","?","?","?","?","?","?","?","?","?","?","?","?","A","A","A","A","A","A","A","A","A","A","A","A","?","?","?","?","?","?","?","?","?","?","?","?","?","?","A","A","A","A","?","?","?","?","K","?","?","L","L","L","?","?","?","?","?","?","?","?","?","?","?","?","?","?","?","L","L","L","L","L","L","L","L","L","L","L","L","L","?","?","?","?","?","?","?","?","?","?","?","?","?","?","?","?","?","?","?","?","?","?","?","?","?","?","?","?","?","?","?","?","?","X","X","X","?","Y","Y","Y","Y","Y","Y","Y","Y","Y","?","Z","Z","Z","Z","Z","Z","Z","Z","Z","Z","Z","Z","Z","Z","Z","Z","Z","Z","Z","Z","Z","Z","Z","Z","Z","Z","Z","Z","Z","Z","Z","Z","Z","Z","Z","Z","Z","Z","Z","Z","Z","Z","Z","Z","Z","Z","Z","Z","Z","Z","Z","Z","Z","Z","Z","Z","Z","Z","Z","Z","Z","Z","Z","Z","Z","Z","Z","Z","Z","?","P","?","?","O","O","O","O","O","O","O","O","O","?","?","?","P","P","P","?","?","Q","Q","Q","Q","?","R","R","R","R","R","R","R","R","R","R","R","R","R","R","R","R","R","R","R","R","R","R","R","R","R","R","R","R","R","R","R","R","R","R","R","R","R","R","R","R","R","R","R","R","R","R","R","R","R","R","R","?","?","G","?","?","?","?","?","?","?","?","?","?","?","?","?","?","?","?","?","?","?","?","?","?","?","?","?","?","?","?","?","?","?","?","?","?","?","?","?","?","?","?","?","?","?","?","?","?","?","?","?","?","?","?","?","?","?","?","?","?","?","?","?","?","?","?","?","?","?","?","?","?","?","?","?","?","?","?","?","?","?","?","?","?","?","?","?"],"t":[31,42,66,82,98,115,132,148,166,182,198,215,232,248,265,282,299,315,332,348,365,381,398,414,431,449,465,481,498,514,531,548,566,582,598,615,632,648,665,682,698,715,732,748,765,781,798,814,831,847,864,881,897,914,931,948,964,981,998,1015,1031,1048,1065,1081,1097,1114,1130,1148,1164,1180,1197,1214,1230,1247,1264,1280,1297,1314,1331,1347,1364,1380,1398,1414,1431,1447,1464,1480,1496,1513,1530,1547,1563,1580,1596,1613,1630,1646,1663,1680,1697,1713,1730,1747,1763,1780,1797,1813,1830,1846,1863,1879,1896,1913,1930,1946,1963,1980,1996,2013,2030,2046,2063,2080,2096,2112,2130,2146,2163,2180,2196,2212,2230,2245,2262,2279,2295,2313,2329,2345,2362,2379,2396,2413,2429,2446,2463,2479,2495,2512,2529,2545,2563,2579,2596,2613,2629,2645,2662,2678,2695,2712,2728,2746,2762,2779,2795,2814,2828,2845,2862,2879,2896,2912,2929,2946,2962,2979,2996,3011,3028,3045,3061,3077,3094,3111,3128,3144,3161,3177,3194,3211,3227,3244,3261,3277,3294,3311,3328,3344,3361,3378,3394,3411,3428,3444,3461,3478,3493,3511,3528,3544,3560,3577,3594,3610,3627,3643,3660,3677,3694,3711,3727,3744,3761,3777,3794,3811,3827,3844,3861,3877,3894,3910,3926,3943,3960,3976,3993,4010,4027,4043,4059,4076,4093,4109,4126,4143,4160,4177,4194,4210,4226,4246,4260,4276,4293,4310,4326,4343,4360,4375,4393,4410,4426,4443,4459,4476,4492,4509,4526,4543,4559,4577,4593,4609,4627,4643,4659,4676,4693,4709,4727,4743,4759,4776,4793,4809,4826,4842,4859,4876,4892,4909,4926,4942,4959,4976,4993,5009,5026,5042,5060,5076,5092,5109,5125,5142,5159,5175,5192,5209,5225,5242,5259,5275,5292,5309,5325,5341,5359,5375,5391,5409,5425,5441,5458,5474,5491,5507,5524,5542,5558,5575,5592,5608,5625,5642,5658,5677,5692,5708,5725,5742,5758,5775,5791,5808,5825,5842,5858,5875,5891,5907,5924,5941,5957,5974,5991,6008,6025,6041,6058,6075,6091,6108,6125,6141,6158,6175,6191,6207,6224,6240,6257,6274,6290,6307,6324,6341,6357,6373,6390,6407,6425,6441,6458,6474,6490,6507,6524,6540,6558,6573,6590,6607,6624,6640,6657,6674,6690,6707,6723,6740,6757,6773,6790,6806,6823,6840,6856,6873,6890,6906,6923,6940,6956,6973,6991,7007,7023,7041,7056,7073,7092,7106,7123,7140,7156,7172,7190,7206,7223,7239,7256,7272,7289,7306,7323,7339,7356,7373,7389,7406,7423,7439,7456,7472,7489,7505,7523,7539,7555,7573,7589,7605,7622,7638,7655,7672,7689,7706,7723,7739,7756,7772,7789,7806,7822,7839,7856,7872,7888,7906,7922,7939,7956,7972,7989,8005,8022,8039,8055,8072,8089,8105,8122,8139,8155,8172,8189,8205,8221,8238,8254,8271,8288,8304,8321,8338,8354,8371,8388,8404,8421,8439,8455,8471,8491,8505,8522,8538,8554,8572,8588,8604,8620,8637,8654,8671,8687,8704,8721,8737,8754,8771,8787,8804,8822,8837,8854,8871,8888,8905,8921,8937,8954,8971,8987,9004,9021,9037,9053,9070,9087,9104,9120,9137,9154,9170,9187,9204,9220,9237,9255,9270,9287,9304,9320,9337,9353,9370,9386,9404,9420,9436,9453,9470,9486,9503,9520,9537,9554,9570,9587,9604,9621,9637,9654,9671,9688,9704,9721,9737,9753,9770,9787,9803,9820,9836,9853,9870,9889,9903,9920,9936,9953,9970,9986,10003,10020,10036,10053,10069,10085,10102,10119,10135,10152,10169,10185,10202,10218,10235,10252,10269,10286,10303,10319,10336,10353,10369,10386,10403,10419,10436,10453,10469,10485,10502,10519,10535,10552,10568,10585,10602,10618,10635,10652,10668,10685,10702,10719,10735,10752,10769,10786,10802,10818,10835,10852,10868,10885,10901,10918,10934,10951,10967,10984,11001,11018,11035,11051,11068,11085,11102,11118,11135,11151,11168,11184,11201,11217,11234,11251,11267,11285,11301,11317,11334,11350,11367,11384,11400,11417,11434,11450,11467,11484,11500,11518,11534,11551,11568,11584,11601,11617,11634,11651,11667,11684,11700,11717,11733,11750,11767,11784,11800,11817,11834,11850,11867,11883,11900,11917,11934,11951,11967,11984,12001,12017,12033,12051,12067,12083,12100,12117,12133,12150,12166,12183,12200,12216,12233,12249,12266,12284,12300,12317,12334,12350,12366,12384,12400,12416,12433,12449,12466,12483,12499,12515,12533,12549,12566,12582,12599,12616,12633,12649,12666,12685,12699,12717,12732,12749,12766,12782,12799,12816,12832,12849,12866,12883,12899,12916,12932,12948,12966,12982,12999,13015,13032,13049,13065,13082,13099,13115,13132,13149,13165,13182,13199,13215,13231,13248,13265,13281,13299,13315,13332,13349,13365,13382,13399,13415,13432,13449,13465,13482,13499,13516,13532,13548,13564,13582,13598,13614,13631,13648,13664,13681,13698,13715,13732,13749,13764,13782,13798,13814,13831,13849,13865,13881,13897,13915,13931,13947,13964,13982,13998,14015,14031,14047,14065,14083,14097,14114,14130,14147,14164,14180,14197,14214,14231,14247,14264,14281,14298,14315,14331,14348,14364,14381,14398,14414,14431,14448,14464,14480,14497,14513,14530,14547,14563,14580,14597,14613,14630,14647,14663,14680,14697,14714,14731,14747,14764,14781,14797,14813,14830,14847,14863,14881,14897,14914,14931,14947,14963,14980,14997,15013,15030,15046,15062,15080,15096,15112,15129,15146,15162,15179,15196,15213,15230,15246,15262,15279,15296,15312,15329,15346,15363,15379,15396,15412,15429,15445,15463,15479,15498,15512,15529,15545,15562,15579,15595,15612,15629,15646,15663,15679,15696,15712,15729,15747,15762,15779,15796,15812,15829,15845,15861,15878,15895,15911,15928,15946,15962,15978,15994,16012,16028,16045,16062,16079,16096,16112,16129,16145,16162,16179,16195,16212,16228,16244,16261,16278,16294,16311,16328,16344,16361,16378,16394,16411,16428,16445,16461,16479,16494,16511,16528,16545,16562,16578,16595,16612,16628,16644,16661,16677,16694,16711,16727,16744,16761,16777,16794,16811,16827,16843,16862,16877,16894,16912,16927,16944,16961,16977,16994,17011,17027,17045,17061,17077,17094,17111,17127,17143,17160,17177,17193,17210,17226,17243,17259,17276,17294,17310,17327,17344,17360,17376,17393,17410,17426,17443,17460,17476,17493,17510,17526,17543,17560,17576,17593,17609,17626,17643,17659,17676,17693,17709,17726,17742,17759,17777,17792,17809,17826,17843,17859,17876,17892,17910,17926,17943,17960,17976,17993,18010,18026,18043,18060,18076,18093,18110,18126,18142,18159,18175,18192,18209,18225,18242,18259,18275,18294,18309,18325,18342,18359,18375,18392,18409,18426,18443,18459,18475,18493,18509,18526,18543,18559,18575,18592,18608,18625,18642,18658,18675,18692,18708,18725,18742,18758,18775,18791,18808,18824,18841,18858,18874,18892,18908,18925,18941,18958,18975,18991,19007,19024,19041,19058,19075,19091,19108,19126,19141,19158,19175,19191,19208,19225,19241,19257,19274,19291,19307,19324,19341,19357,19374,19390,19407,19423,19441,19457,19474,19491,19508,19524,19541,19558,19574,19591,19608,19624,19640,19657,19674,19693,19708,19724,19741,19757,19774,19791,19807,19824,19840,19857,19873,19890,19906,19924,19940,19956,19973,19990,20007,20023,20039,20057,20074,20090,20107,20124,20140,20157,20174,20190,20207,20224,20240,20257,20274,20290,20307,20324,20340,20357,20373,20390,20406,20423,20440,20456,20474,20490,20506,20523,20539,20556,20573,20590,20606,20623,20639,20655,20673,20689,20706,20722,20739,20756,20772,20789,20806,20822,20838,20856,20872,20889,20906,20923,20939,20956,20972,20989,21006,21022,21039,21055,21075,21089,21105,21122,21139,21156,21172,21189,21206,21222,21239,21255,21272,21289,21305,21322,21339,21355,21372,21389,21405,21422,21439,21455,21471,21488,21505,21521,21538,21554,21572,21588,21605,21622,21638,21655,21672,21688,21705,21721,21738,21754,21772,21788,21804,21821,21838,21854,21871,21888,21904,21922,21937,21954,21971,21987,22004,22021,22037,22054,22070,22087,22104,22120,22137,22154,22170,22187,22204,22220,22237,22254,22270,22287,22303,22320,22337,22354,22370,22387,22404,22421,22440,22454,22471,22488,22504,22521,22538,22554,22570,22587,22603,22620,22637,22653,22669,22687,22703,22720,22737,22753,22770,22787,22803,22819,22836,22853,22870,22886,22903,22920,22936,22953,22969,22986,23003,23019,23036,23053,23069,23087,23102,23120,23136,23152,23169,23186,23202,23219,23236,23253,23270,23286,23303,23319,23336,23353,23370,23386,23403,23419,23436,23453,23469,23486,23503,23519,23535,23552,23569,23585,23603,23618,23635,23652,23668,23685,23702,23719,23736,23752,23769,23786,23802,23819,23838,23852,23869,23885,23902,23918,23935,23952,23968,23985,24001,24018,24035,24051,24068,24085,24101,24119,24135,24152,24169,24185,24202,24219,24235,24252,24269,24285,24302,24319,24335,24351,24369,24385,24401,24418,24434,24451,24468,24484,24501,24518,24534,24551,24568,24584,24600,24617,24634,24651,24667,24684,24700,24717,24734,24750,24767,24784,24801,24817,24834,24851,24867,24884,24901,24917,24934,24950,24967,24984,25000,25018,25033,25051,25067,25084,25101,25117,25134,25151,25167,25183,25200,25217,25236,25250,25267,25284,25300,25317,25333,25350,25366,25384,25400,25416,25434,25450,25466,25484,25500,25516,25533,25550,25566,25583,25599,25616,25633,25649,25666,25683,25699,25717,25733,25750,25766,25782,25799,25817,25833,25849,25866,25883,25899,25917,25933,25950,25967,25983,26000,26017,26033,26050,26066,26082,26099,26116,26132,26149,26166,26182,26199,26215,26232,26249,26265,26282,26299,26315,26332,26350,26366,26382,26399,26415,26432,26449,26466,26482,26499,26516,26533,26549,26565,26585,26599,26615,26631,26648,26665,26681,26698,26714,26732,26748,26765,26782,26798,26815,26832,26848,26864,26881,26898,26914,26932,26948,26964,26981,26998,27015,27031,27048,27065,27082,27097,27115,27131,27148,27165,27181,27197,27214,27231,27248,27265,27281,27297,27314,27331,27347,27364,27381,27398,27414,27431,27448,27464,27481,27498,27514,27531,27548,27564,27580,27597,27613,27630,27648,27663,27680,27697,27714,27731,27748,27764,27781,27797,27814,27831,27847,27864,27881,27897,27914,27931,27947,27966,27981,27997,28014,28031,28047,28064,28081,28097,28113,28131,28147,28163,28180,28197,28213,28230,28247,28264,28280,28297,28313,28329,28346,28363,28379,28396,28413,28429,28446,28463,28479,28496,28513,28529,28546,28563,28580,28597,28612,28629,28646,28663,28679,28696,28713,28729,28746,28763,28779,28796,28812,28829,28845,28862,28880,28896,28913,28929,28946,28962,28978,28996,29012,29028,29046,29062,29079,29096,29112,29129,29145,29162,29178,29195,29212,29228,29245,29262,29278,29295,29311,29328,29348,29362,29379,29395,29412,29429,29445,29462,29479,29495,29512,29529,29545,29562,29578,29595,29612,29628,29645,29662,29678,29695,29712,29728,29745,29762,29778,29795,29812,29828,29845,29861,29878,29894,29911,29928,29944,29961,29978,29994,30011,30027,30044,30061,30078,30095,30111,30128,30145,30161,30178,30195,30211,30227,30244,30260,30277,30294,30310,30327,30345,30360,30378,30394,30411,30427,30444,30460,30477,30493,30510,30526,30544,30560,30576,30593,30610,30626,30643,30660,30676,30693,30713,30727,30743,30760,30777,30793,30809,30827,30843,30860,30877,30893,30910,30927,30943,30960,30977,30993,31010,31027,31043,31060,31077,31093,31110,31126,31143,31160,31176,31192,31210,31226,31242,31260,31276,31292,31310,31326,31343,31360,31376,31392,31409,31426,31443,31459,31476,31492,31509,31526,31542,31559,31576,31592,31609,31625,31642,31658,31675,31693,31709,31726,31743,31759,31776,31793,31809,31826,31843,31858,31875,31892,31909,31925,31941,31958,31975,31991,32008,32025,32042,32059,32078,32092,32108,32126,32142,32158,32176,32192,32209,32225,32241,32258,32276,32292,32309,32325,32342,32359,32375,32392,32409,32424,32441,32458,32475,32491,32508,32525,32541,32558,32574,32591,32608,32625,32641,32658,32674,32691,32708,32724,32741,32757,32774,32790,32807,32824,32841,32858,32874,32891,32907,32924,32941,32957,32974,32990,33007,33024,33041,33057,33073,33091,33107,33123,33141,33157,33174,33191,33207,33224,33241,33257,33274,33290,33307,33324,33340,33357,33373,33390,33407,33423,33440,33459,33473,33489,33506,33524,33539,33556,33574,33589,33606,33622,33640,33657,33674,33690,33706,33723,33740,33757,33773,33790,33807,33823,33840,33857,33873,33889,33906,33923,33940,33956,33972,33989,34007,34022,34039,34057,34072,34089,34106,34123,34140,34156,34173,34190,34206,34223,34240,34256,34273,34289,34305,34322,34339,34355,34371,34389,34405,34422,34439,34456,34472,34489,34505,34522,34539,34555,34573,34589,34605,34621,34639,34655,34671,34688,34705,34722,34738,34755,34772,34788,34805,34822,34841,34855,34872,34888,34905,34922,34938,34955,34972,34988,35004,35022,35039,35055,35072,35088,35105,35122,35138,35155,35172,35188,35205,35221,35238,35255,35271,35288,35305,35321,35337,35355,35371,35388,35405,35421,35438,35455,35471,35488,35505,35521,35538,35554,35571,35588,35604,35621,35638,35654,35671,35688,35704,35720,35737,35753,35770,35788,35803,35820,35838,35854,35871,35887,35904,35921,35938,35954,35971,35987,36003,36021,36037,36054,36071,36087,36104,36120,36136,36153,36172,36187,36203,36220,36236,36253,36269,36286,36303,36320,36337,36353,36370,36387,36403,36420,36437,36453,36470,36487,36504,36520,36536,36553,36569,36586,36603,36619,36636,36653,36669,36686,36703,36719,36736,36753,36769,36786,36803,36819,36836,36853,36869,36886,36903,36919,36935,36952,36968,36985,37002,37019,37035,37052,37069,37086,37102,37119,37136,37152,37169,37186,37202,37219,37236,37252,37269,37285,37302,37320,37335,37352,37369,37385,37402,37419,37435,37451,37468,37485,37504,37518,37535,37551,37568,37585,37601,37618,37635,37651,37668,37685,37701,37718,37735,37752,37768,37785,37802,37818,37835,37851,37868,37884,37901,37917,37934,37951,37967,37985,38001,38017,38034,38051,38068,38084,38101,38118,38134,38151,38168,38184,38200,38217,38234,38251,38267,38284,38301,38317,38334,38350,38367,38384,38400,38417,38434,38450,38467,38484,38501,38517,38534,38551,38567,38584,38601,38617,38634,38650,38667,38684,38700,38718,38734,38751,38768,38784,38800,38817,38834,38853,38867,38883,38900,38918,38933,38950,38967,38983,39000,39017,39033,39050,39067,39083,39099,39116,39133,39149,39166,39183,39201,39219,39233,39250,39267,39283,39300,39317,39333,39350,39366,39383,39399,39416,39433,39450,39466,39483,39500,39516,39532,39549,39566,39582,39599,39616,39632,39649,39666,39682,39699,39716,39733,39749,39766,39783,39799,39816,39833,39849,39866,39882,39898,39915,39933,39949,39965,39982,39999,40015,40032,40049,40065,40082,40098,40115,40132,40148,40167,40182,40198,40215,40231,40248,40265,40281,40298,40315,40331,40348,40365,40382,40398,40414,40432,40448,40465,40481,40498,40514,40531,40548,40565,40581,40598,40615,40631,40648,40665,40681,40698,40715,40731,40748,40764,40781,40797,40814,40830,40848,40864,40880,40897,40914,40930,40947,40964,40980,40997,41014,41030,41047,41064,41080,41097,41114,41130,41147,41164,41180,41197,41215],"hit":[null],"x":[-1.6054421768707483,-1.6054421768707483,-1.6054421768707483,-1.6054421768707483,-1.6054421768707483,-1.6054421768707483,-1.6054421768707483,-1.6054421768707483,-1.6054421768707483,-1.6054421768707483,-1.6054421768707483,-1.6054421768707483,-1.6054421768707483,-1.6054421768707483,-1.6054421768707483,-1.6054421768707483,-1.6054421768707483,-1.6054421768707483,-1.6054421768707483,-1.6054421768707483,-1.6054421768707483,-1.6054421768707483,-1.6054421768707483,-1.6054421768707483,-1.6054421768707483,-1.6054421768707483,-1.6054421768707483,-1.6054421768707483,-1.6054421768707483,-1.6054421768707483,-1.6054421768707483,-1.6054421768707483,0.10884353741496598,0.10884353741496598,0.10204081632653061,0.034013605442176874,-0.017006802721088437,-0.10884353741496598,-0.17346938775510204,-0.19047619047619047,-0.22789115646258504,-0.2619047619047619,-0.2687074829931973,-0.2857142857142857,-0.2891156462585034,-0.2891156462585034,-0.2891156462585034,-0.2891156462585034,-0.2891156462585034,-0.2891156462585034,-0.2891156462585034,-0.2891156462585034,-0.2891156462585034,-0.2891156462585034,-0.2891156462585034,-0.2789115646258503,-0.2585034013605442,-0.18027210884353742,-0.034013605442176874,0.034013605442176874,0.1360544217687075,0.22789115646258504,0.2585034013605442,0.2925170068027211,0.30272108843537415,0.30272108843537415,0.30272108843537415,0.30272108843537415,0.30272108843537415,0.30272108843537415,0.30272108843537415,0.30272108843537415,0.30272108843537415,0.30272108843537415,0.30272108843537415,0.30272108843537415,0.30272108843537415,0.30952380952380953,0.336734693877551,0.36054421768707484,0.41496598639455784,0.47619047619047616,0.5170068027210885,0.5340136054421769,0.5578231292517006,0.5612244897959183,0.5680272108843537,0.5680272108843537,0.5680272108843537,0.5680272108843537,0.5680272108843537,0.5680272108843537,0.5680272108843537,0.5680272108843537,0.5680272108843537,0.5680272108843537,0.5680272108843537,0.5680272108843537,0.5680272108843537,0.5680272108843537,0.5578231292517006,0.5272108843537415,0.4897959183673469,0.47619047619047616,0.46258503401360546,0.45918367346938777,0.4523809523809524,0.4523809523809524,0.4523809523809524,0.4523809523809524,0.4489795918367347,0.4489795918367347,0.4489795918367347,0.4489795918367347,0.4489795918367347,0.445578231292517,0.445578231292517,0.445578231292517,0.445578231292517,0.4421768707482993,0.4421768707482993,0.43197278911564624,0.41836734693877553,0.41156462585034015,0.3945578231292517,0.3843537414965986,0.37755102040816324,0.36054421768707484,0.3469387755102041,0.3401360544217687,0.3333333333333333,0.3299319727891156,0.3231292517006803,0.3231292517006803,0.3197278911564626,0.3197278911564626,0.3197278911564626,0.3197278911564626,0.3197278911564626,0.3197278911564626,0.3197278911564626,0.3197278911564626,0.3231292517006803,0.32653061224489793,0.3401360544217687,0.36394557823129253,0.3707482993197279,0.4013605442176871,0.43537414965986393,0.4523809523809524,0.48299319727891155,0.5068027210884354,0.5170068027210885,0.54421768707483,0.5544217687074829,0.5612244897959183,0.5714285714285714,0.5714285714285714,0.5714285714285714,0.5714285714285714,0.5714285714285714,0.5748299319727891,0.5748299319727891,0.5782312925170068,0.5816326530612245,0.5850340136054422,0.5850340136054422,0.5850340136054422,0.5850340136054422,0.5850340136054422,0.5816326530612245,0.5714285714285714,0.5578231292517006,0.5272108843537415,0.5068027210884354,0.4931972789115646,0.47959183673469385,0.47278911564625853,0.46938775510204084,0.46938775510204084,0.46938775510204084,0.46938775510204084,0.46938775510204084,0.46938775510204084,0.46938775510204084,0.46938775510204084,0.46938775510204084,0.46938775510204084,0.46938775510204084,0.46938775510204084,0.46938775510204084,0.46938775510204084,0.46938775510204084,0.46938775510204084,0.46938775510204084,0.46938775510204084,0.46938775510204084,0.46938775510204084,0.46938775510204084,0.46938775510204084,0.47619047619047616,0.48299319727891155,0.4897959183673469,0.4931972789115646,0.4965986394557823,0.5,0.5,0.5,0.5,0.5,0.5,0.5,0.5,0.5,0.5,0.5,0.5,0.5,0.5,0.5,0.4931972789115646,0.48299319727891155,0.4489795918367347,0.3979591836734694,0.37755102040816324,0.3469387755102041,0.3231292517006803,0.3163265306122449,0.29931972789115646,0.2925170068027211,0.2891156462585034,0.282312925170068,0.2755102040816326,0.2755102040816326,0.2755102040816326,0.2755102040816326,0.2755102040816326,0.2755102040816326,0.2755102040816326,0.2755102040816326,0.2755102040816326,0.2755102040816326,0.2755102040816326,0.2755102040816326,0.2755102040816326,0.2755102040816326,0.2755102040816326,0.2755102040816326,0.2789115646258503,0.29591836734693877,0.3129251700680272,0.3435374149659864,0.3707482993197279,0.3877551020408163,0.3945578231292517,0.3979591836734694,0.3979591836734694,0.3979591836734694,0.3979591836734694,0.3979591836734694,0.3979591836734694,0.3979591836734694,0.3979591836734694,0.3979591836734694,0.3979591836734694,0.3979591836734694,0.3979591836734694,0.3979591836734694,0.3979591836734694,0.3979591836734694,0.3979591836734694,0.4013605442176871,0.41156462585034015,0.4217687074829932,0.4387755102040816,0.4557823129251701,0.46258503401360546,0.48299319727891155,0.5034013605442177,0.5136054421768708,0.5306122448979592,0.5408163265306123,0.5476190476190477,0.5578231292517006,0.5748299319727891,0.5850340136054422,0.5986394557823129,0.6156462585034014,0.6190476190476191,0.6326530612244898,0.6428571428571429,0.6462585034013606,0.6530612244897959,0.6598639455782312,0.6598639455782312,0.6632653061224489,0.6632653061224489,0.6632653061224489,0.6632653061224489,0.6632653061224489,0.6598639455782312,0.6394557823129252,0.6258503401360545,0.5918367346938775,0.5578231292517006,0.54421768707483,0.5272108843537415,0.5136054421768708,0.5068027210884354,0.4965986394557823,0.47959183673469385,0.47278911564625853,0.4523809523809524,0.43537414965986393,0.43197278911564624,0.41836734693877553,0.40816326530612246,0.40476190476190477,0.40476190476190477,0.40476190476190477,0.40476190476190477,0.40476190476190477,0.40476190476190477,0.40476190476190477,0.40476190476190477,0.40476190476190477,0.40476190476190477,0.40476190476190477,0.40476190476190477,0.40476190476190477,0.40476190476190477,0.40476190476190477,0.40476190476190477,0.40476190476190477,0.40476190476190477,0.40476190476190477,0.40476190476190477,0.40476190476190477,0.40476190476190477,0.40476190476190477,0.40476190476190477,0.40476190476190477,0.40476190476190477,0.40476190476190477,0.3979591836734694,0.3945578231292517,0.3877551020408163,0.38095238095238093,0.38095238095238093,0.37755102040816324,0.37755102040816324,0.37755102040816324,0.3741496598639456,0.3741496598639456,0.3741496598639456,0.3741496598639456,0.3741496598639456,0.3741496598639456,0.37755102040816324,0.40476190476190477,0.42857142857142855,0.47278911564625853,0.5068027210884354,0.5204081632653061,0.5374149659863946,0.5476190476190477,0.5510204081632653,0.5544217687074829,0.5578231292517006,0.564625850340136,0.5714285714285714,0.5782312925170068,0.5816326530612245,0.5816326530612245,0.5816326530612245,0.5816326530612245,0.5816326530612245,0.5816326530612245,0.5816326530612245,0.5816326530612245,0.5816326530612245,0.5816326530612245,0.5816326530612245,0.5816326530612245,0.5816326530612245,0.5816326530612245,0.5816326530612245,0.5816326530612245,0.5816326530612245,0.5816326530612245,0.5816326530612245,0.5816326530612245,0.5816326530612245,0.5816326530612245,0.5816326530612245,0.5816326530612245,0.5816326530612245,0.5816326530612245,0.5816326530612245,0.5816326530612245,0.5816326530612245,0.5816326530612245,0.5816326530612245,0.5816326530612245,0.5816326530612245,0.5816326530612245,0.5816326530612245,0.5816326530612245,0.5816326530612245,0.5816326530612245,0.5816326530612245,0.5816326530612245,0.5816326530612245,0.5816326530612245,0.5816326530612245,0.5816326530612245,0.5816326530612245,0.5816326530612245,0.5782312925170068,0.5272108843537415,0.40816326530612246,0.35034013605442177,0.19387755102040816,0.14965986394557823,0.05442176870748299,0.034013605442176874,0.027210884353741496,0.027210884353741496,0.027210884353741496,0.027210884353741496,0.027210884353741496,0.027210884353741496,0.027210884353741496,0.027210884353741496,0.027210884353741496,0.027210884353741496,0.027210884353741496,0.027210884353741496,0.030612244897959183,0.07142857142857142,0.18027210884353742,0.24829931972789115,0.4217687074829932,0.48639455782312924,0.5102040816326531,0.5374149659863946,0.54421768707483,0.54421768707483,0.54421768707483,0.54421768707483,0.54421768707483,0.54421768707483,0.54421768707483,0.54421768707483,0.54421768707483,0.54421768707483,0.54421768707483,0.54421768707483,0.54421768707483,0.54421768707483,0.5510204081632653,0.5612244897959183,0.6020408163265306,0.6632653061224489,0.6870748299319728,0.7312925170068028,0.7619047619047619,0.7687074829931972,0.7755102040816326,0.7789115646258503,0.7789115646258503,0.782312925170068,0.782312925170068,0.782312925170068,0.782312925170068,0.7857142857142857,0.7857142857142857,0.7857142857142857,0.7857142857142857,0.7925170068027211,0.7959183673469388,0.7959183673469388,0.7959183673469388,0.7959183673469388,0.7959183673469388,0.7959183673469388,0.7959183673469388,0.7891156462585034,0.7687074829931972,0.7551020408163265,0.7482993197278912,0.7346938775510204,0.7346938775510204,0.7346938775510204,0.7346938775510204,0.7346938775510204,0.7346938775510204,0.7346938775510204,0.7346938775510204,0.7346938775510204,0.7346938775510204,0.7346938775510204,0.7346938775510204,0.7346938775510204,0.7312925170068028,0.717687074829932,0.6530612244897959,0.5952380952380952,0.391156462585034,0.3401360544217687,0.30272108843537415,0.25170068027210885,0.20748299319727892,0.1836734693877551,0.1360544217687075,0.1360544217687075,0.1360544217687075,0.1360544217687075,0.1360544217687075,0.1360544217687075,0.1360544217687075,0.1360544217687075,0.1360544217687075,0.1360544217687075,0.1360544217687075,0.1360544217687075,0.1360544217687075,0.15306122448979592,0.18027210884353742,0.25170068027210885,0.282312925170068,0.38095238095238093,0.46258503401360546,0.5204081632653061,0.5408163265306123,0.5850340136054422,0.6054421768707483,0.6326530612244898,0.6462585034013606,0.6496598639455783,0.6496598639455783,0.6496598639455783,0.6496598639455783,0.6496598639455783,0.6496598639455783,0.6496598639455783,0.6496598639455783,0.6496598639455783,0.6496598639455783,0.6496598639455783,0.6530612244897959,0.6598639455782312,0.6938775510204082,0.7585034013605442,0.8061224489795918,0.9081632653061225,0.9829931972789115,1.0136054421768708,1.0442176870748299,1.0510204081632653,1.054421768707483,1.054421768707483,1.054421768707483,1.054421768707483,1.054421768707483,1.054421768707483,1.054421768707483,1.054421768707483,1.054421768707483,1.054421768707483,1.054421768707483,1.054421768707483,1.0612244897959184,1.0680272108843538,1.0680272108843538,1.0782312925170068,1.0816326530612246,1.0816326530612246,1.08843537414966,1.08843537414966,1.0918367346938775,1.0918367346938775,1.0952380952380953,1.0952380952380953,1.0952380952380953,1.0952380952380953,1.0952380952380953,1.08843537414966,1.0850340136054422,1.0680272108843538,1.0374149659863945,1.0238095238095237,1,0.9965986394557823,0.9897959183673469,0.9795918367346939,0.9659863945578231,0.9659863945578231,0.9591836734693877,0.9591836734693877,0.9591836734693877,0.95578231292517,0.9455782312925171,0.9455782312925171,0.9455782312925171,0.9455782312925171,0.9455782312925171,0.9455782312925171,0.9455782312925171,0.9455782312925171,0.9455782312925171,0.9455782312925171,0.9455782312925171,0.9455782312925171,0.9455782312925171,0.9455782312925171,0.9319727891156463,0.9217687074829932,0.9013605442176871,0.8707482993197279,0.8503401360544217,0.8197278911564626,0.7959183673469388,0.7857142857142857,0.7653061224489796,0.7619047619047619,0.7551020408163265,0.7551020408163265,0.7551020408163265,0.7551020408163265,0.7551020408163265,0.7551020408163265,0.7551020408163265,0.7551020408163265,0.7551020408163265,0.7551020408163265,0.7551020408163265,0.7551020408163265,0.7551020408163265,0.7380952380952381,0.7244897959183674,0.6904761904761905,0.6632653061224489,0.6496598639455783,0.6020408163265306,0.5578231292517006,0.54421768707483,0.5238095238095238,0.5102040816326531,0.5,0.48299319727891155,0.47278911564625853,0.47278911564625853,0.47278911564625853,0.47278911564625853,0.47278911564625853,0.47278911564625853,0.47278911564625853,0.47278911564625853,0.47278911564625853,0.47278911564625853,0.47278911564625853,0.47278911564625853,0.47278911564625853,0.47278911564625853,0.47278911564625853,0.47278911564625853,0.47278911564625853,0.47278911564625853,0.47278911564625853,0.47278911564625853,0.47278911564625853,0.47278911564625853,0.47278911564625853,0.47278911564625853,0.47278911564625853,0.47278911564625853,0.47278911564625853,0.47278911564625853,0.47278911564625853,0.47278911564625853,0.47278911564625853,0.47278911564625853,0.47278911564625853,0.47278911564625853,0.47278911564625853,0.47278911564625853,0.47278911564625853,0.47278911564625853,0.47278911564625853,0.47278911564625853,0.47619047619047616,0.48639455782312924,0.5102040816326531,0.54421768707483,0.5544217687074829,0.5816326530612245,0.5986394557823129,0.5986394557823129,0.6054421768707483,0.6054421768707483,0.6054421768707483,0.608843537414966,0.608843537414966,0.608843537414966,0.608843537414966,0.608843537414966,0.608843537414966,0.608843537414966,0.608843537414966,0.608843537414966,0.608843537414966,0.608843537414966,0.608843537414966,0.608843537414966,0.6054421768707483,0.5918367346938775,0.4931972789115646,0.3707482993197279,0.1870748299319728,0.034013605442176874,-0.017006802721088437,-0.09183673469387756,-0.1326530612244898,-0.1326530612244898,-0.1326530612244898,-0.1326530612244898,-0.1326530612244898,-0.1326530612244898,-0.1326530612244898,-0.1326530612244898,-0.1326530612244898,-0.1326530612244898,-0.1326530612244898,-0.1326530612244898,-0.12585034013605442,-0.12244897959183673,-0.10204081632653061,-0.08163265306122448,-0.07142857142857142,-0.04421768707482993,-0.017006802721088437,-0.006802721088435374,0.023809523809523808,0.04081632653061224,0.061224489795918366,0.0782312925170068,0.08503401360544217,0.09183673469387756,0.09183673469387756,0.09183673469387756,0.09183673469387756,0.09183673469387756,0.09183673469387756,0.09183673469387756,0.09183673469387756,0.09183673469387756,0.09183673469387756,0.09183673469387756,0.09183673469387756,0.09183673469387756,0.09183673469387756,0.09183673469387756,0.09183673469387756,0.09183673469387756,0.09183673469387756,0.09183673469387756,0.09183673469387756,0.09183673469387756,0.09183673469387756,0.09183673469387756,0.09183673469387756,0.09183673469387756,0.09183673469387756,0.09183673469387756,0.09183673469387756,0.09183673469387756,0.09183673469387756,0.09183673469387756,0.09183673469387756,0.09183673469387756,0.09183673469387756,0.09183673469387756,0.09183673469387756,0.09183673469387756,0.09183673469387756,0.09183673469387756,0.09183673469387756,0.09183673469387756,0.09183673469387756,0.09183673469387756,0.09183673469387756,0.09183673469387756,0.09183673469387756,0.09183673469387756,0.09183673469387756,0.09183673469387756,0.09183673469387756,0.09183673469387756,0.09183673469387756,0.09523809523809523,0.10204081632653061,0.1054421768707483,0.11224489795918367,0.11564625850340136,0.11904761904761904,0.11904761904761904,0.12244897959183673,0.12585034013605442,0.12585034013605442,0.12585034013605442,0.12585034013605442,0.12585034013605442,0.12585034013605442,0.12585034013605442,0.12585034013605442,0.12585034013605442,0.12585034013605442,0.12585034013605442,0.12585034013605442,0.12585034013605442,0.12585034013605442,0.12585034013605442,0.12585034013605442,0.12585034013605442,0.12585034013605442,0.12585034013605442,0.12585034013605442,0.12585034013605442,0.12585034013605442,0.12585034013605442,0.12585034013605442,0.12585034013605442,0.12585034013605442,0.12585034013605442,0.12585034013605442,0.12585034013605442,0.12585034013605442,0.12585034013605442,0.12585034013605442,0.12585034013605442,0.12585034013605442,0.12585034013605442,0.12585034013605442,0.12585034013605442,0.12585034013605442,0.12585034013605442,0.12585034013605442,0.12585034013605442,0.12585034013605442,0.12585034013605442,0.12585034013605442,0.12585034013605442,0.12585034013605442,0.12585034013605442,0.12585034013605442,0.1292517006802721,0.1292517006802721,0.1360544217687075,0.14285714285714285,0.14625850340136054,0.1564625850340136,0.17346938775510204,0.18027210884353742,0.19387755102040816,0.20068027210884354,0.20408163265306123,0.20408163265306123,0.20408163265306123,0.20408163265306123,0.20408163265306123,0.20408163265306123,0.20408163265306123,0.20408163265306123,0.20408163265306123,0.20408163265306123,0.20408163265306123,0.20408163265306123,0.20408163265306123,0.20408163265306123,0.20068027210884354,0.1836734693877551,0.16666666666666666,0.1564625850340136,0.14285714285714285,0.12585034013605442,0.11904761904761904,0.10884353741496598,0.09863945578231292,0.09863945578231292,0.09183673469387756,0.08163265306122448,0.0782312925170068,0.07142857142857142,0.06462585034013606,0.061224489795918366,0.05442176870748299,0.047619047619047616,0.04421768707482993,0.03741496598639456,0.034013605442176874,0.027210884353741496,0.027210884353741496,0.027210884353741496,0.027210884353741496,0.027210884353741496,0.027210884353741496,0.027210884353741496,0.027210884353741496,0.027210884353741496,0.027210884353741496,0.027210884353741496,0.027210884353741496,0.027210884353741496,0.027210884353741496,0.027210884353741496,0.027210884353741496,0.027210884353741496,0.027210884353741496,0.027210884353741496,0.027210884353741496,0.027210884353741496,0.027210884353741496,0.027210884353741496,0.027210884353741496,0.027210884353741496,0.027210884353741496,0.027210884353741496,0.027210884353741496,0.027210884353741496,0.027210884353741496,0.027210884353741496,0.027210884353741496,0.027210884353741496,0.027210884353741496,0.027210884353741496,0.027210884353741496,0.027210884353741496,0.027210884353741496,0.030612244897959183,0.04081632653061224,0.04421768707482993,0.061224489795918366,0.08503401360544217,0.09523809523809523,0.1326530612244898,0.17006802721088435,0.17687074829931973,0.1870748299319728,0.19047619047619047,0.19047619047619047,0.19047619047619047,0.19047619047619047,0.19047619047619047,0.19047619047619047,0.19047619047619047,0.19047619047619047,0.19047619047619047,0.19047619047619047,0.19047619047619047,0.19047619047619047,0.19047619047619047,0.19727891156462585,0.22448979591836735,0.24489795918367346,0.2891156462585034,0.3333333333333333,0.35374149659863946,0.37755102040816324,0.3877551020408163,0.391156462585034,0.3945578231292517,0.3979591836734694,0.3979591836734694,0.3979591836734694,0.3979591836734694,0.3979591836734694,0.3979591836734694,0.3979591836734694,0.3979591836734694,0.3979591836734694,0.3979591836734694,0.3979591836734694,0.3979591836734694,0.3979591836734694,0.3979591836734694,0.3979591836734694,0.3945578231292517,0.36054421768707484,0.3163265306122449,0.2925170068027211,0.2585034013605442,0.23129251700680273,0.22108843537414966,0.19727891156462585,0.16666666666666666,0.1564625850340136,0.14285714285714285,0.1360544217687075,0.1360544217687075,0.1360544217687075,0.1360544217687075,0.1360544217687075,0.1360544217687075,0.1360544217687075,0.1360544217687075,0.1360544217687075,0.1360544217687075,0.1360544217687075,0.1360544217687075,0.1360544217687075,0.1360544217687075,0.1326530612244898,0.1292517006802721,0.12244897959183673,0.11904761904761904,0.11904761904761904,0.11564625850340136,0.11224489795918367,0.10884353741496598,0.10884353741496598,0.10884353741496598,0.10884353741496598,0.10884353741496598,0.10884353741496598,0.10884353741496598,0.10884353741496598,0.10884353741496598,0.10884353741496598,0.10884353741496598,0.10884353741496598,0.10884353741496598,0.10884353741496598,0.10884353741496598,0.10884353741496598,0.10884353741496598,0.10884353741496598,0.10884353741496598,0.10884353741496598,0.10884353741496598,0.10884353741496598,0.10884353741496598,0.10884353741496598,0.10884353741496598,0.10884353741496598,0.10884353741496598,0.10884353741496598,0.10884353741496598,0.10884353741496598,0.10884353741496598,0.10884353741496598,0.10884353741496598,0.10884353741496598,0.10884353741496598,0.10884353741496598,0.10884353741496598,0.10884353741496598,0.10884353741496598,0.10884353741496598,0.10884353741496598,0.10884353741496598,0.10884353741496598,0.10884353741496598,0.10884353741496598,0.10884353741496598,0.10884353741496598,0.10884353741496598,0.10884353741496598,0.10884353741496598,0.10884353741496598,0.10884353741496598,0.10884353741496598,0.10884353741496598,0.10884353741496598,0.11564625850340136,0.1360544217687075,0.17687074829931973,0.20408163265306123,0.2619047619047619,0.3231292517006803,0.3401360544217687,0.3741496598639456,0.4013605442176871,0.41156462585034015,0.41836734693877553,0.4217687074829932,0.42517006802721086,0.42517006802721086,0.42517006802721086,0.42517006802721086,0.42517006802721086,0.42517006802721086,0.42517006802721086,0.42517006802721086,0.42517006802721086,0.42517006802721086,0.42517006802721086,0.42517006802721086,0.42517006802721086,0.42517006802721086,0.42517006802721086,0.42517006802721086,0.42517006802721086,0.42517006802721086,0.42517006802721086,0.3979591836734694,0.3707482993197279,0.29931972789115646,0.24149659863945577,0.21428571428571427,0.14965986394557823,0.09183673469387756,0.06462585034013606,0.05442176870748299,0.05442176870748299,0.05442176870748299,0.05442176870748299,0.05442176870748299,0.05442176870748299,0.05442176870748299,0.05442176870748299,0.05442176870748299,0.05442176870748299,0.05442176870748299,0.05442176870748299,0.05442176870748299,0.05442176870748299,0.05442176870748299,0.05442176870748299,0.05442176870748299,0.05442176870748299,0.05442176870748299,0.05442176870748299,0.05442176870748299,0.05442176870748299,0.05442176870748299,0.05442176870748299,0.05442176870748299,0.05442176870748299,0.05442176870748299,0.05442176870748299,0.05442176870748299,0.05442176870748299,0.061224489795918366,0.06802721088435375,0.09183673469387756,0.11224489795918367,0.14965986394557823,0.20068027210884354,0.21428571428571427,0.24489795918367346,0.2619047619047619,0.2653061224489796,0.2687074829931973,0.2687074829931973,0.2687074829931973,0.2687074829931973,0.2687074829931973,0.2687074829931973,0.2687074829931973,0.2687074829931973,0.2687074829931973,0.2687074829931973,0.2687074829931973,0.2687074829931973,0.2687074829931973,0.2687074829931973,0.2687074829931973,0.272108843537415,0.272108843537415,0.2755102040816326,0.2789115646258503,0.282312925170068,0.282312925170068,0.2857142857142857,0.2857142857142857,0.2857142857142857,0.2857142857142857,0.2857142857142857,0.2857142857142857,0.2857142857142857,0.2857142857142857,0.2857142857142857,0.2857142857142857,0.2857142857142857,0.2857142857142857,0.2857142857142857,0.282312925170068,0.2789115646258503,0.2755102040816326,0.272108843537415,0.272108843537415,0.272108843537415,0.272108843537415,0.272108843537415,0.272108843537415,0.272108843537415,0.272108843537415,0.272108843537415,0.272108843537415,0.272108843537415,0.272108843537415,0.272108843537415,0.272108843537415,0.2755102040816326,0.29931972789115646,0.3469387755102041,0.3707482993197279,0.41156462585034015,0.4523809523809524,0.46258503401360546,0.48299319727891155,0.5068027210884354,0.5170068027210885,0.5306122448979592,0.5510204081632653,0.5544217687074829,0.5714285714285714,0.5816326530612245,0.5816326530612245,0.5850340136054422,0.5884353741496599,0.5884353741496599,0.5918367346938775,0.5918367346938775,0.5918367346938775,0.5918367346938775,0.5918367346938775,0.5918367346938775,0.5850340136054422,0.5782312925170068,0.5680272108843537,0.5578231292517006,0.5510204081632653,0.5408163265306123,0.5340136054421769,0.5272108843537415,0.5102040816326531,0.5034013605442177,0.5034013605442177,0.5034013605442177,0.5034013605442177,0.5034013605442177,0.5034013605442177,0.5034013605442177,0.5034013605442177,0.5034013605442177,0.5034013605442177,0.5034013605442177,0.5034013605442177,0.5034013605442177,0.5034013605442177,0.5034013605442177,0.5034013605442177,0.5068027210884354,0.5136054421768708,0.5170068027210885,0.5204081632653061,0.5204081632653061,0.5204081632653061,0.5204081632653061,0.5204081632653061,0.5204081632653061,0.5204081632653061,0.5204081632653061,0.5204081632653061,0.5204081632653061,0.5204081632653061,0.5238095238095238,0.5408163265306123,0.5578231292517006,0.5680272108843537,0.5986394557823129,0.6326530612244898,0.6462585034013606,0.6768707482993197,0.7040816326530612,0.7142857142857143,0.7380952380952381,0.7551020408163265,0.7585034013605442,0.7721088435374149,0.7755102040816326,0.7857142857142857,0.7959183673469388,0.7993197278911565,0.8027210884353742,0.8027210884353742,0.8027210884353742,0.8027210884353742,0.8061224489795918,0.8061224489795918,0.8061224489795918,0.8061224489795918,0.8027210884353742,0.7789115646258503,0.7585034013605442,0.7551020408163265,0.7482993197278912,0.7448979591836735,0.7414965986394558,0.7414965986394558,0.7414965986394558,0.7414965986394558,0.7414965986394558,0.7414965986394558,0.7414965986394558,0.7414965986394558,0.7414965986394558,0.7414965986394558,0.7414965986394558,0.7414965986394558,0.7414965986394558,0.7414965986394558,0.7414965986394558,0.7414965986394558,0.7414965986394558,0.7414965986394558,0.7414965986394558,0.7414965986394558,0.7414965986394558,0.7414965986394558,0.7414965986394558,0.7414965986394558,0.7414965986394558,0.7414965986394558,0.7414965986394558,0.7414965986394558,0.7414965986394558,0.7414965986394558,0.7414965986394558,0.7414965986394558,0.7414965986394558,0.7414965986394558,0.7414965986394558,0.7414965986394558,0.7414965986394558,0.7414965986394558,0.7414965986394558,0.7414965986394558,0.7414965986394558,0.7414965986394558,0.7414965986394558,0.7482993197278912,0.7619047619047619,0.7755102040816326,0.7925170068027211,0.7993197278911565,0.8197278911564626,0.8299319727891157,0.8469387755102041,0.8605442176870748,0.8639455782312925,0.8707482993197279,0.8741496598639455,0.8741496598639455,0.8741496598639455,0.8741496598639455,0.8741496598639455,0.8741496598639455,0.8741496598639455,0.8741496598639455,0.8741496598639455,0.8741496598639455,0.8741496598639455,0.8741496598639455,0.8741496598639455,0.8741496598639455,0.8741496598639455,0.8741496598639455,0.8741496598639455,0.8741496598639455,0.8741496598639455,0.8741496598639455,0.8741496598639455,0.8741496598639455,0.8741496598639455,0.8741496598639455,0.8741496598639455,0.8741496598639455,0.8741496598639455,0.8741496598639455,0.8741496598639455,0.8741496598639455,0.8741496598639455,0.8741496598639455,0.8741496598639455,0.8741496598639455,0.8741496598639455,0.8741496598639455,0.8741496598639455,0.8741496598639455,0.8741496598639455,0.8741496598639455,0.8741496598639455,0.8741496598639455,0.8741496598639455,0.8741496598639455,0.8741496598639455,0.8809523809523809,0.8843537414965986,0.8877551020408163,0.891156462585034,0.8979591836734694,0.9013605442176871,0.9047619047619048,0.9081632653061225,0.9115646258503401,0.9115646258503401,0.9115646258503401,0.9115646258503401,0.9115646258503401,0.9115646258503401,0.9115646258503401,0.9115646258503401,0.9115646258503401,0.9115646258503401,0.9115646258503401,0.9115646258503401,0.9115646258503401,0.9115646258503401,0.9115646258503401,0.9115646258503401,0.8979591836734694,0.8741496598639455,0.8027210884353742,0.673469387755102,0.6054421768707483,0.5136054421768708,0.4523809523809524,0.41496598639455784,0.40476190476190477,0.3979591836734694,0.3979591836734694,0.3945578231292517,0.3945578231292517,0.3945578231292517,0.3945578231292517,0.3945578231292517,0.3945578231292517,0.3945578231292517,0.3945578231292517,0.3945578231292517,0.3945578231292517,0.3945578231292517,0.3945578231292517,0.3945578231292517,0.391156462585034,0.3843537414965986,0.3707482993197279,0.3707482993197279,0.36394557823129253,0.35714285714285715,0.35034013605442177,0.3469387755102041,0.3435374149659864,0.3401360544217687,0.336734693877551,0.3333333333333333,0.3299319727891156,0.32653061224489793,0.3231292517006803,0.3197278911564626,0.3163265306122449,0.3163265306122449,0.3163265306122449,0.3163265306122449,0.3163265306122449,0.3163265306122449,0.3163265306122449,0.3163265306122449,0.3163265306122449,0.3163265306122449,0.3163265306122449,0.3163265306122449,0.3163265306122449,0.3163265306122449,0.3163265306122449,0.3163265306122449,0.3163265306122449,0.3163265306122449,0.3163265306122449,0.3163265306122449,0.3163265306122449,0.3163265306122449,0.3163265306122449,0.3163265306122449,0.3163265306122449,0.3163265306122449,0.3163265306122449,0.3163265306122449,0.3163265306122449,0.3163265306122449,0.3163265306122449,0.3163265306122449,0.3163265306122449,0.3163265306122449,0.3163265306122449,0.3163265306122449,0.3163265306122449,0.3163265306122449,0.3163265306122449,0.3163265306122449,0.3129251700680272,0.30952380952380953,0.30952380952380953,0.30272108843537415,0.30272108843537415,0.29931972789115646,0.29591836734693877,0.29591836734693877,0.29591836734693877,0.29591836734693877,0.29591836734693877,0.29591836734693877,0.29591836734693877,0.29591836734693877,0.29591836734693877,0.29591836734693877,0.29591836734693877,0.29591836734693877,0.29591836734693877,0.29591836734693877,0.29591836734693877,0.29591836734693877,0.29591836734693877,0.29591836734693877,0.29591836734693877,0.29591836734693877,0.29591836734693877,0.29591836734693877,0.29591836734693877,0.29591836734693877,0.29591836734693877,0.29591836734693877,0.29591836734693877,0.29591836734693877,0.29591836734693877,0.29591836734693877,0.29591836734693877,0.29591836734693877,0.29591836734693877,0.29591836734693877,0.29591836734693877,0.29591836734693877,0.29591836734693877,0.29591836734693877,0.29591836734693877,0.29591836734693877,0.29591836734693877,0.29591836734693877,0.29591836734693877,0.29591836734693877,0.29591836734693877,0.2925170068027211,0.2891156462585034,0.2789115646258503,0.272108843537415,0.2619047619047619,0.24829931972789115,0.23809523809523808,0.22789115646258504,0.21768707482993196,0.2108843537414966,0.20408163265306123,0.20408163265306123,0.20408163265306123,0.20408163265306123,0.20408163265306123,0.20408163265306123,0.20408163265306123,0.20408163265306123,0.20408163265306123,0.20408163265306123,0.20408163265306123,0.20408163265306123,0.20408163265306123,0.20408163265306123,0.20408163265306123,0.20408163265306123,0.20408163265306123,0.20068027210884354,0.19727891156462585,0.19387755102040816,0.19047619047619047,0.1870748299319728,0.1836734693877551,0.18027210884353742,0.17346938775510204,0.17006802721088435,0.16326530612244897,0.1564625850340136,0.1564625850340136,0.14965986394557823,0.14625850340136054,0.13945578231292516,0.1360544217687075,0.1360544217687075,0.1360544217687075,0.1360544217687075,0.1360544217687075,0.1360544217687075,0.1360544217687075,0.1360544217687075,0.1360544217687075,0.1360544217687075,0.1360544217687075,0.1360544217687075,0.1360544217687075,0.1360544217687075,0.1360544217687075,0.1360544217687075,0.1360544217687075,0.1360544217687075,0.1360544217687075,0.1360544217687075,0.1360544217687075,0.1360544217687075,0.1360544217687075,0.1360544217687075,0.1360544217687075,0.1360544217687075,0.1360544217687075,0.1360544217687075,0.1360544217687075,0.1360544217687075,0.1360544217687075,0.1360544217687075,0.1360544217687075,0.1360544217687075,0.1360544217687075,0.1360544217687075,0.1360544217687075,0.1360544217687075,0.1360544217687075,0.1360544217687075,0.1360544217687075,0.1360544217687075,0.1360544217687075,0.1360544217687075,0.1360544217687075,0.1360544217687075,0.1360544217687075,0.1360544217687075,0.1360544217687075,0.14625850340136054,0.17346938775510204,0.1870748299319728,0.21768707482993196,0.23809523809523808,0.24149659863945577,0.24829931972789115,0.24829931972789115,0.24829931972789115,0.24829931972789115,0.24829931972789115,0.24829931972789115,0.24829931972789115,0.24829931972789115,0.24829931972789115,0.24829931972789115,0.24829931972789115,0.24829931972789115,0.25170068027210885,0.2653061224489796,0.272108843537415,0.2857142857142857,0.2925170068027211,0.30612244897959184,0.3197278911564626,0.3231292517006803,0.3401360544217687,0.3469387755102041,0.35374149659863946,0.36054421768707484,0.3741496598639456,0.38095238095238093,0.3945578231292517,0.4013605442176871,0.40816326530612246,0.4217687074829932,0.43197278911564624,0.4421768707482993,0.45918367346938777,0.46938775510204084,0.47278911564625853,0.4897959183673469,0.5,0.5068027210884354,0.5204081632653061,0.5238095238095238,0.5340136054421769,0.5510204081632653,0.564625850340136,0.5918367346938775,0.6292517006802721,0.6360544217687075,0.6496598639455783,0.6530612244897959,0.6530612244897959,0.6530612244897959,0.6530612244897959,0.6530612244897959,0.6530612244897959,0.6530612244897959,0.6530612244897959,0.6530612244897959,0.6530612244897959,0.6530612244897959,0.6530612244897959,0.6530612244897959,0.6530612244897959,0.6530612244897959,0.6564625850340136,0.6564625850340136,0.6598639455782312,0.6598639455782312,0.6598639455782312,0.6598639455782312,0.6564625850340136,0.6496598639455783,0.6326530612244898,0.6258503401360545,0.6122448979591837,0.5952380952380952,0.5918367346938775,0.5918367346938775,0.5918367346938775,0.5918367346938775,0.5918367346938775,0.5918367346938775,0.5918367346938775,0.5918367346938775,0.5918367346938775,0.5918367346938775,0.5918367346938775,0.5918367346938775,0.5918367346938775,0.5918367346938775,0.5918367346938775,0.5918367346938775,0.5918367346938775,0.5918367346938775,0.5918367346938775,0.5918367346938775,0.5918367346938775,0.5918367346938775,0.5918367346938775,0.5918367346938775,0.5918367346938775,0.5918367346938775,0.5918367346938775,0.5918367346938775,0.5918367346938775,0.5918367346938775,0.5918367346938775,0.5918367346938775,0.5918367346938775,0.5918367346938775,0.5918367346938775,0.5918367346938775,0.5918367346938775,0.5918367346938775,0.5986394557823129,0.6224489795918368,0.6564625850340136,0.6768707482993197,0.7108843537414966,0.7380952380952381,0.7482993197278912,0.7687074829931972,0.7755102040816326,0.7925170068027211,0.7993197278911565,0.8061224489795918,0.8129251700680272,0.8197278911564626,0.8231292517006803,0.8299319727891157,0.8435374149659864,0.8469387755102041,0.8537414965986394,0.8605442176870748,0.8605442176870748,0.8707482993197279,0.8707482993197279,0.8707482993197279,0.8741496598639455,0.8741496598639455,0.8741496598639455,0.8741496598639455,0.8741496598639455,0.8741496598639455,0.8741496598639455,0.8741496598639455,0.8741496598639455,0.8741496598639455,0.8741496598639455,0.8741496598639455,0.8741496598639455,0.8741496598639455,0.8741496598639455,0.8741496598639455,0.8741496598639455,0.8741496598639455,0.8741496598639455,0.8707482993197279,0.8673469387755102,0.8639455782312925,0.8639455782312925,0.8605442176870748,0.8571428571428571,0.8537414965986394,0.8503401360544217,0.8503401360544217,0.8503401360544217,0.8503401360544217,0.8503401360544217,0.8503401360544217,0.8503401360544217,0.8503401360544217,0.8503401360544217,0.8503401360544217,0.8503401360544217,0.8503401360544217,0.8503401360544217,0.8503401360544217,0.8503401360544217,0.8503401360544217,0.8503401360544217,0.8503401360544217,0.8503401360544217,0.8503401360544217,0.8503401360544217,0.8503401360544217,0.8503401360544217,0.8503401360544217,0.8503401360544217,0.8503401360544217,0.8503401360544217,0.8503401360544217,0.8503401360544217,0.8503401360544217,0.8503401360544217,0.8503401360544217,0.8503401360544217,0.8503401360544217,0.8503401360544217,0.8503401360544217,0.8503401360544217,0.8503401360544217,0.8503401360544217,0.8503401360544217,0.8469387755102041,0.8231292517006803,0.8095238095238095,0.7721088435374149,0.7414965986394558,0.7278911564625851,0.7108843537414966,0.6972789115646258,0.6904761904761905,0.6768707482993197,0.6564625850340136,0.6496598639455783,0.6360544217687075,0.6292517006802721,0.6258503401360545,0.6190476190476191,0.6020408163265306,0.5918367346938775,0.5918367346938775,0.5918367346938775,0.5918367346938775,0.5918367346938775,0.5918367346938775,0.5918367346938775,0.5918367346938775,0.5918367346938775,0.5918367346938775,0.5918367346938775,0.5918367346938775,0.5918367346938775,0.5918367346938775,0.5918367346938775,0.5918367346938775,0.5918367346938775,0.5918367346938775,0.5918367346938775,0.5918367346938775,0.5918367346938775,0.5918367346938775,0.5918367346938775,0.5918367346938775,0.5918367346938775,0.5918367346938775,0.5918367346938775,0.5918367346938775,0.5918367346938775,0.5918367346938775,0.5918367346938775,0.5918367346938775,0.5918367346938775,0.5782312925170068,0.5306122448979592,0.4931972789115646,0.40476190476190477,0.36054421768707484,0.2755102040816326,0.22108843537414966,0.2108843537414966,0.20068027210884354,0.20068027210884354,0.20068027210884354,0.20068027210884354,0.20068027210884354,0.20068027210884354,0.20068027210884354,0.20068027210884354,0.20068027210884354,0.20068027210884354,0.20068027210884354,0.20068027210884354,0.20068027210884354,0.1870748299319728,0.17006802721088435,0.16666666666666666,0.1564625850340136,0.15306122448979592,0.14965986394557823,0.14625850340136054,0.14285714285714285,0.13945578231292516,0.13945578231292516,0.1360544217687075,0.1360544217687075,0.1360544217687075,0.14965986394557823,0.17346938775510204,0.19047619047619047,0.21768707482993196,0.23469387755102042,0.24149659863945577,0.25510204081632654,0.2585034013605442,0.2619047619047619,0.2619047619047619,0.2653061224489796,0.2653061224489796,0.2687074829931973,0.2687074829931973,0.2687074829931973,0.272108843537415,0.2755102040816326,0.2755102040816326,0.282312925170068,0.282312925170068,0.2857142857142857,0.2857142857142857,0.2857142857142857,0.2857142857142857,0.2857142857142857,0.2857142857142857,0.2857142857142857,0.2857142857142857,0.2857142857142857,0.2857142857142857,0.2857142857142857,0.2857142857142857,0.2857142857142857,0.2857142857142857,0.2857142857142857,0.2857142857142857,0.2857142857142857,0.2857142857142857,0.2857142857142857,0.2857142857142857,0.2857142857142857,0.2857142857142857,0.2857142857142857,0.2857142857142857,0.2857142857142857,0.2857142857142857,0.2857142857142857,0.2857142857142857,0.2857142857142857,0.2857142857142857,0.2857142857142857,0.2857142857142857,0.2891156462585034,0.30612244897959184,0.3163265306122449,0.3435374149659864,0.36394557823129253,0.37755102040816324,0.3979591836734694,0.41156462585034015,0.41836734693877553,0.42857142857142855,0.42857142857142855,0.42857142857142855,0.42857142857142855,0.42857142857142855,0.42857142857142855,0.42857142857142855,0.42857142857142855,0.42857142857142855,0.42857142857142855,0.42857142857142855,0.42857142857142855,0.42857142857142855,0.42857142857142855,0.42857142857142855,0.42857142857142855,0.42857142857142855,0.42857142857142855,0.42857142857142855,0.42857142857142855,0.42857142857142855,0.42857142857142855,0.42857142857142855,0.42857142857142855,0.42857142857142855,0.42857142857142855,0.4217687074829932,0.3843537414965986,0.35374149659863946,0.272108843537415,0.20748299319727892,0.1870748299319728,0.16326530612244897,0.14965986394557823,0.14285714285714285,0.13945578231292516,0.13945578231292516,0.13945578231292516,0.13945578231292516,0.13945578231292516,0.13945578231292516,0.13945578231292516,0.13945578231292516,0.13945578231292516,0.13945578231292516,0.13945578231292516,0.13945578231292516,0.13945578231292516,0.13945578231292516,0.1326530612244898,0.12585034013605442,0.11904761904761904,0.11224489795918367,0.09863945578231292,0.08843537414965986,0.07142857142857142,0.05782312925170068,0.05102040816326531,0.04421768707482993,0.034013605442176874,0.027210884353741496,0.027210884353741496,0.027210884353741496,0.027210884353741496,0.027210884353741496,0.027210884353741496,0.027210884353741496,0.027210884353741496,0.027210884353741496,0.027210884353741496,0.027210884353741496,0.027210884353741496,0.027210884353741496,0.027210884353741496,0.027210884353741496,0.027210884353741496,0.027210884353741496,0.027210884353741496,0.027210884353741496,0.027210884353741496,0.027210884353741496,0.027210884353741496,0.027210884353741496,0.027210884353741496,0.027210884353741496,0.027210884353741496,0.027210884353741496,0.027210884353741496,0.027210884353741496,0.027210884353741496,0.027210884353741496,0.027210884353741496,0.027210884353741496,0.027210884353741496,0.027210884353741496,0.027210884353741496,0.027210884353741496,0.027210884353741496,0.027210884353741496,0.027210884353741496,0.027210884353741496,0.027210884353741496,0.027210884353741496,0.027210884353741496,0.027210884353741496,0.027210884353741496,0.030612244897959183,0.03741496598639456,0.04421768707482993,0.047619047619047616,0.05442176870748299,0.061224489795918366,0.06802721088435375,0.07482993197278912,0.0782312925170068,0.08163265306122448,0.08503401360544217,0.08843537414965986,0.08843537414965986,0.08843537414965986,0.08843537414965986,0.08843537414965986,0.08843537414965986,0.08843537414965986,0.08843537414965986,0.08503401360544217,0.07482993197278912,0.061224489795918366,0.05442176870748299,0.05102040816326531,0.047619047619047616,0.04421768707482993,0.03741496598639456,0.027210884353741496,0.017006802721088437,0.01020408163265306,0.003401360544217687,-0.006802721088435374,-0.013605442176870748,-0.023809523809523808,-0.03741496598639456,-0.04081632653061224,-0.04421768707482993,-0.05102040816326531,-0.05102040816326531,-0.05442176870748299,-0.05442176870748299,-0.05442176870748299,-0.05442176870748299,-0.05442176870748299,-0.05442176870748299,-0.05442176870748299,-0.05442176870748299,-0.04421768707482993,-0.02040816326530612,-0.003401360544217687,0.017006802721088437,0.04421768707482993,0.05782312925170068,0.09183673469387756,0.11904761904761904,0.14285714285714285,0.17346938775510204,0.20748299319727892,0.22108843537414966,0.24829931972789115,0.2653061224489796,0.2755102040816326,0.282312925170068,0.282312925170068,0.282312925170068,0.282312925170068,0.282312925170068,0.282312925170068,0.282312925170068,0.282312925170068,0.282312925170068,0.282312925170068,0.282312925170068,0.282312925170068,0.282312925170068,0.282312925170068,0.282312925170068,0.282312925170068,0.282312925170068,0.282312925170068,0.282312925170068,0.282312925170068,0.282312925170068,0.282312925170068,0.282312925170068,0.282312925170068,0.282312925170068,0.2789115646258503,0.2789115646258503,0.2789115646258503,0.2789115646258503,0.2789115646258503,0.2789115646258503,0.2789115646258503,0.2789115646258503,0.2789115646258503,0.2789115646258503,0.2789115646258503,0.2789115646258503,0.2789115646258503,0.2789115646258503,0.2789115646258503,0.2789115646258503,0.29591836734693877,0.32653061224489793,0.40816326530612246,0.5272108843537415,0.5748299319727891,0.6122448979591837,0.6292517006802721,0.6292517006802721,0.6292517006802721,0.6292517006802721,0.6292517006802721,0.6292517006802721,0.6292517006802721,0.6292517006802721,0.6292517006802721,0.6292517006802721,0.6292517006802721,0.6292517006802721,0.6394557823129252,0.6496598639455783,0.6870748299319728,0.7312925170068028,0.7551020408163265,0.7959183673469388,0.826530612244898,0.8367346938775511,0.8537414965986394,0.8571428571428571,0.8639455782312925,0.8741496598639455,0.8809523809523809,0.891156462585034,0.9115646258503401,0.9217687074829932,0.9421768707482994,0.95578231292517,0.9625850340136054,0.9693877551020408,0.9761904761904762,0.9795918367346939,0.9795918367346939,0.9795918367346939,0.9795918367346939,0.9795918367346939,0.9795918367346939,0.9795918367346939,0.9795918367346939,0.9795918367346939,0.9795918367346939,0.9795918367346939,0.9795918367346939,0.9795918367346939,0.9795918367346939,0.9795918367346939,0.9795918367346939,0.9795918367346939,0.9795918367346939,0.9795918367346939,0.9829931972789115,0.9863945578231292,0.9965986394557823,1.0034013605442176,1.0034013605442176,1.0068027210884354,1.0068027210884354,1.0068027210884354,1.0068027210884354,1.0068027210884354,1.0068027210884354,1.0068027210884354,1.0068027210884354,1.0068027210884354,1.0068027210884354,1.0068027210884354,1.0068027210884354,1.0068027210884354,1.0068027210884354,1.0068027210884354,1.0068027210884354,1.0068027210884354,1.0068027210884354,1.0068027210884354,1.0068027210884354,1.0068027210884354,1.0068027210884354,1.0068027210884354,1.0068027210884354,1.0068027210884354,1.0068027210884354,1.0068027210884354,1.0068027210884354,1.0068027210884354,1.0068027210884354,1.0068027210884354,1.0068027210884354,1.0068027210884354,1.0068027210884354,1.0068027210884354,1.0068027210884354,1.0068027210884354,1.0068027210884354,1.0068027210884354,0.9897959183673469,0.95578231292517,0.8537414965986394,0.7925170068027211,0.7789115646258503,0.7619047619047619,0.7585034013605442,0.7551020408163265,0.7551020408163265,0.7551020408163265,0.7551020408163265,0.7551020408163265,0.7551020408163265,0.7585034013605442,0.7721088435374149,0.782312925170068,0.7993197278911565,0.8163265306122449,0.8333333333333334,0.8639455782312925,0.9183673469387755,0.9421768707482994,0.9727891156462585,0.9931972789115646,1.0034013605442176,1.0374149659863945,1.0816326530612246,1.098639455782313,1.1122448979591837,1.119047619047619,1.119047619047619,1.119047619047619,1.119047619047619,1.119047619047619,1.119047619047619,1.119047619047619,1.119047619047619,1.119047619047619,1.119047619047619,1.119047619047619,1.119047619047619,1.119047619047619,1.119047619047619,1.119047619047619,1.119047619047619,1.119047619047619,1.119047619047619,1.119047619047619,1.119047619047619,1.119047619047619,1.119047619047619,1.119047619047619,1.119047619047619,1.119047619047619,1.119047619047619,1.119047619047619,1.119047619047619,1.119047619047619,1.119047619047619,1.119047619047619,1.119047619047619,1.119047619047619,1.119047619047619,1.119047619047619,1.119047619047619,1.119047619047619,1.119047619047619,1.119047619047619,1.119047619047619,1.119047619047619,1.119047619047619,1.119047619047619,1.119047619047619,1.119047619047619,1.119047619047619,1.119047619047619,1.119047619047619,1.1122448979591837,1.0272108843537415,0.9659863945578231,0.8027210884353742,0.6496598639455783,0.6020408163265306,0.5170068027210885,0.48299319727891155,0.48299319727891155,0.48299319727891155,0.48299319727891155,0.48299319727891155,0.48299319727891155,0.48299319727891155,0.48299319727891155,0.48299319727891155,0.48299319727891155,0.48299319727891155,0.48299319727891155,0.48299319727891155,0.48299319727891155,0.48299319727891155,0.48299319727891155,0.48299319727891155,0.48299319727891155,0.48299319727891155,0.48299319727891155,0.48299319727891155,0.48299319727891155,0.48299319727891155,0.48299319727891155,0.48299319727891155,0.48299319727891155,0.48299319727891155,0.48299319727891155,0.48299319727891155,0.48299319727891155,0.48299319727891155,0.48299319727891155,0.48299319727891155,0.48299319727891155,0.48299319727891155,0.48299319727891155,0.48299319727891155,0.48299319727891155,0.48299319727891155,0.48299319727891155,0.48299319727891155,0.48299319727891155,0.48299319727891155,0.48299319727891155,0.48299319727891155,0.48299319727891155,0.48299319727891155,0.48299319727891155,0.48299319727891155,0.48299319727891155,0.48299319727891155,0.48299319727891155,0.48299319727891155,0.48299319727891155,0.48299319727891155,0.48299319727891155,0.48299319727891155,0.48299319727891155,0.48299319727891155,0.48299319727891155,0.48299319727891155,0.48299319727891155,0.48299319727891155,0.48299319727891155,0.48299319727891155,0.48299319727891155,0.48299319727891155,0.48299319727891155,0.48299319727891155,0.48299319727891155,0.48299319727891155,0.48299319727891155,0.48299319727891155,0.48299319727891155,0.48299319727891155,0.48299319727891155,0.48299319727891155,0.48299319727891155,0.48299319727891155,0.48299319727891155,0.48299319727891155,0.48299319727891155],"y":[-2.857142857142857,-2.857142857142857,-2.857142857142857,-2.857142857142857,-2.857142857142857,-2.857142857142857,-2.857142857142857,-2.857142857142857,-2.857142857142857,-2.857142857142857,-2.857142857142857,-2.857142857142857,-2.857142857142857,-2.857142857142857,-2.857142857142857,-2.857142857142857,-2.857142857142857,-2.857142857142857,-2.857142857142857,-2.857142857142857,-2.857142857142857,-2.857142857142857,-2.857142857142857,-2.857142857142857,-2.857142857142857,-2.857142857142857,-2.857142857142857,-2.857142857142857,-2.857142857142857,-2.857142857142857,-2.857142857142857,-2.857142857142857,0.5285714285714286,0.5,0.30952380952380953,-0.06190476190476191,-0.3,-0.6238095238095238,-0.8714285714285714,-0.9476190476190476,-1.0523809523809524,-1.119047619047619,-1.138095238095238,-1.1666666666666667,-1.1761904761904762,-1.1761904761904762,-1.1761904761904762,-1.1761904761904762,-1.1761904761904762,-1.1761904761904762,-1.1761904761904762,-1.1761904761904762,-1.1761904761904762,-1.1761904761904762,-1.1761904761904762,-1.1761904761904762,-1.1761904761904762,-1.2047619047619047,-1.223809523809524,-1.2333333333333334,-1.2333333333333334,-1.1952380952380952,-1.1666666666666667,-1.1285714285714286,-1.1,-1.1,-1.1,-1.1,-1.1,-1.1,-1.1,-1.1,-1.1,-1.1,-1.1,-1.1,-1.1,-1.1,-1.0714285714285714,-1.042857142857143,-0.9666666666666667,-0.861904761904762,-0.7857142857142857,-0.7476190476190476,-0.7095238095238096,-0.6904761904761905,-0.680952380952381,-0.680952380952381,-0.680952380952381,-0.680952380952381,-0.680952380952381,-0.680952380952381,-0.680952380952381,-0.680952380952381,-0.680952380952381,-0.680952380952381,-0.680952380952381,-0.680952380952381,-0.680952380952381,-0.6904761904761905,-0.719047619047619,-0.8238095238095238,-0.9380952380952381,-0.9857142857142858,-1.0333333333333334,-1.042857142857143,-1.061904761904762,-1.061904761904762,-1.061904761904762,-1.0714285714285714,-1.0714285714285714,-1.0714285714285714,-1.0714285714285714,-1.0809523809523809,-1.0809523809523809,-1.0809523809523809,-1.0809523809523809,-1.0809523809523809,-1.0809523809523809,-1.0904761904761904,-1.1,-1.1095238095238096,-1.138095238095238,-1.1476190476190475,-1.1761904761904762,-1.1952380952380952,-1.2047619047619047,-1.223809523809524,-1.2523809523809524,-1.2523809523809524,-1.2714285714285714,-1.2809523809523808,-1.2904761904761906,-1.2904761904761906,-1.3,-1.3,-1.3,-1.3,-1.3,-1.3,-1.3,-1.3,-1.2904761904761906,-1.2714285714285714,-1.223809523809524,-1.1571428571428573,-1.119047619047619,-1.0047619047619047,-0.8523809523809524,-0.7571428571428571,-0.5952380952380952,-0.4238095238095238,-0.3380952380952381,-0.18571428571428572,-0.12857142857142856,-0.04285714285714286,0.004761904761904762,0.014285714285714285,0.014285714285714285,0.023809523809523808,0.023809523809523808,0.023809523809523808,0.023809523809523808,0.023809523809523808,0.023809523809523808,0.023809523809523808,0.023809523809523808,0.023809523809523808,0.023809523809523808,0.023809523809523808,0.004761904761904762,-0.09047619047619047,-0.15714285714285714,-0.319047619047619,-0.44285714285714284,-0.5,-0.5761904761904761,-0.6047619047619047,-0.6142857142857143,-0.6238095238095238,-0.6333333333333333,-0.6333333333333333,-0.6333333333333333,-0.6333333333333333,-0.6333333333333333,-0.6333333333333333,-0.6333333333333333,-0.6333333333333333,-0.6333333333333333,-0.6333333333333333,-0.6333333333333333,-0.6333333333333333,-0.6333333333333333,-0.6333333333333333,-0.6333333333333333,-0.6333333333333333,-0.6142857142857143,-0.5380952380952381,-0.48095238095238096,-0.3761904761904762,-0.2619047619047619,-0.20476190476190476,-0.10952380952380952,-0.06190476190476191,-0.04285714285714286,-0.014285714285714285,-0.004761904761904762,-0.004761904761904762,-0.004761904761904762,-0.004761904761904762,-0.004761904761904762,-0.004761904761904762,-0.004761904761904762,-0.004761904761904762,-0.004761904761904762,-0.004761904761904762,-0.004761904761904762,-0.004761904761904762,-0.004761904761904762,-0.004761904761904762,-0.004761904761904762,-0.014285714285714285,-0.05238095238095238,-0.12857142857142856,-0.15714285714285714,-0.19523809523809524,-0.23333333333333334,-0.2619047619047619,-0.3,-0.319047619047619,-0.32857142857142857,-0.36666666666666664,-0.38571428571428573,-0.38571428571428573,-0.38571428571428573,-0.38571428571428573,-0.38571428571428573,-0.38571428571428573,-0.38571428571428573,-0.38571428571428573,-0.38571428571428573,-0.38571428571428573,-0.38571428571428573,-0.38571428571428573,-0.38571428571428573,-0.38571428571428573,-0.38571428571428573,-0.38571428571428573,-0.3761904761904762,-0.30952380952380953,-0.2619047619047619,-0.15714285714285714,-0.08095238095238096,-0.023809523809523808,-0.014285714285714285,-0.004761904761904762,-0.004761904761904762,-0.004761904761904762,-0.004761904761904762,-0.004761904761904762,-0.004761904761904762,-0.004761904761904762,-0.004761904761904762,-0.004761904761904762,-0.004761904761904762,-0.004761904761904762,-0.004761904761904762,-0.004761904761904762,-0.004761904761904762,-0.004761904761904762,-0.004761904761904762,0.004761904761904762,0.014285714285714285,0.023809523809523808,0.05238095238095238,0.07142857142857142,0.08095238095238096,0.1,0.11904761904761904,0.1380952380952381,0.15714285714285714,0.1761904761904762,0.1761904761904762,0.19523809523809524,0.22380952380952382,0.23333333333333334,0.2619047619047619,0.28095238095238095,0.2904761904761905,0.30952380952380953,0.32857142857142857,0.32857142857142857,0.3476190476190476,0.35714285714285715,0.36666666666666664,0.3761904761904762,0.38571428571428573,0.3952380952380952,0.40476190476190477,0.4142857142857143,0.4238095238095238,0.43333333333333335,0.43333333333333335,0.43333333333333335,0.43333333333333335,0.4238095238095238,0.40476190476190477,0.38571428571428573,0.36666666666666664,0.35714285714285715,0.3380952380952381,0.32857142857142857,0.30952380952380953,0.3,0.2904761904761905,0.28095238095238095,0.2619047619047619,0.2619047619047619,0.2619047619047619,0.2619047619047619,0.2619047619047619,0.2619047619047619,0.2619047619047619,0.2619047619047619,0.2619047619047619,0.2619047619047619,0.2619047619047619,0.2619047619047619,0.2619047619047619,0.2619047619047619,0.2619047619047619,0.2619047619047619,0.24285714285714285,0.22380952380952382,0.22380952380952382,0.20476190476190476,0.19523809523809524,0.18571428571428572,0.18571428571428572,0.18571428571428572,0.18571428571428572,0.1761904761904762,0.15714285714285714,0.1380952380952381,0.10952380952380952,0.1,0.08095238095238096,0.07142857142857142,0.07142857142857142,0.06190476190476191,0.05238095238095238,0.05238095238095238,0.05238095238095238,0.05238095238095238,0.05238095238095238,0.05238095238095238,0.05238095238095238,0.05238095238095238,0.04285714285714286,0.04285714285714286,0.03333333333333333,0.03333333333333333,0.03333333333333333,0.04285714285714286,0.04285714285714286,0.05238095238095238,0.05238095238095238,0.06190476190476191,0.06190476190476191,0.07142857142857142,0.07142857142857142,0.09047619047619047,0.09047619047619047,0.09047619047619047,0.09047619047619047,0.09047619047619047,0.09047619047619047,0.09047619047619047,0.09047619047619047,0.09047619047619047,0.09047619047619047,0.09047619047619047,0.09047619047619047,0.09047619047619047,0.09047619047619047,0.09047619047619047,0.09047619047619047,0.09047619047619047,0.09047619047619047,0.09047619047619047,0.09047619047619047,0.09047619047619047,0.09047619047619047,0.09047619047619047,0.09047619047619047,0.09047619047619047,0.09047619047619047,0.09047619047619047,0.09047619047619047,0.09047619047619047,0.09047619047619047,0.09047619047619047,0.09047619047619047,0.09047619047619047,0.09047619047619047,0.09047619047619047,0.09047619047619047,0.09047619047619047,0.09047619047619047,0.09047619047619047,0.09047619047619047,0.09047619047619047,0.09047619047619047,0.09047619047619047,0.09047619047619047,0.09047619047619047,0.09047619047619047,0.09047619047619047,0.07142857142857142,-0.014285714285714285,-0.14761904761904762,-0.21428571428571427,-0.32857142857142857,-0.3476190476190476,-0.3761904761904762,-0.3761904761904762,-0.38571428571428573,-0.38571428571428573,-0.38571428571428573,-0.38571428571428573,-0.38571428571428573,-0.38571428571428573,-0.38571428571428573,-0.38571428571428573,-0.38571428571428573,-0.38571428571428573,-0.38571428571428573,-0.38571428571428573,-0.3761904761904762,-0.2904761904761905,-0.07142857142857142,0.07142857142857142,0.48095238095238096,0.6428571428571429,0.7095238095238096,0.7857142857142857,0.8047619047619048,0.8047619047619048,0.8047619047619048,0.8047619047619048,0.8047619047619048,0.8047619047619048,0.8047619047619048,0.8047619047619048,0.8047619047619048,0.8047619047619048,0.8047619047619048,0.8047619047619048,0.8047619047619048,0.8047619047619048,0.8142857142857143,0.8333333333333334,0.9,0.9952380952380953,1.0333333333333334,1.1095238095238096,1.1476190476190475,1.1571428571428573,1.1666666666666667,1.1666666666666667,1.1761904761904762,1.1761904761904762,1.1761904761904762,1.1761904761904762,1.1761904761904762,1.1761904761904762,1.1476190476190475,1.0809523809523809,1.042857142857143,0.9666666666666667,0.9095238095238095,0.9,0.8809523809523809,0.8714285714285714,0.861904761904762,0.8523809523809524,0.8428571428571429,0.8333333333333334,0.8142857142857143,0.7952380952380952,0.7952380952380952,0.7857142857142857,0.7857142857142857,0.7857142857142857,0.7857142857142857,0.7857142857142857,0.7857142857142857,0.7857142857142857,0.7857142857142857,0.7857142857142857,0.7857142857142857,0.7857142857142857,0.7857142857142857,0.7857142857142857,0.7761904761904762,0.7476190476190476,0.6047619047619047,0.48095238095238096,0.1,-0.014285714285714285,-0.08095238095238096,-0.18571428571428572,-0.2714285714285714,-0.30952380952380953,-0.38571428571428573,-0.38571428571428573,-0.38571428571428573,-0.38571428571428573,-0.38571428571428573,-0.38571428571428573,-0.38571428571428573,-0.38571428571428573,-0.38571428571428573,-0.38571428571428573,-0.38571428571428573,-0.38571428571428573,-0.38571428571428573,-0.35714285714285715,-0.319047619047619,-0.22380952380952382,-0.18571428571428572,-0.08095238095238096,0.014285714285714285,0.1,0.1380952380952381,0.24285714285714285,0.2904761904761905,0.35714285714285715,0.40476190476190477,0.4142857142857143,0.4238095238095238,0.4238095238095238,0.4238095238095238,0.4238095238095238,0.4238095238095238,0.4238095238095238,0.4238095238095238,0.4238095238095238,0.4238095238095238,0.4238095238095238,0.43333333333333335,0.4523809523809524,0.5380952380952381,0.6523809523809524,0.719047619047619,0.8523809523809524,0.9380952380952381,0.9666666666666667,1.0047619047619047,1.0142857142857142,1.0142857142857142,1.0142857142857142,1.0142857142857142,1.0142857142857142,1.0142857142857142,1.0142857142857142,1.0142857142857142,1.0142857142857142,1.0142857142857142,1.0142857142857142,1.0142857142857142,1.0142857142857142,1.0047619047619047,0.9666666666666667,0.9571428571428572,0.919047619047619,0.9,0.8904761904761904,0.8714285714285714,0.861904761904762,0.861904761904762,0.8428571428571429,0.8333333333333334,0.8333333333333334,0.8333333333333334,0.8142857142857143,0.8047619047619048,0.7761904761904762,0.7571428571428571,0.719047619047619,0.6619047619047619,0.6333333333333333,0.5952380952380952,0.5857142857142857,0.5666666666666667,0.5476190476190477,0.5190476190476191,0.5095238095238095,0.5,0.5,0.5,0.49047619047619045,0.49047619047619045,0.49047619047619045,0.49047619047619045,0.49047619047619045,0.49047619047619045,0.49047619047619045,0.49047619047619045,0.49047619047619045,0.49047619047619045,0.49047619047619045,0.49047619047619045,0.49047619047619045,0.49047619047619045,0.49047619047619045,0.49047619047619045,0.49047619047619045,0.49047619047619045,0.48095238095238096,0.4714285714285714,0.4714285714285714,0.4714285714285714,0.4714285714285714,0.4714285714285714,0.4714285714285714,0.4714285714285714,0.4714285714285714,0.4714285714285714,0.4714285714285714,0.4714285714285714,0.4714285714285714,0.4714285714285714,0.4714285714285714,0.4714285714285714,0.4714285714285714,0.4714285714285714,0.4714285714285714,0.4714285714285714,0.4714285714285714,0.4714285714285714,0.4714285714285714,0.46190476190476193,0.46190476190476193,0.44285714285714284,0.4142857142857143,0.4142857142857143,0.40476190476190477,0.40476190476190477,0.40476190476190477,0.40476190476190477,0.40476190476190477,0.40476190476190477,0.40476190476190477,0.40476190476190477,0.40476190476190477,0.40476190476190477,0.40476190476190477,0.40476190476190477,0.40476190476190477,0.40476190476190477,0.40476190476190477,0.40476190476190477,0.40476190476190477,0.40476190476190477,0.40476190476190477,0.40476190476190477,0.40476190476190477,0.40476190476190477,0.40476190476190477,0.40476190476190477,0.40476190476190477,0.40476190476190477,0.40476190476190477,0.40476190476190477,0.40476190476190477,0.40476190476190477,0.40476190476190477,0.40476190476190477,0.40476190476190477,0.40476190476190477,0.40476190476190477,0.40476190476190477,0.40476190476190477,0.40476190476190477,0.40476190476190477,0.40476190476190477,0.40476190476190477,0.40476190476190477,0.40476190476190477,0.40476190476190477,0.4238095238095238,0.4523809523809524,0.5571428571428572,0.7,0.7666666666666667,0.9,0.9857142857142858,1.0238095238095237,1.042857142857143,1.0523809523809524,1.0523809523809524,1.0523809523809524,1.0523809523809524,1.0523809523809524,1.0523809523809524,1.0523809523809524,1.0523809523809524,1.0523809523809524,1.0523809523809524,1.0523809523809524,1.0523809523809524,1.0523809523809524,1.0523809523809524,1.0523809523809524,1.042857142857143,1.0047619047619047,0.7761904761904762,0.5190476190476191,0.18571428571428572,-0.05238095238095238,-0.12857142857142856,-0.23333333333333334,-0.30952380952380953,-0.30952380952380953,-0.30952380952380953,-0.30952380952380953,-0.30952380952380953,-0.30952380952380953,-0.30952380952380953,-0.30952380952380953,-0.30952380952380953,-0.30952380952380953,-0.30952380952380953,-0.30952380952380953,-0.28095238095238095,-0.2619047619047619,-0.16666666666666666,-0.08095238095238096,-0.03333333333333333,0.07142857142857142,0.1761904761904762,0.20476190476190476,0.30952380952380953,0.35714285714285715,0.4238095238095238,0.4714285714285714,0.48095238095238096,0.5,0.5,0.5,0.5,0.5,0.5,0.5,0.5,0.5,0.5,0.5,0.5,0.5,0.5,0.5190476190476191,0.5476190476190477,0.5761904761904761,0.5857142857142857,0.6142857142857143,0.6333333333333333,0.6523809523809524,0.6714285714285714,0.6904761904761905,0.7,0.719047619047619,0.7285714285714285,0.7380952380952381,0.7380952380952381,0.7380952380952381,0.7380952380952381,0.7380952380952381,0.7380952380952381,0.7380952380952381,0.7380952380952381,0.7380952380952381,0.7380952380952381,0.7380952380952381,0.7380952380952381,0.7380952380952381,0.7380952380952381,0.7380952380952381,0.7380952380952381,0.7380952380952381,0.7380952380952381,0.7380952380952381,0.7380952380952381,0.7380952380952381,0.7380952380952381,0.7380952380952381,0.7380952380952381,0.7380952380952381,0.7571428571428571,0.7666666666666667,0.7857142857142857,0.8047619047619048,0.8333333333333334,0.8428571428571429,0.8523809523809524,0.861904761904762,0.8714285714285714,0.8809523809523809,0.9,0.9,0.9,0.9,0.9,0.9,0.9,0.9,0.9,0.9,0.9,0.9,0.9,0.9,0.9,0.9,0.9,0.9,0.9,0.9,0.9,0.9,0.9,0.9,0.9,0.9,0.9,0.9,0.9,0.9,0.9,0.9,0.9,0.9,0.9,0.9,0.9,0.9,0.9,0.9,0.9,0.9,0.9,0.9,0.9,0.9,0.9,0.9,0.9095238095238095,0.919047619047619,0.9476190476190476,0.9571428571428572,0.9952380952380953,1.0333333333333334,1.061904761904762,1.1095238095238096,1.1285714285714286,1.138095238095238,1.1476190476190475,1.1476190476190475,1.1476190476190475,1.1476190476190475,1.1476190476190475,1.1476190476190475,1.1476190476190475,1.1476190476190475,1.1476190476190475,1.1476190476190475,1.1476190476190475,1.1476190476190475,1.1476190476190475,1.138095238095238,1.0809523809523809,1.0333333333333334,1.0142857142857142,0.9666666666666667,0.9285714285714286,0.919047619047619,0.9,0.8809523809523809,0.8809523809523809,0.8809523809523809,0.8809523809523809,0.8714285714285714,0.8714285714285714,0.8714285714285714,0.8714285714285714,0.8714285714285714,0.8714285714285714,0.8714285714285714,0.8809523809523809,0.8904761904761904,0.9,0.9,0.9,0.9,0.9,0.9,0.9,0.9,0.9,0.9,0.9,0.9,0.9,0.9,0.9,0.9,0.9,0.9,0.9,0.9,0.9,0.9,0.9,0.9,0.9,0.9,0.9,0.9,0.9,0.9,0.9,0.9,0.9,0.9,0.9,0.9,0.9,0.9095238095238095,0.9571428571428572,1.0047619047619047,1.0523809523809524,1.1285714285714286,1.223809523809524,1.2714285714285714,1.4047619047619047,1.5095238095238095,1.5285714285714285,1.5666666666666667,1.5666666666666667,1.5666666666666667,1.5666666666666667,1.5666666666666667,1.5666666666666667,1.5666666666666667,1.5666666666666667,1.5666666666666667,1.5666666666666667,1.5666666666666667,1.5666666666666667,1.5666666666666667,1.5666666666666667,1.5666666666666667,1.5285714285714285,1.4904761904761905,1.4333333333333333,1.3761904761904762,1.3571428571428572,1.3285714285714285,1.319047619047619,1.319047619047619,1.3095238095238095,1.3095238095238095,1.3095238095238095,1.3095238095238095,1.3095238095238095,1.3095238095238095,1.3095238095238095,1.3095238095238095,1.3095238095238095,1.3095238095238095,1.3095238095238095,1.3095238095238095,1.3095238095238095,1.3095238095238095,1.3095238095238095,1.3,1.2619047619047619,1.0714285714285714,0.7952380952380952,0.6904761904761905,0.5285714285714286,0.40476190476190477,0.3761904761904762,0.319047619047619,0.2523809523809524,0.24285714285714285,0.21428571428571427,0.20476190476190476,0.19523809523809524,0.19523809523809524,0.19523809523809524,0.19523809523809524,0.19523809523809524,0.19523809523809524,0.19523809523809524,0.19523809523809524,0.19523809523809524,0.19523809523809524,0.19523809523809524,0.19523809523809524,0.19523809523809524,0.19523809523809524,0.19523809523809524,0.19523809523809524,0.19523809523809524,0.19523809523809524,0.18571428571428572,0.1761904761904762,0.16666666666666666,0.15714285714285714,0.14761904761904762,0.14761904761904762,0.1380952380952381,0.12857142857142856,0.12857142857142856,0.11904761904761904,0.11904761904761904,0.11904761904761904,0.11904761904761904,0.11904761904761904,0.11904761904761904,0.11904761904761904,0.11904761904761904,0.11904761904761904,0.11904761904761904,0.11904761904761904,0.11904761904761904,0.11904761904761904,0.11904761904761904,0.11904761904761904,0.11904761904761904,0.11904761904761904,0.11904761904761904,0.11904761904761904,0.11904761904761904,0.11904761904761904,0.11904761904761904,0.11904761904761904,0.11904761904761904,0.11904761904761904,0.11904761904761904,0.11904761904761904,0.11904761904761904,0.11904761904761904,0.11904761904761904,0.11904761904761904,0.11904761904761904,0.11904761904761904,0.11904761904761904,0.11904761904761904,0.11904761904761904,0.11904761904761904,0.11904761904761904,0.11904761904761904,0.11904761904761904,0.11904761904761904,0.11904761904761904,0.11904761904761904,0.11904761904761904,0.11904761904761904,0.11904761904761904,0.11904761904761904,0.11904761904761904,0.12857142857142856,0.18571428571428572,0.30952380952380953,0.3761904761904762,0.5380952380952381,0.6714285714285714,0.7285714285714285,0.8238095238095238,0.9,0.9285714285714286,0.9476190476190476,0.9571428571428572,0.9571428571428572,0.9666666666666667,0.9666666666666667,0.9666666666666667,0.9666666666666667,0.9666666666666667,0.9666666666666667,0.9666666666666667,0.9666666666666667,0.9666666666666667,0.9666666666666667,0.9666666666666667,0.9666666666666667,0.9666666666666667,0.9666666666666667,0.9666666666666667,0.9666666666666667,0.9666666666666667,0.9476190476190476,0.8333333333333334,0.7380952380952381,0.5285714285714286,0.32857142857142857,0.2714285714285714,0.10952380952380952,-0.014285714285714285,-0.05238095238095238,-0.09047619047619047,-0.09047619047619047,-0.09047619047619047,-0.09047619047619047,-0.09047619047619047,-0.09047619047619047,-0.09047619047619047,-0.09047619047619047,-0.09047619047619047,-0.09047619047619047,-0.09047619047619047,-0.09047619047619047,-0.09047619047619047,-0.09047619047619047,-0.09047619047619047,-0.09047619047619047,-0.09047619047619047,-0.09047619047619047,-0.09047619047619047,-0.09047619047619047,-0.09047619047619047,-0.09047619047619047,-0.09047619047619047,-0.09047619047619047,-0.09047619047619047,-0.09047619047619047,-0.09047619047619047,-0.09047619047619047,-0.09047619047619047,-0.09047619047619047,-0.09047619047619047,-0.09047619047619047,-0.08095238095238096,-0.08095238095238096,-0.06190476190476191,-0.03333333333333333,-0.023809523809523808,0.004761904761904762,0.014285714285714285,0.014285714285714285,0.023809523809523808,0.023809523809523808,0.023809523809523808,0.023809523809523808,0.023809523809523808,0.023809523809523808,0.023809523809523808,0.023809523809523808,0.023809523809523808,0.023809523809523808,0.023809523809523808,0.023809523809523808,0.023809523809523808,0.023809523809523808,0.023809523809523808,0.023809523809523808,-0.004761904761904762,-0.004761904761904762,-0.023809523809523808,-0.03333333333333333,-0.04285714285714286,-0.05238095238095238,-0.06190476190476191,-0.06190476190476191,-0.08095238095238096,-0.08095238095238096,-0.1,-0.11904761904761904,-0.1380952380952381,-0.14761904761904762,-0.15714285714285714,-0.16666666666666666,-0.1761904761904762,-0.18571428571428572,-0.19523809523809524,-0.19523809523809524,-0.20476190476190476,-0.20476190476190476,-0.20476190476190476,-0.20476190476190476,-0.20476190476190476,-0.20476190476190476,-0.20476190476190476,-0.20476190476190476,-0.20476190476190476,-0.20476190476190476,-0.20476190476190476,-0.20476190476190476,-0.20476190476190476,-0.20476190476190476,-0.20476190476190476,-0.20476190476190476,-0.20476190476190476,-0.19523809523809524,-0.18571428571428572,-0.15714285714285714,-0.12857142857142856,-0.11904761904761904,-0.10952380952380952,-0.08095238095238096,-0.07142857142857142,-0.04285714285714286,-0.004761904761904762,0.014285714285714285,0.04285714285714286,0.07142857142857142,0.08095238095238096,0.08095238095238096,0.09047619047619047,0.1,0.10952380952380952,0.12857142857142856,0.12857142857142856,0.1380952380952381,0.1380952380952381,0.1380952380952381,0.1380952380952381,0.1380952380952381,0.12857142857142856,0.09047619047619047,0.07142857142857142,0.04285714285714286,0.023809523809523808,0.004761904761904762,-0.04285714285714286,-0.06190476190476191,-0.06190476190476191,-0.06190476190476191,-0.06190476190476191,-0.06190476190476191,-0.06190476190476191,-0.06190476190476191,-0.06190476190476191,-0.06190476190476191,-0.06190476190476191,-0.06190476190476191,-0.06190476190476191,-0.06190476190476191,-0.06190476190476191,-0.06190476190476191,-0.06190476190476191,-0.07142857142857142,-0.1,-0.11904761904761904,-0.16666666666666666,-0.20476190476190476,-0.22380952380952382,-0.2619047619047619,-0.28095238095238095,-0.2904761904761905,-0.2904761904761905,-0.3,-0.3,-0.3,-0.3,-0.3,-0.3,-0.2904761904761905,-0.2714285714285714,-0.23333333333333334,-0.18571428571428572,-0.15714285714285714,-0.11904761904761904,-0.09047619047619047,-0.07142857142857142,-0.05238095238095238,-0.03333333333333333,-0.023809523809523808,-0.014285714285714285,-0.014285714285714285,-0.004761904761904762,-0.004761904761904762,-0.004761904761904762,0.004761904761904762,0.004761904761904762,0.004761904761904762,0.004761904761904762,0.004761904761904762,0.004761904761904762,0.004761904761904762,0.004761904761904762,0.004761904761904762,-0.014285714285714285,-0.023809523809523808,-0.023809523809523808,-0.03333333333333333,-0.03333333333333333,-0.03333333333333333,-0.03333333333333333,-0.03333333333333333,-0.03333333333333333,-0.03333333333333333,-0.03333333333333333,-0.03333333333333333,-0.03333333333333333,-0.03333333333333333,-0.03333333333333333,-0.03333333333333333,-0.03333333333333333,-0.03333333333333333,-0.03333333333333333,-0.03333333333333333,-0.03333333333333333,-0.03333333333333333,-0.03333333333333333,-0.03333333333333333,-0.03333333333333333,-0.03333333333333333,-0.03333333333333333,-0.03333333333333333,-0.03333333333333333,-0.03333333333333333,-0.03333333333333333,-0.03333333333333333,-0.03333333333333333,-0.03333333333333333,-0.03333333333333333,-0.033333333