[{"success":true,"trial_type":"fullscreen","trial_index":0,"time_elapsed":4092,"internal_node_id":"0.0-0.0","protocol_sum":"","subject_identifier":308,"subject_sum":[29,14,190,165,82,235,67,208,177,225,86,31,109,232,174,146,227,222,127,26,190,197,35,153,36,77,28,174,215,219,223,166],"subject_pair":154,"STUDY_ID":"66a0b3911f23dfc7665bb169","PROLIFIC_PID":"6680d577ce8b233327b0272e","SESSION_ID":"66a11634b9cc4e59d42e65cf","practice_instructions":1,"leaderboard_instructions":0,"bonus":1,"reveal_word":false,"self_rating":"4","confidence":"38"},{"view_history":"[{\"page_index\":0,\"viewing_time\":5880.5999999940395}]","rt":5880.79999999702,"trial_type":"instructions","trial_index":1,"time_elapsed":9974,"internal_node_id":"0.0-1.0","protocol_sum":"","subject_identifier":308,"subject_sum":[29,14,190,165,82,235,67,208,177,225,86,31,109,232,174,146,227,222,127,26,190,197,35,153,36,77,28,174,215,219,223,166],"subject_pair":154,"STUDY_ID":"66a0b3911f23dfc7665bb169","PROLIFIC_PID":"6680d577ce8b233327b0272e","SESSION_ID":"66a11634b9cc4e59d42e65cf","practice_instructions":1,"leaderboard_instructions":0,"bonus":1,"reveal_word":false,"self_rating":"4","confidence":"38"},{"view_history":"[{\"page_index\":0,\"viewing_time\":18527.5}]","rt":18527.59999999404,"trial_type":"instructions","trial_index":2,"time_elapsed":28502,"internal_node_id":"0.0-2.0-0.0","protocol_sum":"","subject_identifier":308,"subject_sum":[29,14,190,165,82,235,67,208,177,225,86,31,109,232,174,146,227,222,127,26,190,197,35,153,36,77,28,174,215,219,223,166],"subject_pair":154,"STUDY_ID":"66a0b3911f23dfc7665bb169","PROLIFIC_PID":"6680d577ce8b233327b0272e","SESSION_ID":"66a11634b9cc4e59d42e65cf","practice_instructions":1,"leaderboard_instructions":0,"bonus":1,"reveal_word":false,"self_rating":"4","confidence":"38"},{"rt":10042.29999999702,"responses":"{\"Q0\":\"... reveal the word with as <b>few letter guesses</b> as possible\"}","question_order":"[0]","trial_type":"survey-multi-choice","trial_index":3,"time_elapsed":38545,"internal_node_id":"0.0-2.0-1.0","protocol_sum":"","subject_identifier":308,"subject_sum":[29,14,190,165,82,235,67,208,177,225,86,31,109,232,174,146,227,222,127,26,190,197,35,153,36,77,28,174,215,219,223,166],"subject_pair":154,"correct":true,"test_part":"multichoice_nonpretend","STUDY_ID":"66a0b3911f23dfc7665bb169","PROLIFIC_PID":"6680d577ce8b233327b0272e","SESSION_ID":"66a11634b9cc4e59d42e65cf","practice_instructions":1,"leaderboard_instructions":0,"bonus":1,"reveal_word":false,"self_rating":"4","confidence":"38"},{"view_history":"[{\"page_index\":0,\"viewing_time\":2047.3999999910593}]","rt":2047.5,"trial_type":"instructions","trial_index":4,"time_elapsed":40593,"internal_node_id":"0.0-3.0","protocol_sum":"","subject_identifier":308,"subject_sum":[29,14,190,165,82,235,67,208,177,225,86,31,109,232,174,146,227,222,127,26,190,197,35,153,36,77,28,174,215,219,223,166],"subject_pair":154,"STUDY_ID":"66a0b3911f23dfc7665bb169","PROLIFIC_PID":"6680d577ce8b233327b0272e","SESSION_ID":"66a11634b9cc4e59d42e65cf","practice_instructions":1,"leaderboard_instructions":0,"bonus":1,"reveal_word":false,"self_rating":"4","confidence":"38"},{"word":"ZEBRA","click_log":{"letter":["","Z","E","B","R","A"],"t":[0,17774.59999999404,19372.29999999702,21525.29999999702,23297.29999999702,24336.29999999702],"hit":[null,1,1,1,1,1],"asked":["","Z","ZE","ZEB","ZEBR","ZEBRA"],"word_state":["_____","Z____","ZE___","ZEB__","ZEBR_","ZEBRA"]},"hover_log":{"letter":["?","?","T","T","T","T","?","?","?","?","?","?","?","?","?","?","?","?","?","?","?","?","?","?","?","?","?","?","?","?","?","?","?","?","?","?","?","?","?","?","?","?","?","?","?","?","?","?","?","?","?","?","?","?","?","?","?","?","?","?","?","?","?","?","?","?","?","?","?","?","?","?","?","?","?","?","?","?","?","?","?","?","?","?","?","?","?","?","?","?","?","?","?","?","?","?","?","?","?","?","?","?","?","?","?","?","?","?","?","?","?","?","?","?","?","?","?","?","?","?","?","?","?","?","?","?","?","?","?","?","?","?","?","?","?","?","?","?","?","?","?","?","?","?","?","?","?","?","?","?","?","?","?","?","?","?","?","?","?","?","?","?","?","?","?","?","?","?","?","?","?","?","?","?","?","?","?","?","?","?","?","?","?","?","?","?","?","?","?","?","?","?","?","?","?","?","?","?","?","?","?","?","?","?","?","?","?","?","?","?","?","?","?","?","?","?","?","?","?","?","?","?","?","?","?","?","?","?","?","?","?","?","?","?","?","?","?","?","?","?","?","?","?","?","?","?","?","?","?","?","?","?","?","?","?","?","?","?","?","?","?","?","?","?","?","?","?","?","?","?","?","?","?","?","?","?","?","?","?","?","?","?","?","?","?","?","?","?","?","?","?","?","?","?","?","?","?","?","?","?","?","?","?","?","?","?","?","?","?","?","?","?","?","?","?","?","?","?","?","?","?","?","?","?","?","?","?","?","?","?","?","?","?","?","?","?","?","?","?","?","?","?","?","?","?","?","?","?","?","?","?","?","?","?","?","?","?","?","?","?","?","?","?","?","?","?","?","?","?","?","?","?","?","?","?","?","?","?","?","?","?","?","?","?","?","?","?","?","?","?","?","?","?","?","?","?","?","?","?","?","?","?","?","?","?","?","?","?","?","?","?","?","?","?","?","?","?","?","?","?","?","?","?","?","?","?","?","?","?","?","?","?","?","?","?","?","?","?","?","?","?","?","?","?","?","?","?","?","?","?","?","?","?","?","?","?","?","?","?","?","?","?","?","?","?","?","?","?","?","?","?","?","?","?","?","?","?","?","?","?","?","?","?","?","?","?","?","?","?","?","?","?","?","?","?","?","?","?","?","?","?","?","?","?","?","?","?","?","?","?","?","?","?","?","?","?","?","?","?","?","?","?","?","?","?","?","?","?","?","?","?","G","?","?","?","O","O","O","O","O","O","O","O","O","O","O","O","O","O","O","O","O","O","O","O","O","O","O","O","O","O","O","O","O","O","O","O","O","O","O","O","O","O","O","O","O","O","?","?","?","?","?","?","?","?","?","?","?","?","?","?","?","?","?","?","?","?","?","?","?","?","?","?","?","?","?","?","?","?","P","P","P","P","P","P","P","P","P","P","P","P","P","P","P","P","P","P","P","P","P","P","P","P","P","P","P","P","P","P","P","P","P","P","P","P","P","P","P","P","P","P","P","P","P","P","P","P","P","P","P","P","P","P","P","P","P","P","P","P","P","P","P","P","P","P","P","P","P","P","P","P","P","P","P","P","P","P","P","P","P","P","P","P","P","P","P","P","P","P","P","P","P","P","P","P","P","P","P","P","P","P","P","P","P","P","P","P","G","?","?","?","?","?","?","?","?","?","?","?","?","?","?","?","?","?","?","?","?","?","?","?","O","?","?","X","X","X","X","X","X","X","X","X","X","X","X","X","X","?","?","?","?","?","?","?","?","?","?","?","?","?","?","?","?","?","?","?","?","?","?","?","?","?","?","?","?","?","?","?","?","?","?","?","?","?","?","?","?","?","?","?","?","?","?","?","?","?","?","?","?","?","?","?","?","?","?","?","?","?","?","?","?","?","?","?","?","?","?","?","?","?","?","?","?","?","?","?","?","?","?","?","?","?","?","?","?","?","?","?","?","?","?","?","?","?","?","?","?","?","?","?","?","?","?","?","?","?","?","?","?","?","?","?","?","?","?","?","?","?","?","?","?","?","?","?","?","?","?","?","?","?","?","?","?","?","?","?","?","?","?","?","?","?","?","?","?","?","?","?","?","?","?","?","?","?","?","?","?","?","?","?","?","?","?","?","?","?","?","?","?","?","?","W","N","E","?","?","?","?","?","?","?","?","?","?","?","?","?","?","?","?","?","?","?","?","?","?","?","?","?","?","?","?","?","?","?","?","?","?","?","?","?","?","?","?","?","?","?","?","?","?","?","?","?","?","?","?","?","?","?","?","?","?","?","?","?","?","?","?","?","?","?","?","?","?","?","?","?","?","?","?","?","?","?","?","?","?","?","?","?","?","?","D","?","L","L","?","?","T","T","T","T","T","T","?","?","?","?","?","?","?","?","?","?","?","?","?","?","?","?","?","?","?","?","Z","Z","Z","Z","Z","Z","Z","Z","Z","Z","Z","Z","Z","Z","Z","Z","Z","Z","Z","Z","Z","Z","Z","Z","Z","Z","Z","Z","Z","Z","Z","Z","Z","Z","Z","Z","Z","Z","Z","Z","Z","Z","Z","Z","Z","Z","Z","Z","Z","Z","?","?","?","?","?","?","?","?","?","?","?","?","?","?","?","?","?","?","?","?","?","?","O","?","?","?","?","?","?","?","?","?","C","C","C","C","C","C","C","C","C","C","?","?","D","D","D","D","D","D","D","D","D","D","D","?","?","?","?","?","?","?","E","E","E","E","E","E","E","E","E","E","E","E","E","E","E","E","E","E","E","E","E","E","E","E","E","E","E","E","E","E","E","E","E","E","E","E","E","E","E","?","?","?","N","N","N","?","?","?","?","?","?","V","V","V","V","V","V","V","V","V","V","V","V","V","V","V","V","V","V","V","?","W","?","?","?","?","?","?","?","?","?","?","?","?","?","?","?","?","O","O","O","O","?","?","?","?","E","?","D","?","C","C","C","C","C","C","C","C","C","C","C","C","C","C","C","C","C","C","C","C","C","C","C","C","C","C","C","C","C","C","C","?","?","?","?","?","?","B","B","B","B","B","B","B","B","B","B","B","B","B","B","B","B","B","B","B","B","B","B","B","B","B","B","B","?","?","?","L","M","?","?","?","?","?","?","?","?","?","?","?","?","?","?","?","?","?","?","?","?","?","?","?","?","?","?","?","?","?","U","U","U","U","U","?","?","V","V","?","?","?","?","?","?","?","?","?","?","X","X","X","X","X","?","Y","Y","Y","Y","?","?","?","?","?","?","?","?","?","?","?","?","?","?","?","?","?","?","?","?","?","?","R","R","R","R","R","R","R","R","R","R","R","R","R","R","R","R","R","R","R","R","R","R","R","?","?","Q","?","?","?","?","?","?","?","?","?","?","T","?","S","?","?","?","?","?","?","?","?","?","?","?","?","?","J","J","J","J","J","J","J","J","J","?","?","?","A","A","A","A","A","A","A","A","A","A","A","A","A","A","A","A","A","A","A","A","A","A","A","?","?","?","L","?","?","W","?","?","?","?","?","?","?","?","?","?","?","?","?","?","?","?","?","?","?","?","?","?","?","?","?","?","?","?","?","?","?","?","?","?","?","?","?","?","?","?","?","?","?","?","?","?","?","?","?","?","?","?","?","?","?","?","?","?","?","?","?","?","?","?","?","?","?","?","?","?","?","?","?","?","?","?","?","?","?","?","?","?","?","?","?","?","?","?","?","?","?","?","?","?","?","?","?","?","?","?","?","?","?","?","?","?","?","?","?","?"],"t":[21,31,48,66,81,97,114,126,142,154,169,186,203,219,236,253,265,280,297,314,330,347,364,380,397,414,431,447,464,480,497,514,525,541,558,575,591,608,625,641,658,675,691,704,720,736,753,769,786,803,819,836,853,869,886,902,919,936,953,969,986,1003,1019,1032,1047,1064,1080,1092,1108,1125,1137,1153,1169,1186,1202,1219,1236,1253,1269,1286,1304,1319,1336,1353,1369,1388,1403,1419,1436,1453,1470,1486,1503,1519,1536,1554,1569,1586,1603,1619,1636,1653,1669,1686,1704,1719,1736,1753,1769,1786,1804,1819,1836,1853,1869,1886,1903,1919,1936,1953,1969,1986,1998,2014,2030,2047,2065,2080,2097,2114,2130,2147,2164,2180,2197,2214,2230,2247,2264,2280,2297,2315,2330,2347,2364,2380,2397,2414,2426,2441,2458,2475,2491,2508,2525,2541,2558,2575,2591,2608,2625,2641,2658,2675,2692,2708,2725,2741,2758,2775,2791,2809,2825,2842,2858,2875,2891,2908,2925,2941,2958,2975,2991,3008,3025,3042,3054,3069,3086,3103,3119,3136,3153,3169,3186,3203,3220,3236,3253,3269,3286,3304,3319,3336,3353,3369,3386,3403,3419,3436,3453,3470,3486,3503,3519,3536,3553,3565,3580,3597,3614,3630,3647,3664,3680,3697,3714,3730,3747,3764,3780,3797,3814,3830,3847,3864,3880,3897,3914,3930,3947,3960,3975,3991,4008,4025,4041,4058,4075,4091,4108,4125,4142,4158,4170,4186,4203,4219,4236,4253,4269,4286,4303,4319,4336,4353,4369,4386,4403,4419,4436,4453,4469,4486,4498,4514,4530,4543,4558,4575,4591,4608,4625,4642,4660,4675,4687,4703,4719,4736,4753,4769,4786,4803,4819,4836,4853,4869,4887,4903,4919,4936,4953,4969,4981,4997,5014,5030,5047,5064,5080,5097,5110,5125,5141,5158,5175,5192,5208,5225,5242,5253,5270,5286,5303,5319,5336,5353,5369,5382,5397,5414,5430,5447,5464,5480,5497,5514,5532,5547,5564,5580,5597,5609,5625,5642,5658,5675,5692,5708,5725,5742,5758,5775,5792,5808,5826,5842,5858,5875,5892,5908,5925,5942,5959,5975,5992,6003,6019,6036,6053,6070,6086,6103,6115,6130,6147,6165,6180,6197,6214,6231,6247,6259,6275,6293,6308,6325,6343,6358,6371,6386,6403,6421,6436,6453,6469,6486,6503,6519,6536,6554,6569,6586,6603,6619,6636,6653,6669,6686,6703,6719,6737,6753,6769,6786,6798,6814,6830,6847,6864,6881,6897,6914,6927,6942,6958,6975,6992,7005,7019,7036,7053,7069,7086,7103,7119,7136,7153,7169,7186,7203,7219,7236,7253,7269,7282,7297,7314,7332,7347,7364,7381,7397,7414,7431,7442,7458,7475,7492,7508,7525,7542,7558,7576,7592,7608,7625,7642,7658,7676,7692,7708,7725,7742,7758,7775,7792,7808,7825,7842,7858,7875,7892,7908,7925,7942,7958,7975,7992,8008,8025,8042,8058,8075,8092,8108,8125,8142,8160,8175,8192,8208,8225,8242,8258,8275,8292,8308,8320,8336,8353,8369,8386,8403,8420,8436,8453,8469,8486,8503,8520,8536,8553,8570,8586,8603,8620,8631,8647,8664,8683,8697,8714,8731,8747,8764,8781,8798,8814,8832,8847,8864,8881,8897,8910,8925,8942,8954,8969,8986,9003,9020,9036,9053,9069,9086,9103,9119,9136,9153,9169,9187,9203,9220,9236,9253,9270,9282,9297,9316,9331,9342,9358,9375,9392,9408,9425,9438,9453,9470,9482,9497,9510,9525,9538,9553,9570,9586,9603,9620,9636,9653,9669,9686,9703,9721,9736,9754,9769,9786,9804,9819,9836,9853,9870,9886,9903,9919,9932,9947,9964,9977,9992,10009,10025,10042,10058,10075,10092,10108,10125,10142,10158,10175,10192,10208,10225,10242,10258,10271,10286,10304,10320,10338,10353,10371,10386,10403,10420,10436,10449,10464,10481,10497,10514,10531,10547,10564,10581,10597,10614,10631,10647,10664,10681,10693,10708,10725,10742,10758,10775,10792,10808,10825,10843,10858,10875,10892,10909,10925,10942,10958,10977,10992,11008,11020,11036,11053,11070,11086,11103,11120,11136,11153,11170,11186,11203,11220,11236,11253,11270,11286,11303,11319,11336,11348,11364,11381,11397,11415,11431,11447,11464,11477,11492,11508,11525,11542,11558,11575,11592,11608,11625,11642,11659,11675,11692,11709,11725,11742,11759,11775,11792,11809,11825,11842,11859,11875,11892,11909,11925,11942,11959,11970,11986,12003,12020,12036,12053,12070,12086,12103,12120,12136,12153,12170,12186,12203,12215,12231,12247,12264,12281,12293,12309,12326,12342,12359,12376,12392,12409,12426,12442,12459,12475,12492,12509,12526,12542,12558,12571,12586,12604,12620,12636,12653,12670,12686,12703,12720,12736,12753,12770,12787,12803,12816,12831,12848,12859,12875,12892,12909,12925,12942,12959,12975,12988,13003,13020,13036,13054,13070,13086,13103,13120,13136,13153,13170,13186,13203,13220,13236,13253,13270,13286,13303,13320,13336,13353,13365,13381,13398,13414,13426,13442,13460,13475,13492,13509,13525,13538,13553,13570,13586,13603,13620,13636,13653,13670,13687,13703,13716,13731,13747,13764,13783,13798,13815,13831,13847,13864,13876,13892,13909,13925,13942,13958,13975,13992,14009,14025,14042,14059,14075,14092,14109,14125,14142,14158,14175,14192,14209,14225,14242,14259,14275,14292,14309,14325,14342,14359,14375,14392,14409,14425,14442,14459,14475,14494,14509,14525,14543,14560,14575,14592,14609,14625,14642,14659,14675,14692,14709,14727,14742,14759,14775,14788,14803,14820,14836,14848,14864,14881,14898,14914,14931,14948,14964,14981,14993,15009,15025,15042,15059,15075,15092,15109,15121,15136,15154,15170,15187,15198,15214,15231,15248,15264,15276,15292,15309,15325,15342,15354,15371,15387,15403,15420,15437,15453,15470,15487,15503,15515,15531,15548,15564,15581,15598,15614,15631,15648,15664,15681,15698,15714,15731,15748,15765,15781,15793,15809,15825,15842,15859,15875,15893,15909,15925,15942,15959,15975,15992,16009,16025,16042,16059,16075,16092,16109,16125,16142,16159,16176,16192,16209,16225,16242,16259,16275,16292,16310,16325,16342,16359,16375,16392,16409,16427,16444,16459,16475,16492,16509,16525,16542,16559,16575,16592,16609,16625,16642,16659,16675,16692,16709,16725,16742,16759,16775,16787,16799,16814,16831,16848,16864,16881,16898,16915,16931,16948,16964,16981,16998,17014,17031,17048,17064,17081,17098,17115,17131,17148,17165,17181,17198,17216,17231,17244,17259,17275,17292,17309,17325,17342,17359,17375,17392,17409,17425,17442,17459,17475,17492,17509,17525,17542,17559,17575,17587,17599,17614,17631,17648,17664,17681,17698,17711,17726,17742,17759,17777,17792,17809,17826,17842,17859,17876,17892,17909,17926,17942,17954,17970,17987,18003,18020,18037,18053,18070,18087,18103,18120,18137,18153,18170,18187,18203,18220,18237,18253,18270,18287,18303,18320,18337,18353,18370,18388,18405,18420,18437,18453,18470,18488,18503,18520,18537,18553,18570,18588,18605,18620,18637,18655,18670,18687,18704,18720,18737,18753,18770,18787,18803,18820,18837,18853,18870,18887,18903,18915,18931,18948,18966,18981,18998,19015,19031,19050,19064,19081,19098,19115,19131,19150,19165,19181,19193,19209,19226,19242,19259,19276,19292,19309,19326,19342,19359,19376,19392,19409,19426,19442,19459,19476,19492,19509,19526,19542,19559,19571,19587,19603,19620,19637,19654,19670,19688,19703,19720,19737,19753,19770,19787,19803,19820,19837,19853,19866,19881,19894,19909,19926,19944,19959,19976,19992,20009,20026,20042,20054,20070,20083,20098,20114,20127,20142,20159,20176,20187,20203,20215,20231,20248,20264,20281,20298,20315,20331,20348,20365,20381,20398,20415,20431,20448,20465,20481,20493,20509,20527,20542,20559,20576,20592,20609,20626,20642,20659,20676,20692,20709,20727,20742,20759,20776,20792,20809,20826,20842,20859,20876,20893,20909,20926,20942,20959,20976,20992,21009,21026,21042,21059,21076,21092,21109,21126,21142,21159,21176,21193,21209,21226,21243,21259,21271,21287,21303,21320,21337,21354,21370,21387,21405,21420,21437,21453,21470,21487,21503,21520,21537,21554,21570,21587,21603,21620,21637,21655,21670,21682,21698,21715,21731,21748,21765,21781,21798,21815,21831,21848,21865,21881,21898,21915,21931,21948,21965,21981,21998,22015,22031,22048,22065,22083,22098,22115,22131,22143,22159,22176,22189,22203,22220,22237,22254,22270,22287,22305,22320,22337,22354,22366,22381,22393,22409,22426,22442,22459,22476,22492,22509,22526,22542,22559,22577,22593,22604,22620,22633,22648,22665,22681,22698,22715,22731,22748,22765,22781,22798,22811,22826,22842,22859,22876,22894,22909,22926,22942,22959,22976,22992,23009,23021,23037,23054,23070,23089,23103,23120,23137,23154,23170,23187,23204,23220,23237,23254,23270,23287,23304,23320,23339,23354,23370,23387,23404,23422,23437,23454,23470,23487,23504,23515,23531,23548,23565,23581,23593,23609,23626,23642,23654,23670,23687,23704,23720,23737,23754,23765,23781,23798,23815,23833,23848,23865,23881,23898,23916,23931,23948,23965,23981,23998,24010,24026,24042,24065,24081,24093,24110,24126,24142,24159,24176,24192,24209,24226,24242,24259,24276,24288,24304,24320,24339,24354,24370,24387,24404,24420,24437,24449,24465,24481,24498,24515,24531,24543,24559,24576,24594,24609,24626,24642,24654,24670,24687,24704,24720,24737,24754,24770,24787,24804,24816,24832,24848,24865,24881,24899,24915,24932,24948,24965,24981,24993,25009,25026,25043,25055,25070,25083,25098,25115,25131,25148,25165,25181,25198,25217,25231,25248,25265,25281,25298,25315,25331,25348,25367,25381,25398,25415,25432,25448,25465,25482,25498,25517,25532,25550,25566,25583,25598,25615,25627,25643,25659,25676,25694,25709,25726,25743,25759,25776,25793,25805,25820,25837,25854,25872,25887,25904,25920,25937,25949,25965,25983,25998,26015,26031,26048,26061,26076,26093,26110,26126,26144,26159,26176,26193,26209,26228,26244,26259,26276,26293,26311,26326,26344],"hit":[null],"x":[-3.7823129251700682,0.07142857142857142,0.09863945578231292,0.1292517006802721,0.14965986394557823,0.16326530612244897,0.17687074829931973,0.19047619047619047,0.22789115646258504,0.2891156462585034,0.3945578231292517,0.5544217687074829,0.7653061224489796,0.9489795918367347,1.1496598639455782,1.3231292517006803,1.4183673469387754,1.5170068027210883,1.598639455782313,1.683673469387755,1.748299319727891,1.816326530612245,1.8741496598639455,1.91156462585034,1.935374149659864,1.945578231292517,1.9557823129251701,1.9625850340136055,1.9727891156462585,1.9761904761904763,1.9761904761904763,1.9761904761904763,1.9761904761904763,1.9761904761904763,1.9761904761904763,1.9761904761904763,1.9761904761904763,1.9761904761904763,1.9761904761904763,1.9761904761904763,1.9761904761904763,1.9761904761904763,1.9761904761904763,1.9761904761904763,1.9761904761904763,1.9761904761904763,1.9761904761904763,1.9761904761904763,1.9761904761904763,1.9761904761904763,1.9761904761904763,1.9761904761904763,1.9761904761904763,1.9761904761904763,1.9761904761904763,1.9761904761904763,1.9761904761904763,1.9761904761904763,1.9761904761904763,1.9761904761904763,1.9761904761904763,1.9761904761904763,1.9761904761904763,1.9761904761904763,1.9761904761904763,1.9761904761904763,1.9761904761904763,1.9761904761904763,1.9761904761904763,1.9761904761904763,1.9761904761904763,1.9761904761904763,1.9761904761904763,1.9761904761904763,1.9761904761904763,1.9761904761904763,1.9761904761904763,1.9761904761904763,1.9761904761904763,1.9761904761904763,1.9761904761904763,1.9761904761904763,1.9761904761904763,1.9761904761904763,1.9761904761904763,1.9761904761904763,1.9761904761904763,1.9761904761904763,1.9761904761904763,1.9761904761904763,1.9761904761904763,1.9761904761904763,1.9761904761904763,1.9761904761904763,1.9761904761904763,1.9761904761904763,1.9761904761904763,1.9761904761904763,1.9761904761904763,1.9761904761904763,1.9761904761904763,1.9761904761904763,1.9761904761904763,1.9761904761904763,1.9761904761904763,1.9761904761904763,1.9761904761904763,1.9761904761904763,1.9761904761904763,1.9761904761904763,1.9761904761904763,1.9761904761904763,1.9761904761904763,1.9761904761904763,1.9761904761904763,1.9761904761904763,1.9761904761904763,1.9761904761904763,1.9761904761904763,1.9761904761904763,1.9761904761904763,1.9761904761904763,1.9761904761904763,1.9761904761904763,1.9761904761904763,1.9761904761904763,1.9761904761904763,1.9761904761904763,1.9761904761904763,1.9761904761904763,1.9761904761904763,1.9761904761904763,1.9761904761904763,1.9761904761904763,1.9761904761904763,1.9761904761904763,1.9761904761904763,1.9761904761904763,1.9761904761904763,1.9761904761904763,1.9761904761904763,1.9761904761904763,1.9761904761904763,1.9761904761904763,1.9761904761904763,1.9761904761904763,1.9761904761904763,1.9761904761904763,1.9761904761904763,1.9761904761904763,1.9761904761904763,1.9761904761904763,1.9761904761904763,1.9761904761904763,1.9761904761904763,1.9761904761904763,1.9761904761904763,1.9761904761904763,1.9761904761904763,1.9761904761904763,1.9761904761904763,1.9761904761904763,1.9761904761904763,1.9761904761904763,1.9761904761904763,1.9761904761904763,1.9761904761904763,1.9761904761904763,1.9761904761904763,1.9761904761904763,1.9761904761904763,1.9761904761904763,1.9761904761904763,1.9761904761904763,1.9761904761904763,1.9761904761904763,1.9761904761904763,1.9761904761904763,1.9761904761904763,1.9761904761904763,1.9761904761904763,1.9761904761904763,1.9761904761904763,1.9761904761904763,1.9761904761904763,1.9761904761904763,1.9761904761904763,1.9761904761904763,1.9761904761904763,1.9761904761904763,1.9761904761904763,1.9761904761904763,1.9761904761904763,1.9761904761904763,1.9761904761904763,1.9761904761904763,1.9761904761904763,1.9761904761904763,1.9761904761904763,1.9761904761904763,1.9761904761904763,1.9761904761904763,1.9761904761904763,1.9761904761904763,1.9761904761904763,1.9761904761904763,1.9761904761904763,1.9761904761904763,1.9761904761904763,1.9761904761904763,1.9761904761904763,1.9761904761904763,1.9761904761904763,1.9761904761904763,1.9761904761904763,1.9761904761904763,1.9761904761904763,1.9761904761904763,1.9761904761904763,1.9761904761904763,1.9761904761904763,1.9761904761904763,1.9761904761904763,1.9761904761904763,1.9761904761904763,1.9761904761904763,1.9761904761904763,1.9761904761904763,1.9761904761904763,1.9761904761904763,1.9761904761904763,1.9761904761904763,1.9761904761904763,1.9761904761904763,1.9761904761904763,1.9761904761904763,1.9761904761904763,1.9761904761904763,1.9761904761904763,1.9761904761904763,1.9761904761904763,1.9761904761904763,1.9761904761904763,1.9761904761904763,1.9761904761904763,1.9761904761904763,1.9761904761904763,1.9761904761904763,1.9761904761904763,1.9761904761904763,1.9761904761904763,1.9761904761904763,1.9761904761904763,1.9761904761904763,1.9591836734693877,1.8775510204081634,1.6802721088435375,1.4761904761904763,1.3027210884353742,1.1768707482993197,1.0952380952380953,1.0068027210884354,0.9013605442176871,0.8061224489795918,0.7244897959183674,0.6700680272108843,0.6428571428571429,0.6156462585034014,0.5782312925170068,0.5136054421768708,0.4387755102040816,0.3945578231292517,0.38095238095238093,0.3741496598639456,0.36394557823129253,0.3435374149659864,0.3231292517006803,0.30952380952380953,0.2925170068027211,0.282312925170068,0.2789115646258503,0.2789115646258503,0.2789115646258503,0.2789115646258503,0.272108843537415,0.2619047619047619,0.25170068027210885,0.24489795918367346,0.24149659863945577,0.24149659863945577,0.24149659863945577,0.24149659863945577,0.24149659863945577,0.24149659863945577,0.24149659863945577,0.24149659863945577,0.24149659863945577,0.24149659863945577,0.24149659863945577,0.24149659863945577,0.24149659863945577,0.24149659863945577,0.24149659863945577,0.24149659863945577,0.24149659863945577,0.24149659863945577,0.24149659863945577,0.24149659863945577,0.24149659863945577,0.24149659863945577,0.24149659863945577,0.24149659863945577,0.24149659863945577,0.24489795918367346,0.25510204081632654,0.2755102040816326,0.30272108843537415,0.3231292517006803,0.3435374149659864,0.3673469387755102,0.3979591836734694,0.41496598639455784,0.42517006802721086,0.42857142857142855,0.42857142857142855,0.42857142857142855,0.42857142857142855,0.42857142857142855,0.42857142857142855,0.42857142857142855,0.42857142857142855,0.42857142857142855,0.42857142857142855,0.42857142857142855,0.42857142857142855,0.42857142857142855,0.42857142857142855,0.42857142857142855,0.43197278911564624,0.445578231292517,0.46258503401360546,0.48299319727891155,0.5,0.5136054421768708,0.5272108843537415,0.5374149659863946,0.5510204081632653,0.5612244897959183,0.5680272108843537,0.5748299319727891,0.5748299319727891,0.5748299319727891,0.5782312925170068,0.5782312925170068,0.5782312925170068,0.5816326530612245,0.5816326530612245,0.5816326530612245,0.5816326530612245,0.5816326530612245,0.5816326530612245,0.5850340136054422,0.5884353741496599,0.6020408163265306,0.6156462585034014,0.6292517006802721,0.6428571428571429,0.6632653061224489,0.6836734693877551,0.7074829931972789,0.7278911564625851,0.7448979591836735,0.7585034013605442,0.7687074829931972,0.7789115646258503,0.7857142857142857,0.7925170068027211,0.7993197278911565,0.8027210884353742,0.8095238095238095,0.8129251700680272,0.8163265306122449,0.8197278911564626,0.8231292517006803,0.8299319727891157,0.8401360544217688,0.8537414965986394,0.8673469387755102,0.8809523809523809,0.891156462585034,0.8979591836734694,0.9115646258503401,0.9251700680272109,0.935374149659864,0.9387755102040817,0.9387755102040817,0.9387755102040817,0.9387755102040817,0.9387755102040817,0.9387755102040817,0.9387755102040817,0.9387755102040817,0.9387755102040817,0.9387755102040817,0.9387755102040817,0.9387755102040817,0.9387755102040817,0.9387755102040817,0.9387755102040817,0.9387755102040817,0.9387755102040817,0.9387755102040817,0.9387755102040817,0.9387755102040817,0.9387755102040817,0.9387755102040817,0.9387755102040817,0.9387755102040817,0.9387755102040817,0.9387755102040817,0.9387755102040817,0.9387755102040817,0.9387755102040817,0.9387755102040817,0.9387755102040817,0.9387755102040817,0.9387755102040817,0.9387755102040817,0.9387755102040817,0.9387755102040817,0.9387755102040817,0.9387755102040817,0.9387755102040817,0.9387755102040817,0.9387755102040817,0.9387755102040817,0.9387755102040817,0.9387755102040817,0.9387755102040817,0.9387755102040817,0.9387755102040817,0.9387755102040817,0.9387755102040817,0.9387755102040817,0.9387755102040817,0.9387755102040817,0.9387755102040817,0.9387755102040817,0.9387755102040817,0.9387755102040817,0.9387755102040817,0.9387755102040817,0.9387755102040817,0.9387755102040817,0.9387755102040817,0.9387755102040817,0.9387755102040817,0.9387755102040817,0.9387755102040817,0.9387755102040817,0.9387755102040817,0.9387755102040817,0.9387755102040817,0.9387755102040817,0.9387755102040817,0.9387755102040817,0.9387755102040817,0.9387755102040817,0.9387755102040817,0.9387755102040817,0.9387755102040817,0.9387755102040817,0.9387755102040817,0.9387755102040817,0.9387755102040817,0.9387755102040817,0.9387755102040817,0.9387755102040817,0.9387755102040817,0.9387755102040817,0.9387755102040817,0.9387755102040817,0.9387755102040817,0.9387755102040817,0.9387755102040817,0.9387755102040817,0.9387755102040817,0.9387755102040817,0.9387755102040817,0.9387755102040817,0.9387755102040817,0.9387755102040817,0.9387755102040817,0.9387755102040817,0.9387755102040817,0.9387755102040817,0.9387755102040817,0.9387755102040817,0.9387755102040817,0.9387755102040817,0.9387755102040817,0.9387755102040817,0.9387755102040817,0.9387755102040817,0.9387755102040817,0.9387755102040817,0.9387755102040817,0.9387755102040817,0.9387755102040817,0.9387755102040817,0.9387755102040817,0.9387755102040817,0.9387755102040817,0.9387755102040817,0.9387755102040817,0.9387755102040817,0.9387755102040817,0.9387755102040817,0.9387755102040817,0.9387755102040817,0.9387755102040817,0.9387755102040817,0.9387755102040817,0.9285714285714286,0.9081632653061225,0.891156462585034,0.8775510204081632,0.8639455782312925,0.8571428571428571,0.8435374149659864,0.8197278911564626,0.8027210884353742,0.7891156462585034,0.7789115646258503,0.7687074829931972,0.7585034013605442,0.7517006802721088,0.7448979591836735,0.7346938775510204,0.7312925170068028,0.7312925170068028,0.7278911564625851,0.7278911564625851,0.7278911564625851,0.7278911564625851,0.7278911564625851,0.7278911564625851,0.7278911564625851,0.7278911564625851,0.7278911564625851,0.7278911564625851,0.7278911564625851,0.7278911564625851,0.7278911564625851,0.7278911564625851,0.7278911564625851,0.7278911564625851,0.7278911564625851,0.7278911564625851,0.7278911564625851,0.7278911564625851,0.7278911564625851,0.7278911564625851,0.7278911564625851,0.7278911564625851,0.7278911564625851,0.7278911564625851,0.7278911564625851,0.7278911564625851,0.7278911564625851,0.7278911564625851,0.7278911564625851,0.7278911564625851,0.7278911564625851,0.7278911564625851,0.7312925170068028,0.7380952380952381,0.7414965986394558,0.7414965986394558,0.7448979591836735,0.7482993197278912,0.7517006802721088,0.7517006802721088,0.7517006802721088,0.7517006802721088,0.7517006802721088,0.7517006802721088,0.7517006802721088,0.7517006802721088,0.7517006802721088,0.7517006802721088,0.7517006802721088,0.7517006802721088,0.7551020408163265,0.7551020408163265,0.7551020408163265,0.7551020408163265,0.7551020408163265,0.7551020408163265,0.7551020408163265,0.7551020408163265,0.7551020408163265,0.7551020408163265,0.7551020408163265,0.7585034013605442,0.7687074829931972,0.7857142857142857,0.8061224489795918,0.826530612244898,0.8367346938775511,0.8435374149659864,0.8503401360544217,0.8537414965986394,0.8571428571428571,0.8605442176870748,0.8639455782312925,0.8639455782312925,0.8639455782312925,0.8639455782312925,0.8639455782312925,0.8639455782312925,0.8673469387755102,0.8673469387755102,0.8673469387755102,0.8673469387755102,0.8673469387755102,0.8673469387755102,0.8673469387755102,0.8673469387755102,0.8673469387755102,0.8673469387755102,0.8673469387755102,0.8673469387755102,0.8673469387755102,0.8673469387755102,0.8673469387755102,0.8673469387755102,0.8673469387755102,0.8673469387755102,0.8673469387755102,0.8673469387755102,0.8673469387755102,0.8673469387755102,0.8673469387755102,0.8673469387755102,0.8673469387755102,0.8673469387755102,0.8673469387755102,0.8673469387755102,0.8673469387755102,0.8673469387755102,0.8673469387755102,0.8673469387755102,0.8673469387755102,0.8673469387755102,0.8673469387755102,0.8673469387755102,0.8673469387755102,0.8673469387755102,0.8673469387755102,0.8673469387755102,0.8673469387755102,0.8673469387755102,0.8673469387755102,0.8673469387755102,0.8673469387755102,0.8673469387755102,0.8673469387755102,0.8673469387755102,0.8673469387755102,0.8673469387755102,0.8673469387755102,0.8673469387755102,0.8673469387755102,0.8673469387755102,0.8673469387755102,0.8673469387755102,0.8673469387755102,0.8673469387755102,0.8673469387755102,0.8673469387755102,0.8673469387755102,0.8673469387755102,0.8673469387755102,0.8673469387755102,0.8673469387755102,0.8673469387755102,0.8673469387755102,0.8673469387755102,0.8673469387755102,0.8673469387755102,0.8673469387755102,0.8673469387755102,0.8673469387755102,0.8673469387755102,0.8673469387755102,0.8639455782312925,0.8537414965986394,0.8469387755102041,0.8469387755102041,0.8469387755102041,0.8639455782312925,0.8639455782312925,0.8639455782312925,0.8639455782312925,0.8639455782312925,0.8639455782312925,0.8639455782312925,0.8639455782312925,0.8639455782312925,0.8639455782312925,0.8639455782312925,0.8639455782312925,0.8639455782312925,0.8639455782312925,0.8639455782312925,0.8639455782312925,0.8469387755102041,0.8129251700680272,0.7687074829931972,0.7414965986394558,0.7142857142857143,0.6666666666666666,0.6258503401360545,0.6054421768707483,0.6020408163265306,0.6020408163265306,0.5986394557823129,0.5952380952380952,0.6020408163265306,0.6224489795918368,0.6462585034013606,0.673469387755102,0.6972789115646258,0.717687074829932,0.7448979591836735,0.7687074829931972,0.7789115646258503,0.7789115646258503,0.7653061224489796,0.7346938775510204,0.6972789115646258,0.6870748299319728,0.6904761904761905,0.6972789115646258,0.6972789115646258,0.6972789115646258,0.6972789115646258,0.6972789115646258,0.6972789115646258,0.6972789115646258,0.6972789115646258,0.7006802721088435,0.7006802721088435,0.7006802721088435,0.6938775510204082,0.6904761904761905,0.6870748299319728,0.6870748299319728,0.6836734693877551,0.6836734693877551,0.6836734693877551,0.6836734693877551,0.6904761904761905,0.7040816326530612,0.7244897959183674,0.7414965986394558,0.7551020408163265,0.7653061224489796,0.7721088435374149,0.782312925170068,0.7959183673469388,0.8061224489795918,0.8163265306122449,0.826530612244898,0.8333333333333334,0.8435374149659864,0.8537414965986394,0.8571428571428571,0.8571428571428571,0.8571428571428571,0.8571428571428571,0.8571428571428571,0.8571428571428571,0.8571428571428571,0.8571428571428571,0.8469387755102041,0.826530612244898,0.7925170068027211,0.7653061224489796,0.7380952380952381,0.7040816326530612,0.6768707482993197,0.6598639455782312,0.6496598639455783,0.6462585034013606,0.6428571428571429,0.6394557823129252,0.6326530612244898,0.6258503401360545,0.6224489795918368,0.6224489795918368,0.6224489795918368,0.6224489795918368,0.6224489795918368,0.6224489795918368,0.6224489795918368,0.6224489795918368,0.6224489795918368,0.6224489795918368,0.6224489795918368,0.6224489795918368,0.6224489795918368,0.6224489795918368,0.6224489795918368,0.6224489795918368,0.6224489795918368,0.6224489795918368,0.6224489795918368,0.6224489795918368,0.6224489795918368,0.6224489795918368,0.6224489795918368,0.6224489795918368,0.6258503401360545,0.6360544217687075,0.6496598639455783,0.6564625850340136,0.6632653061224489,0.6666666666666666,0.6700680272108843,0.673469387755102,0.6768707482993197,0.6836734693877551,0.6870748299319728,0.6870748299319728,0.6870748299319728,0.6870748299319728,0.6870748299319728,0.6870748299319728,0.6870748299319728,0.6870748299319728,0.6870748299319728,0.6870748299319728,0.6870748299319728,0.6870748299319728,0.6870748299319728,0.6870748299319728,0.6870748299319728,0.6870748299319728,0.6870748299319728,0.6870748299319728,0.6870748299319728,0.6870748299319728,0.6870748299319728,0.6870748299319728,0.6870748299319728,0.6870748299319728,0.6870748299319728,0.6870748299319728,0.6836734693877551,0.6802721088435374,0.6802721088435374,0.6802721088435374,0.6802721088435374,0.6768707482993197,0.673469387755102,0.673469387755102,0.673469387755102,0.673469387755102,0.673469387755102,0.673469387755102,0.673469387755102,0.673469387755102,0.673469387755102,0.673469387755102,0.673469387755102,0.673469387755102,0.673469387755102,0.673469387755102,0.673469387755102,0.673469387755102,0.673469387755102,0.673469387755102,0.673469387755102,0.6700680272108843,0.6700680272108843,0.6666666666666666,0.6666666666666666,0.6632653061224489,0.6632653061224489,0.6632653061224489,0.6632653061224489,0.6632653061224489,0.6632653061224489,0.6632653061224489,0.6632653061224489,0.6632653061224489,0.6632653061224489,0.6632653061224489,0.6632653061224489,0.6632653061224489,0.6632653061224489,0.6632653061224489,0.6632653061224489,0.6632653061224489,0.6632653061224489,0.6632653061224489,0.6632653061224489,0.6632653061224489,0.6632653061224489,0.6632653061224489,0.6632653061224489,0.6598639455782312,0.6598639455782312,0.6598639455782312,0.6666666666666666,0.6802721088435374,0.6802721088435374,0.6768707482993197,0.673469387755102,0.673469387755102,0.673469387755102,0.673469387755102,0.673469387755102,0.673469387755102,0.673469387755102,0.673469387755102,0.673469387755102,0.673469387755102,0.6700680272108843,0.6190476190476191,0.5578231292517006,0.5476190476190477,0.5748299319727891,0.608843537414966,0.6156462585034014,0.608843537414966,0.5850340136054422,0.5340136054421769,0.46938775510204084,0.4421768707482993,0.4387755102040816,0.4387755102040816,0.4387755102040816,0.41496598639455784,0.36394557823129253,0.282312925170068,0.20748299319727892,0.17006802721088435,0.1598639455782313,0.1598639455782313,0.1598639455782313,0.1598639455782313,0.1564625850340136,0.1564625850340136,0.16666666666666666,0.18027210884353742,0.19727891156462585,0.21768707482993196,0.23809523809523808,0.25170068027210885,0.2585034013605442,0.272108843537415,0.2789115646258503,0.2789115646258503,0.2789115646258503,0.282312925170068,0.2891156462585034,0.30272108843537415,0.3231292517006803,0.3435374149659864,0.3741496598639456,0.41156462585034015,0.4523809523809524,0.46938775510204084,0.48299319727891155,0.48299319727891155,0.48299319727891155,0.48299319727891155,0.48299319727891155,0.48299319727891155,0.48299319727891155,0.48299319727891155,0.48299319727891155,0.48299319727891155,0.48299319727891155,0.48639455782312924,0.4965986394557823,0.5136054421768708,0.5408163265306123,0.564625850340136,0.5918367346938775,0.608843537414966,0.6156462585034014,0.6156462585034014,0.6156462585034014,0.6156462585034014,0.6156462585034014,0.6156462585034014,0.6156462585034014,0.6156462585034014,0.6156462585034014,0.6224489795918368,0.6360544217687075,0.6666666666666666,0.7108843537414966,0.7619047619047619,0.7993197278911565,0.8163265306122449,0.8163265306122449,0.8163265306122449,0.8163265306122449,0.8163265306122449,0.8163265306122449,0.8163265306122449,0.8129251700680272,0.7959183673469388,0.7653061224489796,0.7108843537414966,0.6292517006802721,0.5340136054421769,0.43197278911564624,0.36054421768707484,0.30272108843537415,0.25510204081632654,0.22448979591836735,0.19727891156462585,0.17687074829931973,0.16666666666666666,0.16326530612244897,0.16326530612244897,0.16666666666666666,0.1836734693877551,0.22448979591836735,0.2857142857142857,0.3707482993197279,0.45918367346938777,0.5136054421768708,0.5544217687074829,0.6054421768707483,0.6802721088435374,0.782312925170068,0.8843537414965986,0.9591836734693877,1.0136054421768708,1.0204081632653061,1.0204081632653061,1.0204081632653061,1.030612244897959,1.0510204081632653,1.0578231292517006,1.0578231292517006,1.0476190476190477,1.0374149659863945,1.034013605442177,1.034013605442177,1.030612244897959,1.0272108843537415,1.0136054421768708,1.0034013605442176,0.9897959183673469,0.9863945578231292,0.9863945578231292,0.9863945578231292,0.9863945578231292,0.9863945578231292,0.9863945578231292,0.9863945578231292,0.9863945578231292,0.9863945578231292,0.9863945578231292,0.9863945578231292,0.9863945578231292,0.9863945578231292,0.9863945578231292,0.9863945578231292,0.9897959183673469,1,1.0034013605442176,1.0068027210884354,1.0068027210884354,1.0068027210884354,1.0068027210884354,1.0068027210884354,1.0068027210884354,1.0068027210884354,1.0068027210884354,1.0068027210884354,1.0068027210884354,1.0068027210884354,1.0068027210884354,1.0068027210884354,1.0068027210884354,1.0068027210884354,1.0068027210884354,1.0068027210884354,1.0068027210884354,1.0068027210884354,1.0068027210884354,1.0068027210884354,1.010204081632653,1.0136054421768708,1.030612244897959,1.0578231292517006,1.0918367346938775,1.1428571428571428,1.2108843537414966,1.272108843537415,1.3435374149659864,1.4149659863945578,1.4863945578231292,1.5578231292517006,1.6224489795918366,1.6700680272108843,1.6904761904761905,1.6938775510204083,1.653061224489796,1.5612244897959184,1.4387755102040816,1.3537414965986394,1.2857142857142858,1.2312925170068028,1.183673469387755,1.08843537414966,0.935374149659864,0.7653061224489796,0.6326530612244898,0.5748299319727891,0.5510204081632653,0.5272108843537415,0.4897959183673469,0.4489795918367347,0.4013605442176871,0.35374149659863946,0.3197278911564626,0.29931972789115646,0.2925170068027211,0.2925170068027211,0.2925170068027211,0.2925170068027211,0.2891156462585034,0.2857142857142857,0.2857142857142857,0.29931972789115646,0.3129251700680272,0.3333333333333333,0.36054421768707484,0.3945578231292517,0.42517006802721086,0.4421768707482993,0.445578231292517,0.445578231292517,0.4489795918367347,0.4557823129251701,0.46258503401360546,0.46258503401360546,0.46598639455782315,0.47278911564625853,0.47959183673469385,0.4897959183673469,0.4931972789115646,0.4965986394557823,0.5034013605442177,0.5034013605442177,0.5068027210884354,0.5204081632653061,0.5306122448979592,0.5306122448979592,0.5306122448979592,0.5306122448979592,0.5306122448979592,0.5306122448979592,0.5306122448979592,0.5340136054421769,0.5374149659863946,0.5374149659863946,0.5408163265306123,0.5408163265306123,0.5408163265306123,0.5408163265306123,0.5408163265306123,0.5408163265306123,0.5408163265306123,0.54421768707483,0.54421768707483,0.54421768707483,0.54421768707483,0.54421768707483,0.54421768707483,0.54421768707483,0.54421768707483,0.54421768707483,0.5476190476190477,0.5476190476190477,0.5476190476190477,0.5476190476190477,0.5476190476190477,0.5476190476190477,0.5476190476190477,0.5476190476190477,0.5510204081632653,0.5578231292517006,0.564625850340136,0.5748299319727891,0.5918367346938775,0.6054421768707483,0.6224489795918368,0.6292517006802721,0.6292517006802721,0.6224489795918368,0.6020408163265306,0.5714285714285714,0.54421768707483,0.5238095238095238,0.5102040816326531,0.5,0.47959183673469385,0.46258503401360546,0.4489795918367347,0.4421768707482993,0.4387755102040816,0.4387755102040816,0.4387755102040816,0.4387755102040816,0.445578231292517,0.4489795918367347,0.4489795918367347,0.4489795918367347,0.4489795918367347,0.445578231292517,0.4421768707482993,0.4421768707482993,0.445578231292517,0.46258503401360546,0.48299319727891155,0.5136054421768708,0.5612244897959183,0.6190476190476191,0.6632653061224489,0.717687074829932,0.7448979591836735,0.7653061224489796,0.7755102040816326,0.7891156462585034,0.8027210884353742,0.8163265306122449,0.826530612244898,0.826530612244898,0.826530612244898,0.8231292517006803,0.8163265306122449,0.7993197278911565,0.782312925170068,0.7687074829931972,0.7551020408163265,0.7380952380952381,0.7244897959183674,0.7142857142857143,0.7074829931972789,0.6870748299319728,0.6598639455782312,0.6020408163265306,0.5170068027210885,0.445578231292517,0.3673469387755102,0.30272108843537415,0.2687074829931973,0.25510204081632654,0.25510204081632654,0.2585034013605442,0.2619047619047619,0.2585034013605442,0.25510204081632654,0.25510204081632654,0.25510204081632654,0.25510204081632654,0.25510204081632654,0.25510204081632654,0.25510204081632654,0.2755102040816326,0.30612244897959184,0.3231292517006803,0.3231292517006803,0.3231292517006803,0.3231292517006803,0.3231292517006803,0.3231292517006803,0.3231292517006803,0.30952380952380953,0.2857142857142857,0.2585034013605442,0.24149659863945577,0.23129251700680273,0.23129251700680273,0.22789115646258504,0.22789115646258504,0.22448979591836735,0.21768707482993196,0.2108843537414966,0.2108843537414966,0.20408163265306123,0.20408163265306123,0.19727891156462585,0.1836734693877551,0.17687074829931973,0.17687074829931973,0.17687074829931973,0.17687074829931973,0.17687074829931973,0.17346938775510204,0.17006802721088435,0.17006802721088435,0.17006802721088435,0.17006802721088435,0.17006802721088435,0.17006802721088435,0.17006802721088435,0.17006802721088435,0.17006802721088435,0.17006802721088435,0.17006802721088435,0.17006802721088435,0.17006802721088435,0.17006802721088435,0.17006802721088435,0.17006802721088435,0.17006802721088435,0.17006802721088435,0.17346938775510204,0.1836734693877551,0.2108843537414966,0.24829931972789115,0.3129251700680272,0.3945578231292517,0.5170068027210885,0.6360544217687075,0.8027210884353742,0.9829931972789115,1.1020408163265305,1.1700680272108843,1.1870748299319729,1.1768707482993197,1.1360544217687074,1.054421768707483,0.9489795918367347,0.8435374149659864,0.7414965986394558,0.6530612244897959,0.5680272108843537,0.5034013605442177,0.46258503401360546,0.43537414965986393,0.41496598639455784,0.391156462585034,0.35374149659863946,0.30952380952380953,0.2857142857142857,0.2755102040816326,0.2755102040816326,0.2755102040816326,0.2755102040816326,0.2755102040816326,0.2755102040816326,0.2755102040816326,0.2789115646258503,0.2857142857142857,0.29931972789115646,0.3197278911564626,0.3469387755102041,0.3741496598639456,0.40816326530612246,0.43537414965986393,0.48299319727891155,0.5238095238095238,0.564625850340136,0.6054421768707483,0.6224489795918368,0.6326530612244898,0.6360544217687075,0.6428571428571429,0.6496598639455783,0.6564625850340136,0.6632653061224489,0.673469387755102,0.6972789115646258,0.7346938775510204,0.7585034013605442,0.7925170068027211,0.8163265306122449,0.8333333333333334,0.8571428571428571,0.8843537414965986,0.9217687074829932,0.9727891156462585,1.0068027210884354,1.0170068027210883,1.0170068027210883,1.0170068027210883,1.0170068027210883,1.0204081632653061,1.034013605442177,1.0510204081632653,1.064625850340136,1.064625850340136,1.064625850340136,1.064625850340136,1.064625850340136,1.0680272108843538,1.0714285714285714,1.0748299319727892,1.0782312925170068,1.0782312925170068,1.0782312925170068,1.0816326530612246,1.08843537414966,1.1020408163265305,1.1156462585034013,1.1224489795918366,1.129251700680272,1.129251700680272,1.1326530612244898,1.1360544217687074,1.1428571428571428,1.1428571428571428,1.1428571428571428,1.1428571428571428,1.1428571428571428,1.1428571428571428,1.1428571428571428,1.1428571428571428,1.1428571428571428,1.1428571428571428,1.1428571428571428,1.1428571428571428,1.1428571428571428,1.1326530612244898,1.1122448979591837,1.0850340136054422,1.0476190476190477,1.0068027210884354,0.95578231292517,0.8979591836734694,0.8435374149659864,0.7482993197278912,0.5918367346938775,0.4387755102040816,0.3401360544217687,0.29931972789115646,0.2585034013605442,0.19387755102040816,0.12244897959183673,0.05442176870748299,-0.003401360544217687,-0.04421768707482993,-0.061224489795918366,-0.06802721088435375,-0.06802721088435375,-0.06802721088435375,-0.06802721088435375,-0.06802721088435375,-0.06802721088435375,-0.06802721088435375,-0.06462585034013606,-0.05782312925170068,-0.04421768707482993,-0.034013605442176874,-0.023809523809523808,-0.01020408163265306,-0.003401360544217687,0,0.003401360544217687,0.01020408163265306,0.013605442176870748,0.017006802721088437,0.02040816326530612,0.02040816326530612,0.023809523809523808,0.02040816326530612,0.017006802721088437,0.017006802721088437,0.017006802721088437,0.017006802721088437,0.017006802721088437,0.01020408163265306,0.01020408163265306,0.01020408163265306,0.01020408163265306,0.01020408163265306,0.01020408163265306,0.01020408163265306,0.01020408163265306,0.01020408163265306,0.01020408163265306,0.01020408163265306,0.01020408163265306,0.01020408163265306,0.01020408163265306,0.01020408163265306,0.013605442176870748,0.023809523809523808,0.030612244897959183,0.04421768707482993,0.08163265306122448,0.1326530612244898,0.23129251700680273,0.3401360544217687,0.45918367346938777,0.6258503401360545,0.8537414965986394,1.034013605442177,1.1326530612244898,1.2244897959183674,1.3129251700680271,1.3741496598639455,1.469387755102041,1.564625850340136,1.6394557823129252,1.6802721088435375,1.7006802721088434,1.7006802721088434,1.7006802721088434,1.7006802721088434,1.6972789115646258,1.6904761904761905,1.683673469387755,1.6700680272108843,1.6564625850340136,1.6462585034013606,1.6326530612244898,1.6224489795918366,1.6156462585034013,1.6156462585034013,1.6122448979591837,1.6020408163265305,1.598639455782313,1.5918367346938775,1.5850340136054422,1.5816326530612246,1.5816326530612246,1.5816326530612246,1.5816326530612246,1.5816326530612246,1.5816326530612246,1.5816326530612246,1.5782312925170068,1.5782312925170068,1.5782312925170068,1.5782312925170068,1.5782312925170068,1.5782312925170068,1.5782312925170068,1.5782312925170068,1.5782312925170068,1.5782312925170068,1.5782312925170068,1.5782312925170068,1.5782312925170068,1.5782312925170068,1.5782312925170068,1.5782312925170068,1.5782312925170068,1.5782312925170068,1.5782312925170068,1.5782312925170068,1.5782312925170068,1.5782312925170068,1.5782312925170068,1.5782312925170068,1.5782312925170068,1.5680272108843538,1.554421768707483,1.5476190476190477,1.5374149659863945,1.5238095238095237,1.4965986394557824,1.4557823129251701,1.3979591836734695,1.3299319727891157,1.272108843537415,1.2108843537414966,1.1598639455782314,1.119047619047619,1.08843537414966,1.0578231292517006,1.0374149659863945,1.010204081632653,0.9727891156462585,0.9489795918367347,0.9319727891156463,0.9251700680272109,0.9217687074829932,0.9285714285714286,0.9489795918367347,0.9489795918367347,0.9727891156462585,1.0170068027210883,1.0170068027210883,1.0170068027210883,1.0170068027210883,1.0170068027210883,1.0238095238095237,1.054421768707483,1.0748299319727892,1.0952380952380953,1.0952380952380953,1.0918367346938775,1.0816326530612246,1.0680272108843538,1.0578231292517006,1.0442176870748299,1.034013605442177,1.0272108843537415,1.0204081632653061,1.0136054421768708,1.010204081632653,1.0068027210884354,1.0068027210884354,1.0068027210884354],"y":[-5.714285714285714,1.0047619047619047,1.042857142857143,1.0809523809523809,1.1095238095238096,1.138095238095238,1.1476190476190475,1.1571428571428573,1.1857142857142857,1.2333333333333334,1.319047619047619,1.4428571428571428,1.6047619047619048,1.7095238095238094,1.8047619047619048,1.880952380952381,1.8904761904761904,1.8904761904761904,1.8904761904761904,1.8904761904761904,1.8714285714285714,1.8333333333333333,1.7952380952380953,1.7571428571428571,1.7095238095238094,1.6714285714285715,1.6333333333333333,1.6142857142857143,1.5952380952380953,1.5857142857142856,1.5857142857142856,1.5857142857142856,1.5857142857142856,1.5857142857142856,1.5857142857142856,1.5857142857142856,1.5857142857142856,1.5857142857142856,1.5857142857142856,1.5857142857142856,1.5857142857142856,1.5857142857142856,1.5857142857142856,1.5857142857142856,1.5857142857142856,1.5857142857142856,1.5857142857142856,1.5857142857142856,1.5857142857142856,1.5857142857142856,1.5857142857142856,1.5857142857142856,1.5857142857142856,1.5857142857142856,1.5857142857142856,1.5857142857142856,1.5857142857142856,1.5857142857142856,1.5857142857142856,1.5857142857142856,1.5857142857142856,1.5857142857142856,1.5857142857142856,1.5857142857142856,1.5857142857142856,1.5857142857142856,1.5857142857142856,1.5857142857142856,1.5857142857142856,1.5857142857142856,1.5857142857142856,1.5857142857142856,1.5857142857142856,1.5857142857142856,1.5857142857142856,1.5857142857142856,1.5857142857142856,1.5857142857142856,1.5857142857142856,1.5857142857142856,1.5857142857142856,1.5857142857142856,1.5857142857142856,1.5857142857142856,1.5857142857142856,1.5857142857142856,1.5857142857142856,1.5857142857142856,1.5857142857142856,1.5857142857142856,1.5857142857142856,1.5857142857142856,1.5857142857142856,1.5857142857142856,1.5857142857142856,1.5857142857142856,1.5857142857142856,1.5857142857142856,1.5857142857142856,1.5857142857142856,1.5857142857142856,1.5857142857142856,1.5857142857142856,1.5857142857142856,1.5857142857142856,1.5857142857142856,1.5857142857142856,1.5857142857142856,1.5857142857142856,1.5857142857142856,1.5857142857142856,1.5857142857142856,1.5857142857142856,1.5857142857142856,1.5857142857142856,1.5857142857142856,1.5857142857142856,1.5857142857142856,1.5857142857142856,1.5857142857142856,1.5857142857142856,1.5857142857142856,1.5857142857142856,1.5857142857142856,1.5857142857142856,1.5857142857142856,1.5857142857142856,1.5857142857142856,1.5857142857142856,1.5857142857142856,1.5857142857142856,1.5857142857142856,1.5857142857142856,1.5857142857142856,1.5857142857142856,1.5857142857142856,1.5857142857142856,1.5857142857142856,1.5857142857142856,1.5857142857142856,1.5857142857142856,1.5857142857142856,1.5857142857142856,1.5857142857142856,1.5857142857142856,1.5857142857142856,1.5857142857142856,1.5857142857142856,1.5857142857142856,1.5857142857142856,1.5857142857142856,1.5857142857142856,1.5857142857142856,1.5857142857142856,1.5857142857142856,1.5857142857142856,1.5857142857142856,1.5857142857142856,1.5857142857142856,1.5857142857142856,1.5857142857142856,1.5857142857142856,1.5857142857142856,1.5857142857142856,1.5857142857142856,1.5857142857142856,1.5857142857142856,1.5857142857142856,1.5857142857142856,1.5857142857142856,1.5857142857142856,1.5857142857142856,1.5857142857142856,1.5857142857142856,1.5857142857142856,1.5857142857142856,1.5857142857142856,1.5857142857142856,1.5857142857142856,1.5857142857142856,1.5857142857142856,1.5857142857142856,1.5857142857142856,1.5857142857142856,1.5857142857142856,1.5857142857142856,1.5857142857142856,1.5857142857142856,1.5857142857142856,1.5857142857142856,1.5857142857142856,1.5857142857142856,1.5857142857142856,1.5857142857142856,1.5857142857142856,1.5857142857142856,1.5857142857142856,1.5857142857142856,1.5857142857142856,1.5857142857142856,1.5857142857142856,1.5857142857142856,1.5857142857142856,1.5857142857142856,1.5857142857142856,1.5857142857142856,1.5857142857142856,1.5857142857142856,1.5857142857142856,1.5857142857142856,1.5857142857142856,1.5857142857142856,1.5857142857142856,1.5857142857142856,1.5857142857142856,1.5857142857142856,1.5857142857142856,1.5857142857142856,1.5857142857142856,1.5857142857142856,1.5857142857142856,1.5857142857142856,1.5857142857142856,1.5857142857142856,1.5857142857142856,1.5857142857142856,1.5857142857142856,1.5857142857142856,1.5857142857142856,1.5857142857142856,1.5857142857142856,1.5857142857142856,1.5857142857142856,1.5857142857142856,1.5857142857142856,1.5857142857142856,1.5857142857142856,1.5857142857142856,1.5857142857142856,1.5857142857142856,1.5857142857142856,1.5857142857142856,1.5857142857142856,1.5857142857142856,1.5857142857142856,1.5857142857142856,1.5857142857142856,1.5857142857142856,1.5857142857142856,1.5857142857142856,1.5857142857142856,1.5857142857142856,1.5857142857142856,1.5857142857142856,1.5571428571428572,1.3952380952380952,0.9666666666666667,0.5571428571428572,0.15714285714285714,-0.2523809523809524,-0.5666666666666667,-0.9,-1.1952380952380952,-1.4047619047619047,-1.5761904761904761,-1.7095238095238094,-1.7857142857142858,-1.8523809523809525,-1.9190476190476191,-1.9857142857142858,-2.0428571428571427,-2.0619047619047617,-2.0619047619047617,-2.0619047619047617,-2.0619047619047617,-2.0714285714285716,-2.0904761904761906,-2.1095238095238096,-2.119047619047619,-2.1285714285714286,-2.1285714285714286,-2.1285714285714286,-2.1285714285714286,-2.1285714285714286,-2.138095238095238,-2.157142857142857,-2.176190476190476,-2.1857142857142855,-2.1857142857142855,-2.1857142857142855,-2.1857142857142855,-2.1857142857142855,-2.1857142857142855,-2.1857142857142855,-2.1857142857142855,-2.1857142857142855,-2.1857142857142855,-2.1857142857142855,-2.1857142857142855,-2.1857142857142855,-2.1857142857142855,-2.1857142857142855,-2.1857142857142855,-2.1857142857142855,-2.1857142857142855,-2.1857142857142855,-2.1857142857142855,-2.1857142857142855,-2.1857142857142855,-2.1857142857142855,-2.1857142857142855,-2.1857142857142855,-2.1857142857142855,-2.1857142857142855,-2.1857142857142855,-2.1857142857142855,-2.1857142857142855,-2.1666666666666665,-2.1666666666666665,-2.157142857142857,-2.1476190476190475,-2.138095238095238,-2.1285714285714286,-2.1285714285714286,-2.1285714285714286,-2.1285714285714286,-2.1285714285714286,-2.1285714285714286,-2.1285714285714286,-2.1285714285714286,-2.1285714285714286,-2.1285714285714286,-2.1285714285714286,-2.1285714285714286,-2.1285714285714286,-2.1285714285714286,-2.1285714285714286,-2.1285714285714286,-2.1285714285714286,-2.1285714285714286,-2.1285714285714286,-2.138095238095238,-2.138095238095238,-2.138095238095238,-2.1476190476190475,-2.1476190476190475,-2.1476190476190475,-2.1476190476190475,-2.1476190476190475,-2.1476190476190475,-2.1476190476190475,-2.1476190476190475,-2.1476190476190475,-2.1476190476190475,-2.1476190476190475,-2.1476190476190475,-2.1476190476190475,-2.1476190476190475,-2.1476190476190475,-2.1476190476190475,-2.1476190476190475,-2.1476190476190475,-2.157142857142857,-2.157142857142857,-2.1666666666666665,-2.176190476190476,-2.176190476190476,-2.176190476190476,-2.1857142857142855,-2.1857142857142855,-2.1857142857142855,-2.1857142857142855,-2.1857142857142855,-2.1857142857142855,-2.1857142857142855,-2.1857142857142855,-2.1857142857142855,-2.1857142857142855,-2.1857142857142855,-2.1857142857142855,-2.1857142857142855,-2.1857142857142855,-2.1857142857142855,-2.1857142857142855,-2.1857142857142855,-2.1857142857142855,-2.1857142857142855,-2.1952380952380954,-2.1952380952380954,-2.1952380952380954,-2.204761904761905,-2.2142857142857144,-2.2142857142857144,-2.2142857142857144,-2.2142857142857144,-2.2142857142857144,-2.2142857142857144,-2.2142857142857144,-2.2142857142857144,-2.2142857142857144,-2.2142857142857144,-2.2142857142857144,-2.2142857142857144,-2.2142857142857144,-2.2142857142857144,-2.2142857142857144,-2.2142857142857144,-2.2142857142857144,-2.2142857142857144,-2.2142857142857144,-2.2142857142857144,-2.2142857142857144,-2.2142857142857144,-2.2142857142857144,-2.2142857142857144,-2.2142857142857144,-2.2142857142857144,-2.2142857142857144,-2.2142857142857144,-2.2142857142857144,-2.2142857142857144,-2.2142857142857144,-2.2142857142857144,-2.2142857142857144,-2.2142857142857144,-2.2142857142857144,-2.2142857142857144,-2.2142857142857144,-2.2142857142857144,-2.2142857142857144,-2.2142857142857144,-2.2142857142857144,-2.2142857142857144,-2.2142857142857144,-2.2142857142857144,-2.2142857142857144,-2.2142857142857144,-2.2142857142857144,-2.2142857142857144,-2.2142857142857144,-2.2142857142857144,-2.2142857142857144,-2.2142857142857144,-2.2142857142857144,-2.2142857142857144,-2.2142857142857144,-2.2142857142857144,-2.2142857142857144,-2.2142857142857144,-2.2142857142857144,-2.2142857142857144,-2.2142857142857144,-2.2142857142857144,-2.2142857142857144,-2.2142857142857144,-2.2142857142857144,-2.2142857142857144,-2.2142857142857144,-2.2142857142857144,-2.2142857142857144,-2.2142857142857144,-2.2142857142857144,-2.2142857142857144,-2.2142857142857144,-2.2142857142857144,-2.2142857142857144,-2.2142857142857144,-2.2142857142857144,-2.2142857142857144,-2.2142857142857144,-2.2142857142857144,-2.2142857142857144,-2.2142857142857144,-2.2142857142857144,-2.2142857142857144,-2.2142857142857144,-2.2142857142857144,-2.2142857142857144,-2.2142857142857144,-2.2142857142857144,-2.2142857142857144,-2.2142857142857144,-2.2142857142857144,-2.2142857142857144,-2.2142857142857144,-2.2142857142857144,-2.2142857142857144,-2.2142857142857144,-2.2142857142857144,-2.2142857142857144,-2.2142857142857144,-2.2142857142857144,-2.2142857142857144,-2.2142857142857144,-2.2142857142857144,-2.2142857142857144,-2.2142857142857144,-2.2142857142857144,-2.2142857142857144,-2.2142857142857144,-2.2142857142857144,-2.2142857142857144,-2.2142857142857144,-2.2142857142857144,-2.2142857142857144,-2.2142857142857144,-2.2142857142857144,-2.2142857142857144,-2.2142857142857144,-2.2142857142857144,-2.2142857142857144,-2.2142857142857144,-2.2142857142857144,-2.2142857142857144,-2.2142857142857144,-2.2142857142857144,-2.2142857142857144,-2.2142857142857144,-2.2142857142857144,-2.2142857142857144,-2.2142857142857144,-2.2142857142857144,-2.2142857142857144,-2.138095238095238,-1.938095238095238,-1.7,-1.4047619047619047,-1.0904761904761904,-0.8523809523809524,-0.5761904761904761,-0.2904761904761905,-0.06190476190476191,0.11904761904761904,0.2904761904761905,0.4238095238095238,0.5190476190476191,0.5666666666666667,0.5952380952380952,0.6333333333333333,0.6333333333333333,0.6428571428571429,0.6428571428571429,0.6428571428571429,0.6428571428571429,0.6428571428571429,0.6523809523809524,0.6523809523809524,0.6523809523809524,0.6523809523809524,0.6523809523809524,0.6523809523809524,0.6523809523809524,0.6523809523809524,0.6523809523809524,0.6523809523809524,0.6523809523809524,0.6523809523809524,0.6523809523809524,0.6523809523809524,0.6523809523809524,0.6523809523809524,0.6523809523809524,0.6523809523809524,0.6523809523809524,0.6523809523809524,0.6523809523809524,0.6523809523809524,0.6523809523809524,0.6523809523809524,0.6523809523809524,0.6523809523809524,0.6523809523809524,0.6523809523809524,0.6523809523809524,0.6523809523809524,0.6523809523809524,0.6523809523809524,0.6523809523809524,0.6523809523809524,0.6523809523809524,0.6523809523809524,0.6523809523809524,0.6523809523809524,0.6523809523809524,0.6523809523809524,0.6523809523809524,0.6523809523809524,0.6523809523809524,0.6523809523809524,0.6523809523809524,0.6523809523809524,0.6523809523809524,0.6523809523809524,0.6523809523809524,0.6523809523809524,0.6619047619047619,0.6619047619047619,0.6619047619047619,0.6619047619047619,0.6619047619047619,0.6619047619047619,0.6619047619047619,0.6619047619047619,0.6619047619047619,0.6619047619047619,0.6619047619047619,0.6619047619047619,0.6523809523809524,0.6523809523809524,0.6428571428571429,0.6428571428571429,0.6333333333333333,0.6333333333333333,0.6333333333333333,0.6238095238095238,0.6238095238095238,0.6142857142857143,0.6142857142857143,0.6142857142857143,0.6142857142857143,0.6142857142857143,0.6142857142857143,0.6142857142857143,0.6142857142857143,0.6142857142857143,0.6142857142857143,0.6142857142857143,0.6142857142857143,0.6142857142857143,0.6142857142857143,0.6142857142857143,0.6142857142857143,0.6142857142857143,0.6142857142857143,0.6142857142857143,0.6142857142857143,0.6142857142857143,0.6142857142857143,0.6142857142857143,0.6142857142857143,0.6142857142857143,0.6142857142857143,0.6142857142857143,0.6142857142857143,0.6142857142857143,0.6142857142857143,0.6142857142857143,0.6142857142857143,0.6142857142857143,0.6142857142857143,0.6142857142857143,0.6142857142857143,0.6142857142857143,0.6142857142857143,0.6142857142857143,0.6142857142857143,0.6142857142857143,0.6142857142857143,0.6142857142857143,0.6142857142857143,0.6142857142857143,0.6142857142857143,0.6142857142857143,0.6142857142857143,0.6142857142857143,0.6142857142857143,0.6142857142857143,0.6142857142857143,0.6142857142857143,0.6142857142857143,0.6142857142857143,0.6142857142857143,0.6142857142857143,0.6142857142857143,0.6142857142857143,0.6142857142857143,0.6142857142857143,0.6142857142857143,0.6142857142857143,0.6142857142857143,0.6142857142857143,0.6142857142857143,0.6142857142857143,0.6142857142857143,0.6142857142857143,0.6142857142857143,0.6142857142857143,0.6142857142857143,0.6142857142857143,0.6142857142857143,0.6142857142857143,0.6142857142857143,0.6142857142857143,0.6142857142857143,0.6142857142857143,0.6142857142857143,0.5952380952380952,0.5476190476190477,0.5190476190476191,0.5095238095238095,0.5095238095238095,0.5,0.5,0.5,0.5,0.5,0.5,0.5,0.5,0.5,0.5,0.5,0.5,0.5,0.5,0.5,0.3952380952380952,-0.1380952380952381,-0.9857142857142858,-1.5952380952380953,-2.1857142857142855,-2.719047619047619,-3.2333333333333334,-3.623809523809524,-3.7857142857142856,-3.8047619047619046,-3.8047619047619046,-3.7285714285714286,-3.5952380952380953,-3.461904761904762,-3.280952380952381,-3.0904761904761906,-2.861904761904762,-2.604761904761905,-2.376190476190476,-1.9952380952380953,-1.5,-0.9666666666666667,-0.5380952380952381,-0.1,0.30952380952380953,0.5761904761904761,0.7380952380952381,0.8333333333333334,0.8428571428571429,0.8428571428571429,0.8428571428571429,0.8428571428571429,0.8428571428571429,0.8428571428571429,0.8428571428571429,0.8428571428571429,0.8714285714285714,0.9095238095238095,0.9476190476190476,1.0238095238095237,1.0904761904761904,1.138095238095238,1.1761904761904762,1.2047619047619047,1.223809523809524,1.2523809523809524,1.2904761904761906,1.3285714285714285,1.3666666666666667,1.3952380952380952,1.4333333333333333,1.4619047619047618,1.480952380952381,1.5,1.5095238095238095,1.5095238095238095,1.5285714285714285,1.5476190476190477,1.5666666666666667,1.5761904761904761,1.6047619047619048,1.6142857142857143,1.6238095238095238,1.6238095238095238,1.6238095238095238,1.6238095238095238,1.6238095238095238,1.6238095238095238,1.6333333333333333,1.6333333333333333,1.6333333333333333,1.6333333333333333,1.6333333333333333,1.6142857142857143,1.5952380952380953,1.5761904761904761,1.5666666666666667,1.5571428571428572,1.5476190476190477,1.5476190476190477,1.5476190476190477,1.5380952380952382,1.5285714285714285,1.5285714285714285,1.5285714285714285,1.5285714285714285,1.5285714285714285,1.5285714285714285,1.5285714285714285,1.5285714285714285,1.5285714285714285,1.5285714285714285,1.5285714285714285,1.5285714285714285,1.5285714285714285,1.5285714285714285,1.5285714285714285,1.5285714285714285,1.5285714285714285,1.5285714285714285,1.5285714285714285,1.5285714285714285,1.5285714285714285,1.5285714285714285,1.5285714285714285,1.5285714285714285,1.5285714285714285,1.5285714285714285,1.5285714285714285,1.5285714285714285,1.5380952380952382,1.5380952380952382,1.5476190476190477,1.5476190476190477,1.5476190476190477,1.5476190476190477,1.5476190476190477,1.5571428571428572,1.5571428571428572,1.5571428571428572,1.5571428571428572,1.5571428571428572,1.5571428571428572,1.5571428571428572,1.5666666666666667,1.5666666666666667,1.5666666666666667,1.5666666666666667,1.5666666666666667,1.5666666666666667,1.5666666666666667,1.5666666666666667,1.5666666666666667,1.5666666666666667,1.5666666666666667,1.5666666666666667,1.5666666666666667,1.5666666666666667,1.5666666666666667,1.5666666666666667,1.5666666666666667,1.5666666666666667,1.5666666666666667,1.5666666666666667,1.5761904761904761,1.5761904761904761,1.5761904761904761,1.5761904761904761,1.5761904761904761,1.5761904761904761,1.5761904761904761,1.5761904761904761,1.5761904761904761,1.5761904761904761,1.5761904761904761,1.5761904761904761,1.5761904761904761,1.5761904761904761,1.5761904761904761,1.5761904761904761,1.5761904761904761,1.5761904761904761,1.5761904761904761,1.5761904761904761,1.5761904761904761,1.5761904761904761,1.5761904761904761,1.5761904761904761,1.5761904761904761,1.5761904761904761,1.5761904761904761,1.5761904761904761,1.5761904761904761,1.5761904761904761,1.5761904761904761,1.5761904761904761,1.5761904761904761,1.5761904761904761,1.5761904761904761,1.5761904761904761,1.5761904761904761,1.5761904761904761,1.5761904761904761,1.5761904761904761,1.5761904761904761,1.5761904761904761,1.5761904761904761,1.5761904761904761,1.5761904761904761,1.5761904761904761,1.5761904761904761,1.5761904761904761,1.5761904761904761,1.5761904761904761,1.5761904761904761,1.5761904761904761,1.5761904761904761,1.5761904761904761,1.5761904761904761,1.5761904761904761,1.5952380952380953,1.6142857142857143,1.6142857142857143,1.6142857142857143,1.6142857142857143,1.6142857142857143,1.6142857142857143,1.6142857142857143,1.6142857142857143,1.6142857142857143,1.6142857142857143,1.6142857142857143,1.6142857142857143,1.6142857142857143,1.6142857142857143,1.4238095238095239,0.9952380952380953,0.6333333333333333,0.14761904761904762,-0.3,-0.5,-0.5857142857142857,-0.6904761904761905,-0.861904761904762,-1.0523809523809524,-1.138095238095238,-1.1476190476190475,-1.1476190476190475,-1.1571428571428573,-1.1952380952380952,-1.3095238095238095,-1.4714285714285715,-1.661904761904762,-1.7857142857142858,-1.8428571428571427,-1.880952380952381,-1.9190476190476191,-1.9666666666666666,-2.0238095238095237,-2.080952380952381,-2.0904761904761906,-2.0904761904761906,-2.1,-2.1,-2.119047619047619,-2.138095238095238,-2.176190476190476,-2.2333333333333334,-2.2523809523809524,-2.2714285714285714,-2.2714285714285714,-2.2714285714285714,-2.280952380952381,-2.280952380952381,-2.2904761904761903,-2.2904761904761903,-2.3,-2.3,-2.3,-2.3,-2.3,-2.3,-2.3,-2.3,-2.3,-2.3,-2.3,-2.3,-2.3,-2.3,-2.3,-2.3,-2.3,-2.2904761904761903,-2.280952380952381,-2.2714285714285714,-2.261904761904762,-2.2523809523809524,-2.242857142857143,-2.242857142857143,-2.242857142857143,-2.242857142857143,-2.242857142857143,-2.242857142857143,-2.242857142857143,-2.242857142857143,-2.242857142857143,-2.242857142857143,-2.2333333333333334,-2.2142857142857144,-2.204761904761905,-2.176190476190476,-2.1666666666666665,-2.157142857142857,-2.157142857142857,-2.157142857142857,-2.157142857142857,-2.157142857142857,-2.157142857142857,-2.157142857142857,-2.119047619047619,-2.052380952380952,-1.9190476190476191,-1.6333333333333333,-1.1761904761904762,-0.6142857142857143,-0.1,0.2523809523809524,0.46190476190476193,0.6142857142857143,0.719047619047619,0.8142857142857143,0.9,0.9476190476190476,0.9857142857142858,1.0238095238095237,1.0714285714285714,1.119047619047619,1.1761904761904762,1.2047619047619047,1.2333333333333334,1.2523809523809524,1.2523809523809524,1.2523809523809524,1.2523809523809524,1.2523809523809524,1.2523809523809524,1.2428571428571429,1.2523809523809524,1.2809523809523808,1.2809523809523808,1.2809523809523808,1.2809523809523808,1.2619047619047619,1.223809523809524,1.1952380952380952,1.1666666666666667,1.1285714285714286,1.1095238095238096,1.0809523809523809,1.042857142857143,1.0142857142857142,0.9857142857142858,0.9380952380952381,0.9095238095238095,0.8904761904761904,0.8809523809523809,0.8809523809523809,0.8809523809523809,0.8809523809523809,0.8809523809523809,0.8809523809523809,0.8809523809523809,0.8809523809523809,0.8809523809523809,0.8809523809523809,0.8809523809523809,0.8809523809523809,0.8809523809523809,0.8809523809523809,0.8809523809523809,0.9285714285714286,0.9761904761904762,0.9857142857142858,0.9857142857142858,0.9857142857142858,0.9857142857142858,0.9857142857142858,0.9857142857142858,0.9857142857142858,0.9857142857142858,0.9857142857142858,0.9857142857142858,0.9857142857142858,0.9857142857142858,0.9857142857142858,0.9857142857142858,0.9857142857142858,0.9857142857142858,0.9857142857142858,0.9857142857142858,0.9857142857142858,0.9857142857142858,0.9857142857142858,0.9857142857142858,0.9952380952380953,1.0142857142857142,1.042857142857143,1.0904761904761904,1.1285714285714286,1.1761904761904762,1.2333333333333334,1.2714285714285714,1.3285714285714285,1.3857142857142857,1.4238095238095239,1.4238095238095239,1.4238095238095239,1.4142857142857144,1.4142857142857144,1.4047619047619047,1.3476190476190477,1.223809523809524,1.0904761904761904,0.9952380952380953,0.919047619047619,0.861904761904762,0.8142857142857143,0.7380952380952381,0.6047619047619047,0.46190476190476193,0.35714285714285715,0.319047619047619,0.30952380952380953,0.3,0.28095238095238095,0.2619047619047619,0.22380952380952382,0.18571428571428572,0.15714285714285714,0.1380952380952381,0.12857142857142856,0.12857142857142856,0.12857142857142856,0.12857142857142856,0.12857142857142856,0.12857142857142856,0.12857142857142856,0.11904761904761904,0.11904761904761904,0.11904761904761904,0.11904761904761904,0.12857142857142856,0.14761904761904762,0.14761904761904762,0.14761904761904762,0.14761904761904762,0.1380952380952381,0.12857142857142856,0.11904761904761904,0.11904761904761904,0.11904761904761904,0.10952380952380952,0.1,0.09047619047619047,0.08095238095238096,0.08095238095238096,0.08095238095238096,0.07142857142857142,0.07142857142857142,0.06190476190476191,0.06190476190476191,0.06190476190476191,0.06190476190476191,0.06190476190476191,0.06190476190476191,0.06190476190476191,0.06190476190476191,0.06190476190476191,0.05238095238095238,0.05238095238095238,0.05238095238095238,0.05238095238095238,0.05238095238095238,0.05238095238095238,0.05238095238095238,0.05238095238095238,0.05238095238095238,0.05238095238095238,0.05238095238095238,0.05238095238095238,0.05238095238095238,0.05238095238095238,0.05238095238095238,0.05238095238095238,0.05238095238095238,0.05238095238095238,0.05238095238095238,0.05238095238095238,0.05238095238095238,0.05238095238095238,0.05238095238095238,0.05238095238095238,0.05238095238095238,0.05238095238095238,0.05238095238095238,0.06190476190476191,0.09047619047619047,0.12857142857142856,0.19523809523809524,0.28095238095238095,0.3761904761904762,0.46190476190476193,0.5285714285714286,0.5857142857142857,0.6523809523809524,0.7095238095238096,0.7952380952380952,0.8523809523809524,0.8904761904761904,0.9,0.919047619047619,0.919047619047619,0.9285714285714286,0.9380952380952381,0.9571428571428572,0.9666666666666667,0.9666666666666667,0.9666666666666667,0.9761904761904762,0.9761904761904762,0.9761904761904762,0.9761904761904762,0.9761904761904762,0.9761904761904762,0.9761904761904762,0.9761904761904762,0.9761904761904762,0.9476190476190476,0.9380952380952381,0.9285714285714286,0.9,0.8714285714285714,0.8428571428571429,0.8047619047619048,0.8047619047619048,0.7952380952380952,0.7952380952380952,0.7952380952380952,0.8047619047619048,0.8047619047619048,0.8047619047619048,0.8047619047619048,0.8047619047619048,0.8047619047619048,0.8047619047619048,0.7476190476190476,0.6619047619047619,0.5666666666666667,0.49047619047619045,0.40476190476190477,0.3476190476190476,0.30952380952380953,0.2619047619047619,0.19523809523809524,0.15714285714285714,0.11904761904761904,0.08095238095238096,0.06190476190476191,0.03333333333333333,0.014285714285714285,0.014285714285714285,0.014285714285714285,0.014285714285714285,0.014285714285714285,0.014285714285714285,0.014285714285714285,0.014285714285714285,0.014285714285714285,0.014285714285714285,0.014285714285714285,0.014285714285714285,0.014285714285714285,0.014285714285714285,0.014285714285714285,0.03333333333333333,0.03333333333333333,0.03333333333333333,0.03333333333333333,0.03333333333333333,0.03333333333333333,0.03333333333333333,0.04285714285714286,0.04285714285714286,0.04285714285714286,0.04285714285714286,0.04285714285714286,0.03333333333333333,0.03333333333333333,0.03333333333333333,0.03333333333333333,0.03333333333333333,0.03333333333333333,0.03333333333333333,0.03333333333333333,0.03333333333333333,0.03333333333333333,0.03333333333333333,0.03333333333333333,0.03333333333333333,0.03333333333333333,0.03333333333333333,0.03333333333333333,0.03333333333333333,0.03333333333333333,0.03333333333333333,0.03333333333333333,0.03333333333333333,0.03333333333333333,0.03333333333333333,0.03333333333333333,0.03333333333333333,0.03333333333333333,0.03333333333333333,0.03333333333333333,0.03333333333333333,0.03333333333333333,0.03333333333333333,0.03333333333333333,0.03333333333333333,0.03333333333333333,0.03333333333333333,0.06190476190476191,0.1,0.1380952380952381,0.18571428571428572,0.2714285714285714,0.38571428571428573,0.5190476190476191,0.7285714285714285,0.919047619047619,1.1571428571428573,1.3761904761904762,1.519047619047619,1.5952380952380953,1.6142857142857143,1.6142857142857143,1.6238095238095238,1.6238095238095238,1.6047619047619048,1.5857142857142856,1.5761904761904761,1.5571428571428572,1.5380952380952382,1.5285714285714285,1.5095238095238095,1.480952380952381,1.4523809523809523,1.4047619047619047,1.338095238095238,1.2619047619047619,1.2142857142857142,1.2047619047619047,1.1952380952380952,1.1952380952380952,1.1952380952380952,1.1952380952380952,1.1857142857142857,1.1476190476190475,1.1285714285714286,1.1095238095238096,1.0904761904761904,1.0904761904761904,1.0904761904761904,1.0904761904761904,1.0904761904761904,1.1095238095238096,1.138095238095238,1.1571428571428573,1.1666666666666667,1.1666666666666667,1.1476190476190475,1.1285714285714286,1.119047619047619,1.1095238095238096,1.0809523809523809,1.0714285714285714,1.061904761904762,1.042857142857143,1.0047619047619047,0.9761904761904762,0.9380952380952381,0.9095238095238095,0.8904761904761904,0.8809523809523809,0.861904761904762,0.8523809523809524,0.8428571428571429,0.8142857142857143,0.7571428571428571,0.719047619047619,0.7,0.6904761904761905,0.6714285714285714,0.6619047619047619,0.6523809523809524,0.6428571428571429,0.6333333333333333,0.6238095238095238,0.6142857142857143,0.6047619047619047,0.5857142857142857,0.5666666666666667,0.5571428571428572,0.5380952380952381,0.5285714285714286,0.5285714285714286,0.5285714285714286,0.5190476190476191,0.5095238095238095,0.5,0.5,0.5,0.5,0.5,0.5,0.5,0.5,0.5,0.5,0.5,0.5,0.5,0.5,0.5,0.5,0.5,0.5,0.5,0.5,0.5095238095238095,0.5380952380952381,0.5761904761904761,0.6142857142857143,0.6523809523809524,0.7,0.7476190476190476,0.7761904761904762,0.7952380952380952,0.7857142857142857,0.7666666666666667,0.7761904761904762,0.8047619047619048,0.8238095238095238,0.8523809523809524,0.8714285714285714,0.8714285714285714,0.8714285714285714,0.8523809523809524,0.8428571428571429,0.8333333333333334,0.8333333333333334,0.8333333333333334,0.8333333333333334,0.8238095238095238,0.7857142857142857,0.7476190476190476,0.719047619047619,0.680952380952381,0.6523809523809524,0.6428571428571429,0.6238095238095238,0.5952380952380952,0.5761904761904761,0.5666666666666667,0.5476190476190477,0.5190476190476191,0.49047619047619045,0.4523809523809524,0.38571428571428573,0.319047619047619,0.22380952380952382,0.1761904761904762,0.15714285714285714,0.1380952380952381,0.11904761904761904,0.1,0.07142857142857142,0.06190476190476191,0.05238095238095238,0.05238095238095238,0.05238095238095238,0.05238095238095238,0.05238095238095238,0.05238095238095238,0.05238095238095238,0.05238095238095238,0.05238095238095238,0.05238095238095238,0.05238095238095238,0.05238095238095238,0.05238095238095238,0.05238095238095238,0.08095238095238096,0.11904761904761904,0.1380952380952381,0.18571428571428572,0.2523809523809524,0.32857142857142857,0.48095238095238096,0.6619047619047619,0.8523809523809524,1.061904761904762,1.3,1.4428571428571428,1.519047619047619,1.6047619047619048,1.7095238095238094,1.776190476190476,1.8904761904761904,2.0047619047619047,2.0904761904761906,2.1476190476190475,2.1857142857142855,2.204761904761905,2.204761904761905,2.2142857142857144,2.2142857142857144,2.223809523809524,2.223809523809524,2.2333333333333334,2.242857142857143,2.261904761904762,2.2714285714285714,2.2714285714285714,2.280952380952381,2.280952380952381,2.2904761904761903,2.3095238095238093,2.3190476190476192,2.3380952380952382,2.3380952380952382,2.3476190476190477,2.3476190476190477,2.3476190476190477,2.3476190476190477,2.3476190476190477,2.3476190476190477,2.3476190476190477,2.3476190476190477,2.357142857142857,2.357142857142857,2.357142857142857,2.357142857142857,2.357142857142857,2.357142857142857,2.357142857142857,2.357142857142857,2.357142857142857,2.357142857142857,2.357142857142857,2.357142857142857,2.357142857142857,2.357142857142857,2.357142857142857,2.357142857142857,2.357142857142857,2.357142857142857,2.357142857142857,2.357142857142857,2.357142857142857,2.357142857142857,2.357142857142857,2.357142857142857,2.357142857142857,2.357142857142857,2.357142857142857,2.357142857142857,2.357142857142857,2.3857142857142857,2.414285714285714,2.461904761904762,2.5476190476190474,2.6333333333333333,2.719047619047619,2.757142857142857,2.7857142857142856,2.8142857142857145,2.8333333333333335,2.8523809523809525,2.8714285714285714,2.880952380952381,2.8904761904761904,2.8904761904761904,2.8904761904761904,2.8904761904761904,2.9,2.880952380952381,2.880952380952381,2.8714285714285714,2.823809523809524,2.823809523809524,2.823809523809524,2.823809523809524,2.823809523809524,2.823809523809524,2.823809523809524,2.823809523809524,2.823809523809524,2.8142857142857145,2.8047619047619046,2.8047619047619046,2.795238095238095,2.795238095238095,2.795238095238095,2.795238095238095,2.8047619047619046,2.8047619047619046,2.8142857142857145,2.8142857142857145,2.8142857142857145,2.8142857142857145,2.8142857142857145]},"final_keyboard_state":["Z","E","B","R","A"],"num_clicks":5,"points":15,"cheat":false,"trial_type":"Hangman","trial_index":5,"time_elapsed":66939,"internal_node_id":"0.0-4.0","protocol_sum":"","subject_identifier":308,"subject_sum":[29,14,190,165,82,235,67,208,177,225,86,31,109,232,174,146,227,222,127,26,190,197,35,153,36,77,28,174,215,219,223,166],"subject_pair":154,"STUDY_ID":"66a0b3911f23dfc7665bb169","PROLIFIC_PID":"6680d577ce8b233327b0272e","SESSION_ID":"66a11634b9cc4e59d42e65cf","practice_instructions":1,"leaderboard_instructions":0,"bonus":1,"reveal_word":false,"self_rating":"4","confidence":"38"},{"view_history":"[{\"page_index\":0,\"viewing_time\":3943.2999999970198},{\"page_index\":1,\"viewing_time\":14582.90000000596}]","rt":18526.60000000894,"trial_type":"instructions","trial_index":6,"time_elapsed":85466,"internal_node_id":"0.0-5.0","protocol_sum":"","subject_identifier":308,"subject_sum":[29,14,190,165,82,235,67,208,177,225,86,31,109,232,174,146,227,222,127,26,190,197,35,153,36,77,28,174,215,219,223,166],"subject_pair":154,"STUDY_ID":"66a0b3911f23dfc7665bb169","PROLIFIC_PID":"6680d577ce8b233327b0272e","SESSION_ID":"66a11634b9cc4e59d42e65cf","practice_instructions":1,"leaderboard_instructions":0,"bonus":1,"reveal_word":false,"self_rating":"4","confidence":"38"},{"rt":8251.40000000596,"responses":"{\"Q0\":\"...from <b>a previous session</b> that is part of the upcoming tournament.\"}","question_order":"[0]","trial_type":"survey-multi-choice","trial_index":7,"time_elapsed":93718,"internal_node_id":"0.0-6.0","protocol_sum":"","subject_identifier":308,"subject_sum":[29,14,190,165,82,235,67,208,177,225,86,31,109,232,174,146,227,222,127,26,190,197,35,153,36,77,28,174,215,219,223,166],"subject_pair":154,"correct":false,"test_part":"multichoice_leaderboard","STUDY_ID":"66a0b3911f23dfc7665bb169","PROLIFIC_PID":"6680d577ce8b233327b0272e","SESSION_ID":"66a11634b9cc4e59d42e65cf","practice_instructions":1,"leaderboard_instructions":0,"bonus":1,"reveal_word":false,"self_rating":"4","confidence":"38"},{"view_history":"[{\"page_index\":0,\"viewing_time\":2397.2000000029802}]","rt":2397.2999999970198,"trial_type":"instructions","trial_index":8,"time_elapsed":96116,"internal_node_id":"0.0-7.0-0.0","protocol_sum":"","subject_identifier":308,"subject_sum":[29,14,190,165,82,235,67,208,177,225,86,31,109,232,174,146,227,222,127,26,190,197,35,153,36,77,28,174,215,219,223,166],"subject_pair":154,"STUDY_ID":"66a0b3911f23dfc7665bb169","PROLIFIC_PID":"6680d577ce8b233327b0272e","SESSION_ID":"66a11634b9cc4e59d42e65cf","practice_instructions":1,"leaderboard_instructions":0,"bonus":1,"reveal_word":false,"self_rating":"4","confidence":"38"},{"rt":6986.5,"responses":"{\"Q0\":\"...from <b>a previous session</b> that is not part of the upcoming tournament.\"}","question_order":"[0]","trial_type":"survey-multi-choice","trial_index":9,"time_elapsed":103102,"internal_node_id":"0.0-7.0-1.0","protocol_sum":"","subject_identifier":308,"subject_sum":[29,14,190,165,82,235,67,208,177,225,86,31,109,232,174,146,227,222,127,26,190,197,35,153,36,77,28,174,215,219,223,166],"subject_pair":154,"correct":true,"test_part":"multichoice_leaderboard","STUDY_ID":"66a0b3911f23dfc7665bb169","PROLIFIC_PID":"6680d577ce8b233327b0272e","SESSION_ID":"66a11634b9cc4e59d42e65cf","practice_instructions":1,"leaderboard_instructions":0,"bonus":1,"reveal_word":false,"self_rating":"4","confidence":"38"},{"view_history":"[{\"page_index\":0,\"viewing_time\":11002.70000000298}]","rt":11002.70000000298,"trial_type":"instructions","trial_index":10,"time_elapsed":114106,"internal_node_id":"0.0-8.0","protocol_sum":"","subject_identifier":308,"subject_sum":[29,14,190,165,82,235,67,208,177,225,86,31,109,232,174,146,227,222,127,26,190,197,35,153,36,77,28,174,215,219,223,166],"subject_pair":154,"STUDY_ID":"66a0b3911f23dfc7665bb169","PROLIFIC_PID":"6680d577ce8b233327b0272e","SESSION_ID":"66a11634b9cc4e59d42e65cf","practice_instructions":1,"leaderboard_instructions":0,"bonus":1,"reveal_word":false,"self_rating":"4","confidence":"38"},{"rt":5210.399999991059,"responses":"{\"Q0\":\"...players' leaderboard position (in terms of <b>points</b>) in an <b>upcoming tournament.</b>\"}","question_order":"[0]","trial_type":"survey-multi-choice","trial_index":11,"time_elapsed":119317,"internal_node_id":"0.0-9.0","protocol_sum":"","subject_identifier":308,"subject_sum":[29,14,190,165,82,235,67,208,177,225,86,31,109,232,174,146,227,222,127,26,190,197,35,153,36,77,28,174,215,219,223,166],"subject_pair":154,"correct":true,"test_part":"multichoice_tournament","STUDY_ID":"66a0b3911f23dfc7665bb169","PROLIFIC_PID":"6680d577ce8b233327b0272e","SESSION_ID":"66a11634b9cc4e59d42e65cf","practice_instructions":1,"leaderboard_instructions":0,"bonus":1,"reveal_word":false,"self_rating":"4","confidence":"38"},{"view_history":"[{\"page_index\":0,\"viewing_time\":15756.59999999404}]","rt":15756.70000000298,"trial_type":"instructions","trial_index":12,"time_elapsed":135074,"internal_node_id":"0.0-11.0","protocol_sum":"","subject_identifier":308,"subject_sum":[29,14,190,165,82,235,67,208,177,225,86,31,109,232,174,146,227,222,127,26,190,197,35,153,36,77,28,174,215,219,223,166],"subject_pair":154,"STUDY_ID":"66a0b3911f23dfc7665bb169","PROLIFIC_PID":"6680d577ce8b233327b0272e","SESSION_ID":"66a11634b9cc4e59d42e65cf","practice_instructions":1,"leaderboard_instructions":0,"bonus":1,"reveal_word":false,"self_rating":"4","confidence":"38"},{"view_history":"[{\"page_index\":0,\"viewing_time\":10707.5}]","rt":10707.70000000298,"trial_type":"instructions","trial_index":13,"time_elapsed":145782,"internal_node_id":"0.0-12.0-0.0","protocol_sum":"","subject_identifier":308,"subject_sum":[29,14,190,165,82,235,67,208,177,225,86,31,109,232,174,146,227,222,127,26,190,197,35,153,36,77,28,174,215,219,223,166],"subject_pair":154,"STUDY_ID":"66a0b3911f23dfc7665bb169","PROLIFIC_PID":"6680d577ce8b233327b0272e","SESSION_ID":"66a11634b9cc4e59d42e65cf","practice_instructions":1,"leaderboard_instructions":0,"bonus":1,"reveal_word":false,"self_rating":"4","confidence":"38"},{"word":"THIRTY FOUR","click_log":{"letter":["","T","Y","H","I","R","O","U","F"],"t":[0,29796.29999999702,32290.59999999404,34690.70000000298,36324.20000000298,37096.40000000596,40213.20000000298,41585.5,42518.90000000596],"hit":[null,2,1,1,1,2,1,1,1],"asked":["","T","TY","TYH","TYHI","TYHIR","TYHIRO","TYHIROU","TYHIROUF"],"word_state":["______ ____","T___T_ ____","T___TY ____","TH__TY ____","THI_TY ____","THIRTY ___R","THIRTY _O_R","THIRTY _OUR","THIRTY FOUR"]},"hover_log":{"letter":["?","?","?","?","?","?","?","?","?","?","?","?","?","?","?","?","?","?","?","?","?","?","?","?","?","?","?","?","?","?","?","?","?","?","?","?","?","?","?","?","?","?","?","?","?","?","?","?","?","?","?","?","?","?","?","?","?","?","?","?","?","?","?","?","?","?","?","?","?","?","?","?","?","?","?","?","?","?","?","?","?","?","?","?","?","?","?","?","?","?","?","?","?","?","?","?","?","?","?","?","?","?","?","?","?","?","?","?","?","?","?","?","?","?","?","?","?","?","?","?","?","?","?","?","?","?","?","?","?","?","?","?","?","?","?","?","?","?","?","?","?","?","?","?","?","?","?","?","?","?","?","?","?","?","?","?","?","?","?","?","?","?","?","?","?","?","?","?","?","?","?","?","?","?","?","?","?","?","?","?","?","?","?","?","?","?","?","?","?","?","?","?","?","?","?","?","?","?","?","?","?","?","?","?","?","?","?","?","?","?","?","?","?","?","?","?","?","?","?","?","?","?","?","?","?","?","?","?","?","?","?","?","?","?","?","?","?","?","?","?","?","?","?","?","?","?","?","?","?","?","?","?","?","?","?","?","?","?","?","?","?","?","?","?","?","?","?","?","?","?","?","?","?","?","?","?","?","?","?","?","?","?","?","?","?","?","?","?","?","?","?","?","?","?","?","?","?","?","?","?","?","?","?","?","?","?","?","?","?","?","?","?","?","?","?","?","?","?","?","?","?","?","?","?","?","?","?","?","?","?","?","?","?","?","?","?","?","?","?","?","?","?","?","?","?","?","?","?","?","?","?","?","?","?","?","?","?","?","?","?","?","?","?","?","?","?","?","?","?","?","?","?","?","?","?","?","?","?","?","?","?","?","?","?","?","?","?","?","?","?","?","?","?","?","?","?","?","?","?","?","?","?","?","?","?","?","?","?","?","?","?","?","?","?","?","?","?","?","?","?","?","?","?","?","?","?","?","?","?","?","?","?","?","?","?","?","?","?","?","?","?","?","?","?","?","?","?","?","?","?","?","?","?","?","?","?","?","?","?","?","?","?","?","?","?","?","?","?","?","?","?","?","?","?","?","?","?","?","?","?","?","?","?","?","?","?","?","?","?","?","?","?","?","?","?","?","?","?","?","?","?","?","?","?","?","?","?","?","?","?","?","?","?","?","?","?","?","?","?","?","?","?","?","?","?","?","?","?","?","?","?","?","?","?","?","?","?","?","?","?","?","?","?","?","?","?","?","?","?","?","?","?","?","?","?","?","?","?","?","?","?","?","?","?","?","?","?","?","?","?","?","?","?","?","?","?","?","?","?","?","?","?","?","?","?","?","?","?","?","?","?","?","?","?","?","?","?","?","?","?","?","?","?","?","?","?","?","?","?","?","?","?","?","?","?","?","?","?","?","?","?","?","?","?","?","?","?","?","?","?","?","?","?","?","?","?","?","?","?","?","?","?","?","?","?","?","?","?","?","?","?","?","?","?","?","?","?","?","?","?","?","?","?","?","?","?","?","?","?","?","?","?","?","?","?","?","?","?","?","?","?","?","?","?","?","?","?","?","?","?","?","?","?","?","?","?","?","?","?","?","?","?","?","?","?","?","?","?","?","?","?","?","?","?","?","?","?","?","?","?","?","?","?","?","?","?","?","?","?","?","?","?","?","?","?","?","?","?","?","?","?","?","?","?","?","?","?","?","?","?","?","?","?","?","?","?","?","?","?","?","?","?","?","?","?","?","?","?","?","?","?","?","?","?","?","?","?","?","?","?","?","?","?","?","?","?","?","?","?","?","?","?","?","?","?","?","?","?","?","?","?","?","?","?","?","?","?","?","?","?","?","?","?","?","?","?","?","?","?","?","?","?","?","?","?","?","?","?","?","?","?","?","?","?","?","?","?","?","?","?","?","?","?","?","?","?","?","?","?","?","?","?","?","?","?","?","?","?","?","?","?","?","?","?","?","?","?","?","?","?","?","?","?","?","?","?","?","?","?","?","?","?","?","?","?","?","?","?","?","?","?","?","?","?","?","?","?","?","?","?","?","?","?","?","?","?","?","?","?","?","?","?","?","?","?","?","?","?","?","?","?","?","?","?","?","?","?","?","?","?","?","?","?","?","?","?","?","?","?","?","?","?","?","?","?","?","?","?","?","?","?","?","?","?","?","?","?","?","?","?","?","?","?","?","?","?","?","?","?","?","?","?","?","?","?","?","?","?","?","?","?","?","?","?","?","?","?","?","?","?","?","?","?","?","?","?","?","?","?","?","?","?","?","?","?","?","?","?","?","?","?","?","?","?","?","?","?","?","?","?","?","?","?","?","?","?","?","?","?","?","?","?","?","?","?","?","?","?","?","?","?","?","?","?","?","?","?","?","?","?","?","?","?","?","?","?","?","?","?","?","?","?","?","?","?","?","?","?","?","?","?","?","?","?","?","?","?","?","?","?","?","?","?","?","?","?","?","?","?","?","?","?","?","?","?","?","?","?","?","?","?","?","?","?","?","?","?","?","?","?","?","?","?","?","?","?","?","?","?","?","?","?","?","?","?","?","?","?","?","?","?","?","?","?","?","?","?","?","?","?","?","?","?","?","?","?","?","?","?","?","?","?","?","?","?","?","?","?","?","?","?","?","?","?","?","?","?","?","?","?","?","?","?","?","?","?","?","?","?","?","?","?","?","?","?","?","?","?","?","?","?","?","?","?","?","?","?","?","?","?","?","?","?","?","?","?","?","?","?","?","?","?","?","?","?","?","?","?","?","?","?","?","?","?","?","?","?","?","?","?","?","?","?","?","?","?","?","?","?","?","?","?","?","?","?","?","?","?","?","?","?","?","?","?","?","?","?","?","?","?","?","?","?","?","?","?","?","?","?","?","?","?","?","?","?","?","?","?","?","?","?","?","?","?","?","?","?","?","?","?","?","?","?","?","?","?","?","?","?","?","?","?","?","?","?","?","?","?","?","?","?","?","?","?","?","?","?","?","?","?","?","?","?","?","?","?","?","?","?","?","?","?","?","?","?","?","?","?","?","?","?","?","?","?","?","?","?","?","?","?","?","?","?","?","?","?","?","?","?","?","?","?","?","?","?","?","?","?","?","?","?","?","?","?","?","?","?","?","?","?","?","?","?","?","?","?","?","?","?","?","?","?","?","?","?","?","?","?","?","?","?","?","?","?","?","?","?","?","?","?","?","?","?","?","?","?","?","?","?","?","?","?","?","?","?","?","?","?","?","?","?","?","?","?","?","?","?","?","?","?","?","?","?","?","?","?","?","?","?","?","?","?","?","?","?","?","?","?","?","?","?","?","?","?","?","?","?","?","?","?","?","?","?","?","?","?","?","?","?","?","?","?","?","?","?","?","?","?","?","?","?","?","?","?","?","?","?","?","?","?","?","?","?","?","?","?","?","?","?","?","?","?","?","?","?","?","?","?","?","?","?","?","?","?","?","?","?","?","?","?","?","?","?","?","?","?","?","?","?","?","?","?","?","?","?","?","?","?","?","?","?","?","?","?","?","?","?","?","?","?","?","?","?","?","?","?","?","?","?","?","?","?","?","?","?","?","?","?","?","?","?","?","?","?","?","?","?","?","?","?","?","?","?","?","?","?","?","?","?","?","?","?","?","?","?","?","?","?","?","?","?","?","?","?","?","?","?","?","?","?","?","?","?","?","?","?","?","?","?","?","?","?","?","?","?","?","?","?","?","?","?","?","?","?","?","?","?","?","?","?","?","?","?","?","?","?","?","?","?","?","?","?","?","?","?","?","?","?","?","?","?","?","?","?","?","?","?","?","?","?","?","?","?","?","?","?","?","?","?","?","?","?","?","?","?","?","?","?","?","?","?","?","?","?","?","?","?","?","?","?","?","?","?","?","?","?","?","?","?","?","?","?","?","?","?","?","?","?","?","?","?","?","?","?","?","?","?","?","?","?","?","?","?","?","?","?","?","?","?","?","?","?","?","?","?","?","?","?","?","?","?","?","?","?","?","?","?","?","?","?","?","?","?","?","?","?","?","?","?","?","?","?","?","?","?","?","?","?","?","?","?","?","?","?","?","?","?","?","?","?","?","?","?","?","?","?","?","?","?","?","?","?","?","?","?","?","?","?","?","?","?","?","?","?","?","?","?","?","?","?","?","?","?","?","?","?","?","?","?","?","?","?","?","?","?","?","?","?","?","?","?","?","?","?","?","?","?","?","?","?","?","?","?","?","?","?","?","?","?","?","?","?","?","?","?","?","?","?","?","?","?","?","?","?","?","?","?","?","?","?","?","?","?","?","?","?","?","?","?","?","?","?","?","?","?","?","?","?","?","?","?","?","?","?","?","?","?","?","?","?","?","?","?","?","?","?","?","?","?","?","?","?","?","?","?","?","?","?","?","?","?","?","?","?","?","?","?","?","?","?","?","?","?","?","?","?","?","?","?","?","?","?","?","?","?","?","?","?","?","?","?","?","?","?","?","?","?","?","?","?","?","?","?","?","?","?","?","?","?","?","?","?","?","?","?","?","?","?","?","?","?","?","?","?","?","?","?","?","?","?","?","?","?","?","?","?","?","?","?","?","?","?","?","?","?","?","?","?","?","?","?","?","?","?","?","?","?","?","?","?","?","?","?","?","?","?","?","?","?","?","?","?","?","?","?","?","?","?","?","?","?","?","?","?","?","?","?","?","?","?","?","?","?","?","?","?","?","?","?","?","?","?","?","?","?","?","?","?","?","?","?","?","?","?","?","?","?","?","?","?","?","?","?","?","?","?","?","?","?","?","?","?","?","?","?","?","?","?","?","?","?","?","?","?","?","?","?","?","?","?","?","?","?","?","?","?","?","?","?","?","?","?","?","?","?","?","?","?","?","?","?","?","?","?","?","?","?","Z","?","?","?","?","?","?","?","?","?","?","?","?","?","?","?","?","?","?","?","?","?","?","?","?","?","?","?","?","?","?","?","?","?","?","?","?","?","?","?","?","?","?","?","?","?","?","?","?","?","?","?","?","?","?","?","?","?","?","?","?","?","?","?","?","?","?","?","?","?","?","?","?","?","?","?","?","?","?","?","?","?","?","?","?","?","?","?","?","?","?","?","?","?","?","?","?","?","?","?","?","?","?","?","?","?","?","?","?","?","?","?","?","?","?","?","?","?","?","?","?","?","?","?","?","?","?","?","?","?","Z","?","?","?","?","?","?","?","?","?","?","?","?","?","?","?","?","?","?","?","?","?","?","?","?","?","Z","?","?","?","?","?","?","?","?","?","?","?","?","?","?","?","?","?","?","?","?","?","?","?","?","?","Z","?","?","?","?","?","?","?","?","?","?","?","?","?","?","?","?","?","?","?","?","?","?","?","?","?","?","?","?","?","?","?","?","?","?","?","?","?","?","?","?","?","?","?","?","?","?","?","?","?","?","?","?","?","?","?","?","?","?","?","?","?","?","?","?","?","?","?","?","?","?","?","?","?","?","?","?","?","?","?","?","?","?","?","?","?","?","?","?","?","?","?","?","?","?","?","?","?","?","?","?","?","?","?","?","?","?","?","?","?","?","?","?","?","?","?","?","?","?","?","?","?","?","?","?","?","?","?","?","?","?","?","?","?","?","?","?","?","?","?","?","?","?","?","?","?","?","?","?","?","?","?","?","?","?","?","?","?","?","?","?","?","?","?","?","?","?","?","?","?","?","?","?","?","?","?","?","?","?","?","?","?","?","?","?","?","?","?","?","?","?","?","?","?","?","?","?","?","?","?","?","?","?","?","?","?","?","?","?","?","?","?","?","?","?","?","?","?","?","?","?","?","?","?","?","?","?","?","?","?","?","?","?","?","?","?","?","?","?","?","?","?","?","?","?","?","?","?","?","?","?","?","?","?","?","?","?","?","?","?","?","?","?","?","?","?","?","?","?","?","?","?","?","?","?","?","?","?","?","?","?","?","?","?","?","?","?","?","?","?","?","?","?","?","?","?","?","?","?","?","?","?","?","?","?","?","?","?","?","?","?","?","?","?","?","?","?","?","?","?","?","?","?","?","?","?","?","?","?","?","?","?","?","?","?","?","?","?","?","?","?","?","?","?","?","?","?","?","?","?","?","?","?","?","?","?","?","?","?","?","?","?","?","?","?","?","?","?","?","?","?","?","?","?","?","?","?","?","?","?","?","?","?","?","?","?","?","?","?","?","?","?","?","?","?","?","?","?","?","?","?","?","?","?","?","?","?","?","?","?","?","?","?","?","?","?","?","?","?","?","?","?","?","?","?","?","?","?","?","?","?","?","?","?","?","?","?","?","?","?","?","?","?","?","?","?","?","?","?","?","?","?","?","?","?","?","?","?","?","?","?","?","?","?","?","?","?","?","?","?","?","?","?","?","?","?","?","?","?","?","?","?","?","?","?","?","?","?","?","?","?","?","?","?","?","?","?","?","?","?","?","?","?","?","?","?","?","?","?","?","?","?","?","?","?","?","?","?","?","?","?","?","?","?","?","?","?","?","?","?","?","?","?","?","?","?","?","?","?","?","?","?","?","?","?","?","?","?","?","?","?","?","?","?","?","?","?","?","?","?","?","?","?","?","?","?","?","?","?","?","?","?","?","?","?","?","?","?","?","?","?","?","?","?","?","?","?","?","?","?","?","?","?","?","?","?","?","?","?","?","?","?","?","?","?","?","?","?","?","?","?","?","?","?","?","?","?","?","?","?","?","?","?","?","?","?","?","?","?","?","?","?","?","?","?","?","?","?","?","?","?","?","?","?","?","?","?","?","?","?","?","?","?","?","?","?","?","?","?","?","?","?","?","?","?","?","?","?","?","?","?","?","?","?","?","?","?","?","?","?","?","?","?","?","?","?","?","?","?","?","?","?","?","?","?","?","?","?","?","?","?","?","?","?","?","?","?","?","?","?","?","?","?","?","?","?","?","?","?","?","?","?","?","?","?","?","?","?","?","?","?","?","?","?","?","?","?","?","?","?","?","?","?","?","?","?","?","?","?","?","?","?","?","?","?","?","?","?","?","?","?","?","?","?","?","?","?","?","?","?","?","?","?","?","?","?","?","?","?","?","?","?","?","?","?","?","?","?","?","?","?","?","?","?","?","?","?","?","?","?","?","?","?","?","?","?","?","?","?","?","?","?","?","?","?","?","?","?","?","?","?","?","?","?","?","?","?","?","?","?","?","?","?","?","?","?","?","?","?","?","?","?","?","?","?","?","?","?","?","?","?","?","?","?","?","?","?","?","?","?","?","?","?","?","?","?","?","?","?","?","?","?","?","?","?","?","?","?","?","?","?","?","?","?","?","?","?","?","?","?","?","?","?","?","?","?","?","?","?","?","?","?","?","?","?","?","?","?","?","?","?","?","?","?","?","?","?","?","?","?","?","?","?","?","?","?","?","?","?","?","?","?","?","?","?","?","?","?","?","?","?","?","?","?","?","?","?","?","?","?","?","?","?","?","?","?","?","?","?","?","?","?","?","?","?","?","?","?","?","?","?","?","?","?","?","?","?","?","?","?","?","?","?","?","?","?","?","?","?","?","?","?","?","?","?","?","?","?","?","?","?","?","?","?","?","?","?","?","?","?","?","?","?","?","?","?","?","?","?","?","?","?","?","?","?","?","?","?","?","?","?","?","?","?","?","?","?","?","?","?","?","?","?","