[{"success":true,"trial_type":"fullscreen","trial_index":0,"time_elapsed":2858,"internal_node_id":"0.0-0.0","protocol_sum":"","subject_identifier":437,"subject_sum":[89,102,171,208,203,252,134,249,138,24,101,49,178,180,238,95,110,145,1,32,206,19,34,47,152,32,114,3,223,201,169,162],"subject_pair":218,"STUDY_ID":"66a22c0758a3d5c9d26873c6","PROLIFIC_PID":"66686462a0a88f628ca1423c","SESSION_ID":"66a2ea4350d983ac32298de4","practice_instructions":1,"leaderboard_instructions":0,"bonus":0,"reveal_word":true,"self_rating":"1","confidence":"83"},{"view_history":"[{\"page_index\":0,\"viewing_time\":2255.9000000059605}]","rt":2256.300000011921,"trial_type":"instructions","trial_index":1,"time_elapsed":5116,"internal_node_id":"0.0-1.0","protocol_sum":"","subject_identifier":437,"subject_sum":[89,102,171,208,203,252,134,249,138,24,101,49,178,180,238,95,110,145,1,32,206,19,34,47,152,32,114,3,223,201,169,162],"subject_pair":218,"STUDY_ID":"66a22c0758a3d5c9d26873c6","PROLIFIC_PID":"66686462a0a88f628ca1423c","SESSION_ID":"66a2ea4350d983ac32298de4","practice_instructions":1,"leaderboard_instructions":0,"bonus":0,"reveal_word":true,"self_rating":"1","confidence":"83"},{"view_history":"[{\"page_index\":0,\"viewing_time\":5053.5999999940395}]","rt":5054.300000011921,"trial_type":"instructions","trial_index":2,"time_elapsed":10171,"internal_node_id":"0.0-2.0-0.0","protocol_sum":"","subject_identifier":437,"subject_sum":[89,102,171,208,203,252,134,249,138,24,101,49,178,180,238,95,110,145,1,32,206,19,34,47,152,32,114,3,223,201,169,162],"subject_pair":218,"STUDY_ID":"66a22c0758a3d5c9d26873c6","PROLIFIC_PID":"66686462a0a88f628ca1423c","SESSION_ID":"66a2ea4350d983ac32298de4","practice_instructions":1,"leaderboard_instructions":0,"bonus":0,"reveal_word":true,"self_rating":"1","confidence":"83"},{"rt":5182.699999988079,"responses":"{\"Q0\":\"... reveal the word with as <b>few letter guesses</b> as possible\"}","question_order":"[0]","trial_type":"survey-multi-choice","trial_index":3,"time_elapsed":15357,"internal_node_id":"0.0-2.0-1.0","protocol_sum":"","subject_identifier":437,"subject_sum":[89,102,171,208,203,252,134,249,138,24,101,49,178,180,238,95,110,145,1,32,206,19,34,47,152,32,114,3,223,201,169,162],"subject_pair":218,"correct":true,"test_part":"multichoice_nonpretend","STUDY_ID":"66a22c0758a3d5c9d26873c6","PROLIFIC_PID":"66686462a0a88f628ca1423c","SESSION_ID":"66a2ea4350d983ac32298de4","practice_instructions":1,"leaderboard_instructions":0,"bonus":0,"reveal_word":true,"self_rating":"1","confidence":"83"},{"view_history":"[{\"page_index\":0,\"viewing_time\":1137.5}]","rt":1138,"trial_type":"instructions","trial_index":4,"time_elapsed":16496,"internal_node_id":"0.0-3.0","protocol_sum":"","subject_identifier":437,"subject_sum":[89,102,171,208,203,252,134,249,138,24,101,49,178,180,238,95,110,145,1,32,206,19,34,47,152,32,114,3,223,201,169,162],"subject_pair":218,"STUDY_ID":"66a22c0758a3d5c9d26873c6","PROLIFIC_PID":"66686462a0a88f628ca1423c","SESSION_ID":"66a2ea4350d983ac32298de4","practice_instructions":1,"leaderboard_instructions":0,"bonus":0,"reveal_word":true,"self_rating":"1","confidence":"83"},{"word":"ZEBRA","click_log":{"letter":["","A","E","Z","B","R"],"t":[0,2554.9000000059605,9613,11164.40000000596,12595.40000000596,13919.90000000596],"hit":[null,1,1,1,1,1],"asked":["","A","AE","AEZ","AEZB","AEZBR"],"word_state":["_____","____A","_E__A","ZE__A","ZEB_A","ZEBRA"]},"hover_log":{"letter":["?","?","?","?","?","?","?","?","?","?","?","?","?","?","?","?","?","?","?","?","?","?","?","?","?","?","?","?","?","?","?","?","?","?","?","?","?","?","?","?","?","?","?","?","?","?","?","?","?","?","?","?","?","?","?","?","?","S","?","T","?","?","?","W","?","?","?","?","?","?","?","?","?","?","?","?","?","?","?","?","?","?","?","?","?","?","?","?","?","?","?","?","W","?","?","L","L","?","?","?","?","?","?","?","?","A","A","A","A","A","A","A","A","A","A","A","A","A","A","A","A","A","A","A","A","A","A","A","A","A","A","A","A","A","A","A","A","A","A","A","A","A","A","A","A","A","A","A","A","A","A","A","A","A","A","A","A","A","A","A","A","A","A","A","A","A","A","A","A","A","A","A","A","A","A","A","A","A","?","M","?","Y","?","?","?","?","?","?","?","?","?","?","?","?","?","?","?","?","?","?","?","?","?","?","?","?","?","?","?","?","?","?","?","?","?","?","?","?","?","?","?","?","?","?","?","?","?","?","?","?","?","?","?","?","?","?","?","?","?","?","?","?","?","?","?","?","?","?","?","?","?","?","?","?","?","?","?","?","?","?","?","?","?","?","?","?","Y","Y","?","?","?","?","?","?","?","?","?","?","?","?","?","?","?","?","?","O","O","O","O","O","O","O","O","O","O","O","O","O","O","O","O","?","P","?","?","Z","?","?","?","?","?","?","?","?","?","?","?","?","?","?","?","?","?","?","?","?","?","?","?","?","?","?","?","?","?","?","?","?","?","?","?","?","?","?","?","?","?","?","?","?","?","?","?","?","?","?","?","?","?","?","?","?","?","?","?","?","?","?","?","?","?","?","?","?","?","?","?","?","?","?","?","?","?","?","?","?","?","?","?","?","?","?","?","?","?","?","?","?","?","?","?","?","?","?","?","?","?","?","?","?","?","?","?","?","?","?","?","?","?","?","?","?","?","?","?","?","?","?","?","?","?","?","?","?","?","?","?","?","?","?","?","?","?","?","?","?","?","?","?","?","?","?","?","?","?","?","?","?","?","?","?","?","?","?","?","?","?","?","?","?","?","?","?","?","?","?","?","?","?","?","?","?","?","?","?","?","?","?","?","?","?","?","?","?","?","?","?","?","?","?","?","?","?","?","?","?","?","?","?","?","?","?","?","?","?","?","?","?","?","?","?","?","?","?","?","?","?","?","?","?","?","?","?","?","?","Y","?","X","?","?","?","?","?","?","?","?","?","E","E","E","E","E","E","E","E","E","?","?","F","F","F","F","F","F","?","?","?","?","?","?","?","?","?","?","?","?","E","E","E","E","E","E","E","E","E","E","E","E","E","E","E","E","E","E","E","E","E","E","E","E","E","E","E","E","E","E","E","E","E","E","E","E","E","E","E","E","E","E","E","E","E","E","E","E","E","E","E","?","?","N","N","?","W","W","W","?","?","?","?","?","?","?","?","?","?","?","?","?","?","?","?","?","X","?","?","?","Y","Y","Y","Y","Y","Y","Y","Y","Y","Y","Y","Y","?","Z","Z","Z","Z","Z","Z","Z","Z","Z","Z","Z","Z","Z","Z","Z","Z","Z","Z","Z","Z","Z","Z","Z","Z","Z","Z","Z","Z","Z","Z","Z","Z","Z","Z","Z","Z","Z","Z","?","?","Y","Y","?","?","?","O","O","O","O","O","O","?","?","?","?","?","?","?","?","?","?","?","?","?","?","?","?","?","?","?","?","?","?","?","?","?","?","C","C","C","C","C","C","?","B","B","B","B","B","B","B","B","B","B","B","B","B","B","B","B","B","B","B","B","B","B","B","B","B","B","B","B","B","B","B","B","B","B","B","B","B","B","B","B","B","B","B","B","B","B","B","?","L","L","?","V","?","W","W","W","W","W","W","W","W","W","W","W","W","W","?","?","O","O","P","P","P","P","?","?","?","Q","Q","Q","Q","Q","Q","Q","Q","Q","Q","Q","?","?","R","R","R","R","R","R","R","R","R","R","R","R","R","R","R","R","R","R","R","R","R","R","R","R","R","R","R","R","R","R","R","R","R","R","R","R","R","R","R","R","R","R","R","R","R","R","?","?","?","?","?","?","?","?","?","?","?","?","?","?","?","?","?","?","?","?","?","?","?","?","?","?","?","?","?","?","?","?","?","?","?","?","?","?","?","?","?","?","?","?","?","?","?","?","?","?","?","?","?","?","?","?","?","?","?","?","?","?","?","?","?","?","?","?","?","?","?","?","?","?","?","?","?","?","?","?","?","?","?","?","?","?","?","?","?","?","?","?","?","?","?","?","?","?","?"],"t":[75,188,201,219,235,251,268,285,302,318,335,352,368,385,402,418,436,452,468,485,503,519,536,553,569,586,603,621,637,652,666,679,698,712,729,743,759,774,790,806,822,840,852,868,885,901,916,932,949,966,982,998,1011,1024,1040,1056,1074,1090,1103,1120,1137,1154,1169,1186,1204,1220,1236,1253,1268,1285,1302,1319,1336,1353,1370,1385,1400,1416,1433,1449,1466,1479,1494,1508,1523,1540,1555,1573,1587,1603,1619,1635,1651,1668,1686,1702,1719,1736,1751,1768,1785,1804,1820,1837,1853,1870,1886,1902,1919,1936,1953,1970,1986,2003,2020,2037,2053,2069,2083,2100,2116,2132,2149,2164,2178,2191,2208,2225,2239,2255,2272,2289,2307,2321,2335,2349,2366,2382,2399,2415,2430,2444,2457,2474,2490,2508,2524,2538,2552,2566,2582,2597,2614,2630,2646,2659,2681,2695,2712,2726,2744,2760,2773,2789,2805,2819,2834,2846,2864,2883,2898,2914,2929,2944,2961,2976,2990,3012,3023,3038,3057,3073,3091,3106,3122,3138,3157,3173,3191,3207,3223,3240,3255,3269,3282,3296,3310,3326,3345,3357,3372,3389,3406,3422,3439,3455,3469,3483,3497,3515,3526,3541,3557,3574,3590,3605,3619,3633,3647,3662,3678,3693,3707,3721,3732,3748,3764,3781,3797,3813,3830,3848,3864,3877,3892,3906,3920,3935,3952,3970,3986,4002,4017,4034,4052,4069,4084,4101,4119,4134,4151,4167,4185,4199,4212,4226,4246,4260,4278,4291,4305,4319,4331,4347,4365,4383,4402,4420,4434,4452,4470,4485,4502,4519,4534,4550,4567,4581,4598,4613,4625,4638,4652,4668,4684,4701,4717,4734,4751,4767,4786,4801,4818,4832,4848,4864,4878,4896,4911,4928,4942,4956,4972,4987,5002,5018,5034,5052,5069,5086,5101,5120,5134,5153,5169,5185,5201,5218,5234,5251,5265,5279,5300,5314,5331,5346,5360,5375,5389,5404,5420,5433,5448,5468,5481,5494,5510,5527,5542,5559,5578,5592,5612,5627,5643,5659,5676,5694,5712,5726,5744,5758,5774,5788,5803,5817,5829,5845,5861,5878,5894,5913,5931,5944,5959,5972,5988,6004,6023,6036,6050,6065,6080,6097,6114,6131,6153,6157,6174,6193,6210,6227,6244,6258,6272,6288,6304,6317,6332,6347,6363,6377,6391,6409,6422,6439,6456,6472,6492,6507,6521,6541,6558,6574,6590,6608,6624,6641,6657,6674,6691,6708,6725,6741,6758,6772,6786,6801,6815,6834,6849,6864,6881,6894,6907,6924,6940,6968,6986,7003,7020,7037,7054,7070,7087,7103,7120,7137,7153,7170,7183,7197,7213,7229,7243,7257,7272,7284,7300,7317,7334,7351,7365,7384,7398,7413,7426,7441,7452,7470,7484,7501,7517,7532,7546,7561,7575,7588,7603,7619,7636,7651,7668,7681,7696,7716,7731,7746,7760,7775,7791,7804,7822,7840,7856,7870,7884,7899,7914,7930,7943,7959,7976,7993,8007,8024,8038,8056,8069,8083,8099,8118,8136,8156,8170,8186,8200,8218,8231,8244,8257,8270,8284,8296,8312,8328,8343,8360,8377,8392,8405,8424,8440,8456,8471,8484,8499,8517,8535,8550,8563,8580,8599,8615,8632,8649,8663,8679,8698,8713,8731,8748,8765,8780,8797,8813,8830,8847,8863,8880,8896,8914,8930,8949,8963,8983,8997,9011,9027,9045,9061,9076,9093,9109,9128,9145,9161,9177,9195,9211,9228,9244,9260,9273,9288,9307,9322,9340,9355,9373,9390,9407,9421,9440,9455,9469,9484,9501,9519,9533,9548,9564,9579,9594,9610,9632,9652,9667,9682,9697,9712,9726,9743,9756,9771,9792,9807,9822,9835,9850,9865,9877,9894,9908,9924,9939,9956,9974,9990,10005,10019,10035,10053,10069,10084,10100,10119,10133,10148,10165,10182,10197,10214,10230,10247,10267,10280,10298,10313,10330,10348,10364,10380,10398,10411,10427,10438,10453,10466,10482,10497,10513,10531,10549,10565,10581,10599,10614,10631,10649,10663,10680,10695,10712,10727,10743,10761,10776,10794,10809,10826,10842,10860,10876,10891,10907,10922,10938,10956,10969,10986,11002,11013,11029,11048,11065,11082,11097,11109,11125,11139,11154,11168,11182,11198,11218,11231,11246,11261,11280,11294,11310,11326,11339,11354,11367,11385,11404,11419,11435,11451,11467,11488,11502,11518,11535,11552,11569,11586,11602,11619,11635,11653,11669,11685,11701,11719,11735,11751,11768,11785,11801,11818,11835,11852,11866,11881,11897,11913,11930,11947,11963,11980,11997,12014,12030,12047,12063,12078,12094,12110,12126,12142,12161,12176,12192,12209,12226,12243,12258,12273,12289,12307,12322,12334,12350,12365,12384,12398,12414,12431,12444,12461,12479,12496,12514,12532,12550,12566,12583,12599,12616,12631,12649,12666,12681,12698,12715,12733,12749,12765,12782,12798,12816,12831,12848,12860,12879,12896,12909,12928,12943,12957,12972,12990,13006,13022,13040,13056,13072,13089,13105,13120,13134,13150,13168,13181,13199,13215,13231,13249,13263,13281,13297,13313,13330,13347,13363,13380,13396,13414,13430,13447,13463,13482,13499,13512,13525,13540,13556,13572,13588,13607,13622,13639,13655,13673,13688,13705,13723,13736,13751,13769,13782,13796,13818,13832,13848,13865,13882,13898,13911,13926,13937,13952,13969,13984,14000,14015,14032,14048,14064,14081,14097,14114,14131,14148,14163,14177,14192,14206,14223,14240,14257,14273,14291,14307,14324,14342,14369,14384,14402,14419,14432,14448,14466,14481,14500,14515,14532,14549,14564,14581,14598,14614,14631,14648,14664,14681,14698,14715,14732,14748,14764,14781,14799,14814,14830,14843,14859,14877,14893,14909,14928,14943,14956,14972,14985,14999,15014,15030,15048,15065,15080,15093,15108,15130,15148,15162,15177,15198,15214,15227,15241,15258,15271,15285,15301,15315,15328,15344,15360,15374,15388,15400,15417,15432,15449,15466,15480,15492,15508,15529,15547,15566,15580,15595,15612,15627,15645,15662,15679,15694,15710,15729,15744,15761,15777,15793,15810,15823,15840,15853,15869,15882,15900,15914,15932],"hit":[null],"x":[-1.3503401360544218,-1.3503401360544218,-1.3503401360544218,-1.3503401360544218,-1.3503401360544218,-1.3503401360544218,-1.3503401360544218,-1.3503401360544218,-1.3503401360544218,-1.3503401360544218,-1.3503401360544218,-1.3503401360544218,-1.3503401360544218,-1.3503401360544218,-1.3503401360544218,-1.3503401360544218,-1.3503401360544218,-1.3503401360544218,-1.3503401360544218,-1.3503401360544218,-1.3503401360544218,-1.3503401360544218,-1.3503401360544218,-1.3503401360544218,-1.3503401360544218,-1.3503401360544218,-1.3503401360544218,-1.3503401360544218,-1.3503401360544218,-1.3503401360544218,-1.3503401360544218,-1.3503401360544218,-1.3503401360544218,-1.3503401360544218,-1.3503401360544218,-1.3503401360544218,-1.3503401360544218,-1.3503401360544218,-1.3503401360544218,-1.3503401360544218,-1.3503401360544218,-1.3503401360544218,-1.3503401360544218,-1.3503401360544218,-1.3503401360544218,-1.3503401360544218,-1.3503401360544218,-1.3503401360544218,-1.3503401360544218,-1.3503401360544218,-1.3503401360544218,-1.3503401360544218,-1.3503401360544218,-1.3503401360544218,-1.3503401360544218,-1.3503401360544218,-1.3503401360544218,0.02040816326530612,0.061224489795918366,0.11564625850340136,0.22448979591836735,0.35034013605442177,0.4965986394557823,0.6122448979591837,0.8095238095238095,0.8809523809523809,0.95578231292517,1.0136054421768708,1.0578231292517006,1.0748299319727892,1.0748299319727892,1.0748299319727892,1.0748299319727892,1.0748299319727892,1.0748299319727892,1.0748299319727892,1.0748299319727892,1.0748299319727892,1.0748299319727892,1.0748299319727892,1.0748299319727892,1.0748299319727892,1.0748299319727892,1.0748299319727892,1.0748299319727892,1.0748299319727892,1.0748299319727892,1.054421768707483,1.0170068027210883,0.95578231292517,0.826530612244898,0.7278911564625851,0.5986394557823129,0.48299319727891155,0.3401360544217687,0.2925170068027211,0.24149659863945577,0.21428571428571427,0.18027210884353742,0.1564625850340136,0.1326530612244898,0.1054421768707483,0.08163265306122448,0.061224489795918366,0.034013605442176874,0.023809523809523808,0.013605442176870748,0.003401360544217687,-0.01020408163265306,-0.017006802721088437,-0.023809523809523808,-0.023809523809523808,-0.023809523809523808,-0.023809523809523808,-0.023809523809523808,-0.023809523809523808,-0.023809523809523808,-0.023809523809523808,-0.023809523809523808,-0.023809523809523808,-0.023809523809523808,-0.023809523809523808,-0.023809523809523808,-0.023809523809523808,-0.023809523809523808,-0.023809523809523808,-0.023809523809523808,-0.023809523809523808,-0.023809523809523808,-0.023809523809523808,-0.023809523809523808,-0.023809523809523808,-0.023809523809523808,-0.023809523809523808,-0.023809523809523808,-0.023809523809523808,-0.023809523809523808,-0.023809523809523808,-0.023809523809523808,-0.023809523809523808,-0.023809523809523808,-0.023809523809523808,-0.023809523809523808,-0.023809523809523808,-0.023809523809523808,-0.023809523809523808,-0.023809523809523808,-0.023809523809523808,-0.023809523809523808,-0.023809523809523808,-0.023809523809523808,-0.023809523809523808,-0.023809523809523808,-0.023809523809523808,-0.023809523809523808,-0.023809523809523808,-0.023809523809523808,-0.023809523809523808,-0.023809523809523808,-0.023809523809523808,-0.023809523809523808,-0.023809523809523808,-0.023809523809523808,-0.023809523809523808,-0.023809523809523808,-0.023809523809523808,-0.023809523809523808,-0.023809523809523808,-0.023809523809523808,-0.023809523809523808,-0.023809523809523808,-0.023809523809523808,-0.023809523809523808,-0.023809523809523808,-0.023809523809523808,-0.023809523809523808,-0.003401360544217687,0.030612244897959183,0.15306122448979592,0.3877551020408163,0.6394557823129252,0.8469387755102041,1.1972789115646258,1.3061224489795917,1.3775510204081634,1.445578231292517,1.4727891156462585,1.4931972789115646,1.5068027210884354,1.510204081632653,1.510204081632653,1.510204081632653,1.510204081632653,1.510204081632653,1.510204081632653,1.510204081632653,1.510204081632653,1.510204081632653,1.510204081632653,1.510204081632653,1.510204081632653,1.510204081632653,1.510204081632653,1.510204081632653,1.510204081632653,1.510204081632653,1.510204081632653,1.510204081632653,1.510204081632653,1.510204081632653,1.510204081632653,1.510204081632653,1.510204081632653,1.510204081632653,1.510204081632653,1.510204081632653,1.510204081632653,1.510204081632653,1.510204081632653,1.510204081632653,1.510204081632653,1.510204081632653,1.510204081632653,1.510204081632653,1.5034013605442176,1.4965986394557824,1.4863945578231292,1.4761904761904763,1.469387755102041,1.465986394557823,1.465986394557823,1.465986394557823,1.4625850340136055,1.4625850340136055,1.4591836734693877,1.4557823129251701,1.4523809523809523,1.445578231292517,1.4387755102040816,1.4319727891156462,1.4081632653061225,1.3843537414965987,1.3503401360544218,1.3095238095238095,1.2687074829931972,1.2312925170068028,1.1870748299319729,1.1428571428571428,1.0952380952380953,1.0374149659863945,1.0374149659863945,1.0374149659863945,1.0374149659863945,1.0374149659863945,1.0374149659863945,1.0374149659863945,1.0374149659863945,1.0374149659863945,1.0374149659863945,1.0374149659863945,1.0374149659863945,1.0374149659863945,1.030612244897959,1.0170068027210883,0.9795918367346939,0.9319727891156463,0.8877551020408163,0.8503401360544217,0.8231292517006803,0.8027210884353742,0.7857142857142857,0.782312925170068,0.782312925170068,0.782312925170068,0.782312925170068,0.782312925170068,0.782312925170068,0.782312925170068,0.782312925170068,0.782312925170068,0.782312925170068,0.782312925170068,0.782312925170068,0.782312925170068,0.7789115646258503,0.7721088435374149,0.7687074829931972,0.7585034013605442,0.7517006802721088,0.7448979591836735,0.7414965986394558,0.7380952380952381,0.7380952380952381,0.7380952380952381,0.7380952380952381,0.7380952380952381,0.7380952380952381,0.7380952380952381,0.7380952380952381,0.7380952380952381,0.7482993197278912,0.7789115646258503,0.826530612244898,0.8843537414965986,0.9421768707482994,1.010204081632653,1.0782312925170068,1.1904761904761905,1.272108843537415,1.380952380952381,1.4489795918367347,1.5034013605442176,1.5612244897959184,1.5612244897959184,1.5612244897959184,1.5612244897959184,1.5612244897959184,1.5612244897959184,1.5612244897959184,1.5612244897959184,1.5612244897959184,1.5612244897959184,1.5612244897959184,1.5612244897959184,1.5612244897959184,1.5612244897959184,1.5612244897959184,1.5612244897959184,1.5612244897959184,1.5612244897959184,1.5612244897959184,1.5612244897959184,1.5612244897959184,1.5578231292517006,1.5442176870748299,1.5272108843537415,1.5034013605442176,1.469387755102041,1.4387755102040816,1.4217687074829932,1.4047619047619047,1.3979591836734695,1.3911564625850341,1.3911564625850341,1.3911564625850341,1.3945578231292517,1.3979591836734695,1.4081632653061225,1.41156462585034,1.41156462585034,1.41156462585034,1.41156462585034,1.41156462585034,1.41156462585034,1.41156462585034,1.41156462585034,1.41156462585034,1.41156462585034,1.41156462585034,1.41156462585034,1.41156462585034,1.41156462585034,1.41156462585034,1.41156462585034,1.41156462585034,1.41156462585034,1.41156462585034,1.41156462585034,1.41156462585034,1.41156462585034,1.41156462585034,1.41156462585034,1.41156462585034,1.41156462585034,1.41156462585034,1.41156462585034,1.41156462585034,1.41156462585034,1.41156462585034,1.41156462585034,1.41156462585034,1.41156462585034,1.41156462585034,1.41156462585034,1.41156462585034,1.41156462585034,1.41156462585034,1.41156462585034,1.41156462585034,1.41156462585034,1.41156462585034,1.41156462585034,1.41156462585034,1.41156462585034,1.41156462585034,1.41156462585034,1.41156462585034,1.41156462585034,1.41156462585034,1.41156462585034,1.41156462585034,1.41156462585034,1.41156462585034,1.41156462585034,1.41156462585034,1.41156462585034,1.41156462585034,1.41156462585034,1.41156462585034,1.41156462585034,1.41156462585034,1.41156462585034,1.41156462585034,1.41156462585034,1.41156462585034,1.41156462585034,1.41156462585034,1.41156462585034,1.41156462585034,1.41156462585034,1.41156462585034,1.41156462585034,1.41156462585034,1.41156462585034,1.41156462585034,1.41156462585034,1.41156462585034,1.41156462585034,1.41156462585034,1.41156462585034,1.41156462585034,1.41156462585034,1.41156462585034,1.41156462585034,1.41156462585034,1.41156462585034,1.41156462585034,1.41156462585034,1.41156462585034,1.41156462585034,1.41156462585034,1.41156462585034,1.41156462585034,1.41156462585034,1.41156462585034,1.41156462585034,1.41156462585034,1.41156462585034,1.41156462585034,1.41156462585034,1.41156462585034,1.41156462585034,1.41156462585034,1.41156462585034,1.41156462585034,1.41156462585034,1.41156462585034,1.41156462585034,1.41156462585034,1.41156462585034,1.41156462585034,1.41156462585034,1.41156462585034,1.41156462585034,1.41156462585034,1.41156462585034,1.41156462585034,1.41156462585034,1.41156462585034,1.41156462585034,1.41156462585034,1.41156462585034,1.41156462585034,1.41156462585034,1.41156462585034,1.41156462585034,1.41156462585034,1.41156462585034,1.41156462585034,1.41156462585034,1.41156462585034,1.41156462585034,1.41156462585034,1.41156462585034,1.41156462585034,1.41156462585034,1.41156462585034,1.41156462585034,1.41156462585034,1.41156462585034,1.41156462585034,1.41156462585034,1.41156462585034,1.41156462585034,1.41156462585034,1.41156462585034,1.41156462585034,1.41156462585034,1.41156462585034,1.41156462585034,1.41156462585034,1.41156462585034,1.41156462585034,1.41156462585034,1.41156462585034,1.41156462585034,1.41156462585034,1.41156462585034,1.41156462585034,1.41156462585034,1.41156462585034,1.41156462585034,1.41156462585034,1.41156462585034,1.41156462585034,1.41156462585034,1.41156462585034,1.41156462585034,1.41156462585034,1.41156462585034,1.41156462585034,1.41156462585034,1.41156462585034,1.41156462585034,1.41156462585034,1.41156462585034,1.41156462585034,1.41156462585034,1.3843537414965987,1.370748299319728,1.3231292517006803,1.272108843537415,1.1972789115646258,1.1088435374149659,1.0136054421768708,0.8809523809523809,0.7891156462585034,0.7006802721088435,0.6462585034013606,0.5884353741496599,0.54421768707483,0.5136054421768708,0.4931972789115646,0.48639455782312924,0.48639455782312924,0.48639455782312924,0.5136054421768708,0.5340136054421769,0.5510204081632653,0.5680272108843537,0.5782312925170068,0.5850340136054422,0.5884353741496599,0.5884353741496599,0.5918367346938775,0.6122448979591837,0.6360544217687075,0.6394557823129252,0.6598639455782312,0.6836734693877551,0.6904761904761905,0.7040816326530612,0.717687074829932,0.7414965986394558,0.7585034013605442,0.7789115646258503,0.7891156462585034,0.7959183673469388,0.7993197278911565,0.7993197278911565,0.7959183673469388,0.782312925170068,0.7619047619047619,0.7142857142857143,0.673469387755102,0.6258503401360545,0.6054421768707483,0.5986394557823129,0.5952380952380952,0.5952380952380952,0.5952380952380952,0.5952380952380952,0.5952380952380952,0.5952380952380952,0.5952380952380952,0.5952380952380952,0.5952380952380952,0.5952380952380952,0.5952380952380952,0.5952380952380952,0.5952380952380952,0.5952380952380952,0.5952380952380952,0.5952380952380952,0.5952380952380952,0.5952380952380952,0.5952380952380952,0.5952380952380952,0.5952380952380952,0.5952380952380952,0.5952380952380952,0.5952380952380952,0.5952380952380952,0.5952380952380952,0.5952380952380952,0.5952380952380952,0.5952380952380952,0.5952380952380952,0.5952380952380952,0.5952380952380952,0.5952380952380952,0.5952380952380952,0.5952380952380952,0.5952380952380952,0.5952380952380952,0.5952380952380952,0.5952380952380952,0.5952380952380952,0.5952380952380952,0.5952380952380952,0.5952380952380952,0.5952380952380952,0.5952380952380952,0.5952380952380952,0.5952380952380952,0.5952380952380952,0.5952380952380952,0.5952380952380952,0.5952380952380952,0.5952380952380952,0.5986394557823129,0.5986394557823129,0.6020408163265306,0.6020408163265306,0.6020408163265306,0.5986394557823129,0.5850340136054422,0.5748299319727891,0.564625850340136,0.5544217687074829,0.5510204081632653,0.5476190476190477,0.54421768707483,0.54421768707483,0.54421768707483,0.54421768707483,0.5476190476190477,0.5578231292517006,0.5782312925170068,0.6020408163265306,0.6326530612244898,0.6768707482993197,0.7244897959183674,0.7585034013605442,0.7959183673469388,0.8027210884353742,0.8129251700680272,0.8197278911564626,0.8231292517006803,0.8231292517006803,0.826530612244898,0.8333333333333334,0.8401360544217688,0.8503401360544217,0.8639455782312925,0.8843537414965986,0.8945578231292517,0.9149659863945578,0.9319727891156463,0.9489795918367347,0.9591836734693877,0.9659863945578231,0.9693877551020408,0.9727891156462585,0.9727891156462585,0.9727891156462585,0.9761904761904762,0.9761904761904762,0.9761904761904762,0.9795918367346939,0.9829931972789115,0.9829931972789115,0.9863945578231292,0.9863945578231292,0.9863945578231292,0.9863945578231292,0.9863945578231292,0.9863945578231292,0.9863945578231292,0.9863945578231292,0.9863945578231292,0.9863945578231292,0.9863945578231292,0.9863945578231292,0.9863945578231292,0.9863945578231292,0.9863945578231292,0.9863945578231292,0.9863945578231292,0.9863945578231292,0.9863945578231292,0.9863945578231292,0.9863945578231292,0.9863945578231292,0.9863945578231292,0.9863945578231292,0.9863945578231292,0.9421768707482994,0.9285714285714286,0.9047619047619048,0.8775510204081632,0.8469387755102041,0.8027210884353742,0.7891156462585034,0.7482993197278912,0.7278911564625851,0.7108843537414966,0.6972789115646258,0.6836734693877551,0.673469387755102,0.6666666666666666,0.6598639455782312,0.6428571428571429,0.6224489795918368,0.5986394557823129,0.5748299319727891,0.5476190476190477,0.5204081632653061,0.4965986394557823,0.47278911564625853,0.45918367346938777,0.4387755102040816,0.43537414965986393,0.43197278911564624,0.42517006802721086,0.41836734693877553,0.40476190476190477,0.391156462585034,0.37755102040816324,0.36394557823129253,0.35034013605442177,0.3401360544217687,0.3299319727891156,0.3197278911564626,0.30952380952380953,0.30612244897959184,0.2925170068027211,0.2857142857142857,0.2789115646258503,0.2687074829931973,0.24149659863945577,0.23469387755102042,0.21428571428571427,0.20068027210884354,0.1836734693877551,0.17346938775510204,0.17006802721088435,0.16666666666666666,0.16326530612244897,0.16326530612244897,0.16326530612244897,0.16326530612244897,0.16326530612244897,0.16326530612244897,0.16326530612244897,0.16326530612244897,0.16326530612244897,0.1598639455782313,0.1598639455782313,0.1564625850340136,0.1564625850340136,0.1564625850340136,0.15306122448979592,0.15306122448979592,0.15306122448979592,0.15306122448979592,0.15306122448979592,0.15306122448979592,0.15306122448979592,0.15306122448979592,0.15306122448979592,0.15306122448979592,0.15306122448979592,0.15306122448979592,0.15306122448979592,0.15306122448979592,0.15306122448979592,0.15306122448979592,0.15306122448979592,0.15306122448979592,0.15306122448979592,0.15306122448979592,0.15306122448979592,0.15306122448979592,0.15306122448979592,0.15306122448979592,0.15306122448979592,0.15306122448979592,0.1598639455782313,0.16666666666666666,0.22448979591836735,0.2925170068027211,0.3333333333333333,0.41496598639455784,0.46598639455782315,0.4965986394557823,0.5238095238095238,0.5306122448979592,0.5306122448979592,0.5340136054421769,0.5340136054421769,0.5340136054421769,0.5340136054421769,0.5340136054421769,0.5340136054421769,0.5374149659863946,0.5476190476190477,0.564625850340136,0.5918367346938775,0.6224489795918368,0.6598639455782312,0.7108843537414966,0.7585034013605442,0.8095238095238095,0.8367346938775511,0.8639455782312925,0.8945578231292517,0.9081632653061225,0.9319727891156463,0.9489795918367347,0.9591836734693877,0.9693877551020408,0.9727891156462585,0.9727891156462585,0.9761904761904762,0.9829931972789115,0.9931972789115646,1.010204081632653,1.0238095238095237,1.0408163265306123,1.054421768707483,1.0680272108843538,1.0782312925170068,1.0918367346938775,1.098639455782313,1.1088435374149659,1.1156462585034013,1.119047619047619,1.1224489795918366,1.1224489795918366,1.1224489795918366,1.1224489795918366,1.1224489795918366,1.1258503401360545,1.1258503401360545,1.129251700680272,1.129251700680272,1.129251700680272,1.129251700680272,1.129251700680272,1.129251700680272,1.129251700680272,1.129251700680272,1.129251700680272,1.129251700680272,1.129251700680272,1.129251700680272,1.129251700680272,1.129251700680272,1.129251700680272,1.129251700680272,1.129251700680272,1.129251700680272,1.129251700680272,1.129251700680272,1.129251700680272,1.129251700680272,1.129251700680272,1.129251700680272,1.129251700680272,1.129251700680272,1.129251700680272,1.129251700680272,1.129251700680272,1.129251700680272,1.129251700680272,1.129251700680272,1.129251700680272,1.129251700680272,1.1224489795918366,1.1054421768707483,1.0714285714285714,1.0204081632653061,0.9625850340136054,0.8775510204081632,0.7993197278911565,0.7482993197278912,0.6768707482993197,0.6428571428571429,0.6156462585034014,0.5918367346938775,0.5680272108843537,0.54421768707483,0.5272108843537415,0.5102040816326531,0.5,0.4897959183673469,0.47959183673469385,0.47619047619047616,0.46938775510204084,0.46598639455782315,0.46258503401360546,0.45918367346938777,0.45918367346938777,0.45918367346938777,0.45918367346938777,0.45918367346938777,0.45918367346938777,0.45918367346938777,0.45918367346938777,0.45918367346938777,0.45918367346938777,0.45918367346938777,0.45918367346938777,0.45918367346938777,0.45918367346938777,0.45918367346938777,0.45918367346938777,0.45918367346938777,0.45918367346938777,0.45918367346938777,0.45918367346938777,0.45918367346938777,0.45918367346938777,0.45918367346938777,0.45918367346938777,0.45918367346938777,0.45918367346938777,0.45918367346938777,0.45918367346938777,0.45918367346938777,0.45918367346938777,0.45918367346938777,0.45918367346938777,0.45918367346938777,0.45918367346938777,0.45918367346938777,0.45918367346938777,0.45918367346938777,0.45918367346938777,0.45918367346938777,0.45918367346938777,0.45918367346938777,0.45918367346938777,0.45918367346938777,0.45918367346938777,0.45918367346938777,0.45918367346938777,0.45918367346938777,0.45918367346938777,0.45918367346938777,0.45918367346938777,0.45918367346938777,0.45918367346938777,0.45918367346938777,0.45918367346938777,0.45918367346938777,0.45918367346938777,0.45918367346938777,0.45918367346938777,0.45918367346938777,0.45918367346938777,0.46598639455782315,0.47278911564625853,0.47959183673469385,0.4897959183673469,0.5136054421768708,0.5374149659863946,0.5374149659863946,0.5374149659863946,0.5374149659863946,0.5374149659863946,0.5374149659863946,0.5374149659863946,0.5374149659863946,0.5374149659863946,0.5374149659863946,0.5374149659863946],"y":[-3.884920634920633,-3.884920634920633,-3.884920634920633,-3.884920634920633,-3.884920634920633,-3.884920634920633,-3.884920634920633,-3.884920634920633,-3.884920634920633,-3.884920634920633,-3.884920634920633,-3.884920634920633,-3.884920634920633,-3.884920634920633,-3.884920634920633,-3.884920634920633,-3.884920634920633,-3.884920634920633,-3.884920634920633,-3.884920634920633,-3.884920634920633,-3.884920634920633,-3.884920634920633,-3.884920634920633,-3.884920634920633,-3.884920634920633,-3.884920634920633,-3.884920634920633,-3.884920634920633,-3.884920634920633,-3.884920634920633,-3.884920634920633,-3.884920634920633,-3.884920634920633,-3.884920634920633,-3.884920634920633,-3.884920634920633,-3.884920634920633,-3.884920634920633,-3.884920634920633,-3.884920634920633,-3.884920634920633,-3.884920634920633,-3.884920634920633,-3.884920634920633,-3.884920634920633,-3.884920634920633,-3.884920634920633,-3.884920634920633,-3.884920634920633,-3.884920634920633,-3.884920634920633,-3.884920634920633,-3.884920634920633,-3.884920634920633,-3.884920634920633,-3.884920634920633,0.9007936507936501,0.9007936507936501,0.9007936507936501,0.9007936507936501,0.9007936507936501,0.9865079365079358,1.081746031746031,1.281746031746031,1.357936507936507,1.4531746031746022,1.5293650793650784,1.5865079365079355,1.6055555555555545,1.6055555555555545,1.6055555555555545,1.6055555555555545,1.6055555555555545,1.6055555555555545,1.6055555555555545,1.6055555555555545,1.6055555555555545,1.6055555555555545,1.6055555555555545,1.6055555555555545,1.6055555555555545,1.6055555555555545,1.6055555555555545,1.6055555555555545,1.6055555555555545,1.6055555555555545,1.5865079365079355,1.5484126984126974,1.4817460317460307,1.3103174603174594,1.1865079365079356,1.0150793650793644,0.843650793650793,0.6150793650793646,0.5293650793650789,0.44365079365079324,0.38650793650793613,0.3388888888888885,0.31031746031746,0.2722222222222219,0.23412698412698382,0.19603174603174575,0.17698412698412672,0.14841269841269816,0.13888888888888865,0.12936507936507913,0.11031746031746008,0.09126984126984104,0.07222222222222201,0.06269841269841249,0.06269841269841249,0.053174603174602965,0.053174603174602965,0.053174603174602965,0.053174603174602965,0.053174603174602965,0.053174603174602965,0.06269841269841249,0.06269841269841249,0.06269841269841249,0.06269841269841249,0.06269841269841249,0.06269841269841249,0.06269841269841249,0.06269841269841249,0.06269841269841249,0.06269841269841249,0.06269841269841249,0.06269841269841249,0.06269841269841249,0.06269841269841249,0.06269841269841249,0.06269841269841249,0.06269841269841249,0.06269841269841249,0.06269841269841249,0.06269841269841249,0.06269841269841249,0.06269841269841249,0.06269841269841249,0.06269841269841249,0.06269841269841249,0.06269841269841249,0.06269841269841249,0.06269841269841249,0.06269841269841249,0.06269841269841249,0.06269841269841249,0.06269841269841249,0.06269841269841249,0.06269841269841249,0.06269841269841249,0.06269841269841249,0.06269841269841249,0.06269841269841249,0.06269841269841249,0.06269841269841249,0.06269841269841249,0.06269841269841249,0.06269841269841249,0.06269841269841249,0.06269841269841249,0.06269841269841249,0.06269841269841249,0.06269841269841249,0.06269841269841249,0.06269841269841249,0.06269841269841249,0.06269841269841249,0.06269841269841249,0.06269841269841249,0.06269841269841249,0.06269841269841249,0.06269841269841249,0.06269841269841249,0.06269841269841249,0.08174603174603153,0.17698412698412672,0.40555555555555517,0.7103174603174598,0.9769841269841263,1.4246031746031738,1.5865079365079355,1.7007936507936496,1.8055555555555545,1.853174603174602,1.8817460317460306,1.9007936507936496,1.910317460317459,1.910317460317459,1.910317460317459,1.910317460317459,1.910317460317459,1.910317460317459,1.910317460317459,1.910317460317459,1.910317460317459,1.910317460317459,1.910317460317459,1.910317460317459,1.910317460317459,1.910317460317459,1.910317460317459,1.910317460317459,1.910317460317459,1.910317460317459,1.910317460317459,1.910317460317459,1.910317460317459,1.910317460317459,1.910317460317459,1.910317460317459,1.910317460317459,1.910317460317459,1.910317460317459,1.910317460317459,1.910317460317459,1.910317460317459,1.910317460317459,1.910317460317459,1.910317460317459,1.910317460317459,1.910317460317459,1.9007936507936496,1.9007936507936496,1.8817460317460306,1.8817460317460306,1.8722222222222211,1.8722222222222211,1.8722222222222211,1.8722222222222211,1.8722222222222211,1.8722222222222211,1.8722222222222211,1.8722222222222211,1.8722222222222211,1.8817460317460306,1.89126984126984,1.89126984126984,1.89126984126984,1.89126984126984,1.8817460317460306,1.853174603174602,1.815079365079364,1.7769841269841258,1.7293650793650783,1.6626984126984117,1.5579365079365068,1.4436507936507927,1.4436507936507927,1.4436507936507927,1.4436507936507927,1.4436507936507927,1.4436507936507927,1.4436507936507927,1.4436507936507927,1.4436507936507927,1.4436507936507927,1.4436507936507927,1.4436507936507927,1.4436507936507927,1.4436507936507927,1.4246031746031738,1.3484126984126974,1.2246031746031738,1.062698412698412,0.8722222222222216,0.7293650793650788,0.624603174603174,0.5198412698412693,0.4912698412698408,0.4817460317460313,0.4817460317460313,0.4817460317460313,0.4817460317460313,0.4817460317460313,0.4817460317460313,0.4817460317460313,0.4817460317460313,0.4817460317460313,0.4817460317460313,0.4817460317460313,0.4912698412698408,0.4912698412698408,0.5007936507936503,0.5103174603174598,0.5198412698412693,0.5293650793650789,0.5388888888888884,0.5388888888888884,0.5388888888888884,0.5388888888888884,0.5388888888888884,0.5388888888888884,0.5388888888888884,0.5388888888888884,0.5388888888888884,0.5388888888888884,0.5388888888888884,0.5388888888888884,0.5579365079365075,0.6150793650793646,0.6912698412698407,0.7674603174603168,0.8722222222222216,0.9674603174603168,1.1293650793650787,1.2436507936507928,1.396031746031745,1.4912698412698402,1.5579365079365068,1.634126984126983,1.634126984126983,1.634126984126983,1.634126984126983,1.634126984126983,1.634126984126983,1.634126984126983,1.634126984126983,1.634126984126983,1.634126984126983,1.634126984126983,1.634126984126983,1.634126984126983,1.634126984126983,1.634126984126983,1.634126984126983,1.634126984126983,1.634126984126983,1.634126984126983,1.634126984126983,1.634126984126983,1.634126984126983,1.6055555555555545,1.5674603174603163,1.5293650793650784,1.4626984126984117,1.396031746031745,1.3484126984126974,1.3103174603174594,1.281746031746031,1.2626984126984118,1.2436507936507928,1.2341269841269833,1.2246031746031738,1.2150793650793643,1.2055555555555548,1.2055555555555548,1.2055555555555548,1.2055555555555548,1.2055555555555548,1.2055555555555548,1.2055555555555548,1.2055555555555548,1.2055555555555548,1.2055555555555548,1.2055555555555548,1.2055555555555548,1.2055555555555548,1.2055555555555548,1.2055555555555548,1.2055555555555548,1.2055555555555548,1.2055555555555548,1.2055555555555548,1.2055555555555548,1.2055555555555548,1.2055555555555548,1.2055555555555548,1.2055555555555548,1.2055555555555548,1.2055555555555548,1.2055555555555548,1.2055555555555548,1.2055555555555548,1.2055555555555548,1.2055555555555548,1.2055555555555548,1.2055555555555548,1.2055555555555548,1.2055555555555548,1.2055555555555548,1.2055555555555548,1.2055555555555548,1.2055555555555548,1.2055555555555548,1.2055555555555548,1.2055555555555548,1.2055555555555548,1.2055555555555548,1.2055555555555548,1.2055555555555548,1.2055555555555548,1.2055555555555548,1.2055555555555548,1.2055555555555548,1.2055555555555548,1.2055555555555548,1.2055555555555548,1.2055555555555548,1.2055555555555548,1.2055555555555548,1.2055555555555548,1.2055555555555548,1.2055555555555548,1.2055555555555548,1.2055555555555548,1.2055555555555548,1.2055555555555548,1.2055555555555548,1.2055555555555548,1.2055555555555548,1.2055555555555548,1.2055555555555548,1.2055555555555548,1.2055555555555548,1.2055555555555548,1.2055555555555548,1.2055555555555548,1.2055555555555548,1.2055555555555548,1.2055555555555548,1.2055555555555548,1.2055555555555548,1.2055555555555548,1.2055555555555548,1.2055555555555548,1.2055555555555548,1.2055555555555548,1.2055555555555548,1.2055555555555548,1.2055555555555548,1.2055555555555548,1.2055555555555548,1.2055555555555548,1.2055555555555548,1.2055555555555548,1.2055555555555548,1.2055555555555548,1.2055555555555548,1.2055555555555548,1.2055555555555548,1.2055555555555548,1.2055555555555548,1.2055555555555548,1.2055555555555548,1.2055555555555548,1.2055555555555548,1.2055555555555548,1.2055555555555548,1.2055555555555548,1.2055555555555548,1.2055555555555548,1.2055555555555548,1.2055555555555548,1.2055555555555548,1.2055555555555548,1.2055555555555548,1.2055555555555548,1.2055555555555548,1.2055555555555548,1.2055555555555548,1.2055555555555548,1.2055555555555548,1.2055555555555548,1.2055555555555548,1.2055555555555548,1.2055555555555548,1.2055555555555548,1.2055555555555548,1.2055555555555548,1.2055555555555548,1.2055555555555548,1.2055555555555548,1.2055555555555548,1.2055555555555548,1.2055555555555548,1.2055555555555548,1.2055555555555548,1.2055555555555548,1.2055555555555548,1.2055555555555548,1.2055555555555548,1.2055555555555548,1.2055555555555548,1.2055555555555548,1.2055555555555548,1.2055555555555548,1.2055555555555548,1.2055555555555548,1.2055555555555548,1.2055555555555548,1.2055555555555548,1.2055555555555548,1.2055555555555548,1.2055555555555548,1.2055555555555548,1.2055555555555548,1.2055555555555548,1.2055555555555548,1.2055555555555548,1.2055555555555548,1.2055555555555548,1.2055555555555548,1.2055555555555548,1.2055555555555548,1.2055555555555548,1.2055555555555548,1.2055555555555548,1.2055555555555548,1.2055555555555548,1.2055555555555548,1.2055555555555548,1.2055555555555548,1.2055555555555548,1.2055555555555548,1.2055555555555548,1.2055555555555548,1.2055555555555548,1.2055555555555548,1.2055555555555548,1.2055555555555548,1.2055555555555548,1.2055555555555548,1.2055555555555548,1.2055555555555548,1.2055555555555548,1.2055555555555548,1.2150793650793643,1.2246031746031738,1.2341269841269833,1.2341269841269833,1.2341269841269833,1.2055555555555548,1.1293650793650787,1.062698412698412,0.9579365079365072,0.8817460317460311,0.7769841269841263,0.6626984126984121,0.5484126984126979,0.4341269841269837,0.35793650793650755,0.25317460317460283,0.18650793650793623,0.1198412698412696,0.10079365079365056,0.08174603174603153,0.08174603174603153,0.08174603174603153,0.08174603174603153,0.08174603174603153,0.08174603174603153,0.08174603174603153,0.06269841269841249,0.06269841269841249,0.06269841269841249,0.06269841269841249,0.06269841269841249,0.07222222222222201,0.09126984126984104,0.11031746031746008,0.13888888888888865,0.1674603174603172,0.18650793650793623,0.19603174603174575,0.20555555555555527,0.2150793650793648,0.2150793650793648,0.2150793650793648,0.2150793650793648,0.2150793650793648,0.19603174603174575,0.1674603174603172,0.1198412698412696,0.10079365079365056,0.10079365079365056,0.09126984126984104,0.09126984126984104,0.09126984126984104,0.09126984126984104,0.09126984126984104,0.09126984126984104,0.09126984126984104,0.09126984126984104,0.09126984126984104,0.09126984126984104,0.09126984126984104,0.09126984126984104,0.09126984126984104,0.09126984126984104,0.09126984126984104,0.09126984126984104,0.09126984126984104,0.09126984126984104,0.09126984126984104,0.09126984126984104,0.09126984126984104,0.09126984126984104,0.09126984126984104,0.09126984126984104,0.09126984126984104,0.09126984126984104,0.09126984126984104,0.09126984126984104,0.09126984126984104,0.09126984126984104,0.09126984126984104,0.09126984126984104,0.09126984126984104,0.09126984126984104,0.09126984126984104,0.09126984126984104,0.09126984126984104,0.09126984126984104,0.09126984126984104,0.09126984126984104,0.09126984126984104,0.09126984126984104,0.09126984126984104,0.09126984126984104,0.09126984126984104,0.09126984126984104,0.09126984126984104,0.09126984126984104,0.12936507936507913,0.17698412698412672,0.29126984126984096,0.45317460317460273,0.6436507936507931,0.7865079365079359,0.9388888888888882,1.0055555555555549,1.10079365079365,1.1484126984126977,1.2246031746031738,1.2531746031746023,1.2912698412698405,1.3103174603174594,1.3293650793650784,1.3293650793650784,1.3293650793650784,1.3293650793650784,1.3293650793650784,1.3293650793650784,1.3293650793650784,1.30079365079365,1.281746031746031,1.2436507936507928,1.2150793650793643,1.1769841269841261,1.1484126984126977,1.1388888888888882,1.119841269841269,1.119841269841269,1.1103174603174595,1.1103174603174595,1.10079365079365,1.10079365079365,1.0912698412698405,1.081746031746031,1.062698412698412,1.0531746031746023,1.0341269841269833,1.0055555555555549,0.9960317460317453,0.9865079365079358,0.9865079365079358,0.9865079365079358,0.9865079365079358,0.9865079365079358,0.9865079365079358,0.9865079365079358,0.9865079365079358,0.9865079365079358,0.9865079365079358,0.9865079365079358,0.9865079365079358,0.9865079365079358,0.9865079365079358,0.9865079365079358,0.9865079365079358,0.9865079365079358,0.9865079365079358,0.9865079365079358,0.9865079365079358,0.9865079365079358,0.9865079365079358,0.9865079365079358,0.9865079365079358,0.9865079365079358,0.9865079365079358,0.9865079365079358,0.9865079365079358,0.9865079365079358,0.9865079365079358,0.9865079365079358,0.9865079365079358,0.9865079365079358,0.9865079365079358,0.9865079365079358,0.9865079365079358,0.9865079365079358,0.9865079365079358,0.9865079365079358,0.9865079365079358,0.9579365079365072,0.9388888888888882,0.9198412698412691,0.8817460317460311,0.824603174603174,0.7293650793650788,0.6912698412698407,0.5960317460317456,0.5388888888888884,0.5007936507936503,0.45317460317460273,0.4246031746031742,0.3960317460317456,0.3769841269841266,0.35793650793650755,0.3388888888888885,0.3198412698412695,0.30079365079365045,0.2817460317460314,0.2722222222222219,0.2626984126984124,0.25317460317460283,0.25317460317460283,0.24365079365079334,0.24365079365079334,0.24365079365079334,0.24365079365079334,0.24365079365079334,0.24365079365079334,0.24365079365079334,0.24365079365079334,0.24365079365079334,0.24365079365079334,0.24365079365079334,0.23412698412698382,0.2150793650793648,0.19603174603174575,0.17698412698412672,0.1674603174603172,0.12936507936507913,0.11031746031746008,0.10079365079365056,0.08174603174603153,0.053174603174602965,0.04365079365079345,0.03412698412698393,0.024603174603174408,0.01507936507936489,0.01507936507936489,0.005555555555555372,0.005555555555555372,0.005555555555555372,0.005555555555555372,0.005555555555555372,0.005555555555555372,0.005555555555555372,0.005555555555555372,0.005555555555555372,0.005555555555555372,0.005555555555555372,0.005555555555555372,0.005555555555555372,0.005555555555555372,0.005555555555555372,0.005555555555555372,0.005555555555555372,0.005555555555555372,0.005555555555555372,0.005555555555555372,0.005555555555555372,0.005555555555555372,0.005555555555555372,0.005555555555555372,0.005555555555555372,0.005555555555555372,0.005555555555555372,0.005555555555555372,0.005555555555555372,0.005555555555555372,0.005555555555555372,0.005555555555555372,0.005555555555555372,0.005555555555555372,0.005555555555555372,0.005555555555555372,0.005555555555555372,0.005555555555555372,0.005555555555555372,0.005555555555555372,0.005555555555555372,0.005555555555555372,0.024603174603174408,0.053174603174602965,0.23412698412698382,0.4246031746031742,0.5388888888888884,0.7579365079365074,0.8817460317460311,0.9674603174603168,1.0531746031746023,1.0722222222222215,1.081746031746031,1.0912698412698405,1.0912698412698405,1.0912698412698405,1.0912698412698405,1.0912698412698405,1.0912698412698405,1.0722222222222215,1.0436507936507928,0.9674603174603168,0.8722222222222216,0.7674603174603168,0.6817460317460312,0.6150793650793646,0.586507936507936,0.5769841269841265,0.5769841269841265,0.5769841269841265,0.5769841269841265,0.586507936507936,0.586507936507936,0.5960317460317456,0.5960317460317456,0.5960317460317456,0.5960317460317456,0.5960317460317456,0.5960317460317456,0.5960317460317456,0.5960317460317456,0.586507936507936,0.586507936507936,0.5769841269841265,0.567460317460317,0.567460317460317,0.5579365079365075,0.5579365079365075,0.5579365079365075,0.5484126984126979,0.5484126984126979,0.5484126984126979,0.5484126984126979,0.5484126984126979,0.5484126984126979,0.5484126984126979,0.5484126984126979,0.5484126984126979,0.5484126984126979,0.5388888888888884,0.5388888888888884,0.5388888888888884,0.5388888888888884,0.5388888888888884,0.5388888888888884,0.5388888888888884,0.5388888888888884,0.5388888888888884,0.5388888888888884,0.5388888888888884,0.5388888888888884,0.5388888888888884,0.5388888888888884,0.5388888888888884,0.5388888888888884,0.5388888888888884,0.5388888888888884,0.5388888888888884,0.5388888888888884,0.5388888888888884,0.5388888888888884,0.5388888888888884,0.5388888888888884,0.5388888888888884,0.5388888888888884,0.5388888888888884,0.5388888888888884,0.5388888888888884,0.5388888888888884,0.5388888888888884,0.5388888888888884,0.5388888888888884,0.5388888888888884,0.6817460317460312,0.8912698412698407,1.281746031746031,1.6626984126984117,1.9484126984126973,2.253174603174602,2.4722222222222205,2.5579365079365064,2.6341269841269823,2.6341269841269823,2.6341269841269823,2.6150793650793633,2.5769841269841254,2.529365079365078,2.510317460317459,2.4722222222222205,2.4531746031746016,2.4341269841269826,2.3960317460317446,2.367460317460316,2.3388888888888872,2.3103174603174588,2.2817460317460303,2.272222222222221,2.2626984126984113,2.2626984126984113,2.2626984126984113,2.2626984126984113,2.2626984126984113,2.2626984126984113,2.2626984126984113,2.2626984126984113,2.2626984126984113,2.2626984126984113,2.2626984126984113,2.2626984126984113,2.2626984126984113,2.2626984126984113,2.2626984126984113,2.2626984126984113,2.2626984126984113,2.2626984126984113,2.2626984126984113,2.2626984126984113,2.2626984126984113,2.2626984126984113,2.2626984126984113,2.2626984126984113,2.2626984126984113,2.2626984126984113,2.2626984126984113,2.2626984126984113,2.2626984126984113,2.2626984126984113,2.2626984126984113,2.2626984126984113,2.2626984126984113,2.2626984126984113,2.2626984126984113,2.2626984126984113,2.2626984126984113,2.2626984126984113,2.2626984126984113,2.2626984126984113,2.2626984126984113,2.2626984126984113,2.2626984126984113,2.2626984126984113,2.2626984126984113,2.2626984126984113,2.2626984126984113,2.2626984126984113,2.2626984126984113,2.2626984126984113,2.2626984126984113,2.2626984126984113,2.2626984126984113,2.2626984126984113,2.2626984126984113,2.2626984126984113,2.234126984126983,2.186507936507935,2.1388888888888875,2.1007936507936495,2.0626984126984116,2.0341269841269827,1.9960317460317447,1.9484126984126973,1.9198412698412686,1.9198412698412686,1.9198412698412686,1.9198412698412686,1.9198412698412686,1.9198412698412686,1.9198412698412686,1.9198412698412686,1.9198412698412686,1.9198412698412686,1.9198412698412686]},"final_keyboard_state":["A","E","Z","B","R"],"num_clicks":5,"points":15,"cheat":false,"trial_type":"Hangman","trial_index":5,"time_elapsed":32430,"internal_node_id":"0.0-4.0","protocol_sum":"","subject_identifier":437,"subject_sum":[89,102,171,208,203,252,134,249,138,24,101,49,178,180,238,95,110,145,1,32,206,19,34,47,152,32,114,3,223,201,169,162],"subject_pair":218,"STUDY_ID":"66a22c0758a3d5c9d26873c6","PROLIFIC_PID":"66686462a0a88f628ca1423c","SESSION_ID":"66a2ea4350d983ac32298de4","practice_instructions":1,"leaderboard_instructions":0,"bonus":0,"reveal_word":true,"self_rating":"1","confidence":"83"},{"view_history":"[{\"page_index\":0,\"viewing_time\":1089.800000011921},{\"page_index\":1,\"viewing_time\":5499.799999982119}]","rt":6591.199999988079,"trial_type":"instructions","trial_index":6,"time_elapsed":39022,"internal_node_id":"0.0-5.0","protocol_sum":"","subject_identifier":437,"subject_sum":[89,102,171,208,203,252,134,249,138,24,101,49,178,180,238,95,110,145,1,32,206,19,34,47,152,32,114,3,223,201,169,162],"subject_pair":218,"STUDY_ID":"66a22c0758a3d5c9d26873c6","PROLIFIC_PID":"66686462a0a88f628ca1423c","SESSION_ID":"66a2ea4350d983ac32298de4","practice_instructions":1,"leaderboard_instructions":0,"bonus":0,"reveal_word":true,"self_rating":"1","confidence":"83"},{"rt":4025.0999999940395,"responses":"{\"Q0\":\"...from <b>a previous session</b> that is part of the upcoming tournament.\"}","question_order":"[0]","trial_type":"survey-multi-choice","trial_index":7,"time_elapsed":43049,"internal_node_id":"0.0-6.0","protocol_sum":"","subject_identifier":437,"subject_sum":[89,102,171,208,203,252,134,249,138,24,101,49,178,180,238,95,110,145,1,32,206,19,34,47,152,32,114,3,223,201,169,162],"subject_pair":218,"correct":false,"test_part":"multichoice_leaderboard","STUDY_ID":"66a22c0758a3d5c9d26873c6","PROLIFIC_PID":"66686462a0a88f628ca1423c","SESSION_ID":"66a2ea4350d983ac32298de4","practice_instructions":1,"leaderboard_instructions":0,"bonus":0,"reveal_word":true,"self_rating":"1","confidence":"83"},{"view_history":"[{\"page_index\":0,\"viewing_time\":1144.5999999940395}]","rt":1145.4000000059605,"trial_type":"instructions","trial_index":8,"time_elapsed":44195,"internal_node_id":"0.0-7.0-0.0","protocol_sum":"","subject_identifier":437,"subject_sum":[89,102,171,208,203,252,134,249,138,24,101,49,178,180,238,95,110,145,1,32,206,19,34,47,152,32,114,3,223,201,169,162],"subject_pair":218,"STUDY_ID":"66a22c0758a3d5c9d26873c6","PROLIFIC_PID":"66686462a0a88f628ca1423c","SESSION_ID":"66a2ea4350d983ac32298de4","practice_instructions":1,"leaderboard_instructions":0,"bonus":0,"reveal_word":true,"self_rating":"1","confidence":"83"},{"rt":6345.9000000059605,"responses":"{\"Q0\":\"...from <b>a previous session</b> that is part of the upcoming tournament.\"}","question_order":"[0]","trial_type":"survey-multi-choice","trial_index":9,"time_elapsed":50543,"internal_node_id":"0.0-7.0-1.0","protocol_sum":"","subject_identifier":437,"subject_sum":[89,102,171,208,203,252,134,249,138,24,101,49,178,180,238,95,110,145,1,32,206,19,34,47,152,32,114,3,223,201,169,162],"subject_pair":218,"correct":false,"test_part":"multichoice_leaderboard","STUDY_ID":"66a22c0758a3d5c9d26873c6","PROLIFIC_PID":"66686462a0a88f628ca1423c","SESSION_ID":"66a2ea4350d983ac32298de4","practice_instructions":1,"leaderboard_instructions":0,"bonus":0,"reveal_word":true,"self_rating":"1","confidence":"83"},{"view_history":"[{\"page_index\":0,\"viewing_time\":1313.9000000059605}]","rt":1314.300000011921,"trial_type":"instructions","trial_index":10,"time_elapsed":51859,"internal_node_id":"0.0-7.1-0.1","protocol_sum":"","subject_identifier":437,"subject_sum":[89,102,171,208,203,252,134,249,138,24,101,49,178,180,238,95,110,145,1,32,206,19,34,47,152,32,114,3,223,201,169,162],"subject_pair":218,"STUDY_ID":"66a22c0758a3d5c9d26873c6","PROLIFIC_PID":"66686462a0a88f628ca1423c","SESSION_ID":"66a2ea4350d983ac32298de4","practice_instructions":1,"leaderboard_instructions":0,"bonus":0,"reveal_word":true,"self_rating":"1","confidence":"83"},{"rt":1709.2999999821186,"responses":"{\"Q0\":\"...from <b>a previous session</b> that is not part of the upcoming tournament.\"}","question_order":"[0]","trial_type":"survey-multi-choice","trial_index":11,"time_elapsed":53570,"internal_node_id":"0.0-7.1-1.1","protocol_sum":"","subject_identifier":437,"subject_sum":[89,102,171,208,203,252,134,249,138,24,101,49,178,180,238,95,110,145,1,32,206,19,34,47,152,32,114,3,223,201,169,162],"subject_pair":218,"correct":true,"test_part":"multichoice_leaderboard","STUDY_ID":"66a22c0758a3d5c9d26873c6","PROLIFIC_PID":"66686462a0a88f628ca1423c","SESSION_ID":"66a2ea4350d983ac32298de4","practice_instructions":1,"leaderboard_instructions":0,"bonus":0,"reveal_word":true,"self_rating":"1","confidence":"83"},{"view_history":"[{\"page_index\":0,\"viewing_time\":15438.300000011921}]","rt":15438.90000000596,"trial_type":"instructions","trial_index":12,"time_elapsed":69009,"internal_node_id":"0.0-8.0","protocol_sum":"","subject_identifier":437,"subject_sum":[89,102,171,208,203,252,134,249,138,24,101,49,178,180,238,95,110,145,1,32,206,19,34,47,152,32,114,3,223,201,169,162],"subject_pair":218,"STUDY_ID":"66a22c0758a3d5c9d26873c6","PROLIFIC_PID":"66686462a0a88f628ca1423c","SESSION_ID":"66a2ea4350d983ac32298de4","practice_instructions":1,"leaderboard_instructions":0,"bonus":0,"reveal_word":true,"self_rating":"1","confidence":"83"},{"rt":5736.0999999940395,"responses":"{\"Q0\":\"...players' leaderboard position (in terms of <b>points</b>) in an <b>upcoming tournament.</b>\"}","question_order":"[0]","trial_type":"survey-multi-choice","trial_index":13,"time_elapsed":74747,"internal_node_id":"0.0-9.0","protocol_sum":"","subject_identifier":437,"subject_sum":[89,102,171,208,203,252,134,249,138,24,101,49,178,180,238,95,110,145,1,32,206,19,34,47,152,32,114,3,223,201,169,162],"subject_pair":218,"correct":true,"test_part":"multichoice_tournament","STUDY_ID":"66a22c0758a3d5c9d26873c6","PROLIFIC_PID":"66686462a0a88f628ca1423c","SESSION_ID":"66a2ea4350d983ac32298de4","practice_instructions":1,"leaderboard_instructions":0,"bonus":0,"reveal_word":true,"self_rating":"1","confidence":"83"},{"view_history":"[{\"page_index\":0,\"viewing_time\":3843.4000000059605}]","rt":3843.9000000059605,"trial_type":"instructions","trial_index":14,"time_elapsed":78592,"internal_node_id":"0.0-11.0","protocol_sum":"","subject_identifier":437,"subject_sum":[89,102,171,208,203,252,134,249,138,24,101,49,178,180,238,95,110,145,1,32,206,19,34,47,152,32,114,3,223,201,169,162],"subject_pair":218,"STUDY_ID":"66a22c0758a3d5c9d26873c6","PROLIFIC_PID":"66686462a0a88f628ca1423c","SESSION_ID":"66a2ea4350d983ac32298de4","practice_instructions":1,"leaderboard_instructions":0,"bonus":0,"reveal_word":true,"self_rating":"1","confidence":"83"},{"view_history":"[{\"page_index\":0,\"viewing_time\":5705}]","rt":5705.5,"trial_type":"instructions","trial_index":15,"time_elapsed":84299,"internal_node_id":"0.0-12.0-0.0","protocol_sum":"","subject_identifier":437,"subject_sum":[89,102,171,208,203,252,134,249,138,24,101,49,178,180,238,95,110,145,1,32,206,19,34,47,152,32,114,3,223,201,169,162],"subject_pair":218,"STUDY_ID":"66a22c0758a3d5c9d26873c6","PROLIFIC_PID":"66686462a0a88f628ca1423c","SESSION_ID":"66a2ea4350d983ac32298de4","practice_instructions":1,"leaderboard_instructions":0,"bonus":0,"reveal_word":true,"self_rating":"1","confidence":"83"},{"rt":5079,"response":"HAWAII","responses":["HAWAII"],"trial_type":"type-this","trial_index":16,"time_elapsed":89901,"internal_node_id":"0.0-12.0-1.0","protocol_sum":"","subject_identifier":437,"subject_sum":[89,102,171,208,203,252,134,249,138,24,101,49,178,180,238,95,110,145,1,32,206,19,34,47,152,32,114,3,223,201,169,162],"subject_pair":218,"STUDY_ID":"66a22c0758a3d5c9d26873c6","PROLIFIC_PID":"66686462a0a88f628ca1423c","SESSION_ID":"66a2ea4350d983ac32298de4","practice_instructions":1,"leaderboard_instructions":0,"bonus":0,"reveal_word":true,"self_rating":"1","confidence":"83"},{"word":"HAWAII","click_log":{"letter":["","A","D","H","W","I"],"t":[0,3096.4000000059605,24547.90000000596,70995.69999998808,73227.19999998808,74875.09999999404],"hit":[null,2,0,1,1,2],"asked":["","A","AD","ADH","ADHW","ADHWI"],"word_state":["______","_A_A__","_A_A__","HA_A__","HAWA__","HAWAII"]},"hover_log":{"letter":["?","?","?","?","?","?","?","?","?","?","?","?","?","?","?","?","?","?","?","?","?","?","?","?","?","?","?","?","?","?","?","?","?","?","?","?","?","?","?","?","?","?","?","?","?","?","?","?","?","?","?","?","?","?","?","?","?","?","?","?","?","?","?","?","?","?","?","?","?","?","?","?","?","?","?","?","?","?","?","?","?","?","?","?","?","?","?","?","?","?","?","?","?","?","?","?","?","?","?","?","?","?","?","?","?","?","?","?","?","?","?","?","?","?","?","?","?","?","?","?","?","?","?","?","?","?","?","?","?","?","?","?","?","?","?","?","?","?","?","?","?","?","?","?","?","?","?","?","?","?","?","?","?","?","?","?","?","?","?","?","?","?","?","?","?","?","?","?","?","?","?","?","?","?","?","?","?","?","?","?","?","?","?","?","?","?","?","?","?","?","?","?","?","?","?","?","?","?","?","?","?","?","?","?","?","?","?","?","?","?","?","?","?","?","?","?","?","?","?","?","?","?","?","?","?","?","?","?","?","?","?","?","?","?","?","?","?","?","?","?","?","?","?","?","?","?","?","?","?","?","?","?","?","?","?","?","?","?","?","?","?","?","?","?","?","?","?","?","?","?","?","?","?","?","?","?","?","?","?","?","?","?","?","?","?","?","?","?","?","?","?","?","?","?","?","?","?","?","?","?","?","?","?","?","?","?","?","?","?","?","?","?","?","?","?","?","?","?","?","?","?","?","?","?","?","?","?","?","?","?","?","?","?","?","?","?","?","?","?","?","?","?","?","?","?","?","?","?","?","?","?","?","?","?","?","?","?","?","?","?","?","?","?","?","?","?","?","?","?","?","?","?","?","?","?","?","?","?","?","?","?","?","?","?","?","?","?","?","?","?","?","?","?","?","?","?","?","?","?","?","?","?","?","?","?","?","?","?","?","?","?","?","?","?","?","?","?","?","?","?","?","?","?","?","?","?","?","?","?","?","?","?","?","?","?","?","?","?","?","?","?","?","?","?","?","?","?","?","?","?","?","?","?","?","?","?","?","?","?","?","?","?","?","?","?","?","?","?","?","?","?","?","?","?","?","?","?","?","?","?","?","?","?","?","?","?","?","?","?","?","?","?","?","?","?","?","?","?","?","?","?","?","?","?","?","?","?","?","?","?","?","?","?","?","?","?","?","?","?","?","?","?","?","?","?","?","?","?","?","?","?","?","?","?","?","?","?","?","?","?","?","?","?","?","?","?","?","?","?","?","?","?","?","?","?","?","?","?","?","?","?","?","?","?","?","?","?","?","?","?","?","?","?","?","?","?","?","?","?","?","?","?","?","?","?","?","?","?","?","?","?","?","?","?","?","?","?","?","?","?","?","?","?","?","?","?","?","?","?","?","?","?","?","?","?","?","?","?","?","?","?","?","?","?","?","?","?","?","?","?","?","?","?","?","?","?","?","?","?","?","?","?","?","?","?","?","?","?","?","?","?","?","?","?","?","?","?","?","?","?","?","?","?","?","?","?","?","?","?","?","?","?","?","?","?","?","?","?","?","?","?","?","?","?","?","?","?","?","?","?","?","?","?","?","?","?","?","?","?","?","?","?","?","?","?","?","?","?","?","?","?","?","?","?","?","?","?","?","?","?","?","?","?","?","?","?","?","?","?","?","?","?","?","?","?","?","?","?","?","?","?","?","?","?","?","?","?","?","?","?","?","?","?","?","?","?","?","?","?","?","?","?","?","?","?","?","?","?","?","?","?","?","?","?","?","?","?","?","?","?","?","?","?","?","?","?","?","?","?","?","?","?","?","?","?","?","?","?","?","?","?","?","?","?","?","?","?","?","?","?","?","?","?","?","?","?","?","?","?","?","?","?","?","?","?","?","?","?","?","?","?","?","?","?","?","?","?","?","?","?","?","?","?","?","?","?","?","?","?","?","?","?","?","?","?","?","?","?","?","?","?","?","?","?","?","?","?","?","?","?","?","?","?","?","?","?","?","?","?","?","?","?","?","?","?","?","?","?","?","?","?","?","?","?","?","?","?","?","?","?","?","?","?","?","?","?","?","?","?","?","?","?","?","?","?","?","?","?","?","?","?","?","?","?","?","?","?","?","?","?","?","?","?","?","?","?","?","?","?","?","?","?","?","?","?","?","?","?","?","?","?","?","?","?","?","?","?","?","?","?","?","?","?","?","?","?","?","?","?","?","?","?","?","?","?","?","?","?","?","?","?","?","?","?","?","?","?","?","?","?","?","?","?","?","?","?","?","?","?","?","?","?","?","?","?","?","?","?","?","?","?","?","?","?","?","?","?","?","?","?","?","?","?","?","?","?","?","?","?","?","?","?","?","?","?","?","?","?","?","?","?","?","?","?","?","?","?","?","?","?","?","?","?","?","?","?","?","?","?","?","?","?","?","?","?","?","?","?","?","?","?","?","?","?","?","?","?","?","?","?","?","?","?","?","?","?","?","?","?","?","?","?","?","?","?","?","?","?","?","?","?","?","?","?","?","?","?","?","?","?","?","?","?","?","?","?","?","?","?","?","?","?","?","?","?","?","?","?","?","?","?","?","?","?","?","?","?","?","?","?","?","?","?","?","?","?","?","?","?","?","?","?","?","?","?","?","?","?","?","?","?","?","?","?","?","?","?","?","?","?","?","?","?","?","?","?","?","?","?","?","?","?","?","?","?","?","?","?","?","?","?","?","?","?","?","?","?","?","?","?","?","?","?","?","?","?","?","?","?","?","?","?","?","?","?","?","?","?","?","?","?","?","?","?","?","?","?","?","?","?","?","?","?","?","?","?","?","?","?","?","?","?","?","?","?","?","?","?","?","?","?","?","?","?","?","?","?","?","?","?","?","?","?","?","?","?","?","?","?","?","?","?","?","?","?","?","?","?","?","?","?","?","?","?","?","?","?","?","?","?","?","?","?","?","?","?","?","?","?","?","?","?","?","?","?","?","?","?","?","?","?","?","?","?","?","?","?","?","?","?","?","?","?","?","?","?","?","?","?","?","?","?","?","?","?","?","?","?","?","?","?","?","?","?","?","?","?","?","?","?","?","?","?","?","?","?","?","?","?","?","?","?","?","?","?","?","?","?","?","?","?","?","?","?","?","?","?","?","?","?","?","?","?","?","?","?","?","?","?","?","?","?","?","?","?","?","?","?","?","?","?","?","?","?","?","?","?","?","?","?","?","?","?","?","?","?","?","?","?","?","?","?","?","?","?","?","?","?","?","?","?","?","?","?","?","?","?","?","?","?","?","?","?","?","?","?","?","?","?","?","?","?","?","?","?","?","?","?","?","?","?","?","?","?","?","?","?","?","?","?","?","?","?","?","?","?","?","?","?","?","?","?","?","?","?","?","?","?","?","?","?","?","?","?","?","?","?","?","?","?","?","?","?","?","?","?","?","?","?","?","?","?","?","?","?","?","?","?","?","?","?","?","?","?","?","?","?","?","?","?","?","?","?","?","?","?","?","?","?","?","?","?","?","?","?","?","?","?","?","?","?","?","?","?","?","?","?","?","?","?","?","?","?","?","?","?","?","?","?","?","?","?","?","?","?","?","?","?","?","?","?","?","?","?","?","?","?","?","?","?","?","?","?","?","?","?","?","?","?","?","?","?","?","?","?","?","?","?","?","?","?","?","?","?","?","?","?","?","?","?","?","?","?","?","?","?","?","?","?","?","?","?","?","?","?","?","?","?","?","?","?","?","?","?","?","?","?","?","?","?","?","?","?","?","?","?","?","?","?","?","?","?","?","?","?","?","?","?","?","?","?","?","?","?","?","?","?","?","?","?","?","?","?","?","?","?","?","?","?","?","?","?","?","?","?","?","?","?","?","?","?","?","?","?","?","?","?","?","?","?","?","?","?","?","?","?","?","?","?","?","?","?","?","?","?","?","?","?","?","?","?","?","?","?","?","?","?","?","?","?","?","?","?","?","?","?","?","?","?","?","?","?","?","?","?","?","?","?","?","?","?","?","?","?","?","?","?","?","?","?","?","?","?","?","?","?","?","?","?","?","?","?","?","?","?","?","?","?","?","?","?","?","?","?","?","?","?","?","?","?","?","?","?","?","?","?","?","?","?","?","?","?","?","?","?","?","?","?","?","?","?","?","?","?","?","?","?","?","?","?","?","?","?","?","?","?","?","?","?","?","?","?","?","?","?","?","?","?","?","?","?","?","?","?","?","?","?","?","?","?","?","?","?","?","?","?","?","?","?","?","?","?","?","?","?","?","?","?","?","?","?","?","?","?","?","?","?","?","?","?","?","?","?","?","?","?","?","?","?","?","?","?","?","?","?","?","?","?","?","?","?","?","?","?","?","?","?","?","?","?","?","?","?","?","?","?","?","?","?","?","?","?","?","?","?","?","?","?","?","?","?","?","?","?","?","?","?","?","?","?","?","?","?","?","?","?","?","?","?","?","?","?","?","?","?","?","?","?","?","?","?","?","?","?","?","?","?","?","?","?","?","?","?","?","?","?","?","?","?","?","?","?","?","?","?","?","?","?","?","?","?","?","?","?","?","?","?","?","?","?","?","?","?","?","?","?","?","?","?","?","?","?","?","?","?","?","?","?","?","?","?","?","?","?","?","?","?","?","?","?","?","?","?","?","?","?","?","?","?","?","?","?","?","?","?","?","?","?","?","?","?","?","?","?","?","?","?","?","?","?","?","?","?","?","?","?","?","?","?","?","?","?","?","?","?","?","?","?","?","?","?","?","?","?","?","?","?","?","?","?","?","?","?","?","?","?","?","?","?","?","?","?","?","?","?","?","?","?","?","?","?","?","?","?","?","?","?","?","?","?","?","?","?","?","?","?","?","?","?","?","?","?","?","?","?","?","?","?","?","?","?","?","?","?","?","?","?","?","?","?","?","?","?","?","?","?","?","?","?","?","?","?","?","?","?","?","?","?","?","?","?","?","?","?","?","?","?","?","?","?","?","?","?","?","?","?","?","?","?","?","?","?","?","?","?","?","?","?","?","?","?","?","?","?","?","?","?","?","?","?","?","?","?","?","?","?","?","?","?","?","?","?","?","?","?","?","?","?","?","?","?","?","?","?","?","?","?","?","?","?","?","?","?","?","?","?","?","?","?","?","?","?","?","?","?","?","?","?","?","?","?","?","?","?","?","?","?","?","?","?","?","?","?","?","?","?","?","?","?","?","?","?","?","?","?","?","?","?","?","?","?","?","?","?","?","?","?","?","?","?","?","?","?","?","?","?","?","?","?","?","?","?","?","?","?","?","?","?","?","?","?","?","?","?","?","?","?","?","?","?","?","?","?","?","?","?","?","?","?","?","?","?","?","?","?","?","?","?","?","?","?","?","?","?","?","?","?","?","?","?","?","?","?","?","?","?","?","?","?","?","?","?","?","?","?","?","?","?","?","?","?","?","?","?","?","?","?","?","?","?","?","?","?","?","?","?","?","?","?","?","?","?","?","?","?","?","?","?","?","?","?","?","?","?","?","?","?","?","?","?","?","?","?","?","?","?","?","?","?","?","?","?","?","?","?","?","?","?","?","?","?","?","?","?","?","?","?","?","?","?","?","?","?","?","?","?","?","?","?","?","?","?","?","?","?","?","?","?","?","?","?","?","?","?","?","?","?","?","?","?","?","?","?","?","?","?","?","?","?","?","?","?","?","?","?","?","?","?","?","?","?","?","?","?","?","?","?","?","?","?","?","?","?","?","?","?","?","?","?","?","?","?","?","?","?","?","?","?","?","?","?","?","?","?","?","?","?","?","?","?","?","?","?","?","?","?","?","?","?","?","?","?","?","?","?","?","?","?","?","?","?","?","?","?","?","?","?","?","?","?","?","?","?","?","?","?","?","?","?","?","?","?","?","?","?","?","?","?","?","?","?","?","?","?","?","?","?","?","?","?","?","?","?","?","?","?","?","?","?","?","?","?","?","?","?","?","?","?","?","?","?","?","?","?","?","?","?","?","?","?","?","?","?","?","?","?","?","?","?","?","?","?","?","?","?","?","?","?","?","?","?","?","?","?","?","?","?","?","?","?","?","?","?","?","?","?","?","?","?","?","?","?","?","?","?","?","?","?","?","?","?","?","?","?","?","?","?","?","?","?","?","?","?","?","?","?","?","?","?","?","?","?","?","?","?","?","?","?","?","?","?","?","?","?","?","?","?","?","?","?","?","?","?","?","?","?","?","?","?","?","?","?","?","?","?","?","?","?","?","?","?","?","?","?","?","?","?","?","?","?","?","?","?","?","?","?","?","?","?","?","?","?","?","?","?","?","?","?","?","?","?","?","?","?","?","?","?","?","?","?","?","?","?","?","?","?","?","?","?","?","?","?","?","?","?","?","?","?","?","?","?","?","?","?","?","?","?","?","?","?","?","?","?","?","?","?","?","?","?","?","?","?","?","?","?","?","?","?","?","?","?","?","?","?","?","?","?","?","?","?","?","?","?","?","?","?","?","?","Y","?","?","?","?","?","?","?","?","?","?","?","?","?","?","?","?","?","?","?","?","?","?","?","?","?","?","?","?","?","?","?","?","?","?","?","?","?","?","?","?","?","?","?","?","?","?","?","?","?","?","?","?","?","?","?","?","?","?","?","?","?","?","?","?","?","?","?","?","?","?","?","?","?","?","?","?","?","?","?","?","?","?","?","?","?","?","?","?","?","?","?","?","?","?","?","?","?","?","?","?","?","?","?","?","?","?","?","?","?","?","?","?","?","?","?","?","?","?","?","?","?","?","?","?","?","?","?","?","?","?","?","?","?","?","?","?","?","?","?","?","?","?","?","?","?","?","?","?","?","?","?","?","?","?","?","?","?","?","?","?","?","?","?","?","?","?","?","?","?","?","?","?","?","?","?","?","?","?","?","?","?","?","?","?","?","?","?","?","?","?","?","?","?","?","?","?","?","?","?","?","?","?","?","?","?","?","?","?","?","?","?","?","?","?","?","?","?","?","?","?","?","?","?","?","?","?","?","?","?","?","?","?","?","?","?","?","?","?","?","?","?","?","?","?","?","?","?","?","?","?","?","?","?","?","?","?","?","?","?","?","?","?","?","?","?","?","?","?","?","?","?","?","?","?","?","?","?","?","?","?","?","?","?","?","?","?","?","?","?","?","?","?","?","?","?","?","?","?","?","?","?","?","?","?","?","?","?","?","?","?","?","?","?","?","?","?","?","?","?","?","?","?","?","?","?","?","?","?","?","?","?","?","?","?","?","?","?","?","?","?","?","?","?","?","?","?","?","?","?","?","?","?","?","?","?","?","?","?","?","?","?","?","?","?","?","?","?","?","?","?","?","?","?","?","?","?","?","?","?","?","?","?","?","?","?","?","?","?","?","?","?","?","?","?","?","?","?","?","?","?","?","?","?","?","?","?","?","?","?","?","?","?","?","?","?","?","?","?","?","?","?","?","?","?","?","?","?","?","?","?","?","?","?","?","?","?","?","?","?","?","?","?","?","?","?","?","?","?","?","?","?","?","?","?","?","?","?","?","?","?","?","?","?","?","?","?","?","?","?","?","?","?","?","?","?","?","?","?","?","?","?","?","?","?","?","?","?","?","?","?","?","?","?","?","?","?","?","?","?","?","?","?","?","?","?","?","?","?","?","?","?","?","?","?","?","?","?","?","?","?","?","?","?","?","?","?","?","?","?","?","?","?","?","?","?","?","?","?","?","?","?","?","?","?","?","?","?","?","?","?","?","?","?","?","?","?","?","?","?","?","?","?","?","?","?","?","?","?","?","?","?","?","?","?","?","?","?","?","?","?","?","?","?","?","?","?","?","?","?","?","?","?","?","?","?","?","?","?","?","?","?","?","?","?","?","?","?","?","?","?","?","?","?","?","?","?","?","?","?","?","?","?","?","?","?","?","?","?","?","?","?","?","?","?","?","?","?","?","?","?","?","?","?","?","?","?","?","?","?","?","?","?","?","?","?","?","?","?","?","?","?","?","?","?","?","?","?","?","?","?","?","?","?","?","?","?","?","?","?","?","?","?","?","?","?","?","?","?","?","?","?","?","?","?","?","?","?","?","?","?","?","?","?","?","?","?","?","?","?","?","?","?","?","?","?","?","?","?","?","?","?","?","?","?","?","?","?","?","?","?","?","?","?","?","?","?","?","?","?","?","?","?","?","?","?","?","?","?","?","?","?","?","?","?","?","?","?","?","?","?","?","?","?","?","?","?","?","?","?","?","?","?","?","?","?","?","?","?","?","?","?","?","?","?","?","?","?","?","?","?","?","?","?","?","?","?","?","?","?","?","?","?","?","?","?","?","?","?","?","?","?","?","?","?","?","?","?","?","?","?","?","?","?","?","?","?","?","?","?","?","?","?","?","?","?","?","?","?","?","?","?","?","?","?","?","?","?","?","?","?","?","?","?","?","?","?","?","?","?","?","?","?","?","?","?","?","?","?","?","?","?","?","?","?","?","?","?","?","?","?","?","?","?","?","?","?","?","?","?","?","?","?","?","?","?","?","?","?","?","?","?","?","?","?","?","?","?","?","?","?","?","?","?","?","?","?","?","?","?","?","?","?","?","?","?","?","?","?","?","?","?","?","?","?","?","?","?","?","?","?","?","?","?","?","?","?","?","?","?","?","?","?","?","?","?","?","?","?","?","?","?","?","?","?","?","?","?","?","?","?","?","?","?","?","?","?","?","?","?","?","?","?","?","?","?","?","?","?","?","?","?","?","?","?","?","?","?","?","?","?","?","?","?","?","?","?","?","?","?","?","?","?","?","?","?","?","?","?","?","?","?","?","?","?","?","?","?","?","?","?","?","?","?","?","?","?","?","?","?","?","?","?","?","?","?","?","?","?","?","?","?","?","?","?","?","?","?","?","?","?","?","?","?","?","?","?","?","?","?","?","?","?","?","?","?","?","?","?","?","?","?","?","?","?","?","?","?","?","?","?","?","?","?","?","?","?","?","?","?","?","?","?","?","?","?","?","?","?","?","?","?","?","?","?","?","?","?","?","?","?","?","?","?","?","?","?","?","?","?","?","?","?","?","?","?","?","?","?","?","?","?","?","?","?","?","?","?","?","?","?","?","?","?","?","?","?","?","?","?","?","?","?","?","?","?","?","?","?","?","?","?","?","?","?","?","?","?","?","?","?","?","?","?","?","?","?","?","?","?","?","?","?","?","?","?","?","?","?","?","?","?","?","?","?","?","?","?","?","?","?","?","?","?","?","?","?","?","?","?","?","?","?","?","?","?","?","?","?","?","?","?","?","?","?","?","?","?","?","?","?","?","?","?","?","?","?","?","?","?","?","?","?","?","?","?","?","?","?","?","?","?","?","?","?","?","?","?","?","?","?","?","?","?","?","?","?","?","?","?","?","?","?","?","?","?","?","?","?","?","?","?","?","?","?","?","?","?","?","?","?","?","?","?","?","?","?","?","?","?","?","?","?","?","?","?","?","?","?","?","?","?","?","?","?","?","?","?","?","?","?","?","?","?","?","?","?","?","?","?","?","?","?","?","?","?","?","?","?","?","?","?","?","?","?","?","?","?","?","?","?","?","?","?","?","?","?","?","?","?","?","?","?","?","?","?","?","?","?","?","?","?","?","?","?","?","?","?","?","?","?","?","?","?","?","?","?","?","?","?","?","?","?","?","?","?","?","?","?","?","?","?","?","?","?","?","?","?","?","?","?","?","?","?","?","?","?","?","?","?","?","?","?","?","?","?","?","?","?","?","?","?","?","?","?","?","?","?","?","?","?","?","?","?","?","?","?","?","?","?","?","?","?","?","?","?","?","?","?","?","?","?","?","?","?","?","?","?","?","?","?","?","?","?","?","?","?","?","?","?","?","?","?","?","?","?","?","?","?","?","?","?","?","?","?","?","?","?","?","?","?","?","?","?","?","?","?","?","?","?","?","?","?","?","?","?","?","?","?","?","?","?","?","?","?","?","?","?","?","?","?","?","?","?","?","?","?","?","?","?","?","?","?","?","?","?","?","?","?","?","?","?","?","?","?","?","?","?","?","?","?","?","?","?","?","?","?","?","?","?","?","?","?","?","?","?","?","?","?","?","?","?","?","?","?","?","?","?","?","?","?","?","?","?","?","?","?","?","?","?","?","?","?","?","?","?","?","?","?","?","?","?","?","?","?","?","?","?","?","?","?","?","?","?","?","?","?","?","?","?","?","?","?","?","?","?","?","?","?","?","?","?","?","?","?","?","?","?","?","?","?","?","?","?","?","?","?","?","?","?","?","?","?","?","?","?","?","?","?","?","?","?","?","?","?","?","?","?","?","?","?","?","?","?","?","?","?","?","?","?","?","?","?","?","?","?","?","?","?","?","?","?","?","?","?","?","?","?","?","?","?","?","?","?","?","?","?","?","?","?","?","?","?","?","?","?","?","?","?","?","?","?","?","?","?","?","?","?","?","?","?","?","?","?","?","?","?","?","?","?","?","?","?","?","?","?","?","?","?","?","?","?","?","?","?","?","?","?","?","?","?","?","?","?","?","?","?","?","?","?","?","?","?","?","?","?","?","?","?","?","?","?","?","?","?","?","?","?","?","?","?","?","?","?","?","?","?","?","?","?","?","?","?","?","?","?","?","?","?","?","?","?","?","?","?","?","?","?","?","?","?","?","?","?","?","?","?","?","?","?","?","?","?","?","?","?","?","?","?","?","?","?","?","?","?","?","?","?","?","?","?","?","?","?","?","?","?","?","?","?","?","?","?","?","?","?","?","?","?","?","?","?","?","?","?","?","?","?","?","?","?","?","?","?","?","?","?","?","?","?","?","?","?","?","?","?","?","?","?","?","?","?","?","?","?","?","?","?","?","?","?","?","?","?","?","?","?","?","?","?","?","?","?","?","?","?","?","?","?","?","?","?","?","?","?","?","?","?","?","?","?","?","?","?","?","?","?","?","?","?","?","?","?","?","?","?","?","?","?","?","?","?","?","?","?","?","?","?","?","?","?","?","?","?","?","?","?","?","?","?","?","?","?","?","?","?","?","?","?","?","?","?","?","?","?","?","?","?","?","?","?","?","?","?","?","?","?","?","?","?","?","?","?","?","?","?","?","?","?","?","?","?","?","?","?","?","?","?","?","?","?","?","?","?","?","?","?","?","?","?","?","?","?","?","?","?","?","?","?","?","?","?","?","?","?","?","?","?","?","?","?","?","?","?","?","?","?","?","?","?","?","?","?","?","?","?","?","?","?","?","?","?","?","?","?","?","?","?","?","?","?","?","?","?","?","?","?","?","?","?","?","?","?","?","?","?","?","?","?","?","?","?","?","?","?","?","?","?","?","?","?","?","?","?","?","?","?","?","?","?","?","?","?","?","?","?","?","?","?","?","?","?","?","?","?","?","?","?","?","?","?","?","?","?","?","?","?","?","?","?","?","?","?","?","?","?","?","?","?","?","?","?","?","?","?","?","?","?","?","?","?","?","?","?","?","?","?","?","?","?","?","?","?","?","?","?","?","?","?","?","?","?","?","?","?","?","?","?","?","?","?","?","?","?","?","?","?","?","?","?","?","?","?","?","?","?","?","?","?","?","?","?","?","?","?","?","?","?","?","?","?","?","?","?","?","?","?","?","?","?","?","?","?","?","?","?","?","?","?","?","?","?","?","?","?","?","?","?","?","?","?","?","?","?","?","?","?","?","?","?","?","?","?","?","?","?","?","?","?","?","?","?","?","?","?","?","?","?","?","?","?","?","?","?","?","?","?","?","?","?","?","?","?","?","?","?","?","?","?","?","?","?","?","?","?","?","?","?","?","?","?","?","?","?","?","?","?","?","?","?","?","?","?","?","?","?","?","?","?","?","?","?","?","?","?","?","?","?","?","?","?","?","?","?","?","?","?","?","?","?","?","?","?","?","?","?","?","?","?","?","?","?","?","?","?","?","?","?","?","?","?","?","?","?","?","?","?","?","?","?","?","?","?","?","?","?","?","?","?","?","?","?","?","?","?","?","?","?","?","?","?","?","?","?","?","?","?","?","?","?","?","?","?","?","?","?","?","?","?","?","?","?","?","?","?","?","?","?","?","?","?","?","?","?","?","?","?","?","?","?","?","?","?","?","?","?","?","?","?","?","?","?","?","?","?","?","?","?","?","?","?","?","?","?","?","?","?","?","?","?","?","?","?","?","?","?","?","?","?","?","?","?","?","?","?","?","?","?","?","?","?","?","?","?","?","?","?","?","?","?","?","?","?","?","?","?","?","?","?","?","?","?","?","?","?","?","?","?","?","?","?","?","?","?","?","?","?","?","?","?","?","?","?","?","?","?","?","?","?","?","?","?","?","?","?","?","?","?","?","?","?","?","?","?","?","?","?","?","?","?","?","?","?","?","?","?","?","?","?","?","?","?","?","?","?","?","?","?","?","?","?","?","?","?","?","?","?","?","?","?","?","?","?","?","?","?","?","?","?","?","?","?","?","?","?","?","?","?","?","?","?","?","?","?","?","?","?","?","?","?","?","?","?","?","?","?","?","?","?","?","?","?","?","?","?","?","?","?","?","?","?","?","?","?","?","?","?","?","?","?","?","?","?","?","?","?","?","?","?","?","?","?","?","?","?","?","?","?","?","?","?","?","?","?","?","?","?","?","?","?","?","?","?","?","?","?","?","?","?","?","?","?","?","?","?","?","?","?","?","?","?","?","?","?","?","?","?","?","?","?","?","?","?","?","?","?","?","?","?","?","?","?","?","?","?","?","?","?","?","?","?","?","?","?","?","?","?","?","?","?","?","?","?","?","?","?","?","?","?","?","?","?","?","?","?","?","?","?","?","?","?","?","?","?","?","?","?","?","?","?","?","?","?","?","?","?","?","?","?","?","?","?","?","?","?","?","?","?","?","?","?","?","?","?","?","?","?","?","?","?","?","?","?","?","?","?","?","?","?","?","?","?","?","?","?","?","?","?","?","?","?","?","?","?","?","?","?","?","?","?","?","?","?","?","?","?","?","?","?","?","?","?","?","?","?","?","?","?","?","?","?","?","?","?","?","?","?","?","?","?","?","?","?","?","?","?","?","?","?","?","?","?","?","?","?","?","?","?","?","?","?","?","?","?","?","?","?","?","?","?","?","?","?","?","?","?","?","?","?","?","?","?","?","?","?","?","?","?","?","?","?","?","?","?","?","?","?","?","?","?","?","?","?","?","?","?","?","?","?","?","?","?","?","?","?","?","?","?","?","?","?","?","?","?","?","?","?","?","?","?","?","?","?","?","?","?","?","?","?","?","?","?","?","?","?","?","?","?","?","?","?","?","?","?","?","?","?","?","?","?","?","?","?","?","?","?","?","?","?","?","?","?","?","?","?","?","?","?","?","?","?","?","?","?","?","?","?","?","?","?","?","?","?","?","?","?","?","?","?","?","?","?","?","?","?","?","?","?","?","?","?","?","?","?","?","?","?","?","?","?","?","?","?","?","?","?","?","?","?","?","?","?","?","?","?","?","?","?","?","?","?","?","?","?","?","?","?","?","?","?","?","?","?","?","?","?","?","?","?","?","?","?","?","?","?","?","?","?","?","?","?","?","?","?","?","?","?","?","?","?","?","?","?","?","?","?","?","?","?","?","?","?","?","?","?","?","?","?","?","?","?","?","?","?","?","?","?","?","?","?","?","?","?","?","?","?","?","?","?","?","?","?","?","?","?","?","?","?","?","?","?","?","?","?","?","?","?","?","?","?","?","?","?","?","?","?","?","?","?","?","?","?","?","?","?","?","?","?","?","?","?","?","?","?","?","?","?","?","?","?","?","?","?","?","?","?","?","?","?","?","?","?","?","?","?","?","?","?","?","?","?","?","?","?","?","?","?","?","?","?","?","?","?","?","?","?","?","?","?","?","?","?","?","?","?","?","?","?","?","?","?","?","?","?","?","?","?","?","?","?","?","?","?","?","?","?","?","?","?","?","?","?","?","?","?","?","?","?","?","?","?","?","?","?","?","?","?","?","?","?","?","?","?","?","?","?","?","?","?","?","?","?","?","?","?","?","?","?","?","?","?","?","?","?","?","?","?","?","?","?","?","?","?","?","?","?","?","?","?","?","?","?","?","?","?","?","?","?","?","?","?","?","?","?","?","?","?","?","?","?","?","?","?","?","?","?","?","?","?","?","?","?","?","?","?","?","?","?","?","?","?","?","?","?","?","?","?","?","?","?","?","?","?","?","?","?","?","?","?","?","?","?","?","?","?","?","?","?","?","?","?","?","?","?","?","?","?","?","?","?","?","?","?","?","?","?","?","?","?","?","?","?","?","?","?","?","?","?","?","?","?","?","?","?","?","?","?","?","?","?","?","?","?","?","?","?","?","?","?","?","?","?","?","?","?","?","?","?","?","?","?","?","?","?","?","?","?","?","?","?","?","?","?","?","?","?","?","?","?","?","?","?","?","?","?","?","?","?","?","?","?","?","?","?","?","?","?","?","?","?","?","?","?","?","?","?","?","?","?","?","?","?","?","?","?","?","?","?","?","?","?","?","?","?","?","?","?","?","?","?","?","?","?","?","?","?","?","?","?","?","?","?","?","?","?","?","?","?","?","?","?","?","?","?","?","?","?","?","?","?","?","?","?","?","?","?","?","?","?","?","?","?","?","?","?","?","?","?","?","?","?","?","?","?","?","?","?","?","?","?","?","?","?","?","?","?","?","?","?","?","?","?","?","?","?","?","?","?","?","?","?","?","?","?","?","?","?","?","?","?","?","?","?","?","?","?","?","?","?","?","?","?","?","?","?","?","?","?","?","?","?","?","?","?","?","?","?","?","?","?","?","?","?","?","?","?","?","?","?","?","?","?","?","?","?","?","?","?","?","?","?","?","?","?","?","?","?","?","?","?","?","?","?","?","?","?","?","?","?","?","?","?","?","?","?","?","?","?","?","?","?","?","?","?","?","?","?","?","?","?","?","?","?","?","?","?","?","?","?","?","?","?","?","?","?","?","?","?","?","?","?","?","?","?","?","?","?","?","?","?","?","?","?","?","?","?","?","?","?","?","?","?","?","?","?","?","?","?","?","?","?","?","?","?","?","?","?","?","?","?","?","?","?","?","?","?","?","?","?","?","?","?","?","?","?","?","?","?","?","?","?","?","?","?","?","?","?","?","?","?","?","?","?","?","?","?","?","?","?","?","?","?","?","?","?","?","?","?","?","?","?","?","?","?","?","?","?","?","?","?","?","?","?","?","?","?","?","?","?","?","?","?","?","?","?","?","?","?","?","?","?","?","?","?","?","?","?","?","?","?","?","?","?","?","?","?","?","?","?","?","?","?","?","?","?","?","?","?","?","?","?","?","?","?","?","?","?","?","?","?","?","?","?","?","?","?","?","?","?","?","?","?","?","?","?","?","?","?","?","?","?","?","?","?","?","?","?","?","?","?","?","?","?","?","?","?","?","?","?","?","?","?","?","?","?","?","?","?","?","?","?","?","?","?","?","?","?","?","?","?","?","?","?","?","?","?","?","?","?","?","?","?","?","?","?","?","?","?","?","?","?","?","?","?","?","?","?","?","?","?","?","?","?","?","?","?","?","?","?","?","?","?","?","?","?","?","?","?","?","?","?","?","?","?","?","?","?","?","?","?","?","?","?","?","?","?","?","?","?","?","?","?","?","?","?","?","?","?","?","?","?","?","?","?","?","?","?","?","?","?","?","?","?","?","?","?","?","?","?","?","?","?","?","?","?","?","?","?","?","?","?","?","?","?","?","?","?","?","?","?","?","?","?","?","?","?","?","?","?","?","?","?","?","?","?","?","?","?","?","?","?","?","?","?","?","?","?","?","?","?","?","?","?","?","?","?","?","?","?","?","?","?","?","?","?","?","?","?","?","?","?","?","?","?","?","?","?","?","?","?","?","?","?","?","?","?","?","?","?","?","?","?","?","?","?","?","?","?","?","?","?","?","?","?","?","?","?","?","?","?","?","?","?","?","?","?","?","?","?","?","?","?","?","?","?","?","?","?","?","?","?","?","?","?","?","?","?","?","?","?","?","?","?","?","?","?","?","?","?","?","?","?","?","?","?","?","?","?","?","?","?","?","?","?","?","?","?","?","?","?","?","?","?","?","?","?","?","?","?","?","?","?","?","?","?","?","?","?","?","?","?","?","?","?","?","?","?","?","?","?","?","?","?","?","?","?","?","?","?","?","?","?","?","?","?","?","?","?","?","?","?","?","?","?","?","?","?","?","?","?","?","?","?","?","?","?","?","?","?","?","?","?","?","?","?","?","?","?","?","?","?","?","?","?","?","?","?","?","?","?","?","?","?","?","?","?","?","?","?","?","?","?","?","?","?","?","?","?","?","?","?","?","?","?","?","?","?","?","?","?","?","?","?","?","?","?","?","?","?","?","?","?","?","?","?","?","?","?","?","?","?","?","?","?","?","?","?","?","?","?","?","?","?","?","?","?","?","?","?","?","?","?","?","?","?","?","?","?","?","?","?","?","?","?","?","?","?","?","?","?","?","?","?","?","?","?","?","?","?","?","?","?","?","?","?","?","?","?","?","?","?","?","?","?","?","?","?","?","?","?","?","?","?","?","?","?","?","?","?","?","?","?","?","?","?","?","?","?","?","?","?","?","?","?","?","?","?","?","?","?","?","?","?","?","?","?","?","?","?","?","?","?","?","?","?","?","?","?","?","?","?","?","?","?","?","?","?","?","?","?","?","?","?","?","?","?","?","?","?","?","?","?","?","?","?","?","?","?","?","?","?","?","?","?","?","?","?","?","?","?","?","?","?","?","?","?","?","?","?","?","?","?","?","?","?","?","?","?","?","?","?","?","?","?","?","?","?","?","?","?","?","?","?","?","?","?","?","?","?","?","?","?","?","?","?","?","?","?","?","?","?","?","?","?","?","?","?","?","?","?","?","?","?","?","?","?","?","?","?","?","?","?","?","?","?","?","?","?","?","?","?","?","?","?","?","?","?","?","?","?","?","?","?","?","?","?","?","?","?","?","?","?","?","?","?","?","?","?","?","?","?","?","?","?","?","?","?","?","?","?","?","?","?","?","?","?","?","?","?","?","?","?","?","?","?","?","?","?","?","?","?","?","?","?","?","?","?","?","?","?","?","?","?","?","?","?","?","?","?","?","?","?","?","?","?","?","?","?","?","?","?","?","?","?","?","?","?","?","?","?","?","?","?","?","?","?","?","?","?","?","?","?","?","?","?","?","?","?","?","?","?","?","?","?","?","?","?","?","?","?","?","?","?","?","?","?","?","?","?","?","?","?","?","?","?","?","?","?","?","?","?","?","?","?","?","?","?","?","?","?","?","?","?","?","?","?","?","?","?","?","?","?","?","?","?","?","?","?","?","?","?","?","?","?","?","?","?","?","?","?","?","?","?","?","?","?","?","?","?","?","?","?","?","?","?","?","?","?","?","?","?","?","?","?","?","?","?","?","?","?","?","?","?","?","?","?","?","?","?","?","?","?","?","?","?","?","?","?","?","?","?","?","?","?","?","?","?","?","?","?","?","?","?","?","?","?","?","?","?","?","?","?","?","?","?","?","?","?","?","?","?","?","?","?","?","?","?","?","?","?","?","?","?","?","?","?","?","?","?","?","?","?","?","?","?","?","?","?","?","?","?","?","?","?","?","?","?","?","?","?","?","?","?","?","?","?","?","?","?","?","?","?","?","?","?","?","?","?","?","?","?","?","?","?","?","?","?","?","?","?","?","?","?","?","?","?","?","?","?","?","?","?","?","?","?","?","?","?","?","?","?","?","?","?","?","?","?","?","?","?","?","?","?","?","?","?","?","?","?","?","?","?","?","?","?","?","?","?","?","?","?","?","?","?","?","?","?","?","?","?","?","?","?","?","?","?","?","?","?","?","?","?","?","?","?","?","?","?","?","?","?","?","?","?","?","?","?","?","?","?","?","?","?","?","?","?","?","?","?","?","?","?","?","?","?","?","?","?","?","?","?","?","?","?","?","?","?","?","?","?","?","?","?","?","?","?","?","?","?","?","?","?","?","?","?","?","?","?","?","?","?","?","?","?","?","?","?","?","?","?","?","?","?","?","?","?","?","?","?","?","?","?","?","?","?","?","?","?","?","?","?","?","?","?","?","?","?","?","?","?","?","?","?","?","?","?","?","?","?","?","?","?","?","?","?","?","?","?","?","?","?","?","?","?","?","?","?","?","?","?","?","?","?","?","?","?","?","?","?","?","?","?","?","?","?","?","?","?","?","?","?","?","?","?","?","?","?","?","?","?","?","?","?","?","?","?","?","?","?","?","?","?","?","?","?","?","?","?","?","?","?","?","?","?","?","?","?","?","?","?","?","?","?","?","?","?","?","?","?","?","?","?","?","?","?","?","?","?","?","?","?","?","?","?","?","?","?","?","?","?","?","?","?","?","?","?","?","?","?","?","?","?","?","?","?","?","?","?","?","?","?","?","?","?","?","?","?","?","?","?","?","?","?","?","?","?","?","?","?","?","?","?","?","?","?","?","?","?","?","?","?","?","?","?","?","?","?","?","?","?","?","?","?","?","?","?","?","?","?","?","?","?","?","?","?","?","?","?","?","?","?","?","?","?","?","?","?","?","?","?","?","?","?","?","?","?","?","?","?","?","?","?","?","?","?","?","?","?","?","?","?","?","?","?","?","?","?","?","?","?","?","?","?","?","?","?","?","?","?","?","?","?","?","?","?","?","?","?","?","?","?","?","?","?","?","?","?","?","?","?","?","?","?","?","?","?","?","?","?","?","?","?","?","?","?","?","?","?","?","?","?","?","?","?","?","?","?","?","?","?","?","?","?","?","?","?","?","?","?","?","?","?","?","?","?","?","?","?","?","?","?","?","?","?","?","?","?","?","?","?","?","?","?","?","?","?","?","?","?","?","?","?","?","?","?","?","?","?","?","?","?","?","?","?","?","?","?","?","?","?","?","?","?","?","?","?","?","?","?","?","?","?","?","?","?","?","?","?","?","?","?","?","?","?","?","?","?","?","?","?","?","?","?","?","?","?","?","?","?","?","?","?","?","?","?","?","?","?","?","?","?","?","?","?","?","?","?","?","?","?","?","?","?","?","?","?","?","?","?","?","?","?","?","?","?","?","?","?","?","?","?","?","?","?","?","?","?","?","?","?","?","?","?","?","?","?","?","?","?","?","?","?","?","?","?","?","?","?","?","?","?","?","?","?","?","?","?","?","?","?","?","?","?","?","?","?","?","?","?","?","?","?","?","?","?","?","?","?","?","?","?","?","?","?","?","?","?","?","?","?","?","?","?","?","?","?","?","?","?","?","?","?","?","?","?","?","?","?","?","?","?","?","?","?","?","?","?","?","?","?","?","?","?","?","?","?","?","?","?","?","?","?","?","?","?","?","?","?","?","?","?","?","?","?","?","?","?","?","?","?","?","?","?","?","?","?","?","?","?","?","?","?","?","?","?","?","?","?","?","?","?","?","?","?","?","?","?","?","?","?","?","?","?","?","?","?","?","?","?","?","?","?","?","?","?","?","?","?","?","?","?","?","?","?","?","?","?","?","?","?","?","?","?","?","?","?","?","?","?","?","?","?","?","?","?","?","?","?","?","?","?","?","?","?","?","?","?","?","?","?","?","?","?","?","?","?","?","?","?","?","?","?","?","?","?","?","?","?","?","?","?","?","?","?","?","?","?","?","?","?","?","?","?","?","?","?","?","?","?","?","?","?","?","?","?","?","?","?","?","?","?","?","?","?","?","?","?","?","?","?","?","?","?","?","?","?","?","?","?","?","?","?","?","?","?","?","?","?","?","?","?","?","?","?","?","?","?","?","?","?","?","?","?","?","?","?","?","?","?","?","?","?","?","?","?","?","?","?","?","?","?","?","?","?","?","?","?","?","?","?","?","?","?","?","?","?","?","?","?","?","?","?","?","?","?","?","?","?","?","?","?","?","?","?","?","?","?","?","?","?","?","?","?","?","?","?","?","?","?","?","?","?","?","?","?","?","?","?","?","?","?","?","?","?","?","?","?","?","?","?","?","?","?","?","?","?","?","?","?","?","?","?","?","?","?","?","?","?","?","?","?","?","?","?","?","?","?","?","?","?","?","?","?","?","?","?","?","?","?","?","?","?","?","?","?","?","?","?","?","?","?","?","?","?","?","?","?","?","?","?","?","?","?","?","?","?","?","?","?","?","?","?","?","?","?","?","?","?","?","?","?","?","?","?","?","?","?","?","?","?","?","?","?","?","?","?","?","?","?","?","?","?","?","?","?","?","?","?","?","?","?","?","?","?","?","?","?","?","?","?","?","?","?","?","?","?","?","?","?","?","?","?","?","?","?","?","?","?","?","?","?","?","?","?","?","?","?","?","?","?","?","?","?","?","?","?","?","?","?","?","?","?","?","?","?","?","?","?","?","?","?","?","?","?","?","?","?","?","?","?","?","?","?","?","?","?","?","?","?","?","?","?","?","?","?","?","?","?","?","?","?","?","?","?","?","?","?","?","?","?","?","?","?","?","?","?","?","?","?","?","?","?","?","?","?","?","?","?","?","?","?","?","?","?","?","?","?","?","?","?","?","?","?","?","?","?","?","?","?","?","?","?","?","?","?","?","?","?","?","?","?","?","?","?","?","?","?","?","?","?","?","?","?","?","?","?","?","?","?","?","?","?","?","?","?","?","?","?","?","?","?","?","?","?","?","?","?","?","?","?","?","?","?","?","?","?","?","?","?","?","?","?","?","?","?","?","?","?","?","?","?","?","?","?","?","?","?","?","?","?","?","?","?","?","?","?","?","?","?","?","?","?","?","?","?","?","?","?","?","?","?","?","?","?","?","?","?","?","?","?","?","?","?","?","?","?","?","?","?","?","?","?","?","?","?","?","?","?","?","?","?","?","?","?","?","?","?","?","?","?","?","?","?","?","?","?","?","?","?","?","?","?","?","?","?","?","?","?","?","?","?","?","?","?","?","?","?","?","?","?","?","?","?","?","?","?","?","?","?","?","?","?","?","?","?","?","?","?","?","?","?","?","?","?","?","?","?","?","?","?","?","?","?","?","?","?","?","?","?","?","?","?","?","?","?","?","?","?","?","?","?","?","?","?","?","?","?","?","?","?","?","?","?","?","?","?","?","?","?","?","?","?","?","?","?","?","?","?","?","?","?","?","?","?","?","?","?","?","?","?","?","?","?","?","?","?","?","?","?","?","?","?","?","?","?","?","?","?","?","?","?","?","?","?","?","?","?","?","?","?","?","?","?","?","?","?","?","?","?","?","?","?","?","?","?","?","?","?","?","?","?","?","?","?","?","?","?","?","?","?","?","?","?","?","?","?","?","?","?","?","?","?","?","?","?","?","?","?","?","?","?","?","?","?","?","?","?","?","?","?","?","?","?","?","?","?","?","?","?","?","?","?","?","?","?","?","?","?","?","?","?","?","?","?","?","?","?","?","?","?","?","?","?","?","?","?","?","?","?","?","?","?","?","?","?","?","?","?","?","?","?","?","?","?","?","?","?","?","?","?","?","?","?","?","?","?","?","?","?","?","?","?","?","?","?","?","?","?","?","?","?","?","?","?","?","?","?","?","?","?","?","?","?","?","?","?","?","?","?","?","?","?","?","?","?","?","?","?","?","?","?","?","?","?","?","?","?","?","?","?","?","?","?","?","?","?","?","?","?","?","?","?","?","?","?","?","?","?","?","?","?","?","?","?","?","?","?","?","?","?","?","?","?","?","?","?","?","?","?","?","?","?","?","?","?","?","?","?","?","?","?","?","?","?","?","?","?","?","?","?","?","?","?","?","?","?","?","?","?","?","?","?","?","?","?","?","?","?","?","?","?","?","?","?","?","?","?","?","?","?","?","?","?","?","?","?","?","?","?","?","?","?","?","?","?","?","?","?","?","?","?","?","?","?","?","?","?","?","?","?","?","?","?","?","?","?","?","?","?","?","?","?","?","?","?","?","?","?","?","?","?","?","?","?","?","?","?","?","?","?","?","?","?","?","?","?","?","?","?","?","?","?","?","?","?","?","?","?","?","?","?","?","?","?","?","?","?","?","?","?","?","?","?","?","?","?","?","?","?","?","?","?","?","?","?","?","?","?","?","?","?","?","?","?","?","?","?","?","?","?","?","?","?","?","?","?","?","?","?","?","?","?","?","?","?","?","?","?","?","?","?","?","?","?","?","?","?","?","?","?","?","?","?","?","?","?","?","?","?","?","?","?","?","?","?","?","?","?","?","?","?","?","?","?","?","?","?","?","?","?","?","?","?","?","?","?","?","?","?","?","?","?","?","?","?","?","?","?","?","?","?","?","?","?","?","?","?","?","?","?","?","?","?","?","?","?","?","?","?","?","?","?","?","?","?","?","?","?","?","?","?","?","?","?","?","?","?","?","?","?","?","?","?","?","?","?","?","?","?","?","?","?","?","?","?","?","?","?","?","?","?","?","?","?","?","?","?","?","?","?","?","?","?","?","?","?","?","?","?","?","?","?","?","?","?","?","?","?","?","?","?","?","?","?","?","?","?","?","?","?","?","?","?","?","?","?","?","?","?","?","?","?","?","?","?","?","?","?","?","?","?","?","?","?","?","?","?","?","?","?","?","?","?","?","?","?","?","?","?","?","?","?","?","?","?","?","?","?","?","?","?","?","?","?","?","?","?","?","?","?","?","?","?","?","?","?","?","?","?","?","?","?","?","?","?","?","?","?","?","?","?","?","?","?","?","?","?","?","?","?","?","?","?","?","?","?","?","?","?","?","?","?","?","?","?","?","?","?","?","?","?","?","?","?","?","?","?","?","?","?","?","?","?","?","?","?","?","?","?","?","?","?","?","?","?","?","?","?","?","?","?","?","?","?","?","?","?","?","?","?","?","?","?","?","?","?","?","?","?","?","?","?","?","?","?","?","?","?","?","?","?","?","?","?","?","?","?","?","?","?","?","?","?","?","?","?","?","?","?","?","?","?","?","?","?","?","?","?","?","?","?","?","?","?","?","?","?","?","?","?","?","?","?","?","?","?","?","?","?","?","?","?","?","?","?","?","?","?","?","?","?","?","?","?","?","?","?","?","?","?","?","?","?","?","?","?","?","?","?","?","?","?","?","?","?","?","?","?","?","?","?","?","?","?","?","?","?","?","?","?","?","?","?","?","?","?","?","?","?","?","?","?","?","?","?","?","?","?","?","?","?","?","?","?","?","?","?","?","?","?","?","?","?","?","?","?","?","?","?","?","?","?","?","?","?","?","?","?","?","?","?","?","?","?","?","?","?","?","?","?","?","?","?","?","?","?","?","?","?","?","?","?","?","?","?","?","?","?","?","?","?","?","?","?","?","?","?","?","?","?","?","?","?","?","?","?","?","?","?","?","?","?","?","?","?","?","?","?","?","?","?","?","?","?","?","?","?","?","?"