[{"success":true,"trial_type":"fullscreen","trial_index":0,"time_elapsed":2248,"internal_node_id":"0.0-0.0","protocol_sum":"","subject_identifier":106,"subject_sum":[40,88,220,209,5,125,62,174,127,125,95,120,33,103,226,75,97,21,60,1,85,20,80,166,40,206,231,34,80,159,101,41],"subject_pair":53,"STUDY_ID":"669a702db1122fc5150a13ce","PROLIFIC_PID":"63d152b798b6954741aa5015","SESSION_ID":"669a8dab14caa691679bbd43","practice_instructions":1,"leaderboard_instructions":1,"bonus":0,"reveal_word":false,"self_rating":"2","confidence":"66"},{"view_history":"[{\"page_index\":0,\"viewing_time\":2467.899999976158}]","rt":2468.5,"trial_type":"instructions","trial_index":1,"time_elapsed":4718,"internal_node_id":"0.0-1.0","protocol_sum":"","subject_identifier":106,"subject_sum":[40,88,220,209,5,125,62,174,127,125,95,120,33,103,226,75,97,21,60,1,85,20,80,166,40,206,231,34,80,159,101,41],"subject_pair":53,"STUDY_ID":"669a702db1122fc5150a13ce","PROLIFIC_PID":"63d152b798b6954741aa5015","SESSION_ID":"669a8dab14caa691679bbd43","practice_instructions":1,"leaderboard_instructions":1,"bonus":0,"reveal_word":false,"self_rating":"2","confidence":"66"},{"view_history":"[{\"page_index\":0,\"viewing_time\":26353.900000095367}]","rt":26354.400000095367,"trial_type":"instructions","trial_index":2,"time_elapsed":31074,"internal_node_id":"0.0-2.0-0.0","protocol_sum":"","subject_identifier":106,"subject_sum":[40,88,220,209,5,125,62,174,127,125,95,120,33,103,226,75,97,21,60,1,85,20,80,166,40,206,231,34,80,159,101,41],"subject_pair":53,"STUDY_ID":"669a702db1122fc5150a13ce","PROLIFIC_PID":"63d152b798b6954741aa5015","SESSION_ID":"669a8dab14caa691679bbd43","practice_instructions":1,"leaderboard_instructions":1,"bonus":0,"reveal_word":false,"self_rating":"2","confidence":"66"},{"rt":12039.700000047684,"responses":"{\"Q0\":\"... reveal the word with as <b>few letter guesses</b> as possible\"}","question_order":"[0]","trial_type":"survey-multi-choice","trial_index":3,"time_elapsed":43116,"internal_node_id":"0.0-2.0-1.0","protocol_sum":"","subject_identifier":106,"subject_sum":[40,88,220,209,5,125,62,174,127,125,95,120,33,103,226,75,97,21,60,1,85,20,80,166,40,206,231,34,80,159,101,41],"subject_pair":53,"correct":true,"test_part":"multichoice_nonpretend","STUDY_ID":"669a702db1122fc5150a13ce","PROLIFIC_PID":"63d152b798b6954741aa5015","SESSION_ID":"669a8dab14caa691679bbd43","practice_instructions":1,"leaderboard_instructions":1,"bonus":0,"reveal_word":false,"self_rating":"2","confidence":"66"},{"view_history":"[{\"page_index\":0,\"viewing_time\":1561.1000000238419}]","rt":1561.3000000715256,"trial_type":"instructions","trial_index":4,"time_elapsed":44678,"internal_node_id":"0.0-3.0","protocol_sum":"","subject_identifier":106,"subject_sum":[40,88,220,209,5,125,62,174,127,125,95,120,33,103,226,75,97,21,60,1,85,20,80,166,40,206,231,34,80,159,101,41],"subject_pair":53,"STUDY_ID":"669a702db1122fc5150a13ce","PROLIFIC_PID":"63d152b798b6954741aa5015","SESSION_ID":"669a8dab14caa691679bbd43","practice_instructions":1,"leaderboard_instructions":1,"bonus":0,"reveal_word":false,"self_rating":"2","confidence":"66"},{"word":"ZEBRA","click_log":{"letter":["","S","R","Z","E","B","A"],"t":[0,11253.299999952316,15367.600000023842,28521.100000023842,30150.299999952316,33242.39999997616,34419.10000002384],"hit":[null,0,1,1,1,1,1],"asked":["","S","SR","SRZ","SRZE","SRZEB","SRZEBA"],"word_state":["_____","_____","___R_","Z__R_","ZE_R_","ZEBR_","ZEBRA"]},"hover_log":{"letter":["?","?","?","?","?","?","?","?","?","?","?","?","?","?","?","?","?","?","?","?","?","?","?","?","?","?","?","?","?","?","J","J","?","A","?","?","?","?","?","?","?","?","?","?","?","?","?","?","?","?","?","?","?","?","?","?","?","?","?","?","?","?","?","?","?","?","?","?","?","?","?","?","?","?","?","?","?","?","?","?","?","?","?","?","?","?","?","?","?","?","?","?","?","?","?","?","?","?","?","?","?","?","?","?","?","?","?","?","?","?","?","?","?","?","?","?","?","?","?","?","?","?","?","?","?","?","?","?","?","?","?","?","?","?","?","?","?","?","?","?","?","?","?","?","?","?","?","?","?","?","?","?","?","?","?","?","?","?","?","?","?","?","?","?","?","?","?","?","?","?","?","?","?","?","?","?","?","?","?","?","?","?","?","?","?","?","?","?","?","?","?","?","?","?","?","?","?","?","?","?","?","?","?","?","?","?","?","?","?","?","?","?","?","?","?","?","?","?","?","?","?","?","?","?","?","?","?","?","?","?","?","?","?","?","?","?","?","?","?","?","?","?","?","?","?","?","?","?","?","?","?","?","?","?","?","?","?","?","?","?","?","?","?","?","?","?","?","?","?","?","?","?","?","?","?","?","?","?","?","?","?","?","?","?","?","?","?","?","?","?","?","?","?","?","?","?","?","?","?","?","?","?","?","?","?","?","?","?","?","?","?","?","?","?","?","?","?","?","?","?","?","?","?","?","?","?","?","?","?","?","?","?","?","?","?","?","?","?","?","?","?","?","?","?","?","?","?","?","?","?","?","?","?","?","?","?","?","?","?","?","?","?","?","?","?","?","?","?","?","?","?","?","?","?","?","?","?","?","?","?","?","?","?","?","?","?","?","?","?","?","?","?","?","?","?","?","?","?","?","?","?","?","?","?","?","?","?","?","?","?","?","?","?","?","?","?","?","?","?","?","?","?","?","?","?","?","?","?","?","?","?","?","?","?","?","?","?","?","?","?","?","?","?","?","?","?","?","?","?","?","?","?","?","?","?","?","?","?","?","?","?","?","?","?","?","?","?","?","?","?","?","?","?","?","?","?","?","?","?","?","?","?","?","?","?","?","?","?","?","?","?","?","?","?","?","?","?","?","?","?","?","?","?","?","?","?","?","?","?","?","?","?","?","?","?","?","?","?","?","?","?","?","?","?","?","?","?","?","?","?","?","?","?","?","?","?","?","?","?","?","?","?","?","?","?","?","?","?","?","?","?","A","A","A","A","A","A","A","A","A","A","A","A","A","A","A","A","A","A","A","A","A","A","A","A","A","A","A","A","A","A","A","A","?","J","?","S","?","?","?","?","?","?","?","?","?","?","?","?","?","?","?","?","?","?","?","?","?","?","?","?","?","?","?","?","?","?","?","?","?","?","?","?","?","?","?","?","?","?","?","?","?","?","?","?","?","?","?","?","?","?","?","?","?","?","Z","?","?","?","?","?","?","?","?","?","?","?","?","?","?","?","?","?","?","?","?","?","?","?","?","?","?","?","?","?","?","?","?","?","?","?","?","?","?","?","?","O","N","N","M","M","M","M","M","M","M","M","M","M","M","M","M","M","M","M","M","M","M","M","M","?","L","?","?","?","?","T","T","T","T","T","?","?","?","?","?","?","?","?","?","S","S","S","S","S","S","S","S","S","S","S","S","S","S","S","S","S","S","S","S","S","S","S","S","S","S","S","S","S","S","S","S","S","S","S","S","S","S","S","S","S","S","S","S","S","S","S","S","S","S","S","S","S","S","S","S","?","?","?","?","?","?","?","?","?","?","?","?","?","?","?","?","?","?","?","?","?","?","?","?","?","?","?","?","?","?","?","?","?","?","?","?","?","?","?","?","?","?","?","?","?","?","?","?","?","?","?","?","?","?","?","?","?","?","?","?","?","?","?","?","?","?","?","?","?","?","?","?","?","?","?","?","?","?","?","?","?","?","?","?","?","?","?","?","?","?","?","?","?","?","?","?","?","?","?","?","?","?","?","?","?","?","?","?","?","?","?","?","?","?","?","?","?","?","?","?","?","?","?","?","?","?","?","?","?","?","?","?","?","?","?","?","?","?","?","?","?","?","?","?","?","?","?","?","?","?","?","?","?","?","?","?","?","?","?","?","?","?","?","?","?","?","?","?","?","?","?","?","?","?","?","?","?","?","?","?","?","?","?","?","?","?","?","?","?","?","?","?","?","X","X","?","Y","Y","Y","Y","Y","Y","Y","Y","Y","Y","Y","Y","Y","Y","Y","Y","Y","Y","?","?","?","R","R","?","?","?","?","?","?","R","R","R","R","R","R","R","R","R","R","R","R","R","R","R","R","R","R","R","R","R","R","R","R","R","R","R","R","R","R","R","R","R","R","R","R","R","R","R","R","R","R","R","R","R","R","R","R","R","R","R","R","R","R","R","R","R","R","R","?","?","?","?","?","?","?","?","?","?","?","?","?","?","?","?","?","?","?","?","?","?","?","?","?","?","?","?","?","?","?","?","?","?","?","?","?","?","?","?","?","?","?","?","?","?","?","?","?","?","?","?","?","?","?","?","?","?","?","?","?","?","?","?","?","?","?","?","?","?","?","?","?","?","?","?","?","?","?","?","?","?","?","?","?","?","?","?","?","?","?","?","?","?","?","?","?","?","?","?","?","?","?","?","?","?","?","?","?","?","?","?","?","?","?","?","?","?","?","?","?","?","?","?","?","?","?","?","?","?","?","?","?","?","?","?","?","?","?","?","?","?","?","?","?","?","?","?","?","?","?","?","?","?","?","?","?","?","?","?","?","?","?","?","?","?","?","?","?","?","?","?","?","?","?","?","?","?","?","?","?","?","?","?","?","?","?","?","?","?","?","?","?","?","?","?","?","?","?","?","?","?","?","?","?","?","?","?","?","?","?","?","?","?","?","?","?","?","?","?","?","?","?","?","?","?","?","?","?","?","?","?","?","?","?","?","?","?","?","?","?","?","?","?","?","?","?","?","?","?","?","?","?","?","?","?","?","?","?","?","?","?","?","?","?","?","?","?","?","?","?","?","?","?","?","?","?","?","?","?","?","?","?","?","?","?","?","?","?","?","?","?","?","?","?","?","?","?","?","?","?","?","?","?","?","?","?","?","?","?","?","?","?","?","?","?","?","?","?","?","?","?","?","?","?","?","?","?","?","?","?","?","?","?","?","?","?","?","?","?","?","?","?","?","?","?","?","?","?","?","?","?","?","?","?","?","?","?","?","?","?","?","?","?","?","?","?","?","?","?","?","?","?","?","?","?","?","?","?","?","?","?","?","?","?","?","?","?","?","?","?","?","?","?","?","?","?","?","?","?","?","?","?","?","?","?","?","?","?","?","?","?","?","?","?","?","?","?","?","?","?","?","?","?","?","?","?","?","?","?","?","?","?","?","?","?","?","?","?","?","?","?","?","?","?","?","?","?","?","?","?","?","?","?","?","?","?","?","?","?","?","?","?","?","?","?","?","?","?","?","?","?","?","?","?","?","?","?","?","?","?","?","?","?","?","?","?","?","?","?","?","?","?","?","?","?","?","?","?","?","?","?","?","?","?","?","?","?","?","?","?","?","?","?","?","?","?","?","?","?","?","?","?","?","?","?","?","?","?","?","?","?","?","?","?","?","?","?","?","?","?","?","?","?","?","?","?","?","?","?","?","?","?","?","?","?","?","?","?","?","?","?","?","?","?","?","?","?","?","?","?","?","?","?","?","?","?","?","?","?","?","?","?","?","?","?","?","?","?","?","?","?","?","?","?","?","?","?","?","?","?","?","?","?","?","?","?","?","?","?","?","?","?","?","?","?","?","?","?","?","?","?","?","?","?","?","?","?","?","?","?","?","?","?","?","?","?","?","?","?","?","?","?","?","?","?","?","?","?","?","?","?","G","G","G","G","G","G","G","G","G","G","G","G","G","G","G","G","G","G","G","G","?","?","O","O","?","?","?","W","W","W","W","W","W","W","W","W","W","W","W","X","X","X","X","X","X","X","X","X","X","X","X","X","X","X","X","X","X","X","X","X","X","X","X","X","X","X","X","X","X","X","X","X","X","X","X","X","X","X","X","X","X","X","X","X","X","X","X","X","X","X","X","?","W","W","?","V","V","V","?","U","U","U","?","?","?","?","?","?","?","?","V","V","V","V","?","W","W","W","W","?","X","X","X","X","X","?","?","?","?","?","?","?","?","?","?","?","?","?","Y","Z","Z","?","?","?","?","?","?","?","?","?","?","?","?","Z","Z","Z","Z","Z","Z","Z","Z","Z","Z","Z","Z","Z","Z","Z","Z","Z","Z","Z","Z","Z","Z","Z","Z","Z","Z","Z","Z","Z","Z","Z","Z","Z","Z","Z","Z","Z","Z","Z","Z","Z","Z","Z","Z","Z","Z","Z","Z","Z","Z","Z","Z","Z","Z","Z","Z","Z","Z","Z","Z","Z","?","?","O","?","D","D","C","C","?","?","B","B","B","B","B","B","B","B","B","B","B","B","B","B","B","B","B","C","?","D","D","D","D","D","D","D","D","D","D","D","D","D","D","?","?","E","E","E","E","E","E","E","E","E","E","E","E","E","E","E","E","E","E","E","E","E","E","E","E","E","E","E","E","E","E","E","E","E","E","E","E","E","E","E","E","E","E","E","E","E","E","E","E","E","E","E","E","E","E","E","E","?","?","N","N","N","N","?","?","?","W","W","W","W","W","W","W","W","W","W","W","W","W","W","W","W","W","W","W","W","W","W","W","W","W","W","W","W","W","W","W","W","W","W","W","W","W","W","W","W","W","W","W","W","W","W","W","W","W","?","?","?","V","V","?","?","?","?","?","?","?","L","L","L","L","L","?","?","?","?","?","?","?","?","?","?","?","?","?","?","?","?","D","D","D","D","D","D","D","D","D","D","D","?","?","?","?","?","?","?","?","?","?","?","?","M","M","M","M","M","M","M","M","M","?","?","?","?","?","?","?","?","?","?","L","L","?","?","C","C","C","C","?","?","?","?","?","?","B","B","B","B","B","B","B","B","B","B","B","B","B","B","B","B","B","B","B","B","B","B","B","B","B","B","B","B","B","B","B","B","B","B","B","B","B","B","B","B","B","B","B","B","B","B","B","B","B","B","B","B","B","B","B","B","B","B","B","B","B","B","B","B","B","B","B","B","B","B","B","A","A","A","A","A","A","A","A","A","A","A","A","A","A","A","A","A","A","A","A","A","A","A","A","A","A","A","A","A","A","A","A","A","A","A","A","A","A","A","A","A","A","A","A","A","A","A","A","A","A","A","A","A","?","?","?","?","?","?","?","?","?","?","?","?","?","?","?","?","?","?","?","?","?","?","?","?","?","?","?","?","?","?","?","?","?","?","?","?","?","?","?","?","?","?","?","?","?","?","?","?","?","?","?","?","?","?","?","?","?","?","?","?","?","?","?","?","?","?","?","?","?","?","?","?","?","?","?","?","?","?","?","?","?","?","?","?","?","?","?","?","?","?","?","?","?","?","?","?","?","?","?","?","?","?","?","?","?","?","?","?","?","?","?","?"],"t":[22,33,49,66,83,100,114,127,139,155,167,182,196,209,222,236,249,264,281,296,310,325,340,355,369,385,401,415,429,441,455,470,485,502,518,536,551,567,585,600,618,634,652,668,682,695,708,721,733,746,761,774,790,806,822,836,850,867,882,895,908,921,935,946,959,973,987,1002,1018,1034,1050,1068,1084,1102,1116,1134,1150,1167,1185,1198,1212,1226,1239,1251,1266,1278,1294,1311,1327,1340,1354,1367,1381,1400,1419,1433,1453,1466,1478,1491,1504,1518,1530,1549,1562,1578,1594,1608,1620,1633,1648,1661,1677,1693,1707,1720,1734,1746,1761,1774,1789,1806,1821,1836,1849,1865,1882,1895,1909,1922,1936,1949,1963,1978,1992,2004,2019,2033,2048,2061,2077,2092,2108,2123,2138,2154,2169,2185,2199,2215,2230,2245,2261,2277,2290,2304,2316,2332,2345,2359,2374,2388,2401,2415,2428,2444,2457,2473,2489,2503,2519,2534,2549,2564,2580,2595,2612,2628,2642,2654,2669,2683,2695,2711,2725,2738,2751,2765,2779,2794,2808,2821,2834,2849,2862,2878,2894,2910,2925,2947,2958,2971,2986,3000,3014,3026,3041,3053,3069,3083,3095,3111,3124,3140,3157,3171,3183,3199,3212,3225,3240,3253,3268,3282,3296,3309,3323,3338,3352,3369,3386,3399,3412,3427,3445,3459,3474,3488,3501,3514,3529,3544,3560,3576,3591,3607,3623,3638,3650,3667,3683,3699,3713,3728,3742,3754,3769,3783,3798,3814,3832,3845,3858,3872,3886,3900,3915,3931,3949,3961,3974,3990,4004,4017,4030,4044,4058,4073,4089,4104,4119,4135,4152,4166,4179,4193,4206,4220,4234,4250,4267,4280,4295,4308,4321,4334,4347,4361,4375,4390,4405,4422,4436,4450,4463,4476,4490,4504,4518,4533,4546,4559,4573,4587,4601,4620,4636,4649,4662,4676,4690,4704,4718,4733,4746,4759,4773,4785,4802,4818,4835,4848,4862,4875,4888,4903,4915,4931,4947,4965,4978,4991,5006,5020,5033,5046,5061,5073,5089,5105,5123,5136,5150,5163,5175,5190,5203,5218,5234,5252,5264,5279,5291,5304,5318,5332,5347,5363,5381,5394,5408,5420,5436,5449,5464,5480,5497,5514,5530,5547,5564,5580,5597,5613,5630,5646,5662,5678,5695,5712,5729,5746,5761,5776,5793,5809,5823,5837,5850,5865,5879,5892,5907,5921,5934,5948,5962,5976,5991,6004,6019,6035,6048,6062,6077,6090,6105,6122,6140,6153,6166,6180,6194,6207,6222,6236,6249,6262,6278,6291,6305,6322,6338,6354,6369,6387,6404,6421,6438,6454,6471,6486,6500,6512,6525,6540,6553,6569,6586,6599,6612,6625,6640,6653,6668,6684,6702,6715,6728,6744,6760,6777,6790,6804,6817,6830,6844,6857,6873,6887,6903,6918,6932,6946,6959,6974,6987,7001,7016,7029,7042,7057,7070,7084,7099,7112,7126,7140,7153,7169,7184,7202,7215,7229,7242,7255,7269,7283,7296,7311,7325,7338,7353,7365,7379,7395,7408,7421,7436,7449,7464,7480,7498,7510,7524,7537,7549,7563,7577,7591,7606,7623,7639,7652,7666,7679,7692,7706,7719,7735,7752,7767,7784,7801,7818,7835,7852,7868,7884,7900,7914,7929,7945,7963,7978,7996,8013,8030,8046,8062,8079,8095,8111,8130,8145,8163,8177,8193,8205,8219,8232,8247,8263,8279,8296,8310,8324,8336,8351,8367,8384,8400,8413,8431,8443,8460,8475,8489,8503,8519,8534,8550,8565,8580,8597,8614,8629,8646,8663,8680,8696,8714,8730,8747,8765,8781,8798,8811,8825,8839,8853,8867,8881,8898,8915,8928,8942,8955,8970,8984,8999,9014,9031,9047,9063,9081,9097,9114,9131,9148,9165,9181,9198,9214,9231,9248,9265,9281,9298,9315,9328,9342,9357,9372,9390,9404,9420,9435,9450,9462,9477,9491,9504,9520,9535,9552,9567,9584,9601,9618,9634,9651,9668,9682,9697,9710,9724,9737,9752,9767,9781,9793,9808,9820,9836,9851,9864,9877,9891,9904,9919,9934,9946,9961,9975,9989,10005,10017,10029,10045,10059,10073,10087,10100,10121,10138,10154,10171,10187,10204,10221,10237,10254,10272,10286,10299,10315,10327,10345,10363,10379,10394,10409,10421,10435,10450,10462,10478,10493,10505,10521,10537,10552,10569,10586,10602,10619,10636,10652,10669,10685,10702,10719,10735,10752,10770,10783,10796,10812,10826,10839,10852,10868,10883,10898,10914,10931,10948,10965,10981,10998,11012,11029,11042,11058,11071,11085,11097,11113,11128,11144,11160,11176,11191,11207,11223,11238,11255,11270,11284,11297,11312,11326,11341,11355,11369,11381,11395,11412,11427,11445,11458,11471,11487,11500,11514,11527,11541,11558,11573,11590,11604,11617,11632,11645,11658,11673,11690,11707,11724,11740,11756,11774,11790,11806,11824,11840,11855,11868,11889,11904,11918,11934,11947,11960,11974,11987,12003,12017,12031,12046,12058,12074,12088,12102,12116,12128,12144,12159,12172,12187,12200,12216,12230,12243,12257,12270,12286,12300,12314,12329,12341,12357,12371,12386,12401,12413,12429,12442,12457,12471,12485,12499,12512,12528,12542,12554,12570,12584,12597,12612,12626,12638,12653,12666,12682,12698,12714,12731,12744,12760,12777,12793,12810,12827,12843,12860,12877,12893,12910,12924,12937,12951,12966,12979,12993,13007,13021,13034,13050,13065,13081,13097,13114,13130,13146,13163,13180,13196,13213,13227,13243,13257,13273,13290,13303,13317,13334,13350,13365,13380,13395,13412,13426,13441,13457,13472,13488,13502,13521,13534,13549,13563,13575,13589,13604,13616,13633,13648,13664,13681,13695,13710,13728,13741,13754,13768,13783,13796,13809,13824,13838,13853,13869,13886,13899,13913,13926,13940,13954,13970,13986,14001,14017,14030,14045,14060,14077,14093,14110,14126,14143,14160,14177,14194,14206,14221,14236,14253,14269,14283,14299,14315,14330,14343,14356,14370,14383,14398,14413,14426,14439,14453,14466,14482,14498,14514,14529,14544,14561,14578,14593,14610,14627,14644,14660,14677,14694,14707,14721,14734,14748,14763,14778,14794,14811,14824,14837,14853,14867,14881,14895,14910,14928,14943,14960,14977,14993,15009,15025,15041,15056,15073,15089,15106,15122,15138,15155,15169,15183,15197,15217,15236,15248,15265,15281,15295,15308,15320,15335,15348,15362,15379,15391,15464,15485,15504,15521,15538,15552,15565,15579,15592,15612,15625,15644,15658,15677,15691,15710,15724,15743,15758,15777,15791,15810,15824,15843,15857,15870,15883,15898,15915,15932,15945,15958,15973,15987,16003,16018,16033,16048,16064,16081,16096,16112,16130,16146,16163,16180,16195,16213,16228,16243,16260,16277,16293,16307,16321,16334,16348,16361,16378,16393,16409,16424,16440,16455,16470,16483,16497,16511,16525,16540,16556,16572,16587,16603,16617,16633,16646,16658,16674,16686,16702,16720,16736,16749,16762,16778,16792,16805,16820,16832,16848,16864,16881,16897,16915,16931,16947,16964,16981,16997,17015,17031,17047,17064,17081,17095,17108,17122,17135,17149,17162,17177,17191,17205,17218,17232,17246,17261,17277,17295,17308,17321,17335,17350,17365,17381,17397,17415,17430,17447,17463,17480,17495,17509,17522,17536,17550,17565,17581,17597,17612,17628,17643,17658,17671,17685,17700,17712,17728,17743,17760,17777,17793,17810,17826,17842,17859,17876,17893,17907,17921,17933,17947,17962,17974,17990,18003,18020,18036,18049,18062,18078,18090,18105,18118,18132,18148,18165,18181,18198,18215,18231,18248,18264,18282,18298,18315,18331,18347,18362,18377,18393,18409,18420,18434,18449,18463,18478,18494,18510,18528,18544,18560,18577,18594,18611,18627,18644,18661,18677,18694,18711,18727,18743,18761,18777,18793,18808,18824,18840,18857,18873,18890,18907,18923,18940,18957,18973,18990,19007,19021,19037,19050,19066,19080,19092,19106,19121,19136,19152,19170,19183,19197,19211,19226,19239,19252,19267,19282,19298,19315,19329,19343,19356,19371,19386,19402,19420,19433,19446,19460,19472,19487,19503,19519,19535,19553,19569,19585,19603,19618,19636,19652,19668,19683,19699,19715,19730,19744,19760,19775,19790,19806,19821,19834,19848,19860,19875,19891,19907,19923,19938,19952,19964,19977,19992,20007,20021,20035,20049,20062,20078,20092,20105,20120,20133,20149,20163,20176,20190,20203,20219,20236,20251,20266,20282,20297,20314,20328,20344,20359,20374,20391,20406,20421,20434,20447,20462,20475,20489,20503,20516,20531,20545,20561,20577,20591,20607,20623,20638,20651,20664,20678,20692,20706,20723,20741,20753,20767,20782,20796,20809,20824,20837,20853,20865,20882,20897,20913,20926,20939,20953,20967,20982,20996,21010,21024,21037,21053,21067,21080,21094,21107,21123,21137,21150,21165,21179,21194,21211,21227,21240,21255,21268,21282,21295,21310,21325,21338,21351,21366,21379,21392,21408,21421,21434,21449,21462,21477,21491,21505,21520,21533,21548,21562,21577,21592,21604,21618,21632,21646,21660,21674,21687,21700,21714,21726,21740,21753,21769,21785,21803,21816,21829,21842,21856,21870,21886,21902,21917,21932,21949,21964,21978,21994,22009,22025,22037,22051,22064,22079,22094,22110,22126,22141,22154,22168,22182,22195,22211,22224,22238,22251,22265,22279,22294,22308,22321,22336,22350,22364,22379,22392,22405,22419,22432,22448,22462,22475,22488,22503,22514,22531,22545,22561,22576,22591,22607,22624,22636,22649,22665,22679,22692,22707,22720,22736,22752,22767,22783,22799,22813,22828,22841,22855,22870,22882,22898,22914,22932,22945,22958,22972,22986,22999,23015,23031,23047,23061,23075,23088,23103,23116,23131,23145,23158,23174,23187,23201,23216,23230,23242,23257,23271,23285,23299,23313,23326,23340,23353,23369,23383,23396,23409,23423,23437,23451,23466,23479,23492,23507,23520,23535,23549,23562,23576,23590,23604,23617,23633,23646,23659,23674,23687,23701,23716,23729,23742,23757,23770,23784,23798,23812,23825,23840,23854,23868,23885,23900,23918,23930,23947,23960,23977,23991,24009,24021,24039,24052,24070,24086,24100,24113,24129,24143,24161,24176,24191,24205,24219,24239,24254,24269,24284,24297,24310,24325,24340,24357,24374,24387,24401,24416,24431,24443,24458,24471,24486,24504,24521,24534,24548,24560,24575,24591,24607,24624,24637,24651,24666,24680,24693,24706,24722,24736,24753,24768,24784,24797,24810,24825,24838,24852,24867,24880,24895,24908,24924,24938,24951,24966,24980,24995,25008,25022,25037,25050,25065,25080,25092,25107,25120,25136,25150,25163,25176,25191,25204,25219,25233,25246,25261,25275,25291,25306,25322,25337,25353,25369,25384,25396,25410,25424,25437,25453,25467,25480,25493,25507,25520,25537,25550,25563,25578,25594,25611,25627,25644,25661,25676,25693,25710,25726,25744,25761,25774,25788,25802,25816,25829,25844,25859,25872,25886,25900,25915,25932,25949,25963,25975,25991,26007,26023,26040,26056,26073,26089,26107,26122,26139,26156,26174,26187,26202,26218,26232,26247,26265,26281,26297,26315,26331,26348,26365,26382,26395,26409,26422,26435,26449,26466,26481,26499,26512,26525,26538,26553,26566,26582,26597,26615,26628,26642,26655,26670,26684,26698,26711,26726,26740,26753,26770,26785,26803,26816,26829,26843,26857,26870,26886,26900,26913,26928,26941,26957,26971,26984,26999,27012,27028,27043,27060,27077,27094,27110,27127,27144,27160,27177,27193,27210,27227,27244,27260,27277,27294,27310,27327,27344,27361,27377,27394,27411,27427,27444,27460,27477,27494,27510,27527,27544,27561,27577,27594,27611,27625,27642,27655,27666,27682,27702,27719,27737,27750,27767,27782,27798,27813,27829,27845,27862,27878,27895,27912,27929,27945,27963,27976,27993,28008,28024,28041,28058,28075,28091,28109,28122,28136,28151,28164,28178,28199,28212,28228,28245,28262,28279,28295,28312,28328,28343,28357,28369,28384,28399,28416,28432,28447,28459,28473,28494,28509,28523,28538,28552,28564,28580,28596,28612,28628,28643,28659,28674,28690,28703,28717,28731,28744,28760,28772,28786,28798,28812,28830,28845,28861,28875,28890,28911,28925,28941,28955,28968,28981,28996,29012,29028,29044,29062,29077,29095,29111,29129,29144,29162,29180,29198,29215,29230,29243,29258,29274,29291,29307,29324,29341,29357,29371,29384,29398,29413,29430,29445,29462,29478,29495,29511,29528,29545,29561,29576,29589,29605,29617,29631,29647,29660,29673,29687,29703,29720,29736,29753,29770,29786,29802,29817,29830,29843,29859,29874,29890,29907,29922,29934,29948,29969,29983,29998,30013,30026,30039,30054,30066,30081,30095,30108,30122,30136,30150,30165,30181,30197,30212,30228,30243,30257,30274,30288,30304,30317,30329,30344,30357,30373,30389,30404,30418,30433,30446,30460,30474,30487,30503,30518,30535,30551,30569,30585,30602,30619,30636,30652,30669,30685,30702,30719,30735,30752,30765,30779,30793,30806,30818,30832,30844,30860,30875,30890,30905,30920,30936,30951,30966,30982,30997,31012,31028,31050,31068,31088,31107,31124,31142,31159,31176,31192,31208,31225,31242,31259,31275,31292,31309,31325,31343,31359,31375,31392,31409,31425,31442,31458,31475,31492,31509,31525,31541,31559,31575,31591,31608,31624,31641,31658,31674,31692,31708,31725,31742,31758,31775,31792,31809,31825,31842,31859,31875,31890,31903,31925,31939,31955,31968,31983,31997,32013,32029,32046,32063,32080,32096,32112,32127,32143,32159,32175,32191,32209,32225,32241,32258,32276,32290,32305,32324,32339,32355,32371,32387,32404,32421,32437,32454,32471,32487,32504,32520,32537,32554,32571,32587,32601,32618,32633,32650,32664,32679,32693,32708,32725,32742,32759,32775,32791,32808,32825,32841,32858,32874,32891,32908,32925,32942,32958,32974,32987,33001,33015,33031,33046,33061,33074,33090,33108,33126,33139,33152,33166,33182,33202,33218,33234,33250,33265,33283,33301,33313,33326,33343,33356,33370,33390,33404,33420,33434,33448,33469,33483,33499,33514,33526,33539,33552,33567,33583,33599,33616,33631,33645,33660,33672,33688,33702,33718,33739,33750,33763,33779,33792,33805,33819,33833,33848,33864,33876,33889,33904,33921,33936,33953,33969,33986,34003,34019,34036,34053,34068,34083,34099,34115,34132,34148,34165,34182,34195,34213,34228,34244,34261,34275,34292,34309,34325,34342,34353,34365,34379,34392,34406,34425,34438,34452,34466,34477,34489,34509,34526,34546,34565,34583,34600,34614,34629,34644,34656,34668,34683,34698,34715,34732,34746,34759,34773,34788,34805,34823,34839,34857,34872,34891,34906,34923,34940,34954,34967,34981,34995,35008,35024,35040,35056,35071,35086,35103,35117,35131,35146,35158,35174,35190,35206,35224,35240,35256,35273,35290,35307,35320,35334,35349,35363,35377,35391,35404,35419,35434,35448,35460,35473,35488,35504,35519,35535,35550,35563,35577,35591,35604,35619,35634,35648,35662,35675,35690,35703,35718,35733,35746,35760,35775,35788,35802,35817,35832,35846,35860,35872,35886,35901,35915,35931,35948,35963,35975,35989,36004,36017,36033,36048,36064,36079,36093,36113,36125,36141,36154,36168,36183,36195,36212,36226,36239,36253,36265,36282,36295,36310,36323,36337,36353,36369,36385,36400,36416,36432],"hit":[null],"x":[-1.8639455782312926,-1.8639455782312926,-1.8639455782312926,-1.8639455782312926,-1.8639455782312926,-1.8639455782312926,-1.8639455782312926,-1.8639455782312926,-1.8639455782312926,-1.8639455782312926,-1.8639455782312926,-1.8639455782312926,-1.8639455782312926,-1.8639455782312926,-1.8639455782312926,-1.8639455782312926,-1.8639455782312926,-1.8639455782312926,-1.8639455782312926,-1.8639455782312926,-1.8639455782312926,-1.8639455782312926,-1.8639455782312926,-1.8639455782312926,-1.8639455782312926,-1.8639455782312926,-1.8639455782312926,-1.8639455782312926,0.030612244897959183,0.027210884353741496,0.02040816326530612,0.017006802721088437,0.017006802721088437,0.017006802721088437,0.027210884353741496,0.04421768707482993,0.061224489795918366,0.0782312925170068,0.08503401360544217,0.09523809523809523,0.10204081632653061,0.10204081632653061,0.10204081632653061,0.10204081632653061,0.10204081632653061,0.10204081632653061,0.10204081632653061,0.10204081632653061,0.10204081632653061,0.10204081632653061,0.10204081632653061,0.10204081632653061,0.10204081632653061,0.10204081632653061,0.10204081632653061,0.10204081632653061,0.10204081632653061,0.10204081632653061,0.10204081632653061,0.10204081632653061,0.10204081632653061,0.10204081632653061,0.10204081632653061,0.10204081632653061,0.10204081632653061,0.10204081632653061,0.10204081632653061,0.10204081632653061,0.10884353741496598,0.11564625850340136,0.12585034013605442,0.1326530612244898,0.1360544217687075,0.14285714285714285,0.14965986394557823,0.15306122448979592,0.1564625850340136,0.1564625850340136,0.1564625850340136,0.1564625850340136,0.1564625850340136,0.1564625850340136,0.1564625850340136,0.1564625850340136,0.1564625850340136,0.1564625850340136,0.1564625850340136,0.1564625850340136,0.1564625850340136,0.1564625850340136,0.1564625850340136,0.1564625850340136,0.1564625850340136,0.1564625850340136,0.1564625850340136,0.1564625850340136,0.1564625850340136,0.1564625850340136,0.1564625850340136,0.1564625850340136,0.1564625850340136,0.1564625850340136,0.1564625850340136,0.1564625850340136,0.1564625850340136,0.1564625850340136,0.1564625850340136,0.1564625850340136,0.1564625850340136,0.1564625850340136,0.1564625850340136,0.1564625850340136,0.1564625850340136,0.1564625850340136,0.1564625850340136,0.1564625850340136,0.1564625850340136,0.1564625850340136,0.1564625850340136,0.1564625850340136,0.1564625850340136,0.1564625850340136,0.1564625850340136,0.1564625850340136,0.1564625850340136,0.1564625850340136,0.1564625850340136,0.1564625850340136,0.1564625850340136,0.1564625850340136,0.1564625850340136,0.1564625850340136,0.1564625850340136,0.1564625850340136,0.1564625850340136,0.1564625850340136,0.1564625850340136,0.1564625850340136,0.1564625850340136,0.1564625850340136,0.1564625850340136,0.1564625850340136,0.1564625850340136,0.1564625850340136,0.1564625850340136,0.1564625850340136,0.1564625850340136,0.1564625850340136,0.1564625850340136,0.1564625850340136,0.1564625850340136,0.1564625850340136,0.1564625850340136,0.1564625850340136,0.1564625850340136,0.1564625850340136,0.1564625850340136,0.1564625850340136,0.1564625850340136,0.1564625850340136,0.1564625850340136,0.1564625850340136,0.1564625850340136,0.1564625850340136,0.1564625850340136,0.1564625850340136,0.1564625850340136,0.1564625850340136,0.1564625850340136,0.1564625850340136,0.1564625850340136,0.1564625850340136,0.1564625850340136,0.1564625850340136,0.1564625850340136,0.1564625850340136,0.1564625850340136,0.1564625850340136,0.1564625850340136,0.1564625850340136,0.1564625850340136,0.1564625850340136,0.1564625850340136,0.1564625850340136,0.1564625850340136,0.1564625850340136,0.1564625850340136,0.1564625850340136,0.1564625850340136,0.1564625850340136,0.1564625850340136,0.1564625850340136,0.1564625850340136,0.1564625850340136,0.1564625850340136,0.1564625850340136,0.1564625850340136,0.1564625850340136,0.1564625850340136,0.1564625850340136,0.1564625850340136,0.1564625850340136,0.1564625850340136,0.1564625850340136,0.1564625850340136,0.1564625850340136,0.1564625850340136,0.1564625850340136,0.1564625850340136,0.1564625850340136,0.1564625850340136,0.1564625850340136,0.1564625850340136,0.1564625850340136,0.1564625850340136,0.1564625850340136,0.1564625850340136,0.1564625850340136,0.1564625850340136,0.1564625850340136,0.1564625850340136,0.1564625850340136,0.1564625850340136,0.1564625850340136,0.1564625850340136,0.1564625850340136,0.1564625850340136,0.1564625850340136,0.1564625850340136,0.1564625850340136,0.1564625850340136,0.1564625850340136,0.1564625850340136,0.1564625850340136,0.1564625850340136,0.1564625850340136,0.1564625850340136,0.1564625850340136,0.1564625850340136,0.1564625850340136,0.1564625850340136,0.1564625850340136,0.1564625850340136,0.1564625850340136,0.1564625850340136,0.1564625850340136,0.1564625850340136,0.1564625850340136,0.1564625850340136,0.1564625850340136,0.1564625850340136,0.1564625850340136,0.1564625850340136,0.1564625850340136,0.1564625850340136,0.1564625850340136,0.1564625850340136,0.1564625850340136,0.1564625850340136,0.1564625850340136,0.1564625850340136,0.1564625850340136,0.1564625850340136,0.1564625850340136,0.1564625850340136,0.1564625850340136,0.1564625850340136,0.1564625850340136,0.1564625850340136,0.1564625850340136,0.1564625850340136,0.1564625850340136,0.1564625850340136,0.1564625850340136,0.1564625850340136,0.1564625850340136,0.1564625850340136,0.1564625850340136,0.1564625850340136,0.1564625850340136,0.1564625850340136,0.1564625850340136,0.1564625850340136,0.1564625850340136,0.1564625850340136,0.1564625850340136,0.1564625850340136,0.1564625850340136,0.1564625850340136,0.1564625850340136,0.1564625850340136,0.1564625850340136,0.1564625850340136,0.1564625850340136,0.1564625850340136,0.1564625850340136,0.1564625850340136,0.1564625850340136,0.1564625850340136,0.1564625850340136,0.1564625850340136,0.1564625850340136,0.1564625850340136,0.1564625850340136,0.1564625850340136,0.1564625850340136,0.1564625850340136,0.1564625850340136,0.1564625850340136,0.1564625850340136,0.1564625850340136,0.1564625850340136,0.1564625850340136,0.1564625850340136,0.1564625850340136,0.1564625850340136,0.1564625850340136,0.1564625850340136,0.1564625850340136,0.1564625850340136,0.1564625850340136,0.1564625850340136,0.1564625850340136,0.1564625850340136,0.1564625850340136,0.1564625850340136,0.1564625850340136,0.1564625850340136,0.1564625850340136,0.1564625850340136,0.1564625850340136,0.1564625850340136,0.1564625850340136,0.1564625850340136,0.1564625850340136,0.1564625850340136,0.1564625850340136,0.1564625850340136,0.1564625850340136,0.1564625850340136,0.1564625850340136,0.1564625850340136,0.1564625850340136,0.1564625850340136,0.1564625850340136,0.1564625850340136,0.1564625850340136,0.1564625850340136,0.1564625850340136,0.1564625850340136,0.1564625850340136,0.1564625850340136,0.1564625850340136,0.1564625850340136,0.1564625850340136,0.1564625850340136,0.1564625850340136,0.1564625850340136,0.1564625850340136,0.1564625850340136,0.1564625850340136,0.1564625850340136,0.1564625850340136,0.1564625850340136,0.1564625850340136,0.1564625850340136,0.1564625850340136,0.1564625850340136,0.1564625850340136,0.1564625850340136,0.1564625850340136,0.1564625850340136,0.1564625850340136,0.16326530612244897,0.19047619047619047,0.22448979591836735,0.2653061224489796,0.3401360544217687,0.4897959183673469,0.6326530612244898,0.7482993197278912,0.8877551020408163,1.0442176870748299,1.0918367346938775,1.163265306122449,1.1734693877551021,1.2108843537414966,1.2210884353741496,1.2210884353741496,1.2210884353741496,1.2210884353741496,1.2210884353741496,1.2210884353741496,1.2210884353741496,1.2210884353741496,1.2210884353741496,1.2210884353741496,1.2210884353741496,1.2210884353741496,1.2210884353741496,1.2210884353741496,1.2210884353741496,1.2210884353741496,1.2210884353741496,1.2210884353741496,1.2210884353741496,1.2210884353741496,1.2210884353741496,1.2210884353741496,1.2210884353741496,1.2210884353741496,1.2210884353741496,1.2210884353741496,1.2210884353741496,1.2210884353741496,1.2210884353741496,1.2210884353741496,1.2210884353741496,1.2210884353741496,1.2210884353741496,1.2210884353741496,1.2210884353741496,1.2210884353741496,1.2210884353741496,1.2210884353741496,1.2210884353741496,1.2210884353741496,1.2210884353741496,1.217687074829932,1.2006802721088434,1.1802721088435375,1.1326530612244898,1.0748299319727892,1.0374149659863945,0.9897959183673469,0.9115646258503401,0.8877551020408163,0.8775510204081632,0.8775510204081632,0.8775510204081632,0.8775510204081632,0.8775510204081632,0.8775510204081632,0.8775510204081632,0.8775510204081632,0.8775510204081632,0.8775510204081632,0.8775510204081632,0.8775510204081632,0.8775510204081632,0.8775510204081632,0.8775510204081632,0.8775510204081632,0.8775510204081632,0.8775510204081632,0.8775510204081632,0.8775510204081632,0.8775510204081632,0.8775510204081632,0.8775510204081632,0.8775510204081632,0.8775510204081632,0.8775510204081632,0.8775510204081632,0.8775510204081632,0.8775510204081632,0.8775510204081632,0.8775510204081632,0.8775510204081632,0.8775510204081632,0.8775510204081632,0.8775510204081632,0.8775510204081632,0.8775510204081632,0.8775510204081632,0.8775510204081632,0.8775510204081632,0.8775510204081632,0.8775510204081632,0.8775510204081632,0.8775510204081632,0.8775510204081632,0.8775510204081632,0.8775510204081632,0.8775510204081632,0.8775510204081632,0.8775510204081632,0.8775510204081632,0.8775510204081632,0.8775510204081632,0.8775510204081632,0.8775510204081632,0.8775510204081632,0.8775510204081632,0.8775510204081632,0.8775510204081632,0.8775510204081632,0.8775510204081632,0.8775510204081632,0.8775510204081632,0.8775510204081632,0.8775510204081632,0.8775510204081632,0.8775510204081632,0.8775510204081632,0.8775510204081632,0.8775510204081632,0.8775510204081632,0.8775510204081632,0.8775510204081632,0.8775510204081632,0.8775510204081632,0.8775510204081632,0.8775510204081632,0.8775510204081632,0.8775510204081632,0.8775510204081632,0.8775510204081632,0.8775510204081632,0.8775510204081632,0.8775510204081632,0.8775510204081632,0.8775510204081632,0.8775510204081632,0.8775510204081632,0.8775510204081632,0.8775510204081632,0.8775510204081632,0.8775510204081632,0.8809523809523809,0.9013605442176871,0.9115646258503401,0.9149659863945578,0.9149659863945578,0.9149659863945578,0.9115646258503401,0.9081632653061225,0.9047619047619048,0.9047619047619048,0.8979591836734694,0.8843537414965986,0.8503401360544217,0.8163265306122449,0.7482993197278912,0.673469387755102,0.5408163265306123,0.40816326530612246,0.2585034013605442,0.17006802721088435,0.09863945578231292,0.05782312925170068,0.030612244897959183,0.017006802721088437,0.013605442176870748,0.013605442176870748,0.013605442176870748,0.013605442176870748,0.013605442176870748,0.013605442176870748,0.013605442176870748,0.013605442176870748,0.013605442176870748,0.013605442176870748,0.013605442176870748,0.013605442176870748,0.013605442176870748,0.013605442176870748,0.013605442176870748,0.013605442176870748,0.013605442176870748,0.013605442176870748,0.013605442176870748,0.01020408163265306,0.01020408163265306,0.01020408163265306,0.006802721088435374,0.006802721088435374,0.006802721088435374,0.003401360544217687,0.003401360544217687,-0.003401360544217687,-0.01020408163265306,-0.017006802721088437,-0.034013605442176874,-0.04421768707482993,-0.05102040816326531,-0.05102040816326531,-0.05102040816326531,-0.034013605442176874,-0.02040816326530612,0.003401360544217687,0.027210884353741496,0.04421768707482993,0.061224489795918366,0.06802721088435375,0.06802721088435375,0.06802721088435375,0.06802721088435375,0.06802721088435375,0.06802721088435375,0.06802721088435375,0.06802721088435375,0.06802721088435375,0.06802721088435375,0.06802721088435375,0.06802721088435375,0.06802721088435375,0.06802721088435375,0.06802721088435375,0.06802721088435375,0.07482993197278912,0.09183673469387756,0.10204081632653061,0.11564625850340136,0.12585034013605442,0.14285714285714285,0.1598639455782313,0.19727891156462585,0.24829931972789115,0.3197278911564626,0.40816326530612246,0.5068027210884354,0.608843537414966,0.673469387755102,0.7346938775510204,0.7653061224489796,0.7891156462585034,0.7891156462585034,0.7891156462585034,0.7891156462585034,0.7891156462585034,0.7891156462585034,0.7891156462585034,0.7891156462585034,0.7891156462585034,0.7891156462585034,0.7891156462585034,0.7891156462585034,0.7891156462585034,0.7891156462585034,0.7891156462585034,0.8095238095238095,0.8231292517006803,0.8639455782312925,0.9523809523809523,1.054421768707483,1.1598639455782314,1.2244897959183674,1.2891156462585034,1.3129251700680271,1.3265306122448979,1.3265306122448979,1.3265306122448979,1.3265306122448979,1.3265306122448979,1.3265306122448979,1.3265306122448979,1.3265306122448979,1.3265306122448979,1.3265306122448979,1.3265306122448979,1.3265306122448979,1.3265306122448979,1.3265306122448979,1.3265306122448979,1.3265306122448979,1.3265306122448979,1.3265306122448979,1.3265306122448979,1.3265306122448979,1.3265306122448979,1.3265306122448979,1.3265306122448979,1.3265306122448979,1.3265306122448979,1.3265306122448979,1.3265306122448979,1.3265306122448979,1.3265306122448979,1.3265306122448979,1.3265306122448979,1.3265306122448979,1.3197278911564625,1.2619047619047619,1.1428571428571428,0.95578231292517,0.7448979591836735,0.5952380952380952,0.5408163265306123,0.46258503401360546,0.445578231292517,0.445578231292517,0.445578231292517,0.445578231292517,0.445578231292517,0.445578231292517,0.445578231292517,0.445578231292517,0.445578231292517,0.445578231292517,0.445578231292517,0.445578231292517,0.445578231292517,0.445578231292517,0.445578231292517,0.445578231292517,0.445578231292517,0.43537414965986393,0.42517006802721086,0.391156462585034,0.35714285714285715,0.3197278911564626,0.2857142857142857,0.25170068027210885,0.21428571428571427,0.18027210884353742,0.1598639455782313,0.1360544217687075,0.11904761904761904,0.1054421768707483,0.09523809523809523,0.08503401360544217,0.08163265306122448,0.0782312925170068,0.0782312925170068,0.07482993197278912,0.07482993197278912,0.07482993197278912,0.07482993197278912,0.06802721088435375,0.05442176870748299,0.05102040816326531,0.034013605442176874,0.02040816326530612,0.006802721088435374,0,-0.01020408163265306,-0.013605442176870748,-0.013605442176870748,-0.017006802721088437,-0.017006802721088437,-0.017006802721088437,-0.017006802721088437,-0.017006802721088437,-0.017006802721088437,-0.017006802721088437,-0.017006802721088437,-0.017006802721088437,-0.017006802721088437,-0.017006802721088437,-0.017006802721088437,-0.013605442176870748,-0.01020408163265306,-0.01020408163265306,-0.01020408163265306,-0.01020408163265306,-0.01020408163265306,-0.01020408163265306,-0.01020408163265306,-0.01020408163265306,-0.01020408163265306,-0.01020408163265306,-0.01020408163265306,-0.01020408163265306,-0.01020408163265306,-0.01020408163265306,-0.01020408163265306,-0.01020408163265306,-0.01020408163265306,-0.01020408163265306,-0.01020408163265306,-0.01020408163265306,-0.01020408163265306,-0.01020408163265306,-0.01020408163265306,-0.01020408163265306,-0.01020408163265306,-0.01020408163265306,-0.01020408163265306,-0.01020408163265306,-0.01020408163265306,-0.01020408163265306,-0.01020408163265306,-0.01020408163265306,0,0.006802721088435374,0.03741496598639456,0.08163265306122448,0.1292517006802721,0.16326530612244897,0.20408163265306123,0.23469387755102042,0.24829931972789115,0.2619047619047619,0.2653061224489796,0.2687074829931973,0.272108843537415,0.272108843537415,0.272108843537415,0.272108843537415,0.272108843537415,0.272108843537415,0.272108843537415,0.272108843537415,0.272108843537415,0.272108843537415,0.272108843537415,0.272108843537415,0.272108843537415,0.272108843537415,0.272108843537415,0.272108843537415,0.272108843537415,0.272108843537415,0.272108843537415,0.272108843537415,0.272108843537415,0.272108843537415,0.272108843537415,0.272108843537415,0.272108843537415,0.272108843537415,0.272108843537415,0.272108843537415,0.272108843537415,0.272108843537415,0.272108843537415,0.272108843537415,0.272108843537415,0.272108843537415,0.272108843537415,0.272108843537415,0.272108843537415,0.272108843537415,0.272108843537415,0.272108843537415,0.272108843537415,0.272108843537415,0.272108843537415,0.272108843537415,0.272108843537415,0.272108843537415,0.272108843537415,0.272108843537415,0.272108843537415,0.272108843537415,0.272108843537415,0.272108843537415,0.272108843537415,0.272108843537415,0.272108843537415,0.272108843537415,0.272108843537415,0.272108843537415,0.272108843537415,0.272108843537415,0.272108843537415,0.272108843537415,0.272108843537415,0.2755102040816326,0.2789115646258503,0.2857142857142857,0.2925170068027211,0.29931972789115646,0.30612244897959184,0.3129251700680272,0.3129251700680272,0.3163265306122449,0.3163265306122449,0.3163265306122449,0.3163265306122449,0.3163265306122449,0.3163265306122449,0.3163265306122449,0.3163265306122449,0.3163265306122449,0.3163265306122449,0.3163265306122449,0.3163265306122449,0.3163265306122449,0.3163265306122449,0.3197278911564626,0.3231292517006803,0.32653061224489793,0.3299319727891156,0.3333333333333333,0.336734693877551,0.336734693877551,0.336734693877551,0.336734693877551,0.336734693877551,0.336734693877551,0.336734693877551,0.336734693877551,0.336734693877551,0.336734693877551,0.336734693877551,0.336734693877551,0.336734693877551,0.336734693877551,0.336734693877551,0.336734693877551,0.336734693877551,0.336734693877551,0.336734693877551,0.336734693877551,0.336734693877551,0.336734693877551,0.336734693877551,0.336734693877551,0.336734693877551,0.336734693877551,0.336734693877551,0.336734693877551,0.336734693877551,0.336734693877551,0.3401360544217687,0.3401360544217687,0.3401360544217687,0.3435374149659864,0.3435374149659864,0.3435374149659864,0.3435374149659864,0.3435374149659864,0.3435374149659864,0.3435374149659864,0.3435374149659864,0.3435374149659864,0.3435374149659864,0.3435374149659864,0.3435374149659864,0.3435374149659864,0.3435374149659864,0.3435374149659864,0.3435374149659864,0.3435374149659864,0.3435374149659864,0.3435374149659864,0.3435374149659864,0.3435374149659864,0.3435374149659864,0.3435374149659864,0.3469387755102041,0.35374149659863946,0.36054421768707484,0.3877551020408163,0.42517006802721086,0.46598639455782315,0.5136054421768708,0.5578231292517006,0.5952380952380952,0.6156462585034014,0.6428571428571429,0.6428571428571429,0.6428571428571429,0.6428571428571429,0.6428571428571429,0.6428571428571429,0.6428571428571429,0.6428571428571429,0.6428571428571429,0.6428571428571429,0.6428571428571429,0.6428571428571429,0.6428571428571429,0.6428571428571429,0.6428571428571429,0.6428571428571429,0.6428571428571429,0.6428571428571429,0.6428571428571429,0.6428571428571429,0.6428571428571429,0.6428571428571429,0.6428571428571429,0.6428571428571429,0.6428571428571429,0.6462585034013606,0.673469387755102,0.7142857142857143,0.7517006802721088,0.7993197278911565,0.8231292517006803,0.8469387755102041,0.8605442176870748,0.8605442176870748,0.8605442176870748,0.8605442176870748,0.8605442176870748,0.8605442176870748,0.8605442176870748,0.8605442176870748,0.8605442176870748,0.8605442176870748,0.8605442176870748,0.8605442176870748,0.8605442176870748,0.8605442176870748,0.8775510204081632,0.891156462585034,0.9421768707482994,1.0204081632653061,1.1122448979591837,1.1428571428571428,1.183673469387755,1.2040816326530612,1.2108843537414966,1.2108843537414966,1.2108843537414966,1.2108843537414966,1.2040816326530612,1.1938775510204083,1.1904761904761905,1.1802721088435375,1.1734693877551021,1.1700680272108843,1.1666666666666667,1.1666666666666667,1.163265306122449,1.163265306122449,1.163265306122449,1.163265306122449,1.163265306122449,1.163265306122449,1.163265306122449,1.163265306122449,1.163265306122449,1.163265306122449,1.163265306122449,1.163265306122449,1.163265306122449,1.163265306122449,1.163265306122449,1.163265306122449,1.163265306122449,1.163265306122449,1.163265306122449,1.163265306122449,1.163265306122449,1.163265306122449,1.163265306122449,1.163265306122449,1.163265306122449,1.163265306122449,1.163265306122449,1.163265306122449,1.163265306122449,1.163265306122449,1.163265306122449,1.163265306122449,1.163265306122449,1.163265306122449,1.163265306122449,1.163265306122449,1.163265306122449,1.163265306122449,1.163265306122449,1.163265306122449,1.163265306122449,1.163265306122449,1.163265306122449,1.163265306122449,1.163265306122449,1.163265306122449,1.163265306122449,1.163265306122449,1.163265306122449,1.163265306122449,1.1666666666666667,1.1870748299319729,1.2040816326530612,1.2244897959183674,1.2380952380952381,1.248299319727891,1.2551020408163265,1.2585034013605443,1.2619047619047619,1.2619047619047619,1.2619047619047619,1.2619047619047619,1.2619047619047619,1.2619047619047619,1.2619047619047619,1.2619047619047619,1.2619047619047619,1.2619047619047619,1.2619047619047619,1.2619047619047619,1.2619047619047619,1.2619047619047619,1.2619047619047619,1.2619047619047619,1.2619047619047619,1.2619047619047619,1.2619047619047619,1.2619047619047619,1.2619047619047619,1.2619047619047619,1.2619047619047619,1.2619047619047619,1.2619047619047619,1.2619047619047619,1.2619047619047619,1.2619047619047619,1.2619047619047619,1.2619047619047619,1.2619047619047619,1.2619047619047619,1.2619047619047619,1.2619047619047619,1.2619047619047619,1.2619047619047619,1.2619047619047619,1.2619047619047619,1.2619047619047619,1.2619047619047619,1.2619047619047619,1.2619047619047619,1.2619047619047619,1.2619047619047619,1.2619047619047619,1.2619047619047619,1.2619047619047619,1.2653061224489797,1.2653061224489797,1.2687074829931972,1.2789115646258504,1.2857142857142858,1.2925170068027212,1.3027210884353742,1.316326530612245,1.3265306122448979,1.3401360544217686,1.346938775510204,1.3503401360544218,1.3537414965986394,1.3537414965986394,1.3537414965986394,1.3537414965986394,1.3537414965986394,1.3537414965986394,1.3537414965986394,1.3537414965986394,1.3537414965986394,1.3537414965986394,1.3537414965986394,1.3537414965986394,1.3537414965986394,1.3537414965986394,1.3537414965986394,1.3537414965986394,1.3537414965986394,1.3537414965986394,1.3537414965986394,1.3537414965986394,1.3503401360544218,1.346938775510204,1.336734693877551,1.336734693877551,1.336734693877551,1.336734693877551,1.346938775510204,1.3537414965986394,1.3537414965986394,1.3537414965986394,1.3537414965986394,1.3537414965986394,1.3537414965986394,1.3537414965986394,1.3537414965986394,1.3537414965986394,1.3537414965986394,1.3537414965986394,1.3537414965986394,1.3537414965986394,1.3537414965986394,1.3537414965986394,1.3537414965986394,1.3537414965986394,1.336734693877551,1.2891156462585034,1.2585034013605443,1.1768707482993197,1.0816326530612246,1.0170068027210883,0.9455782312925171,0.9115646258503401,0.8809523809523809,0.8707482993197279,0.8639455782312925,0.8639455782312925,0.8639455782312925,0.8639455782312925,0.8639455782312925,0.8639455782312925,0.8639455782312925,0.8639455782312925,0.8639455782312925,0.8639455782312925,0.8639455782312925,0.8639455782312925,0.8639455782312925,0.8639455782312925,0.8639455782312925,0.8639455782312925,0.8639455782312925,0.8571428571428571,0.826530612244898,0.8061224489795918,0.7380952380952381,0.6564625850340136,0.5952380952380952,0.5238095238095238,0.4557823129251701,0.4013605442176871,0.35374149659863946,0.32653061224489793,0.30272108843537415,0.2857142857142857,0.2755102040816326,0.2687074829931973,0.2687074829931973,0.2653061224489796,0.2653061224489796,0.2653061224489796,0.2653061224489796,0.2653061224489796,0.2653061224489796,0.2653061224489796,0.2653061224489796,0.2653061224489796,0.272108843537415,0.2925170068027211,0.32653061224489793,0.36394557823129253,0.40816326530612246,0.4523809523809524,0.4897959183673469,0.5374149659863946,0.5816326530612245,0.6190476190476191,0.6632653061224489,0.7074829931972789,0.7448979591836735,0.7755102040816326,0.7891156462585034,0.7959183673469388,0.7959183673469388,0.7993197278911565,0.7993197278911565,0.7993197278911565,0.7993197278911565,0.7925170068027211,0.7857142857142857,0.7755102040816326,0.7687074829931972,0.7619047619047619,0.7585034013605442,0.7551020408163265,0.7517006802721088,0.7482993197278912,0.7448979591836735,0.7414965986394558,0.7414965986394558,0.7414965986394558,0.7380952380952381,0.7380952380952381,0.7380952380952381,0.7380952380952381,0.7380952380952381,0.7380952380952381,0.7380952380952381,0.7380952380952381,0.7380952380952381,0.7380952380952381,0.7380952380952381,0.7380952380952381,0.7380952380952381,0.7380952380952381,0.7380952380952381,0.7380952380952381,0.7380952380952381,0.7380952380952381,0.7380952380952381,0.7380952380952381,0.7380952380952381,0.7380952380952381,0.7380952380952381,0.7380952380952381,0.7380952380952381,0.7380952380952381,0.7380952380952381,0.7380952380952381,0.7380952380952381,0.7380952380952381,0.7414965986394558,0.7755102040816326,0.826530612244898,0.9387755102040817,1.034013605442177,1.153061224489796,1.251700680272109,1.2993197278911566,1.3401360544217686,1.3673469387755102,1.370748299319728,1.370748299319728,1.370748299319728,1.370748299319728,1.370748299319728,1.370748299319728,1.370748299319728,1.370748299319728,1.370748299319728,1.370748299319728,1.370748299319728,1.370748299319728,1.370748299319728,1.370748299319728,1.370748299319728,1.370748299319728,1.370748299319728,1.370748299319728,1.370748299319728,1.370748299319728,1.370748299319728,1.370748299319728,1.370748299319728,1.370748299319728,1.370748299319728,1.370748299319728,1.370748299319728,1.370748299319728,1.370748299319728,1.370748299319728,1.370748299319728,1.370748299319728,1.370748299319728,1.370748299319728,1.370748299319728,1.370748299319728,1.370748299319728,1.370748299319728,1.370748299319728,1.370748299319728,1.3741496598639455,1.3741496598639455,1.3775510204081634,1.3775510204081634,1.380952380952381,1.380952380952381,1.380952380952381,1.380952380952381,1.380952380952381,1.3843537414965987,1.3843537414965987,1.3843537414965987,1.3843537414965987,1.3877551020408163,1.3877551020408163,1.3877551020408163,1.3877551020408163,1.3877551020408163,1.3877551020408163,1.3877551020408163,1.3877551020408163,1.3877551020408163,1.3877551020408163,1.3877551020408163,1.3877551020408163,1.3877551020408163,1.3877551020408163,1.3877551020408163,1.3877551020408163,1.3877551020408163,1.3877551020408163,1.3877551020408163,1.3877551020408163,1.3877551020408163,1.3877551020408163,1.3877551020408163,1.3877551020408163,1.3877551020408163,1.3877551020408163,1.3877551020408163,1.3877551020408163,1.3877551020408163,1.3877551020408163,1.3877551020408163,1.3877551020408163,1.3877551020408163,1.3877551020408163,1.3877551020408163,1.3877551020408163,1.3877551020408163,1.3877551020408163,1.3877551020408163,1.3877551020408163,1.3877551020408163,1.3877551020408163,1.3877551020408163,1.3877551020408163,1.3877551020408163,1.3877551020408163,1.3877551020408163,1.3877551020408163,1.3877551020408163,1.3877551020408163,1.3877551020408163,1.3877551020408163,1.3877551020408163,1.3877551020408163,1.3877551020408163,1.3877551020408163,1.3877551020408163,1.3877551020408163,1.3877551020408163,1.3877551020408163,1.3877551020408163,1.3877551020408163,1.3877551020408163,1.3877551020408163,1.3877551020408163,1.3877551020408163,1.3877551020408163,1.3877551020408163,1.3877551020408163,1.3877551020408163,1.3877551020408163,1.3877551020408163,1.3877551020408163,1.3877551020408163,1.3877551020408163,1.3877551020408163,1.3877551020408163,1.3877551020408163,1.3877551020408163,1.3877551020408163,1.3877551020408163,1.3877551020408163,1.3877551020408163,1.3877551020408163,1.3877551020408163,1.3877551020408163,1.3877551020408163,1.3877551020408163,1.3877551020408163,1.3877551020408163,1.3877551020408163,1.3877551020408163,1.3877551020408163,1.3877551020408163,1.3877551020408163,1.3877551020408163,1.3877551020408163,1.3877551020408163,1.3877551020408163,1.3877551020408163,1.3877551020408163,1.3877551020408163,1.3877551020408163,1.3877551020408163,1.3877551020408163,1.3877551020408163,1.3877551020408163,1.3877551020408163,1.3877551020408163,1.3877551020408163,1.3877551020408163,1.3877551020408163,1.3877551020408163,1.3877551020408163,1.3877551020408163,1.3877551020408163,1.3877551020408163,1.3877551020408163,1.3877551020408163,1.3877551020408163,1.3877551020408163,1.3877551020408163,1.3877551020408163,1.3877551020408163,1.3877551020408163,1.3877551020408163,1.3877551020408163,1.3877551020408163,1.3877551020408163,1.3877551020408163,1.3877551020408163,1.3877551020408163,1.3877551020408163,1.3877551020408163,1.3877551020408163,1.3877551020408163,1.3877551020408163,1.3877551020408163,1.3877551020408163,1.3877551020408163,1.3877551020408163,1.3877551020408163,1.3877551020408163,1.3877551020408163,1.3877551020408163,1.3877551020408163,1.3877551020408163,1.3877551020408163,1.3877551020408163,1.3877551020408163,1.3877551020408163,1.3877551020408163,1.3877551020408163,1.3877551020408163,1.3877551020408163,1.3877551020408163,1.3877551020408163,1.3877551020408163,1.3877551020408163,1.3877551020408163,1.3877551020408163,1.3877551020408163,1.3877551020408163,1.3877551020408163,1.3877551020408163,1.3877551020408163,1.3877551020408163,1.3877551020408163,1.3877551020408163,1.3877551020408163,1.3877551020408163,1.3877551020408163,1.3877551020408163,1.3877551020408163,1.3877551020408163,1.3877551020408163,1.3877551020408163,1.3877551020408163,1.3877551020408163,1.3877551020408163,1.3877551020408163,1.3877551020408163,1.3877551020408163,1.3877551020408163,1.3877551020408163,1.3877551020408163,1.3877551020408163,1.3877551020408163,1.3877551020408163,1.3877551020408163,1.3877551020408163,1.3877551020408163,1.3877551020408163,1.3877551020408163,1.3877551020408163,1.3877551020408163,1.3877551020408163,1.3877551020408163,1.3877551020408163,1.3877551020408163,1.3877551020408163,1.3877551020408163,1.3877551020408163,1.3877551020408163,1.3877551020408163,1.3877551020408163,1.3877551020408163,1.3877551020408163,1.3877551020408163,1.3877551020408163,1.3877551020408163,1.3877551020408163,1.3877551020408163,1.3877551020408163,1.3877551020408163,1.3877551020408163,1.3877551020408163,1.3877551020408163,1.3877551020408163,1.3877551020408163,1.3877551020408163,1.3877551020408163,1.3877551020408163,1.3877551020408163,1.3877551020408163,1.3877551020408163,1.3877551020408163,1.3877551020408163,1.3877551020408163,1.3877551020408163,1.3877551020408163,1.3877551020408163,1.3877551020408163,1.3877551020408163,1.3877551020408163,1.3877551020408163,1.3877551020408163,1.3877551020408163,1.3877551020408163,1.3877551020408163,1.3877551020408163,1.3877551020408163,1.3877551020408163,1.3877551020408163,1.3877551020408163,1.3877551020408163,1.3877551020408163,1.3877551020408163,1.3877551020408163,1.3877551020408163,1.3877551020408163,1.3877551020408163,1.3877551020408163,1.3877551020408163,1.3877551020408163,1.3877551020408163,1.3877551020408163,1.3877551020408163,1.3877551020408163,1.3877551020408163,1.3877551020408163,1.3877551020408163,1.3877551020408163,1.3877551020408163,1.3877551020408163,1.3877551020408163,1.3877551020408163,1.3877551020408163,1.3877551020408163,1.3877551020408163,1.3877551020408163,1.3877551020408163,1.3877551020408163,1.3877551020408163,1.3877551020408163,1.3877551020408163,1.3877551020408163,1.3877551020408163,1.3877551020408163,1.3877551020408163,1.3877551020408163,1.3877551020408163,1.3877551020408163,1.3877551020408163,1.3877551020408163,1.3877551020408163,1.3877551020408163,1.3877551020408163,1.3877551020408163,1.3877551020408163,1.3877551020408163,1.3877551020408163,1.3877551020408163,1.3877551020408163,1.3877551020408163,1.3877551020408163,1.3877551020408163,1.3877551020408163,1.3877551020408163,1.3877551020408163,1.3877551020408163,1.3877551020408163,1.3877551020408163,1.3877551020408163,1.3877551020408163,1.3877551020408163,1.3877551020408163,1.3877551020408163,1.3877551020408163,1.3877551020408163,1.3877551020408163,1.3877551020408163,1.3877551020408163,1.3877551020408163,1.3877551020408163,1.3877551020408163,1.3877551020408163,1.3877551020408163,1.3877551020408163,1.3877551020408163,1.3877551020408163,1.3877551020408163,1.3877551020408163,1.3877551020408163,1.3877551020408163,1.3877551020408163,1.3877551020408163,1.3877551020408163,1.3877551020408163,1.3877551020408163,1.3877551020408163,1.3877551020408163,1.3877551020408163,1.3877551020408163,1.3877551020408163,1.3877551020408163,1.3877551020408163,1.3877551020408163,1.3877551020408163,1.3877551020408163,1.3877551020408163,1.3877551020408163,1.3877551020408163,1.3877551020408163,1.3877551020408163,1.3877551020408163,1.3877551020408163,1.3877551020408163,1.3877551020408163,1.3877551020408163,1.3877551020408163,1.3877551020408163,1.3877551020408163,1.3877551020408163,1.3877551020408163,1.3877551020408163,1.3843537414965987,1.370748299319728,1.3605442176870748,1.3095238095238095,1.2006802721088434,1.1156462585034013,1.0136054421768708,0.9523809523809523,0.8945578231292517,0.8673469387755102,0.8503401360544217,0.8401360544217688,0.8367346938775511,0.8367346938775511,0.8367346938775511,0.8367346938775511,0.8367346938775511,0.8367346938775511,0.8367346938775511,0.8367346938775511,0.8367346938775511,0.8367346938775511,0.8367346938775511,0.8367346938775511,0.8367346938775511,0.8367346938775511,0.8367346938775511,0.8231292517006803,0.7993197278911565,0.7789115646258503,0.7312925170068028,0.6768707482993197,0.6360544217687075,0.5986394557823129,0.5748299319727891,0.5578231292517006,0.5476190476190477,0.54421768707483,0.5408163265306123,0.5408163265306123,0.5408163265306123,0.5408163265306123,0.5408163265306123,0.5476190476190477,0.5612244897959183,0.5850340136054422,0.6224489795918368,0.6632653061224489,0.6972789115646258,0.7210884353741497,0.7414965986394558,0.7517006802721088,0.7585034013605442,0.7585034013605442,0.7585034013605442,0.7585034013605442,0.7585034013605442,0.7585034013605442,0.7585034013605442,0.7585034013605442,0.7585034013605442,0.7585034013605442,0.7585034013605442,0.7585034013605442,0.7585034013605442,0.7585034013605442,0.7585034013605442,0.7585034013605442,0.7585034013605442,0.7585034013605442,0.7585034013605442,0.7585034013605442,0.7585034013605442,0.7585034013605442,0.7585034013605442,0.7585034013605442,0.7585034013605442,0.7585034013605442,0.7585034013605442,0.7585034013605442,0.7585034013605442,0.7585034013605442,0.7585034013605442,0.7585034013605442,0.7585034013605442,0.7585034013605442,0.7585034013605442,0.7585034013605442,0.7585034013605442,0.7585034013605442,0.7585034013605442,0.7585034013605442,0.7585034013605442,0.7585034013605442,0.7585034013605442,0.7585034013605442,0.7482993197278912,0.7244897959183674,0.6938775510204082,0.6462585034013606,0.6054421768707483,0.5510204081632653,0.5034013605442177,0.45918367346938777,0.4217687074829932,0.391156462585034,0.3673469387755102,0.3401360544217687,0.32653061224489793,0.3163265306122449,0.30952380952380953,0.30612244897959184,0.30612244897959184,0.30612244897959184,0.30952380952380953,0.32653061224489793,0.35034013605442177,0.37755102040816324,0.40476190476190477,0.43197278911564624,0.45918367346938777,0.48299319727891155,0.5102040816326531,0.5408163265306123,0.5680272108843537,0.5952380952380952,0.6156462585034014,0.6394557823129252,0.6700680272108843,0.7006802721088435,0.7244897959183674,0.7482993197278912,0.7653061224489796,0.7789115646258503,0.7789115646258503,0.7789115646258503,0.7789115646258503,0.7789115646258503,0.7789115646258503,0.7789115646258503,0.7789115646258503,0.7789115646258503,0.7789115646258503,0.7789115646258503,0.7789115646258503,0.7993197278911565,0.8503401360544217,0.95578231292517,1.054421768707483,1.0918367346938775,1.1360544217687074,1.1564625850340136,1.1598639455782314,1.1598639455782314,1.1496598639455782,1.1326530612244898,1.1156462585034013,1.0952380952380953,1.0816326530612246,1.0714285714285714,1.0612244897959184,1.0578231292517006,1.0510204081632653,1.0476190476190477,1.0442176870748299,1.0408163265306123,1.0374149659863945,1.0374149659863945,1.034013605442177,1.030612244897959,1.0272108843537415,1.0238095238095237,1.0204081632653061,1.0170068027210883,1.010204081632653,1.0068027210884354,1.0034013605442176,1,1,1,1,1,1,1,1,1,1,1,1,1,1,1,1,1,1,1,1,1,1,1,1,1,1,1,1,1,1,1,1,1,1,1,1,1,1,1,1,1,1,1,1,0.9897959183673469,0.9421768707482994,0.8367346938775511,0.6870748299319728,0.5850340136054422,0.46598639455782315,0.3741496598639456,0.3197278911564626,0.25510204081632654,0.22108843537414966,0.19387755102040816,0.18027210884353742,0.17687074829931973,0.17346938775510204,0.17346938775510204,0.17346938775510204,0.17346938775510204,0.17006802721088435,0.1598639455782313,0.14965986394557823,0.13945578231292516,0.1326530612244898,0.12585034013605442,0.12244897959183673,0.12244897959183673,0.12244897959183673,0.1360544217687075,0.18027210884353742,0.23809523809523808,0.3469387755102041,0.38095238095238093,0.4217687074829932,0.4557823129251701,0.46938775510204084,0.47619047619047616,0.47959183673469385,0.47959183673469385,0.47959183673469385,0.47959183673469385,0.47959183673469385,0.47959183673469385,0.48299319727891155,0.48299319727891155,0.48299319727891155,0.4931972789115646,0.5,0.5204081632653061,0.5476190476190477,0.564625850340136,0.5782312925170068,0.5850340136054422,0.5884353741496599,0.5884353741496599,0.5884353741496599,0.5884353741496599,0.5884353741496599,0.5884353741496599,0.5884353741496599,0.5850340136054422,0.5850340136054422,0.5850340136054422,0.5850340136054422,0.5850340136054422,0.5850340136054422,0.5850340136054422,0.5850340136054422,0.5850340136054422,0.5850340136054422,0.5850340136054422,0.5850340136054422,0.5850340136054422,0.5850340136054422,0.5850340136054422,0.5850340136054422,0.5850340136054422,0.5850340136054422,0.5850340136054422,0.5850340136054422,0.5850340136054422,0.5850340136054422,0.5850340136054422,0.5850340136054422,0.5850340136054422,0.5850340136054422,0.5850340136054422,0.5850340136054422,0.5850340136054422,0.5850340136054422,0.5850340136054422,0.5850340136054422,0.5850340136054422,0.5850340136054422,0.5850340136054422,0.5850340136054422,0.5850340136054422,0.5850340136054422,0.5850340136054422,0.5850340136054422,0.5850340136054422,0.5850340136054422,0.5816326530612245,0.5782312925170068,0.5748299319727891,0.5748299319727891,0.5748299319727891,0.5714285714285714,0.5714285714285714,0.5714285714285714,0.5714285714285714,0.5714285714285714,0.5714285714285714,0.5680272108843537,0.5680272108843537,0.564625850340136,0.564625850340136,0.564625850340136,0.564625850340136,0.564625850340136,0.564625850340136,0.564625850340136,0.564625850340136,0.564625850340136,0.564625850340136,0.564625850340136,0.564625850340136,0.564625850340136,0.564625850340136,0.564625850340136,0.564625850340136,0.564625850340136,0.564625850340136,0.564625850340136,0.564625850340136,0.564625850340136,0.564625850340136,0.564625850340136,0.564625850340136,0.564625850340136,0.564625850340136,0.564625850340136,0.564625850340136,0.564625850340136,0.564625850340136,0.564625850340136,0.564625850340136,0.564625850340136,0.564625850340136,0.564625850340136,0.564625850340136,0.564625850340136,0.564625850340136,0.564625850340136,0.564625850340136,0.564625850340136,0.564625850340136,0.564625850340136,0.564625850340136,0.5612244897959183,0.5510204081632653,0.5374149659863946,0.5170068027210885,0.4965986394557823,0.46938775510204084,0.445578231292517,0.41836734693877553,0.391156462585034,0.36394557823129253,0.3469387755102041,0.3299319727891156,0.3129251700680272,0.30272108843537415,0.2925170068027211,0.2891156462585034,0.2857142857142857,0.2857142857142857,0.2857142857142857,0.2925170068027211,0.30612244897959184,0.3231292517006803,0.3333333333333333,0.3469387755102041,0.35374149659863946,0.35714285714285715,0.36054421768707484,0.36054421768707484,0.36054421768707484,0.36394557823129253,0.36394557823129253,0.3673469387755102,0.3673469387755102,0.3707482993197279,0.3741496598639456,0.38095238095238093,0.3877551020408163,0.391156462585034,0.4013605442176871,0.40816326530612246,0.41496598639455784,0.4217687074829932,0.42517006802721086,0.42857142857142855,0.43197278911564624,0.43537414965986393,0.43537414965986393,0.4387755102040816,0.4387755102040816,0.4387755102040816,0.4387755102040816,0.4387755102040816,0.43537414965986393,0.43197278911564624,0.43197278911564624,0.43197278911564624,0.42857142857142855,0.42517006802721086,0.42517006802721086,0.41836734693877553,0.41496598639455784,0.40816326530612246,0.4013605442176871,0.3979591836734694,0.391156462585034,0.3843537414965986,0.38095238095238093,0.3741496598639456,0.3673469387755102,0.36054421768707484,0.35714285714285715,0.35374149659863946,0.35034013605442177,0.35034013605442177,0.3469387755102041,0.3435374149659864,0.3435374149659864,0.3401360544217687,0.336734693877551,0.336734693877551,0.336734693877551,0.336734693877551,0.3333333333333333,0.32653061224489793,0.3129251700680272,0.2925170068027211,0.2687074829931973,0.24149659863945577,0.21768707482993196,0.20068027210884354,0.1836734693877551,0.17346938775510204,0.16326530612244897,0.1564625850340136,0.15306122448979592,0.14965986394557823,0.14625850340136054,0.14625850340136054,0.14625850340136054,0.14625850340136054,0.14625850340136054,0.14625850340136054,0.14625850340136054,0.14625850340136054,0.14625850340136054,0.14625850340136054,0.14625850340136054,0.14625850340136054,0.14625850340136054,0.14625850340136054,0.14625850340136054,0.14625850340136054,0.14625850340136054,0.14625850340136054,0.14625850340136054,0.14625850340136054,0.14625850340136054,0.14625850340136054,0.14625850340136054,0.14625850340136054,0.14625850340136054,0.14625850340136054,0.14625850340136054,0.14625850340136054,0.14625850340136054,0.14625850340136054,0.14625850340136054,0.14625850340136054,0.14625850340136054,0.14625850340136054,0.14625850340136054,0.14625850340136054,0.14625850340136054,0.14625850340136054,0.14625850340136054,0.14625850340136054,0.14625850340136054,0.14625850340136054,0.14625850340136054,0.14625850340136054,0.14625850340136054,0.14625850340136054,0.14625850340136054,0.14625850340136054,0.14625850340136054,0.14625850340136054,0.14625850340136054,0.14625850340136054,0.14625850340136054,0.14625850340136054,0.14625850340136054,0.14625850340136054,0.14625850340136054,0.14625850340136054,0.14625850340136054,0.14625850340136054,0.14965986394557823,0.15306122448979592,0.15306122448979592,0.15306122448979592,0.14285714285714285,0.11904761904761904,0.08503401360544217,0.05102040816326531,0.030612244897959183,0.013605442176870748,0,-0.003401360544217687,-0.006802721088435374,-0.01020408163265306,-0.01020408163265306,-0.01020408163265306,-0.013605442176870748,-0.013605442176870748,-0.017006802721088437,-0.017006802721088437,-0.017006802721088437,-0.017006802721088437,-0.01020408163265306,-0.003401360544217687,0,0.003401360544217687,0.006802721088435374,0.006802721088435374,0.006802721088435374,0.006802721088435374,0.006802721088435374,0.006802721088435374,0.006802721088435374,0.006802721088435374,0.006802721088435374,0.006802721088435374,0.006802721088435374,0.006802721088435374,0.006802721088435374,0.006802721088435374,0.006802721088435374,0.006802721088435374,0.006802721088435374,0.006802721088435374,0.006802721088435374,0.006802721088435374,0.006802721088435374,0.006802721088435374,0.006802721088435374,0.006802721088435374,0.006802721088435374,0.006802721088435374,0.006802721088435374,0.006802721088435374,0.006802721088435374,0.006802721088435374,0.006802721088435374,0.006802721088435374,0.02040816326530612,0.030612244897959183,0.14625850340136054,0.2619047619047619,0.41496598639455784,0.5952380952380952,0.7278911564625851,0.8639455782312925,0.9319727891156463,0.9693877551020408,0.9693877551020408,0.9693877551020408,0.9693877551020408,0.9693877551020408,0.9693877551020408,0.9693877551020408,0.9693877551020408,0.9693877551020408,0.9693877551020408,0.9693877551020408,0.9693877551020408,0.9693877551020408,0.9693877551020408,0.9863945578231292,1.0034013605442176,1.054421768707483,1.153061224489796,1.3027210884353742,1.469387755102041,1.5782312925170068,1.7006802721088434,1.7585034013605443,1.8129251700680271,1.8129251700680271,1.8129251700680271,1.8129251700680271,1.8129251700680271,1.8129251700680271,1.8129251700680271,1.8129251700680271,1.8129251700680271,1.8129251700680271,1.8129251700680271,1.8129251700680271,1.8129251700680271,1.8129251700680271,1.8129251700680271,1.8129251700680271,1.8129251700680271,1.8129251700680271,1.8129251700680271,1.8129251700680271,1.8129251700680271,1.8129251700680271,1.8129251700680271,1.8129251700680271,1.8129251700680271,1.8129251700680271,1.8129251700680271,1.8129251700680271,1.8129251700680271,1.8129251700680271,1.8129251700680271,1.8129251700680271,1.8129251700680271,1.8129251700680271,1.8129251700680271,1.8129251700680271,1.8129251700680271,1.8129251700680271,1.8129251700680271,1.8129251700680271,1.8129251700680271,1.8129251700680271,1.8129251700680271,1.8129251700680271,1.8129251700680271,1.8129251700680271,1.8129251700680271,1.8129251700680271,1.8129251700680271,1.8129251700680271,1.8129251700680271,1.8129251700680271,1.8129251700680271,1.8129251700680271,1.8129251700680271,1.8129251700680271,1.8129251700680271,1.8129251700680271,1.8129251700680271,1.8129251700680271,1.8129251700680271,1.8129251700680271,1.8129251700680271,1.8129251700680271,1.8129251700680271,1.8129251700680271,1.8129251700680271,1.8129251700680271,1.8129251700680271,1.8129251700680271,1.8129251700680271,1.8129251700680271,1.8129251700680271,1.8129251700680271,1.8129251700680271,1.8129251700680271,1.8129251700680271,1.8129251700680271,1.8129251700680271,1.8129251700680271,1.8129251700680271,1.8129251700680271],"y":[-3.4563492063492065,-3.4563492063492065,-3.4563492063492065,-3.4563492063492065,-3.4563492063492065,-3.4563492063492065,-3.4563492063492065,-3.4563492063492065,-3.4563492063492065,-3.4563492063492065,-3.4563492063492065,-3.4563492063492065,-3.4563492063492065,-3.4563492063492065,-3.4563492063492065,-3.4563492063492065,-3.4563492063492065,-3.4563492063492065,-3.4563492063492065,-3.4563492063492065,-3.4563492063492065,-3.4563492063492065,-3.4563492063492065,-3.4563492063492065,-3.4563492063492065,-3.4563492063492065,-3.4563492063492065,-3.4563492063492065,0.7293650793650792,0.653174603174603,0.5865079365079363,0.39603174603174585,0.16746031746031728,-0.07063492063492081,-0.2230158730158732,-0.3944444444444446,-0.527777777777778,-0.6420634920634922,-0.7087301587301589,-0.765873015873016,-0.7944444444444446,-0.7944444444444446,-0.7944444444444446,-0.7944444444444446,-0.7944444444444446,-0.7944444444444446,-0.7944444444444446,-0.7944444444444446,-0.7944444444444446,-0.7944444444444446,-0.7944444444444446,-0.7944444444444446,-0.7944444444444446,-0.7944444444444446,-0.7944444444444446,-0.7944444444444446,-0.7944444444444446,-0.7944444444444446,-0.7944444444444446,-0.7944444444444446,-0.7944444444444446,-0.7944444444444446,-0.7944444444444446,-0.7944444444444446,-0.7944444444444446,-0.7944444444444446,-0.8039682539682541,-0.8325396825396827,-0.8801587301587304,-0.9277777777777779,-0.9753968253968256,-1.0134920634920637,-1.0515873015873018,-1.0801587301587303,-1.108730158730159,-1.127777777777778,-1.1373015873015875,-1.1373015873015875,-1.1373015873015875,-1.1373015873015875,-1.1373015873015875,-1.1373015873015875,-1.1373015873015875,-1.1373015873015875,-1.1373015873015875,-1.1373015873015875,-1.1373015873015875,-1.1373015873015875,-1.1373015873015875,-1.1373015873015875,-1.1373015873015875,-1.1373015873015875,-1.1373015873015875,-1.1373015873015875,-1.1373015873015875,-1.1373015873015875,-1.1373015873015875,-1.1373015873015875,-1.1373015873015875,-1.1373015873015875,-1.1373015873015875,-1.1373015873015875,-1.1373015873015875,-1.1373015873015875,-1.1373015873015875,-1.1373015873015875,-1.1373015873015875,-1.1373015873015875,-1.1373015873015875,-1.1373015873015875,-1.1373015873015875,-1.1373015873015875,-1.1373015873015875,-1.1373015873015875,-1.1373015873015875,-1.1373015873015875,-1.1373015873015875,-1.1373015873015875,-1.1373015873015875,-1.1373015873015875,-1.1373015873015875,-1.1373015873015875,-1.1373015873015875,-1.1373015873015875,-1.1373015873015875,-1.1373015873015875,-1.1373015873015875,-1.1373015873015875,-1.1373015873015875,-1.1373015873015875,-1.1373015873015875,-1.1373015873015875,-1.1373015873015875,-1.1373015873015875,-1.1373015873015875,-1.1373015873015875,-1.1373015873015875,-1.1373015873015875,-1.1373015873015875,-1.1373015873015875,-1.1373015873015875,-1.1373015873015875,-1.1373015873015875,-1.1373015873015875,-1.1373015873015875,-1.1373015873015875,-1.1373015873015875,-1.1373015873015875,-1.1373015873015875,-1.1373015873015875,-1.1373015873015875,-1.1373015873015875,-1.1373015873015875,-1.1373015873015875,-1.1373015873015875,-1.1373015873015875,-1.1373015873015875,-1.1373015873015875,-1.1373015873015875,-1.1373015873015875,-1.1373015873015875,-1.1373015873015875,-1.1373015873015875,-1.1373015873015875,-1.1373015873015875,-1.1373015873015875,-1.1373015873015875,-1.1373015873015875,-1.1373015873015875,-1.1373015873015875,-1.1373015873015875,-1.1373015873015875,-1.1373015873015875,-1.1373015873015875,-1.1373015873015875,-1.1373015873015875,-1.1373015873015875,-1.1373015873015875,-1.1373015873015875,-1.1373015873015875,-1.1373015873015875,-1.1373015873015875,-1.1373015873015875,-1.1373015873015875,-1.1373015873015875,-1.1373015873015875,-1.1373015873015875,-1.1373015873015875,-1.1373015873015875,-1.1373015873015875,-1.1373015873015875,-1.1373015873015875,-1.1373015873015875,-1.1373015873015875,-1.1373015873015875,-1.1373015873015875,-1.1373015873015875,-1.1373015873015875,-1.1373015873015875,-1.1373015873015875,-1.1373015873015875,-1.1373015873015875,-1.1373015873015875,-1.1373015873015875,-1.1373015873015875,-1.1373015873015875,-1.1373015873015875,-1.1373015873015875,-1.1373015873015875,-1.1373015873015875,-1.1373015873015875,-1.1373015873015875,-1.1373015873015875,-1.1373015873015875,-1.1373015873015875,-1.1373015873015875,-1.1373015873015875,-1.1373015873015875,-1.1373015873015875,-1.1373015873015875,-1.1373015873015875,-1.1373015873015875,-1.1373015873015875,-1.1373015873015875,-1.1373015873015875,-1.1373015873015875,-1.1373015873015875,-1.1373015873015875,-1.1373015873015875,-1.1373015873015875,-1.1373015873015875,-1.1373015873015875,-1.1373015873015875,-1.1373015873015875,-1.1373015873015875,-1.1373015873015875,-1.1373015873015875,-1.1373015873015875,-1.1373015873015875,-1.1373015873015875,-1.1373015873015875,-1.1373015873015875,-1.1373015873015875,-1.1373015873015875,-1.1373015873015875,-1.1373015873015875,-1.1373015873015875,-1.1373015873015875,-1.1373015873015875,-1.1373015873015875,-1.1373015873015875,-1.1373015873015875,-1.1373015873015875,-1.1373015873015875,-1.1373015873015875,-1.1373015873015875,-1.1373015873015875,-1.1373015873015875,-1.1373015873015875,-1.1373015873015875,-1.1373015873015875,-1.1373015873015875,-1.1373015873015875,-1.1373015873015875,-1.1373015873015875,-1.1373015873015875,-1.1373015873015875,-1.1373015873015875,-1.1373015873015875,-1.1373015873015875,-1.1373015873015875,-1.1373015873015875,-1.1373015873015875,-1.1373015873015875,-1.1373015873015875,-1.1373015873015875,-1.1373015873015875,-1.1373015873015875,-1.1373015873015875,-1.1373015873015875,-1.1373015873015875,-1.1373015873015875,-1.1373015873015875,-1.1373015873015875,-1.1373015873015875,-1.1373015873015875,-1.1373015873015875,-1.1373015873015875,-1.1373015873015875,-1.1373015873015875,-1.1373015873015875,-1.1373015873015875,-1.1373015873015875,-1.1373015873015875,-1.1373015873015875,-1.1373015873015875,-1.1373015873015875,-1.1373015873015875,-1.1373015873015875,-1.1373015873015875,-1.1373015873015875,-1.1373015873015875,-1.1373015873015875,-1.1373015873015875,-1.1373015873015875,-1.1373015873015875,-1.1373015873015875,-1.1373015873015875,-1.1373015873015875,-1.1373015873015875,-1.1373015873015875,-1.1373015873015875,-1.1373015873015875,-1.1373015873015875,-1.1373015873015875,-1.1373015873015875,-1.1373015873015875,-1.1373015873015875,-1.1373015873015875,-1.1373015873015875,-1.1373015873015875,-1.1373015873015875,-1.1373015873015875,-1.1373015873015875,-1.1373015873015875,-1.1373015873015875,-1.1373015873015875,-1.1373015873015875,-1.1373015873015875,-1.1373015873015875,-1.1373015873015875,-1.1373015873015875,-1.1373015873015875,-1.1373015873015875,-1.1373015873015875,-1.1373015873015875,-1.1373015873015875,-1.1373015873015875,-1.1373015873015875,-1.1373015873015875,-1.1373015873015875,-1.1373015873015875,-1.1373015873015875,-1.1373015873015875,-1.1373015873015875,-1.1373015873015875,-1.1373015873015875,-1.1373015873015875,-1.1373015873015875,-1.1373015873015875,-1.1373015873015875,-1.1373015873015875,-1.1373015873015875,-1.1373015873015875,-1.1373015873015875,-1.1373015873015875,-1.1373015873015875,-1.1373015873015875,-1.1373015873015875,-1.1373015873015875,-1.1373015873015875,-1.1373015873015875,-1.1373015873015875,-1.1373015873015875,-1.1373015873015875,-1.1373015873015875,-1.1373015873015875,-1.1373015873015875,-1.1373015873015875,-1.1373015873015875,-1.1373015873015875,-1.1373015873015875,-1.1373015873015875,-1.1373015873015875,-1.1563492063492065,-1.1849206349206352,-1.2134920634920636,-1.2706349206349208,-1.3373015873015874,-1.3753968253968256,-1.3753968253968256,-1.3753968253968256,-1.3182539682539685,-1.2896825396825398,-1.2515873015873018,-1.2515873015873018,-1.2420634920634923,-1.2325396825396828,-1.2325396825396828,-1.2325396825396828,-1.2325396825396828,-1.2325396825396828,-1.2325396825396828,-1.2325396825396828,-1.2325396825396828,-1.2325396825396828,-1.2325396825396828,-1.2325396825396828,-1.2325396825396828,-1.2325396825396828,-1.2325396825396828,-1.2325396825396828,-1.2325396825396828,-1.2325396825396828,-1.2325396825396828,-1.2325396825396828,-1.2325396825396828,-1.2420634920634923,-1.2420634920634923,-1.2515873015873018,-1.2515873015873018,-1.2515873015873018,-1.2515873015873018,-1.2515873015873018,-1.2515873015873018,-1.2515873015873018,-1.2515873015873018,-1.2515873015873018,-1.2515873015873018,-1.2515873015873018,-1.2515873015873018,-1.2515873015873018,-1.2515873015873018,-1.2515873015873018,-1.2515873015873018,-1.2515873015873018,-1.2515873015873018,-1.2515873015873018,-1.2420634920634923,-1.2325396825396828,-1.2039682539682541,-1.1563492063492065,-1.0801587301587303,-1.0230158730158732,-0.946825396825397,-0.8325396825396827,-0.7849206349206351,-0.765873015873016,-0.765873015873016,-0.765873015873016,-0.765873015873016,-0.765873015873016,-0.765873015873016,-0.765873015873016,-0.765873015873016,-0.765873015873016,-0.765873015873016,-0.765873015873016,-0.765873015873016,-0.765873015873016,-0.765873015873016,-0.765873015873016,-0.765873015873016,-0.765873015873016,-0.765873015873016,-0.765873015873016,-0.765873015873016,-0.765873015873016,-0.765873015873016,-0.765873015873016,-0.765873015873016,-0.765873015873016,-0.765873015873016,-0.765873015873016,-0.765873015873016,-0.765873015873016,-0.765873015873016,-0.765873015873016,-0.765873015873016,-0.765873015873016,-0.765873015873016,-0.765873015873016,-0.765873015873016,-0.765873015873016,-0.765873015873016,-0.765873015873016,-0.765873015873016,-0.765873015873016,-0.765873015873016,-0.765873015873016,-0.765873015873016,-0.765873015873016,-0.765873015873016,-0.765873015873016,-0.765873015873016,-0.765873015873016,-0.765873015873016,-0.765873015873016,-0.765873015873016,-0.765873015873016,-0.765873015873016,-0.765873015873016,-0.765873015873016,-0.765873015873016,-0.765873015873016,-0.765873015873016,-0.765873015873016,-0.765873015873016,-0.765873015873016,-0.765873015873016,-0.765873015873016,-0.765873015873016,-0.765873015873016,-0.765873015873016,-0.765873015873016,-0.765873015873016,-0.765873015873016,-0.765873015873016,-0.765873015873016,-0.765873015873016,-0.765873015873016,-0.765873015873016,-0.765873015873016,-0.765873015873016,-0.765873015873016,-0.765873015873016,-0.765873015873016,-0.765873015873016,-0.765873015873016,-0.765873015873016,-0.765873015873016,-0.765873015873016,-0.765873015873016,-0.765873015873016,-0.765873015873016,-0.765873015873016,-0.765873015873016,-0.765873015873016,-0.765873015873016,-0.8039682539682541,-0.8801587301587304,-0.946825396825397,-0.9849206349206351,-1.0039682539682542,-1.0134920634920637,-1.0134920634920637,-1.0134920634920637,-1.0134920634920637,-1.0134920634920637,-1.0134920634920637,-1.0039682539682542,-0.9563492063492065,-0.9087301587301589,-0.8230158730158732,-0.7563492063492065,-0.6515873015873017,-0.546825396825397,-0.3944444444444446,-0.28015873015873033,-0.16587301587301606,-0.09920634920634938,-0.051587301587301765,-0.023015873015873198,-0.023015873015873198,-0.013492063492063673,-0.013492063492063673,-0.013492063492063673,-0.013492063492063673,-0.013492063492063673,-0.013492063492063673,-0.013492063492063673,-0.013492063492063673,-0.013492063492063673,-0.013492063492063673,-0.013492063492063673,-0.013492063492063673,-0.013492063492063673,-0.013492063492063673,-0.013492063492063673,-0.013492063492063673,-0.013492063492063673,-0.013492063492063673,-0.013492063492063673,-0.013492063492063673,-0.013492063492063673,-0.013492063492063673,-0.013492063492063673,-0.013492063492063673,-0.013492063492063673,-0.013492063492063673,0.024603174603174422,0.08174603174603157,0.12936507936507918,0.27222222222222203,0.4626984126984125,0.691269841269841,0.9388888888888887,1.1865079365079363,1.415079365079365,1.5484126984126982,1.691269841269841,1.7865079365079364,1.8246031746031743,1.8626984126984125,1.872222222222222,1.872222222222222,1.872222222222222,1.872222222222222,1.872222222222222,1.872222222222222,1.872222222222222,1.872222222222222,1.872222222222222,1.872222222222222,1.872222222222222,1.872222222222222,1.872222222222222,1.872222222222222,1.872222222222222,1.8436507936507935,1.8055555555555554,1.7579365079365077,1.7198412698412697,1.6817460317460315,1.6626984126984126,1.6341269841269839,1.615079365079365,1.5865079365079364,1.5484126984126982,1.5198412698412698,1.472222222222222,1.415079365079365,1.3865079365079362,1.3769841269841268,1.3769841269841268,1.3769841269841268,1.3769841269841268,1.3769841269841268,1.3769841269841268,1.3769841269841268,1.3769841269841268,1.3769841269841268,1.3769841269841268,1.3769841269841268,1.3769841269841268,1.3769841269841268,1.3769841269841268,1.3769841269841268,1.3769841269841268,1.3769841269841268,1.3769841269841268,1.329365079365079,1.3007936507936506,1.2436507936507935,1.1293650793650791,1.053174603174603,0.9960317460317458,0.9865079365079363,0.9865079365079363,0.9865079365079363,1.0055555555555553,1.0055555555555553,1.0055555555555553,1.0055555555555553,1.0055555555555553,1.0055555555555553,1.0055555555555553,1.0055555555555553,1.0055555555555553,1.0055555555555553,1.0055555555555553,1.0055555555555553,1.0055555555555553,1.0055555555555553,1.0055555555555553,1.0055555555555553,1.0055555555555553,1.0055555555555553,1.0055555555555553,1.0055555555555553,1.0055555555555553,1.0055555555555553,1.0055555555555553,1.0055555555555553,1.0055555555555553,1.0055555555555553,1.0055555555555553,1.0055555555555553,1.0055555555555553,1.0055555555555553,1.0055555555555553,1.0055555555555553,1.0055555555555553,0.9865079365079363,0.9103174603174602,0.7865079365079364,0.6246031746031744,0.4817460317460316,0.434126984126984,0.36746031746031727,0.3579365079365078,0.3579365079365078,0.3579365079365078,0.3579365079365078,0.3579365079365078,0.3579365079365078,0.3579365079365078,0.3579365079365078,0.3579365079365078,0.3579365079365078,0.3579365079365078,0.3579365079365078,0.3579365079365078,0.3579365079365078,0.3579365079365078,0.3579365079365078,0.3579365079365078,0.3865079365079363,0.4055555555555554,0.4912698412698411,0.5579365079365077,0.634126984126984,0.691269841269841,0.7484126984126982,0.7960317460317459,0.8341269841269839,0.853174603174603,0.872222222222222,0.8912698412698411,0.9103174603174602,0.9293650793650792,0.9388888888888887,0.9484126984126983,0.9484126984126983,0.9484126984126983,0.9484126984126983,0.9484126984126983,0.9484126984126983,0.9484126984126983,0.9579365079365078,0.9674603174603172,0.9769841269841268,0.9865079365079363,0.9960317460317458,1.0055555555555553,1.0055555555555553,1.0055555555555553,1.0055555555555553,1.0055555555555553,0.9960317460317458,0.9960317460317458,0.9960317460317458,0.9960317460317458,0.9960317460317458,0.9960317460317458,0.9960317460317458,0.9960317460317458,0.9960317460317458,0.9960317460317458,0.9960317460317458,0.9960317460317458,0.9960317460317458,0.9960317460317458,0.9960317460317458,0.9960317460317458,0.9960317460317458,0.9960317460317458,0.9960317460317458,0.9960317460317458,0.9960317460317458,0.9960317460317458,0.9960317460317458,0.9960317460317458,0.9960317460317458,0.9960317460317458,0.9960317460317458,0.9960317460317458,0.9960317460317458,0.9960317460317458,0.9960317460317458,0.9960317460317458,0.9960317460317458,0.9960317460317458,0.9960317460317458,0.9960317460317458,0.9960317460317458,0.9960317460317458,0.9960317460317458,0.9960317460317458,0.9960317460317458,0.9960317460317458,0.9960317460317458,0.9960317460317458,1.0150793650793648,1.0626984126984125,1.0912698412698412,1.2055555555555553,1.3579365079365078,1.51031746031746,1.6246031746031744,1.7484126984126982,1.8436507936507935,1.891269841269841,1.9198412698412697,1.9293650793650792,1.9388888888888887,1.9388888888888887,1.9388888888888887,1.9388888888888887,1.9388888888888887,1.9388888888888887,1.9388888888888887,1.9388888888888887,1.9388888888888887,1.9388888888888887,1.9388888888888887,1.9388888888888887,1.9388888888888887,1.9388888888888887,1.9388888888888887,1.9388888888888887,1.9388888888888887,1.9388888888888887,1.9388888888888887,1.9388888888888887,1.9388888888888887,1.9388888888888887,1.9388888888888887,1.9388888888888887,1.9388888888888887,1.9388888888888887,1.9388888888888887,1.9388888888888887,1.9388888888888887,1.9388888888888887,1.9388888888888887,1.9388888888888887,1.9388888888888887,1.9388888888888887,1.9388888888888887,1.9388888888888887,1.9388888888888887,1.9388888888888887,1.9388888888888887,1.9388888888888887,1.9388888888888887,1.9388888888888887,1.9388888888888887,1.9388888888888887,1.9388888888888887,1.9388888888888887,1.9388888888888887,1.9388888888888887,1.9388888888888887,1.9388888888888887,1.9388888888888887,1.9388888888888887,1.9388888888888887,1.9388888888888887,1.9388888888888887,1.9388888888888887,1.9388888888888887,1.9388888888888887,1.9388888888888887,1.9388888888888887,1.9388888888888887,1.9198412698412697,1.872222222222222,1.8055555555555554,1.7198412698412697,1.6341269841269839,1.5388888888888888,1.4817460317460316,1.4246031746031744,1.396031746031746,1.3769841269841268,1.3674603174603173,1.3674603174603173,1.3674603174603173,1.3674603174603173,1.3674603174603173,1.3674603174603173,1.3674603174603173,1.3674603174603173,1.3674603174603173,1.3674603174603173,1.3769841269841268,1.3865079365079362,1.4055555555555554,1.434126984126984,1.472222222222222,1.5293650793650793,1.5674603174603172,1.615079365079365,1.6436507936507934,1.6626984126984126,1.672222222222222,1.6817460317460315,1.691269841269841,1.691269841269841,1.691269841269841,1.691269841269841,1.691269841269841,1.691269841269841,1.691269841269841,1.691269841269841,1.691269841269841,1.691269841269841,1.691269841269841,1.691269841269841,1.691269841269841,1.691269841269841,1.691269841269841,1.691269841269841,1.691269841269841,1.691269841269841,1.691269841269841,1.691269841269841,1.691269841269841,1.691269841269841,1.691269841269841,1.691269841269841,1.691269841269841,1.691269841269841,1.691269841269841,1.6817460317460315,1.6817460317460315,1.672222222222222,1.672222222222222,1.672222222222222,1.672222222222222,1.672222222222222,1.6626984126984126,1.6626984126984126,1.6626984126984126,1.6626984126984126,1.6626984126984126,1.6626984126984126,1.6626984126984126,1.6626984126984126,1.6626984126984126,1.6626984126984126,1.6626984126984126,1.6626984126984126,1.6626984126984126,1.6626984126984126,1.6626984126984126,1.6626984126984126,1.6626984126984126,1.6626984126984126,1.6626984126984126,1.6626984126984126,1.653174603174603,1.6436507936507934,1.6341269841269839,1.5865079365079364,1.51031746031746,1.4436507936507934,1.3769841269841268,1.3198412698412696,1.2817460317460316,1.2722222222222221,1.2722222222222221,1.2722222222222221,1.2722222222222221,1.2722222222222221,1.2722222222222221,1.2722222222222221,1.2722222222222221,1.2722222222222221,1.2722222222222221,1.2722222222222221,1.2722222222222221,1.2722222222222221,1.2722222222222221,1.2722222222222221,1.2722222222222221,1.2722222222222221,1.2722222222222221,1.2722222222222221,1.2722222222222221,1.2722222222222221,1.2722222222222221,1.2722222222222221,1.2722222222222221,1.2722222222222221,1.2722222222222221,1.2626984126984124,1.215079365079365,1.1484126984126983,1.1007936507936507,1.053174603174603,1.0436507936507935,1.034126984126984,1.034126984126984,1.034126984126984,1.034126984126984,1.034126984126984,1.034126984126984,1.034126984126984,1.034126984126984,1.034126984126984,1.034126984126984,1.034126984126984,1.034126984126984,1.034126984126984,1.034126984126984,1.034126984126984,1.0055555555555553,0.9769841269841268,0.9007936507936506,0.7865079365079364,0.691269841269841,0.6626984126984126,0.6150793650793649,0.5960317460317458,0.5960317460317458,0.5865079365079363,0.5769841269841268,0.5674603174603173,0.5484126984126982,0.5388888888888888,0.5293650793650791,0.5293650793650791,0.5293650793650791,0.5293650793650791,0.5293650793650791,0.5293650793650791,0.5293650793650791,0.5293650793650791,0.5293650793650791,0.5293650793650791,0.5293650793650791,0.5293650793650791,0.5293650793650791,0.5293650793650791,0.5293650793650791,0.5293650793650791,0.5293650793650791,0.5293650793650791,0.5293650793650791,0.5293650793650791,0.5293650793650791,0.5293650793650791,0.5293650793650791,0.5293650793650791,0.5293650793650791,0.5293650793650791,0.5293650793650791,0.5293650793650791,0.5293650793650791,0.5293650793650791,0.5293650793650791,0.5293650793650791,0.5293650793650791,0.5293650793650791,0.5293650793650791,0.5293650793650791,0.5293650793650791,0.5293650793650791,0.5293650793650791,0.5293650793650791,0.5293650793650791,0.5293650793650791,0.5293650793650791,0.5293650793650791,0.5293650793650791,0.5293650793650791,0.5293650793650791,0.5293650793650791,0.5293650793650791,0.5293650793650791,0.5293650793650791,0.5293650793650791,0.5293650793650791,0.5293650793650791,0.5293650793650791,0.5293650793650791,0.5484126984126982,0.6055555555555554,0.691269841269841,0.8150793650793648,0.9103174603174602,0.9674603174603172,1.034126984126984,1.0817460317460315,1.1007936507936507,1.1198412698412696,1.1293650793650791,1.1388888888888886,1.1484126984126983,1.1579365079365078,1.1674603174603173,1.1769841269841268,1.1865079365079363,1.1865079365079363,1.1865079365079363,1.1865079365079363,1.1960317460317458,1.1960317460317458,1.1960317460317458,1.1960317460317458,1.1960317460317458,1.1960317460317458,1.1960317460317458,1.1960317460317458,1.1960317460317458,1.1960317460317458,1.1960317460317458,1.1960317460317458,1.1960317460317458,1.1960317460317458,1.1960317460317458,1.1960317460317458,1.1960317460317458,1.1960317460317458,1.1960317460317458,1.1960317460317458,1.1960317460317458,1.1960317460317458,1.1960317460317458,1.1960317460317458,1.1960317460317458,1.1960317460317458,1.1960317460317458,1.1960317460317458,1.1960317460317458,1.1960317460317458,1.1960317460317458,1.1960317460317458,1.1960317460317458,1.1960317460317458,1.1865079365079363,1.1865079365079363,1.1674603174603173,1.1484126984126983,1.1103174603174601,1.072222222222222,1.0246031746031745,0.9674603174603172,0.8912698412698411,0.8055555555555554,0.7198412698412696,0.6246031746031744,0.5388888888888888,0.453174603174603,0.4246031746031744,0.4246031746031744,0.4246031746031744,0.4246031746031744,0.4246031746031744,0.4246031746031744,0.4246031746031744,0.4246031746031744,0.4246031746031744,0.4246031746031744,0.4246031746031744,0.4246031746031744,0.4246031746031744,0.4246031746031744,0.4246031746031744,0.4246031746031744,0.4246031746031744,0.4246031746031744,0.3579365079365078,0.31984126984126965,0.20555555555555538,-0.0039682539682541484,-0.3373015873015875,-0.6706349206349208,-0.8706349206349208,-1.0134920634920637,-1.1182539682539685,-1.1182539682539685,-1.1182539682539685,-1.1182539682539685,-1.1182539682539685,-1.1182539682539685,-1.1182539682539685,-1.1182539682539685,-1.1182539682539685,-1.1182539682539685,-1.1182539682539685,-1.1182539682539685,-1.1182539682539685,-1.1182539682539685,-1.1182539682539685,-1.1182539682539685,-1.1182539682539685,-1.127777777777778,-1.1849206349206352,-1.2134920634920636,-1.2801587301587303,-1.346825396825397,-1.384920634920635,-1.4134920634920636,-1.4230158730158733,-1.4230158730158733,-1.4230158730158733,-1.4230158730158733,-1.4230158730158733,-1.4230158730158733,-1.4230158730158733,-1.4230158730158733,-1.4230158730158733,-1.4230158730158733,-1.4230158730158733,-1.4230158730158733,-1.4230158730158733,-1.4230158730158733,-1.4230158730158733,-1.4230158730158733,-1.4230158730158733,-1.4230158730158733,-1.4230158730158733,-1.4230158730158733,-1.4230158730158733,-1.4325396825396828,-1.4420634920634923,-1.4611111111111112,-1.4992063492063494,-1.508730158730159,-1.5182539682539684,-1.5182539682539684,-1.4992063492063494,-1.4611111111111112,-1.4420634920634923,-1.4230158730158733,-1.4134920634920636,-1.403968253968254,-1.403968253968254,-1.403968253968254,-1.403968253968254,-1.403968253968254,-1.403968253968254,-1.403968253968254,-1.403968253968254,-1.403968253968254,-1.403968253968254,-1.403968253968254,-1.4134920634920636,-1.4325396825396828,-1.4611111111111112,-1.4992063492063494,-1.527777777777778,-1.5563492063492066,-1.565873015873016,-1.584920634920635,-1.584920634920635,-1.584920634920635,-1.584920634920635,-1.584920634920635,-1.5753968253968256,-1.565873015873016,-1.5563492063492066,-1.5373015873015874,-1.527777777777778,-1.527777777777778,-1.508730158730159,-1.48968253968254,-1.4706349206349207,-1.4515873015873018,-1.4325396825396828,-1.3944444444444446,-1.3658730158730161,-1.346825396825397,-1.327777777777778,-1.3182539682539685,-1.308730158730159,-1.308730158730159,-1.2992063492063495,-1.2896825396825398,-1.2801587301587303,-1.2801587301587303,-1.2801587301587303,-1.2801587301587303,-1.2801587301587303,-1.2801587301587303,-1.2801587301587303,-1.2801587301587303,-1.2801587301587303,-1.2801587301587303,-1.2801587301587303,-1.2801587301587303,-1.2801587301587303,-1.2801587301587303,-1.2801587301587303,-1.2801587301587303,-1.2801587301587303,-1.2801587301587303,-1.2801587301587303,-1.2801587301587303,-1.2801587301587303,-1.2801587301587303,-1.2801587301587303,-1.2801587301587303,-1.2801587301587303,-1.2801587301587303,-1.2801587301587303,-1.2801587301587303,-1.2801587301587303,-1.2801587301587303,-1.2801587301587303,-1.2801587301587303,-1.2801587301587303,-1.2801587301587303,-1.2992063492063495,-1.327777777777778,-1.3658730158730161,-1.3658730158730161,-1.3373015873015874,-1.2039682539682541,-1.108730158730159,-0.9849206349206351,-0.8801587301587304,-0.8420634920634923,-0.8420634920634923,-0.8420634920634923,-0.8420634920634923,-0.8420634920634923,-0.8420634920634923,-0.8420634920634923,-0.8420634920634923,-0.8420634920634923,-0.8420634920634923,-0.8420634920634923,-0.8420634920634923,-0.8420634920634923,-0.8420634920634923,-0.8420634920634923,-0.8420634920634923,-0.8420634920634923,-0.8420634920634923,-0.8420634920634923,-0.8420634920634923,-0.8420634920634923,-0.8420634920634923,-0.8420634920634923,-0.8420634920634923,-0.8420634920634923,-0.8420634920634923,-0.8420634920634923,-0.8420634920634923,-0.8420634920634923,-0.8420634920634923,-0.8420634920634923,-0.8420634920634923,-0.8420634920634923,-0.8420634920634923,-0.8420634920634923,-0.8420634920634923,-0.8420634920634923,-0.8420634920634923,-0.8420634920634923,-0.8420634920634923,-0.8420634920634923,-0.8420634920634923,-0.8515873015873018,-0.8515873015873018,-0.8515873015873018,-0.8611111111111113,-0.8611111111111113,-0.8611111111111113,-0.8611111111111113,-0.8611111111111113,-0.8611111111111113,-0.8611111111111113,-0.8611111111111113,-0.8611111111111113,-0.8611111111111113,-0.8611111111111113,-0.8611111111111113,-0.8611111111111113,-0.8611111111111113,-0.8611111111111113,-0.8611111111111113,-0.8611111111111113,-0.8611111111111113,-0.8611111111111113,-0.8611111111111113,-0.8611111111111113,-0.8611111111111113,-0.8611111111111113,-0.8611111111111113,-0.8611111111111113,-0.8611111111111113,-0.8611111111111113,-0.8611111111111113,-0.8611111111111113,-0.8611111111111113,-0.8611111111111113,-0.8611111111111113,-0.8611111111111113,-0.8611111111111113,-0.8611111111111113,-0.8611111111111113,-0.8611111111111113,-0.8611111111111113,-0.8611111111111113,-0.8611111111111113,-0.8611111111111113,-0.8611111111111113,-0.8611111111111113,-0.8611111111111113,-0.8611111111111113,-0.8611111111111113,-0.8611111111111113,-0.8611111111111113,-0.8611111111111113,-0.8611111111111113,-0.8611111111111113,-0.8611111111111113,-0.8611111111111113,-0.8611111111111113,-0.8611111111111113,-0.8611111111111113,-0.8611111111111113,-0.8611111111111113,-0.8611111111111113,-0.8611111111111113,-0.8611111111111113,-0.8611111111111113,-0.8611111111111113,-0.8611111111111113,-0.8611111111111113,-0.8611111111