[{"success":true,"trial_type":"fullscreen","trial_index":0,"time_elapsed":4783,"internal_node_id":"0.0-0.0","protocol_sum":"","subject_identifier":400,"subject_sum":[39,186,220,152,61,241,120,11,96,194,179,250,157,58,25,160,14,70,170,199,152,69,31,15,235,220,165,41,32,250,173,223],"subject_pair":200,"STUDY_ID":"66a22c0758a3d5c9d26873c6","PROLIFIC_PID":"668027b9809f48e85f664723","SESSION_ID":"66a363b462da46b4fceafc21","practice_instructions":1,"leaderboard_instructions":0,"bonus":0,"reveal_word":false,"self_rating":"4","confidence":"75"},{"view_history":"[{\"page_index\":0,\"viewing_time\":28230.300000000745}]","rt":28235.60000000056,"trial_type":"instructions","trial_index":1,"time_elapsed":33023,"internal_node_id":"0.0-1.0","protocol_sum":"","subject_identifier":400,"subject_sum":[39,186,220,152,61,241,120,11,96,194,179,250,157,58,25,160,14,70,170,199,152,69,31,15,235,220,165,41,32,250,173,223],"subject_pair":200,"STUDY_ID":"66a22c0758a3d5c9d26873c6","PROLIFIC_PID":"668027b9809f48e85f664723","SESSION_ID":"66a363b462da46b4fceafc21","practice_instructions":1,"leaderboard_instructions":0,"bonus":0,"reveal_word":false,"self_rating":"4","confidence":"75"},{"view_history":"[{\"page_index\":0,\"viewing_time\":26181.900000000373}]","rt":26183.900000000373,"trial_type":"instructions","trial_index":2,"time_elapsed":59209,"internal_node_id":"0.0-2.0-0.0","protocol_sum":"","subject_identifier":400,"subject_sum":[39,186,220,152,61,241,120,11,96,194,179,250,157,58,25,160,14,70,170,199,152,69,31,15,235,220,165,41,32,250,173,223],"subject_pair":200,"STUDY_ID":"66a22c0758a3d5c9d26873c6","PROLIFIC_PID":"668027b9809f48e85f664723","SESSION_ID":"66a363b462da46b4fceafc21","practice_instructions":1,"leaderboard_instructions":0,"bonus":0,"reveal_word":false,"self_rating":"4","confidence":"75"},{"rt":8212,"responses":"{\"Q0\":\"... reveal the word with as <b>few letter guesses</b> as possible\"}","question_order":"[0]","trial_type":"survey-multi-choice","trial_index":3,"time_elapsed":67429,"internal_node_id":"0.0-2.0-1.0","protocol_sum":"","subject_identifier":400,"subject_sum":[39,186,220,152,61,241,120,11,96,194,179,250,157,58,25,160,14,70,170,199,152,69,31,15,235,220,165,41,32,250,173,223],"subject_pair":200,"correct":true,"test_part":"multichoice_nonpretend","STUDY_ID":"66a22c0758a3d5c9d26873c6","PROLIFIC_PID":"668027b9809f48e85f664723","SESSION_ID":"66a363b462da46b4fceafc21","practice_instructions":1,"leaderboard_instructions":0,"bonus":0,"reveal_word":false,"self_rating":"4","confidence":"75"},{"view_history":"[{\"page_index\":0,\"viewing_time\":1784.5}]","rt":1785.5999999996275,"trial_type":"instructions","trial_index":4,"time_elapsed":69229,"internal_node_id":"0.0-3.0","protocol_sum":"","subject_identifier":400,"subject_sum":[39,186,220,152,61,241,120,11,96,194,179,250,157,58,25,160,14,70,170,199,152,69,31,15,235,220,165,41,32,250,173,223],"subject_pair":200,"STUDY_ID":"66a22c0758a3d5c9d26873c6","PROLIFIC_PID":"668027b9809f48e85f664723","SESSION_ID":"66a363b462da46b4fceafc21","practice_instructions":1,"leaderboard_instructions":0,"bonus":0,"reveal_word":false,"self_rating":"4","confidence":"75"},{"word":"ZEBRA","click_log":{"letter":["","T","L","P","D","F","M","J","X","H","B","E","Z","R","A"],"t":[0,12692.099999999627,18197.099999999627,29392.39999999851,36692.199999999255,39173.199999999255,41507.5,43244.79999999888,45542.5,49160.29999999888,51087.29999999888,58341.699999999255,64794.29999999888,66922.39999999851,68487.39999999851],"hit":[null,0,0,0,0,0,0,0,0,0,1,1,1,1,1],"asked":["","T","TL","TLP","TLPD","TLPDF","TLPDFM","TLPDFMJ","TLPDFMJX","TLPDFMJXH","TLPDFMJXHB","TLPDFMJXHBE","TLPDFMJXHBEZ","TLPDFMJXHBEZR","TLPDFMJXHBEZRA"],"word_state":["_____","_____","_____","_____","_____","_____","_____","_____","_____","_____","__B__","_EB__","ZEB__","ZEBR_","ZEBRA"]},"hover_log":{"letter":["?","J","J","J","J","J","J","J","J","J","J","J","J","J","J","J","J","J","J","J","J","J","J","J","J","J","J","J","J","J","J","J","J","J","J","J","J","J","J","J","J","J","J","J","J","J","J","J","J","J","J","J","J","J","J","J","J","J","J","J","J","J","J","J","J","J","J","J","J","J","J","J","J","J","J","J","J","J","J","J","J","J","J","J","J","J","J","J","J","J","J","J","J","J","J","J","J","J","J","J","J","J","J","J","J","J","J","J","J","J","J","J","J","J","J","J","J","J","J","J","J","J","J","J","J","J","J","J","J","J","J","J","J","J","J","J","J","J","J","J","J","J","J","J","J","J","J","J","J","J","J","J","J","J","J","J","J","J","J","J","J","J","J","J","J","J","J","J","J","J","J","J","J","J","J","J","J","J","J","J","J","J","J","J","J","J","J","J","J","J","J","J","J","J","J","J","J","J","J","J","J","J","J","J","J","J","J","J","J","J","J","J","J","J","J","J","J","J","J","J","J","J","J","J","J","J","J","J","J","J","J","J","J","J","J","J","J","J","J","J","J","J","J","J","J","J","J","J","J","J","J","J","J","J","J","J","J","J","J","J","J","J","J","J","J","J","J","J","J","J","J","J","J","J","J","J","J","J","J","J","J","J","J","J","J","J","J","J","J","J","J","J","J","J","J","J","J","J","J","J","J","J","J","J","J","J","J","J","J","J","J","J","J","J","J","J","J","J","J","J","J","J","J","J","J","J","J","J","J","J","J","J","J","J","J","J","J","J","J","J","J","J","J","J","J","J","J","J","J","J","J","J","J","J","J","J","J","J","J","J","J","J","J","J","J","J","J","J","J","J","J","J","J","J","J","J","J","J","J","J","J","J","J","J","J","J","J","J","J","J","J","J","J","J","J","J","J","J","J","J","J","J","J","J","J","J","J","J","J","J","J","J","J","J","J","J","J","J","J","J","J","J","J","J","J","J","J","J","J","J","J","J","J","J","?","?","C","?","D","?","E","E","E","E","E","E","E","E","E","E","E","E","E","E","E","E","E","?","?","?","?","?","?","?","?","?","?","?","?","?","?","?","?","?","?","?","?","?","?","?","?","?","?","?","?","?","?","?","P","P","P","P","P","P","P","P","P","P","P","P","P","P","P","P","?","Q","?","?","?","?","?","?","?","?","?","?","?","?","?","?","?","?","?","R","R","R","R","R","R","R","R","R","R","R","R","R","R","R","R","R","R","R","R","R","R","R","?","?","Q","Q","Q","Q","?","?","?","?","?","?","?","?","?","?","?","?","?","?","?","?","?","M","M","M","M","M","M","M","M","M","M","M","M","?","?","?","?","?","?","?","?","?","?","?","?","?","?","?","?","?","?","?","?","?","?","?","?","?","?","?","?","?","?","?","?","?","?","?","?","?","?","?","?","?","?","?","?","?","?","?","?","?","?","?","?","?","?","M","?","?","L","L","L","L","L","L","L","?","?","?","?","?","?","?","?","?","?","?","?","?","?","?","?","?","?","?","?","?","?","?","?","?","?","?","?","?","?","?","?","?","?","?","?","?","?","?","?","?","?","?","?","?","?","?","?","?","?","?","?","?","?","?","?","?","?","?","?","?","?","?","?","?","?","?","?","?","?","?","T","T","T","T","T","T","T","T","T","T","T","T","T","T","T","T","T","T","T","T","T","T","T","T","T","T","T","T","T","T","T","T","T","T","T","T","T","T","T","T","T","T","T","T","T","T","T","T","T","T","T","T","T","T","T","T","T","T","T","T","T","T","T","T","T","T","?","?","?","?","?","?","?","?","?","?","?","?","?","?","?","?","?","?","?","?","?","?","?","?","?","?","?","?","?","?","?","?","?","?","?","?","?","?","?","?","?","?","?","?","?","?","?","?","?","?","?","?","?","?","?","?","?","?","?","?","?","?","?","?","?","?","?","?","?","?","?","?","?","?","?","?","?","?","?","?","?","?","?","?","?","?","?","?","?","?","?","?","?","?","?","?","?","?","?","?","?","?","?","?","?","?","?","?","?","?","?","?","?","?","?","?","?","?","?","?","?","?","?","?","?","?","?","?","?","?","?","?","?","?","?","?","?","?","?","?","?","?","?","?","?","?","?","?","?","?","?","?","?","?","?","?","?","?","?","?","?","?","?","?","?","?","?","?","?","?","?","?","?","?","?","?","?","?","?","?","?","?","?","?","?","?","?","?","?","?","?","?","?","?","?","?","?","?","?","?","?","?","?","?","?","?","?","?","?","?","?","?","?","?","?","?","?","?","?","?","?","?","L","L","L","L","L","L","L","L","L","L","L","L","L","L","L","L","L","L","L","L","L","L","L","L","L","L","L","L","L","L","L","L","L","L","L","L","L","L","L","L","L","L","L","L","L","L","L","L","L","L","L","L","L","L","L","L","L","L","L","L","L","L","L","L","L","L","L","L","L","L","L","L","L","L","L","L","L","L","L","L","L","L","L","L","L","L","L","L","L","L","L","L","L","L","L","L","L","L","L","L","L","L","L","L","L","L","L","L","L","L","L","L","L","L","L","L","L","L","L","L","L","L","L","L","L","?","?","?","V","V","V","V","V","V","V","?","?","?","?","?","?","?","W","W","W","W","W","W","W","W","W","W","W","W","W","W","W","W","W","W","W","W","W","W","W","W","W","W","W","W","W","W","W","W","W","W","W","W","W","W","W","W","W","W","W","W","W","W","W","W","W","W","W","W","W","W","W","W","W","W","W","W","W","W","W","W","W","W","W","W","W","W","W","W","W","W","W","W","W","W","W","W","W","W","W","W","W","W","W","W","W","W","W","W","W","W","W","W","W","W","W","W","W","W","W","W","W","W","W","W","W","W","W","W","W","W","W","W","W","W","W","W","W","W","W","W","W","W","W","W","W","W","W","W","W","W","W","W","W","W","W","W","W","W","W","W","W","W","W","W","W","W","W","W","W","W","W","W","W","W","W","W","W","W","W","W","W","W","W","W","W","W","W","W","W","W","W","W","W","W","W","W","W","W","W","W","W","W","W","W","W","W","W","W","W","W","W","W","W","W","W","W","W","W","W","W","W","W","W","W","W","W","W","W","W","W","W","W","W","W","W","W","W","W","W","W","W","W","W","W","W","W","W","W","W","W","W","W","W","W","W","W","W","W","W","W","W","W","W","W","W","W","W","W","W","W","W","W","W","W","W","W","W","W","W","W","W","W","W","W","W","W","W","W","W","W","W","W","W","W","W","W","W","W","W","W","W","W","W","W","W","W","W","W","W","W","W","W","W","W","W","W","W","W","W","W","W","W","W","W","W","W","W","W","W","W","W","W","W","W","W","W","W","W","W","W","W","W","W","W","W","W","W","W","W","W","W","W","W","W","W","W","W","W","W","W","W","W","W","W","W","W","W","W","W","W","W","W","W","W","W","W","W","W","W","W","W","W","W","W","W","W","W","W","W","W","W","W","W","W","W","W","W","W","W","W","W","W","W","W","W","W","W","W","W","W","W","W","W","W","W","W","W","W","W","W","W","W","W","W","W","W","W","W","W","W","W","W","W","W","W","W","W","W","W","W","W","W","W","W","W","W","W","W","W","W","W","W","W","W","W","W","W","W","W","W","W","W","W","W","W","W","W","W","W","W","W","W","W","W","W","W","W","W","W","W","W","W","W","W","W","W","W","W","W","W","W","W","W","W","W","W","W","W","W","W","W","W","W","W","W","W","W","W","W","W","W","W","W","W","W","W","W","W","W","W","W","W","W","W","W","W","W","?","?","O","O","?","P","P","P","P","P","P","P","P","P","P","P","P","P","P","P","P","P","P","P","P","P","P","P","P","P","P","P","P","P","P","P","P","P","P","P","P","P","P","P","P","P","P","P","P","P","P","P","P","P","P","P","P","P","P","P","P","P","P","P","P","P","P","P","P","P","P","P","P","P","P","P","P","P","P","P","P","P","P","P","P","P","P","P","P","P","P","P","P","P","P","P","P","P","P","P","P","P","P","P","P","P","P","P","P","P","P","P","P","P","P","P","P","P","P","P","P","P","P","P","P","P","P","P","P","P","P","P","P","P","P","P","P","P","P","P","P","P","P","P","P","P","P","P","P","P","P","P","P","P","P","P","P","P","P","P","P","P","P","P","P","P","P","P","P","P","P","P","P","P","P","P","P","P","P","P","P","P","P","P","P","P","P","P","P","P","P","P","P","P","P","P","P","P","P","P","P","P","P","P","P","P","P","P","P","P","P","P","P","P","P","P","P","P","P","P","P","P","P","P","P","P","P","P","P","P","P","P","P","P","P","P","P","P","P","P","P","P","P","P","P","P","P","P","P","P","P","P","P","P","P","P","P","P","P","P","P","P","P","P","P","P","P","P","P","P","P","P","P","O","O","?","?","?","?","?","?","?","?","?","?","D","D","D","?","?","?","?","?","?","C","C","C","C","C","C","C","C","C","C","C","C","C","C","C","C","C","C","C","C","C","C","C","C","C","C","C","C","?","?","?","?","?","?","?","?","B","B","B","B","B","B","B","B","B","B","B","B","B","B","B","B","B","B","B","B","B","B","B","B","B","B","B","B","B","B","B","B","B","B","B","B","B","B","B","B","B","B","B","B","B","B","B","B","B","B","B","B","B","B","B","B","B","B","B","B","B","B","B","B","B","B","B","B","B","B","B","B","B","B","B","B","B","B","B","B","B","B","B","B","B","B","B","B","B","B","B","B","B","B","B","B","B","B","B","B","B","B","B","B","B","B","B","B","B","B","B","C","D","?","?","?","?","?","?","?","?","?","?","?","?","?","?","?","?","?","?","?","?","D","D","D","D","D","D","D","D","D","D","D","D","D","D","D","D","D","D","D","D","D","D","D","D","D","D","D","D","D","D","D","D","D","D","D","D","D","D","D","D","D","D","D","D","D","D","D","D","D","D","D","D","D","D","D","D","D","D","D","D","D","D","D","D","D","D","D","D","D","D","D","D","D","D","D","D","D","D","D","D","D","D","D","D","D","D","D","D","D","D","?","?","?","?","?","?","?","?","?","?","?","?","?","?","?","?","?","?","?","?","?","?","?","?","?","?","?","?","?","?","?","?","?","?","?","?","F","F","F","F","F","F","F","F","F","F","F","F","F","F","F","F","F","F","F","F","F","F","F","F","F","F","F","F","F","F","F","F","F","F","F","F","F","F","F","F","F","F","F","F","F","F","F","F","F","F","F","F","F","F","F","F","F","F","F","F","F","F","F","F","F","F","F","F","F","F","F","F","F","F","F","F","F","F","F","F","F","F","F","F","F","F","F","F","F","F","F","F","F","F","F","F","F","F","F","F","F","F","F","F","F","F","F","F","?","G","G","G","G","G","G","G","G","G","G","G","G","G","G","G","G","G","G","G","G","G","G","G","G","G","G","G","?","?","?","?","?","?","?","?","?","?","?","?","?","?","?","?","?","?","?","?","?","?","?","?","?","?","?","?","?","?","?","?","M","M","M","M","M","M","M","M","M","M","M","M","M","M","M","M","M","M","M","M","M","M","M","M","M","M","M","M","M","M","M","M","M","M","M","M","M","M","M","M","M","M","M","M","M","M","M","M","M","M","M","M","M","M","M","M","M","M","M","M","M","M","M","M","M","M","M","M","M","M","M","M","M","M","M","M","M","M","M","M","M","M","M","M","M","M","M","?","?","?","L","L","L","L","L","L","?","?","K","K","K","K","K","K","?","?","J","J","J","J","J","J","J","J","J","J","J","J","J","J","J","J","J","J","J","J","J","J","J","J","J","J","J","J","J","J","J","J","J","J","J","J","J","J","J","J","J","J","J","J","J","J","J","J","J","J","J","J","J","J","J","J","J","J","J","J","J","J","J","J","J","J","J","J","J","J","J","J","J","J","J","J","J","J","J","J","K","K","K","K","?","?","?","?","?","?","U","?","?","?","?","?","?","?","?","V","V","V","V","V","V","V","V","V","V","V","V","?","?","W","W","W","W","W","W","W","W","W","?","?","?","?","X","X","X","X","X","X","X","X","X","X","X","X","X","X","X","X","X","X","X","X","X","X","X","X","X","X","X","X","X","X","X","X","X","X","X","X","X","X","X","X","X","X","X","X","X","X","X","X","X","X","X","X","X","X","X","X","X","X","X","X","X","X","X","X","X","X","X","X","X","X","X","X","X","X","X","X","X","X","X","X","X","X","X","X","X","X","X","X","X","X","X","X","X","X","X","X","X","X","X","X","X","X","X","X","X","X","X","X","X","X","X","X","X","X","X","X","X","?","Y","Y","Y","Y","Y","Y","Y","Y","Y","Y","Y","Y","Y","Y","Y","Y","Y","Y","Y","Y","Y","Y","Y","Y","Y","Y","Y","Y","Y","Y","Y","Y","Y","Y","Y","Y","Y","Y","Y","Y","Y","Y","Y","Y","Y","Y","Y","?","R","R","R","R","R","R","R","R","R","R","R","R","R","R","R","R","R","R","R","R","R","R","R","R","R","R","R","R","R","R","R","R","R","R","R","R","R","R","R","R","R","R","R","R","R","?","?","?","?","?","?","?","?","?","?","?","?","?","H","H","H","H","H","H","H","H","H","H","H","H","H","H","H","H","H","H","H","H","H","H","H","H","H","H","H","H","H","H","H","H","H","H","H","H","H","H","H","H","H","H","H","H","H","H","H","H","H","H","H","H","H","H","H","H","H","H","H","H","H","H","H","H","H","H","H","H","H","H","H","H","H","H","H","H","H","H","H","H","H","H","H","H","H","H","H","H","H","H","H","H","H","H","H","?","?","G","?","F","F","?","E","D","?","C","C","?","B","B","B","B","B","B","B","B","B","B","B","B","B","B","B","B","B","B","B","B","B","B","B","B","B","B","B","B","B","B","B","B","B","B","B","B","B","B","B","B","B","B","B","B","B","B","B","B","B","B","B","B","B","B","B","B","B","B","B","B","B","B","B","B","B","B","B","B","B","B","B","B","B","B","B","B","B","B","B","B","B","B","B","B","B","B","B","B","B","B","B","B","B","B","B","B","B","B","B","B","B","B","B","B","B","B","B","B","B","B","B","B","B","B","B","B","B","B","B","B","B","B","B","B","B","B","B","B","B","B","B","B","B","B","B","B","B","B","B","B","B","B","B","B","B","B","B","B","B","B","B","B","B","B","B","B","B","B","B","B","B","B","B","B","B","B","B","B","B","B","B","B","B","B","B","B","B","B","B","B","B","B","B","B","B","B","B","B","B","B","B","B","B","B","B","B","B","B","B","B","B","B","B","B","B","B","B","B","B","B","B","B","B","B","B","B","B","B","B","B","B","B","B","B","B","B","B","B","B","B","B","B","B","B","B","B","B","B","B","B","B","B","B","B","B","B","B","B","B","B","B","B","B","B","B","B","B","B","B","B","B","B","B","B","B","B","B","B","B","B","B","B","B","?","?","C","C","?","?","?","?","?","?","?","?","?","?","?","?","?","?","?","?","?","?","?","?","?","?","?","?","?","?","?","?","?","?","?","?","?","?","?","?","?","?","?","?","?","?","?","?","?","?","?","?","?","?","?","?","?","?","?","?","?","?","?","D","D","D","D","D","D","D","D","D","D","D","D","D","D","D","D","D","D","D","D","?","?","?","?","?","E","E","E","E","E","E","E","E","E","E","?","?","?","?","?","?","?","?","?","?","?","?","?","?","?","?","?","?","?","?","?","?","?","?","?","F","F","?","G","G","?","H","H","H","?","I","I","I","I","I","I","I","I","I","I","I","I","I","I","I","I","I","I","I","?","G","?","F","E","E","D","D","D","D","D","D","D","D","D","D","D","D","?","E","E","E","E","E","E","E","E","E","E","E","E","E","E","E","E","E","E","E","E","E","E","E","E","E","E","E","E","E","E","E","E","E","E","E","E","E","E","E","E","E","E","E","E","E","E","E","E","E","E","E","E","E","E","E","E","E","?","?","?","?","?","?","?","?","?","?","?","?","?","?","?","?","?","?","?","?","?","?","?","?","?","?","?","?","?","?","?","?","?","?","?","?","?","?","?","?","?","?","?","?","?","?","?","?","?","?","?","?","?","?","?","?","?","?","?","?","?","?","?","?","?","?","?","?","?","?","?","?","?","?","?","?","?","?","?","?","?","?","?","?","?","?","?","?","?","?","?","?","?","?","?","?","?","?","?","?","?","?","?","?","?","?","?","?","?","?","?","?","?","?","?","?","?","?","?","?","?","?","?","?","?","?","?","?","?","?","?","?","?","?","?","?","?","?","?","?","?","?","?","?","?","?","?","?","?","?","?","?","?","?","?","?","?","?","?","?","?","?","?","?","?","?","?","?","?","?","?","?","?","?","?","?","?","?","?","?","?","?","?","?","?","?","?","?","?","?","?","?","?","?","?","?","?","?","?","?","?","?","?","?","?","?","?","?","?","?","?","?","?","?","?","?","?","?","?","?","?","?","?","?","?","?","?","?","?","?","?","?","?","?","?","?","?","?","?","?","?","?","?","?","?","?","?","?","?","?","?","?","?","?","?","?","?","?","?","?","?","?","?","?","?","?","?","?","?","?","?","?","?","?","?","?","E","?","O","?","?","?","?","?","?","?","?","?","?","?","?","?","?","?","?","?","?","?","?","?","?","?","?","?","?","?","?","Z","Z","Z","Z","Z","Z","Z","Z","Z","Z","Z","Z","Z","Z","Z","Z","Z","Z","Z","Z","Z","Z","Z","Z","Z","Z","Z","Z","Z","Z","Z","Z","Z","Z","Z","Z","Z","Z","Z","Z","Z","Z","Z","Z","Z","Z","Z","Z","Z","Z","Z","Z","Z","Z","Z","Z","Z","Z","Z","Z","Z","Z","Z","Z","Z","Z","Z","?","?","?","?","?","?","?","?","?","?","?","?","?","?","?","?","?","?","?","?","O","O","O","O","O","O","O","O","O","O","O","P","P","P","?","?","?","?","?","Q","Q","Q","Q","Q","Q","Q","Q","Q","Q","Q","Q","Q","Q","Q","Q","Q","Q","Q","Q","Q","?","?","?","?","R","R","R","R","R","R","R","R","R","R","R","R","R","R","R","R","R","R","R","R","R","R","R","R","R","R","R","R","R","R","R","R","R","R","R","R","R","R","R","R","R","R","R","R","R","R","R","R","R","R","R","R","R","R","?","Q","P","?","D","?","?","?","?","?","?","?","?","?","?","?","?","?","?","?","?","?","?","?","?","?","?","?","?","?","?","?","?","?","?","?","?","?","?","?","?","?","?","?","?","?","?","?","?","?","?","?","?","?","?","?","?","?","?","A","A","A","A","A","A","A","A","A","A","A","A","A","A","A","A","A","A","A","A","A","A","A","A","A","A","A","A","A","A","A","A","A","A","A","A","A","A","A","A","A","A","A","A","A","A","A","A","A","A","A","A","A","A","A","A","A","A","A","A","A","A","A","A","A","A","A","A","A","A","A","A","A","A","A","A","A","A","A","A","A","A","A","A","A","A","A","A","A","A","A","A","A","A","A","A","A","A","A","A","A","A","A","A","A","A","A","A","A","A","A","A","A","A","A","A","A","A","A","A","A","A","A","A","A","A","A","A","A","A","A","A","A","A","A","A","A","A"],"t":[132,205,220,233,289,304,315,326,340,358,374,391,407,425,440,457,476,491,507,522,542,556,577,589,610,635,655,674,687,730,741,754,775,793,807,823,839,860,876,888,905,924,939,957,975,990,1006,1023,1039,1056,1072,1089,1112,1129,1144,1159,1204,1214,1242,1254,1273,1288,1305,1324,1337,1356,1370,1391,1404,1427,1440,1458,1475,1488,1506,1521,1539,1553,1570,1586,1607,1620,1637,1654,1671,1687,1702,1722,1736,1757,1774,1787,1804,1824,1836,1856,1870,1890,1903,1923,1936,1955,1970,1988,2005,2021,2036,2055,2072,2086,2104,2120,2139,2154,2171,2186,2204,2219,2238,2253,2272,2285,2305,2319,2338,2353,2372,2386,2405,2419,2439,2454,2470,2489,2504,2524,2543,2556,2571,2605,2611,2637,2657,2669,2687,2704,2720,2739,2753,2771,2788,2802,2823,2836,2854,2873,2887,2903,2921,2937,2953,2971,2991,3003,3021,3036,3055,3069,3089,3102,3121,3136,3156,3169,3189,3202,3221,3237,3254,3269,3290,3302,3322,3336,3354,3371,3386,3404,3420,3437,3453,3472,3485,3506,3519,3539,3552,3571,3586,3604,3619,3637,3654,3670,3688,3704,3720,3738,3752,3774,3785,3802,3823,3838,3853,3871,3886,3904,3921,3937,3955,3971,3988,4020,4027,4055,4072,4086,4105,4121,4136,4156,4173,4188,4202,4222,4237,4254,4273,4285,4305,4319,4338,4354,4370,4389,4402,4422,4435,4455,4468,4488,4503,4519,4538,4553,4570,4587,4604,4620,4638,4653,4671,4688,4703,4722,4737,4754,4769,4789,4802,4821,4840,4852,4871,4885,4904,4918,4937,4956,4968,4988,5002,5021,5036,5054,5070,5089,5102,5122,5136,5153,5170,5190,5202,5221,5239,5255,5271,5287,5304,5319,5336,5357,5373,5389,5403,5437,5443,5471,5487,5504,5519,5538,5551,5576,5586,5605,5622,5638,5654,5674,5689,5704,5721,5737,5756,5770,5790,5804,5823,5839,5855,5869,5889,5903,5923,5936,5954,5970,5987,6005,6020,6038,6058,6069,6087,6105,6121,6136,6154,6170,6188,6204,6221,6238,6253,6269,6289,6302,6321,6336,6359,6374,6385,6404,6419,6439,6452,6472,6489,6502,6523,6537,6553,6570,6587,6605,6618,6637,6656,6669,6690,6708,6723,6739,6754,6788,6795,6818,6836,6853,6871,6887,6906,6919,6936,6952,6973,6985,7004,7020,7037,7052,7073,7090,7105,7119,7139,7152,7170,7185,7206,7218,7238,7252,7270,7285,7301,7319,7338,7353,7370,7387,7404,7419,7439,7451,7470,7486,7503,7520,7537,7554,7577,7606,7619,7636,7653,7671,7689,7703,7723,7736,7753,7770,7787,7803,7820,7837,7852,7870,7886,7904,7920,7936,7953,7969,7985,8007,8019,8037,8052,8071,8086,8103,8120,8135,8154,8168,8188,8207,8226,8239,8254,8292,8299,8318,8338,8352,8375,8387,8403,8422,8435,8454,8469,8486,8508,8519,8537,8554,8572,8586,8603,8620,8635,8654,8671,8686,8703,8720,8736,8754,8769,8788,8802,8824,8835,8854,8869,8888,8903,8921,8936,8954,8971,8988,9006,9019,9036,9054,9074,9087,9104,9119,9136,9155,9170,9186,9205,9219,9237,9252,9270,9285,9305,9320,9336,9354,9369,9387,9402,9422,9437,9452,9472,9485,9504,9519,9541,9552,9571,9586,9606,9627,9653,9687,9695,9720,9735,9755,9770,9787,9803,9822,9836,9852,9870,9886,9904,9919,9938,9953,9971,9987,10003,10019,10038,10053,10072,10085,10105,10117,10137,10151,10170,10188,10202,10219,10238,10251,10270,10287,10302,10320,10334,10355,10368,10388,10402,10420,10436,10451,10471,10485,10504,10518,10536,10558,10571,10586,10605,10621,10634,10656,10668,10688,10702,10719,10735,10752,10770,10785,10804,10819,10835,10853,10869,10885,10904,10918,10937,10952,10970,10987,11005,11022,11039,11056,11090,11099,11120,11137,11155,11170,11187,11203,11220,11237,11255,11269,11285,11304,11319,11337,11355,11369,11389,11402,11422,11436,11453,11471,11485,11503,11519,11538,11551,11571,11587,11602,11620,11635,11657,11668,11687,11702,11723,11735,11753,11791,11804,11820,11839,11858,11869,11889,11908,11920,11937,11956,11970,11989,12006,12023,12039,12054,12071,12089,12105,12120,12137,12154,12171,12190,12204,12219,12236,12255,12271,12287,12305,12321,12337,12357,12373,12388,12408,12423,12439,12459,12481,12498,12512,12548,12558,12572,12589,12604,12624,12637,12658,12670,12688,12705,12720,12740,12756,12798,12807,12820,12838,12853,12872,12886,12907,12920,12940,12954,12971,12987,13004,13021,13038,13055,13070,13087,13105,13120,13139,13153,13174,13187,13206,13220,13240,13254,13273,13287,13304,13322,13338,13355,13370,13389,13403,13419,13439,13453,13472,13486,13505,13520,13540,13553,13572,13587,13605,13618,13638,13652,13672,13685,13709,13719,13736,13754,13772,13792,13805,13820,13848,13871,13886,13904,13919,13941,13952,13973,13986,14003,14021,14035,14055,14069,14087,14104,14119,14136,14156,14169,14186,14204,14219,14236,14252,14270,14285,14314,14324,14334,14355,14368,14387,14402,14420,14437,14455,14470,14486,14505,14520,14536,14553,14574,14591,14606,14620,14636,14656,14669,14686,14703,14720,14735,14753,14772,14788,14802,14821,14836,14853,14868,14888,14901,14921,14937,14955,14969,14988,15004,15020,15037,15051,15071,15085,15104,15118,15138,15151,15175,15191,15206,15221,15244,15268,15286,15303,15318,15337,15354,15370,15386,15402,15417,15435,15454,15468,15486,15502,15518,15537,15551,15569,15586,15602,15618,15636,15653,15669,15685,15702,15720,15734,15753,15767,15787,15803,15820,15834,15852,15867,15885,15901,15920,15935,15953,15967,15987,16001,16019,16034,16053,16074,16084,16103,16118,16135,16151,16170,16184,16204,16217,16237,16250,16272,16284,16303,16317,16337,16350,16370,16384,16404,16417,16438,16451,16468,16485,16500,16518,16535,16551,16572,16588,16605,16620,16643,16653,16668,16687,16702,16722,16735,16754,16768,16787,16802,16820,16836,16852,16871,16886,16904,16919,16940,16954,16970,16986,17011,17020,17036,17054,17074,17085,17106,17118,17139,17153,17171,17185,17204,17219,17236,17253,17270,17287,17303,17321,17338,17353,17371,17386,17404,17419,17437,17453,17470,17487,17502,17520,17536,17553,17568,17587,17602,17620,17637,17651,17670,17685,17703,17718,17737,17752,17770,17785,17803,17820,17836,17853,17870,17885,17903,17919,17938,17965,17981,18002,18024,18050,18070,18086,18101,18120,18135,18152,18171,18189,18203,18217,18237,18254,18271,18285,18302,18319,18334,18353,18367,18386,18402,18420,18434,18452,18472,18484,18501,18522,18534,18551,18570,18584,18604,18617,18638,18651,18669,18685,18702,18720,18735,18751,18770,18784,18801,18821,18834,18855,18867,18887,18905,18917,18935,18951,18970,18984,19001,19024,19034,19052,19067,19087,19100,19120,19134,19152,19167,19186,19201,19219,19236,19250,19271,19285,19303,19318,19336,19364,19382,19404,19429,19451,19469,19485,19503,19521,19538,19552,19569,19584,19602,19618,19636,19651,19670,19692,19706,19720,19737,19752,19772,19785,19803,19818,19835,19851,19870,19884,19902,19921,19936,19952,19968,19989,20004,20017,20035,20052,20070,20084,20104,20118,20137,20152,20167,20187,20200,20218,20237,20253,20267,20286,20301,20319,20336,20350,20370,20384,20403,20419,20435,20453,20467,20486,20501,20519,20535,20553,20571,20583,20601,20618,20634,20652,20668,20688,20709,20721,20751,20763,20772,20786,20803,20818,20837,20853,20871,20885,20904,20918,20937,20952,20969,20986,21001,21021,21034,21054,21068,21086,21102,21119,21137,21154,21169,21186,21202,21219,21235,21253,21268,21287,21302,21320,21335,21353,21368,21387,21401,21421,21436,21454,21469,21487,21502,21520,21535,21553,21570,21587,21603,21619,21636,21653,21668,21687,21701,21720,21736,21752,21768,21786,21802,21818,21836,21851,21871,21885,21904,21919,21937,21956,21968,21986,22003,22018,22037,22053,22070,22086,22104,22128,22150,22168,22186,22202,22219,22235,22251,22272,22286,22302,22318,22336,22353,22367,22387,22400,22422,22434,22452,22470,22484,22503,22517,22538,22553,22570,22584,22603,22617,22636,22651,22668,22688,22701,22718,22734,22752,22768,22791,22800,22820,22834,22852,22869,22885,22901,22919,22936,22951,22968,22984,23003,23016,23035,23053,23070,23084,23102,23118,23135,23151,23167,23186,23200,23219,23234,23252,23268,23285,23301,23319,23333,23353,23367,23386,23401,23419,23434,23452,23474,23490,23504,23522,23547,23568,23584,23600,23619,23634,23651,23668,23689,23700,23721,23736,23750,23770,23784,23802,23819,23834,23851,23870,23884,23902,23918,23933,23951,23968,23984,24002,24018,24034,24055,24067,24085,24101,24117,24135,24156,24167,24185,24201,24219,24234,24254,24267,24285,24304,24317,24337,24353,24368,24383,24404,24419,24434,24452,24467,24485,24501,24517,24536,24551,24569,24584,24603,24619,24635,24652,24667,24685,24705,24717,24733,24754,24766,24785,24801,24818,24837,24853,24869,24894,24903,24918,24935,24952,24969,24988,25000,25020,25033,25054,25067,25085,25101,25119,25135,25151,25170,25184,25206,25218,25235,25253,25267,25287,25302,25319,25335,25353,25368,25385,25402,25417,25435,25450,25470,25485,25501,25518,25534,25551,25567,25588,25600,25620,25635,25652,25668,25684,25702,25718,25736,25751,25768,25784,25802,25818,25836,25851,25870,25885,25902,25918,25936,25951,25969,25983,26000,26018,26035,26052,26067,26087,26101,26119,26135,26154,26168,26185,26209,26224,26239,26256,26281,26288,26304,26317,26335,26350,26370,26383,26404,26418,26434,26452,26468,26485,26500,26520,26534,26552,26568,26583,26604,26617,26634,26652,26668,26686,26700,26720,26734,26752,26767,26786,26800,26820,26835,26852,26869,26883,26903,26917,26936,26952,26968,26984,27003,27017,27034,27053,27066,27086,27100,27120,27133,27152,27167,27187,27201,27220,27234,27252,27269,27284,27302,27318,27337,27351,27369,27385,27402,27420,27434,27453,27468,27485,27503,27517,27536,27552,27569,27587,27606,27623,27636,27660,27667,27683,27700,27718,27734,27751,27769,27786,27803,27818,27837,27851,27868,27886,27901,27917,27936,27951,27968,27984,28003,28018,28036,28050,28069,28083,28103,28119,28133,28155,28168,28189,28208,28235,28252,28267,28285,28301,28319,28335,28351,28368,28384,28402,28419,28434,28451,28469,28483,28502,28518,28533,28551,28568,28585,28601,28617,28636,28649,28669,28683,28702,28716,28735,28750,28767,28783,28799,28817,28833,28851,28869,28886,28902,28919,28936,28959,28983,29004,29017,29033,29051,29068,29087,29100,29118,29133,29150,29168,29183,29203,29217,29234,29252,29266,29285,29300,29318,29335,29349,29370,29385,29399,29417,29433,29455,29466,29485,29501,29517,29535,29550,29567,29584,29603,29616,29636,29650,29667,29686,29699,29719,29733,29752,29766,29785,29800,29820,29832,29851,29866,29884,29902,29916,29936,29950,29967,29983,29999,30015,30033,30050,30066,30084,30100,30117,30134,30153,30165,30185,30200,30218,30234,30250,30270,30288,30302,30318,30342,30351,30367,30384,30399,30419,30433,30451,30468,30486,30500,30518,30533,30551,30567,30587,30606,30617,30636,30650,30666,30685,30700,30719,30736,30750,30769,30784,30805,30817,30835,30851,30868,30884,30902,30916,30934,30950,30968,30982,31002,31016,31035,31051,31066,31083,31103,31115,31135,31150,31168,31183,31202,31216,31234,31250,31267,31285,31300,31317,31335,31349,31368,31384,31402,31418,31432,31452,31466,31486,31499,31519,31533,31550,31567,31584,31600,31617,31636,31659,31671,31684,31706,31732,31749,31767,31783,31802,31816,31836,31849,31869,31885,31900,31917,31933,31949,31966,31985,32001,32018,32036,32051,32067,32083,32102,32116,32134,32152,32165,32184,32200,32218,32232,32250,32269,32283,32302,32316,32336,32349,32368,32382,32401,32417,32434,32451,32466,32484,32499,32519,32532,32551,32566,32586,32601,32616,32636,32649,32668,32684,32700,32718,32733,32753,32765,32784,32799,32818,32835,32850,32868,32883,32901,32918,32934,32951,32967,32986,33000,33019,33033,33053,33069,33085,33101,33125,33149,33167,33187,33203,33220,33233,33252,33267,33285,33300,33318,33334,33354,33367,33383,33402,33415,33435,33449,33468,33482,33501,33517,33532,33551,33566,33583,33600,33617,33635,33653,33665,33685,33702,33719,33737,33749,33769,33784,33801,33819,33833,33851,33866,33885,33900,33918,33934,33956,33968,33984,34000,34019,34033,34050,34068,34084,34101,34117,34135,34149,34169,34182,34201,34216,34234,34249,34268,34282,34300,34318,34332,34352,34365,34384,34399,34417,34432,34452,34467,34484,34502,34523,34533,34550,34566,34583,34602,34616,34634,34650,34668,34682,34700,34715,34735,34751,34766,34786,34798,34816,34836,34849,34867,34885,34899,34916,34933,34951,34965,34986,35000,35016,35035,35053,35067,35085,35099,35118,35132,35154,35166,35184,35199,35216,35235,35254,35266,35284,35300,35317,35333,35354,35366,35384,35399,35419,35432,35452,35465,35483,35499,35517,35536,35549,35568,35583,35603,35617,35634,35652,35669,35684,35699,35717,35737,35751,35768,35785,35810,35832,35849,35867,35883,35902,35917,35935,35953,35968,35984,36000,36018,36037,36050,36066,36086,36101,36118,36135,36152,36167,36183,36202,36216,36235,36249,36267,36282,36301,36315,36334,36349,36367,36384,36399,36416,36433,36450,36465,36483,36500,36519,36533,36550,36565,36582,36600,36622,36652,36665,36683,36699,36716,36733,36749,36766,36786,36799,36817,36833,36849,36866,36884,36899,36917,36932,36950,36967,36983,37001,37015,37034,37052,37069,37085,37099,37118,37133,37149,37165,37185,37198,37219,37234,37252,37271,37283,37312,37320,37332,37349,37367,37383,37400,37420,37433,37449,37467,37484,37499,37518,37532,37552,37565,37587,37603,37619,37635,37652,37670,37685,37702,37718,37734,37749,37769,37782,37801,37816,37834,37850,37868,37884,37899,37918,37933,37951,37968,37984,38001,38019,38032,38050,38067,38084,38100,38116,38135,38150,38168,38182,38201,38218,38232,38253,38269,38285,38301,38317,38334,38352,38366,38383,38401,38417,38436,38452,38468,38482,38500,38516,38534,38550,38567,38586,38601,38618,38634,38657,38682,38698,38716,38732,38750,38767,38782,38803,38815,38834,38849,38867,38883,38900,38918,38932,38952,38966,38984,39001,39016,39033,39048,39068,39082,39100,39116,39134,39149,39170,39182,39199,39218,39233,39250,39265,39284,39299,39317,39332,39351,39367,39383,39401,39416,39433,39450,39465,39485,39499,39519,39532,39550,39568,39586,39599,39615,39635,39650,39666,39682,39700,39717,39732,39751,39765,39786,39798,39817,39833,39850,39871,39884,39899,39917,39935,39950,39969,39983,40008,40032,40049,40068,40082,40100,40116,40134,40149,40167,40182,40200,40215,40235,40250,40266,40282,40300,40315,40333,40348,40368,40382,40401,40416,40435,40452,40466,40483,40499,40518,40534,40550,40565,40584,40599,40616,40633,40650,40665,40684,40699,40718,40734,40749,40767,40783,40804,40815,40833,40851,40867,40883,40901,40917,40933,40949,40971,40985,41000,41016,41034,41050,41067,41084,41099,41117,41132,41152,41165,41183,41198,41216,41232,41253,41267,41284,41301,41317,41341,41365,41381,41400,41417,41431,41452,41465,41484,41499,41516,41534,41554,41565,41583,41598,41615,41635,41650,41667,41683,41701,41715,41736,41748,41767,41782,41800,41816,41834,41852,41865,41883,41898,41918,41932,41950,41969,41982,42000,42020,42033,42049,42067,42083,42098,42118,42132,42150,42166,42183,42199,42218,42231,42250,42265,42283,42299,42320,42332,42350,42364,42384,42398,42417,42433,42450,42465,42485,42498,42516,42536,42549,42566,42586,42601,42617,42633,42653,42670,42692,42708,42722,42747,42765,42782,42801,42816,42836,42854,42866,42884,42902,42917,42934,42949,42971,42982,43000,43015,43035,43048,43066,43082,43103,43117,43132,43150,43165,43183,43199,43216,43232,43252,43267,43285,43299,43316,43333,43350,43364,43384,43398,43418,43431,43451,43465,43483,43498,43518,43531,43548,43566,43582,43599,43617,43631,43650,43665,43682,43700,43715,43735,43748,43766,43781,43800,43815,43832,43850,43865,43883,43898,43917,43932,43950,43966,43983,43998,44019,44032,44052,44067,44084,44102,44125,44148,44168,44183,44201,44218,44232,44249,44268,44282,44300,44315,44334,44350,44365,44386,44400,44416,44432,44451,44468,44482,44500,44517,44534,44548,44567,44582,44600,44615,44633,44649,44666,44683,44698,44716,44734,44748,44767,44784,44800,44816,44835,44852,44867,44883,44900,44916,44933,44948,44967,44982,45000,45016,45033,45049,45067,45084,45098,45118,45133,45151,45166,45184,45199,45215,45231,45249,45266,45282,45302,45316,45335,45350,45379,45398,45415,45431,45451,45465,45481,45500,45516,45532,45551,45565,45586,45599,45615,45634,45649,45666,45682,45701,45715,45733,45752,45767,45782,45799,45815,45832,45849,45866,45881,45899,45915,45936,45948,45967,45984,46000,46017,46033,46047,46067,46083,46101,46115,46132,46151,46164,46183,46200,46218,46233,46248,46265,46285,46299,46317,46333,46349,46368,46381,46400,46415,46432,46448,46467,46481,46501,46515,46532,46549,46567,46581,46598,46615,46633,46648,46666,46681,46701,46716,46731,46751,46764,46792,46809,46833,46860,46881,46898,46921,46931,46951,46968,46981,47003,47015,47033,47048,47069,47082,47099,47117,47131,47151,47165,47183,47199,47215,47235,47249,47266,47282,47302,47316,47331,47351,47366,47381,47400,47416,47431,47451,47464,47484,47497,47517,47531,47548,47566,47581,47598,47615,47632,47650,47665,47683,47699,47716,47732,47750,47767,47785,47798,47816,47837,47851,47865,47885,47899,47919,47931,47950,47964,47984,47998,48017,48032,48048,48065,48081,48100,48116,48132,48148,48165,48184,48200,48216,48234,48264,48283,48305,48318,48332,48350,48366,48382,48399,48418,48433,48448,48468,48481,48502,48516,48534,48549,48567,48584,48602,48617,48631,48648,48667,48682,48699,48718,48731,48750,48765,48783,48799,48816,48831,48850,48866,48888,48898,48916,48931,48951,48964,48984,48999,49016,49034,49047,49067,49082,49100,49116,49131,49150,49166,49181,49199,49218,49234,49248,49264,49284,49297,49318,49330,49351,49364,49383,49398,49416,49432,49448,49467,49481,49500,49514,49533,49548,49568,49590,49615,49638,49664,49681,49701,49714,49733,49747,49766,49782,49800,49816,49831,49850,49864,49883,49898,49918,49930,49950,49964,49982,50000,50014,50033,50047,50067,50081,50099,50115,50132,50150,50164,50183,50199,50215,50232,50249,50266,50282,50300,50315,50334,50348,50365,50382,50399,50416,50432,50453,50469,50481,50499,50514,50535,50547,50568,50582,50601,50616,50633,50650,50665,50683,50699,50715,50731,50749,50764,50782,50797,50816,50830,50850,50869,50881,50899,50915,50933,50952,50968,50986,50998,51023,51033,51048,51065,51082,51109,51119,51133,51153,51166,51184,51199,51218,51234,51251,51267,51283,51300,51316,51335,51349,51367,51382,51404,51416,51437,51450,51467,51484,51503,51518,51534,51549,51567,51583,51599,51616,51634,51649,51667,51682,51704,51716,51732,51752,51767,51782,51801,51814,51834,51848,51869,51882,51899,51917,51933,51950,51965,51984,52001,52015,52031,52050,52067,52083,52098,52116,52132,52151,52165,52183,52198,52216,52232,52250,52266,52283,52299,52324,52334,52350,52367,52383,52400,52417,52432,52451,52466,52483,52500,52516,52532,52552,52566,52582,52598,52616,52633,52650,52665,52683,52699,52716,52733,52748,52766,52782,52799,52814,52832,52848,52868,52881,52899,52917,52933,52948,52967,52983,53001,53016,53034,53049,53070,53082,53099,53115,53131,53151,53167,53181,53201,53216,53234,53250,53267,53282,53300,53315,53332,53348,53367,53383,53399,53418,53431,53450,53464,53483,53498,53516,53531,53553,53565,53583,53598,53616,53633,53648,53666,53683,53699,53718,53735,53751,53767,53795,53804,53830,53849,53864,53882,53897,53914,53931,53948,53964,53984,53997,54015,54031,54049,54064,54082,54097,54117,54131,54150,54164,54182,54198,54216,54233,54247,54266,54281,54297,54315,54332,54351,54363,54381,54397,54416,54430,54450,54463,54484,54500,54515,54532,54547,54565,54580,54598,54617,54633,54647,54666,54680,54699,54714,54735,54747,54766,54780,54799,54814,54834,54847,54869,54881,54899,54916,54930,54949,54964,54983,54997,55015,55031,55050,55065,55082,55101,55118,55132,55158,55180,55198,55215,55231,55247,55265,55283,55299,55315,55330,55349,55364,55382,55397,55414,55432,55451,55463,55482,55498,55513,55532,55547,55566,55584,55598,55614,55635,55647,55665,55680,55701,55714,55732,55747,55765,55780,55799,55814,55833,55847,55866,55881,55899,55914,55933,55947,55965,55984,55997,56016,56030,56048,56064,56081,56099,56114,56132,56148,56166,56182,56197,56217,56231,56252,56265,56282,56298,56320,56331,56349,56365,56380,56400,56416,56431,56450,56467,56483,56498,56530,56547,56564,56581,56600,56615,56634,56647,56666,56681,56699,56715,56733,56748,56763,56783,56797,56815,56830,56848,56865,56884,56896,56915,56930,56947,56964,56985,56996,57016,57030,57049,57067,57079,57097,57116,57130,57151,57164,57182,57199,57215,57233,57248,57266,57281,57299,57317,57331,57350,57364,57382,57397,57416,57430,57449,57464,57481,57499,57514,57530,57550,57564,57581,57598,57614,57633,57647,57666,57681,57699,57714,57732,57750,57766,57780,57799,57816,57835,57849,57866,57890,57913,57934,57948,57965,57981,57998,58014,58033,58048,58065,58083,58097,58117,58132,58149,58166,58181,58199,58215,58232,58248,58264,58281,58300,58313,58334,58348,58365,58382,58399,58414,58433,58448,58465,58482,58497,58516,58530,58549,58567,58584,58598,58616,58630,58650,58664,58684,58703,58715,58736,58749,58766,58781,58799,58815,58833,58848,58865,58882,58901,58918,58934,58947,58966,58980,58998,59015,59032,59049,59064,59081,59100,59116,59132,59156,59179,59197,59217,59232,59247,59266,59279,59300,59313,59331,59346,59366,59380,59400,59415,59431,59447,59464,59482,59497,59515,59530,59549,59564,59581,59597,59613,59632,59646,59667,59680,59699,59714,59731,59748,59764,59781,59798,59814,59833,59847,59865,59880,59901,59913,59932,59947,59965,59981,59998,60014,60031,60048,60063,60082,60099,60113,60132,60149,60163,60180,60198,60215,60231,60247,60265,60281,60299,60313,60332,60347,60365,60382,60399,60416,60430,60448,60468,60480,60503,60521,60536,60548,60576,60585,60599,60616,60631,60651,60664,60682,60697,60716,60730,60750,60763,60782,60798,60816,60832,60849,60864,60882,60897,60915,60931,60948,60966,60980,61000,61013,61034,61051,61065,61082,61098,61116,61132,61150,61168,61183,61197,61214,61233,61247,61266,61281,61300,61315,61332,61348,61366,61380,61399,61414,61431,61448,61466,61481,61499,61514,61532,61546,61564,61583,61597,61616,61632,61649,61669,61682,61698,61715,61737,61747,61769,61787,61802,61816,61841,61849,61865,61881,61898,61914,61933,61950,61966,61980,61999,62014,62033,62048,62066,62082,62099,62115,62131,62150,62164,62183,62197,62215,62231,62250,62265,62282,62298,62314,62330,62348,62365,62380,62398,62414,62432,62448,62464,62482,62497,62515,62531,62547,62565,62581,62597,62615,62632,62648,62665,62681,62697,62715,62731,62747,62765,62780,62800,62814,62832,62849,62864,62879,62898,62914,62930,62948,62963,62982,62996,63015,63030,63049,63063,63083,63100,63118,63134,63158,63179,63197,63215,63230,63249,63262,63282,63298,63314,63332,63346,63365,63380,63398,63413,63432,63447,63463,63482,63498,63515,63529,63549,63563,63582,63597,63613,63631,63647,63666,63680,63700,63715,63733,63749,63764,63782,63802,63814,63832,63848,63865,63881,63897,63914,63931,63949,63964,63981,63997,64015,64033,64048,64064,64084,64098,64114,64130,64150,64164,64180,64199,64213,64232,64248,64265,64283,64298,64315,64332,64353,64368,64383,64411,64432,64448,64464,64482,64497,64514,64531,64547,64565,64581,64598,64613,64632,64646,64665,64681,64700,64713,64731,64748,64763,64781,64800,64814,64830,64847,64862,64882,64896,64915,64930,64949,64963,64981,64998,65013,65031,65046,65065,65079,65098,65115,65129,65148,65165,65180,65199,65213,65232,65247,65266,65281,65299,65314,65332,65347,65364,65381,65396,65416,65432,65447,65467,65484,65497,65515,65532,65549,65564,65582,65598,65615,65632,65653,65672,65689,65705,65736,65748,65764,65781,65800,65814,65833,65851,65866,65883,65901,65917,65931,65949,65964,65983,66000,66017,66030,66047,66064,66080,66098,66114,66131,66149,66163,66183,66198,66216,66234,66248,66263,66281,66299,66313,66332,66347,66365,66382,66401,66414,66432,66449,66466,66482,66498,66516,66533,66547,66565,66580,66597,66615,66635,66650,66667,66680,66698,66715,66732,66750,66763,66782,66800,66815,66830,66848,66863,66882,66897,66916,66931,66953,66975,66991,67005,67028,67046,67063,67081,67102,67113,67131,67149,67164,67180,67199,67213,67231,67247,67264,67281,67296,67315,67332,67346,67364,67380,67400,67414,67431,67448,67465,67482,67496,67514,67532,67546,67563,67581,67597,67613,67631,67647,67666,67683,67697,67716,67731,67749,67764,67781,67796,67815,67830,67849,67863,67885,67897,67915,67930,67949,67964,67981,68000,68014,68033,68050,68063,68080,68097,68115,68131,68148,68164,68180,68200,68216,68237,68260,68281,68305,68318,68331,68347,68363,68381,68396,68417,68430,68448,68464,68482,68505,68517,68531,68548,68565,68581,68597,68615,68632,68648,68666,68682,68700,68715,68733,68748,68765,68781,68799,68814,68832,68848,68866,68881,68898,68914,68932,68948,68965,68983,68998,69013,69031,69048,69065,69080,69098,69114,69132,69149,69166,69182,69197,69215,69231,69247,69266,69280,69299,69314,69331,69348,69364,69383,69396,69416,69431,69449,69465,69487,69502,69516,69542,69552,69567,69582,69601,69613,69632,69647,69666,69680,69699,69715,69732,69746,69766,69780,69798,69815,69831,69849,69863,69884,69896,69915,69931,69948,69965,69982,69998,70015,70031,70048,70064,70082,70097,70115,70131,70149,70165,70182,70198,70215,70232,70248,70263,70280,70297,70314,70329,70348,70363,70384,70399,70414,70432,70451,70465,70480,70504],"hit":[null],"x":[-1.751700680272109,0.04081632653061224,0.04421768707482993,0.04421768707482993,0.04421768707482993,0.047619047619047616,0.047619047619047616,0.047619047619047616,0.047619047619047616,0.047619047619047616,0.047619047619047616,0.047619047619047616,0.047619047619047616,0.047619047619047616,0.047619047619047616,0.047619047619047616,0.05102040816326531,0.05102040816326531,0.05102040816326531,0.05102040816326531,0.05102040816326531,0.05102040816326531,0.05102040816326531,0.05102040816326531,0.05102040816326531,0.05102040816326531,0.05102040816326531,0.05102040816326531,0.05102040816326531,0.05102040816326531,0.05102040816326531,0.05102040816326531,0.05102040816326531,0.05102040816326531,0.05102040816326531,0.05102040816326531,0.05102040816326531,0.05102040816326531,0.05102040816326531,0.05102040816326531,0.05102040816326531,0.05102040816326531,0.05102040816326531,0.05102040816326531,0.05102040816326531,0.05102040816326531,0.05102040816326531,0.05102040816326531,0.05102040816326531,0.05102040816326531,0.05102040816326531,0.05102040816326531,0.05102040816326531,0.05102040816326531,0.05442176870748299,0.05442176870748299,0.05442176870748299,0.05442176870748299,0.05442176870748299,0.05442176870748299,0.05442176870748299,0.05442176870748299,0.05442176870748299,0.05442176870748299,0.05442176870748299,0.05442176870748299,0.05442176870748299,0.05442176870748299,0.05442176870748299,0.05442176870748299,0.05442176870748299,0.05442176870748299,0.05442176870748299,0.05442176870748299,0.05442176870748299,0.05442176870748299,0.05442176870748299,0.05442176870748299,0.05442176870748299,0.05442176870748299,0.05442176870748299,0.05442176870748299,0.05442176870748299,0.05442176870748299,0.05442176870748299,0.05442176870748299,0.05442176870748299,0.05442176870748299,0.05442176870748299,0.05442176870748299,0.05442176870748299,0.05442176870748299,0.05442176870748299,0.05442176870748299,0.05442176870748299,0.05442176870748299,0.05442176870748299,0.05442176870748299,0.05442176870748299,0.05442176870748299,0.05442176870748299,0.05442176870748299,0.05442176870748299,0.05442176870748299,0.05442176870748299,0.05442176870748299,0.05442176870748299,0.05442176870748299,0.05442176870748299,0.05442176870748299,0.05442176870748299,0.05442176870748299,0.05442176870748299,0.05442176870748299,0.05442176870748299,0.05442176870748299,0.05442176870748299,0.05442176870748299,0.05442176870748299,0.05442176870748299,0.05442176870748299,0.05442176870748299,0.05442176870748299,0.05442176870748299,0.05442176870748299,0.05442176870748299,0.05442176870748299,0.05442176870748299,0.05442176870748299,0.05442176870748299,0.05442176870748299,0.05442176870748299,0.05442176870748299,0.05442176870748299,0.05442176870748299,0.05442176870748299,0.05442176870748299,0.05442176870748299,0.05442176870748299,0.05442176870748299,0.05442176870748299,0.05442176870748299,0.05442176870748299,0.05442176870748299,0.05442176870748299,0.05442176870748299,0.05442176870748299,0.05442176870748299,0.05442176870748299,0.05442176870748299,0.05442176870748299,0.05442176870748299,0.05442176870748299,0.05442176870748299,0.05442176870748299,0.05442176870748299,0.05442176870748299,0.05442176870748299,0.05442176870748299,0.05442176870748299,0.05442176870748299,0.05442176870748299,0.05442176870748299,0.05442176870748299,0.05442176870748299,0.05442176870748299,0.05442176870748299,0.05442176870748299,0.05442176870748299,0.05442176870748299,0.05442176870748299,0.05442176870748299,0.05442176870748299,0.05442176870748299,0.05442176870748299,0.05442176870748299,0.05442176870748299,0.05442176870748299,0.05442176870748299,0.05442176870748299,0.05442176870748299,0.05442176870748299,0.05442176870748299,0.05442176870748299,0.05442176870748299,0.05442176870748299,0.05442176870748299,0.05442176870748299,0.05442176870748299,0.05442176870748299,0.05442176870748299,0.05442176870748299,0.05442176870748299,0.05442176870748299,0.05442176870748299,0.05442176870748299,0.05442176870748299,0.05442176870748299,0.05442176870748299,0.05442176870748299,0.05442176870748299,0.05442176870748299,0.05442176870748299,0.05442176870748299,0.05442176870748299,0.05442176870748299,0.05442176870748299,0.05442176870748299,0.05442176870748299,0.05442176870748299,0.05442176870748299,0.05442176870748299,0.05442176870748299,0.05442176870748299,0.05442176870748299,0.05442176870748299,0.05442176870748299,0.05442176870748299,0.05442176870748299,0.05442176870748299,0.05442176870748299,0.05442176870748299,0.05442176870748299,0.05442176870748299,0.05442176870748299,0.05442176870748299,0.05442176870748299,0.05442176870748299,0.05442176870748299,0.05442176870748299,0.05442176870748299,0.05442176870748299,0.05442176870748299,0.05442176870748299,0.05442176870748299,0.05442176870748299,0.05442176870748299,0.05442176870748299,0.05442176870748299,0.05442176870748299,0.05442176870748299,0.05442176870748299,0.05442176870748299,0.05442176870748299,0.05442176870748299,0.05442176870748299,0.05442176870748299,0.05442176870748299,0.05442176870748299,0.05442176870748299,0.05442176870748299,0.05442176870748299,0.05442176870748299,0.05442176870748299,0.05442176870748299,0.05442176870748299,0.05442176870748299,0.05442176870748299,0.05442176870748299,0.05442176870748299,0.05442176870748299,0.05442176870748299,0.05442176870748299,0.05442176870748299,0.05442176870748299,0.05442176870748299,0.05442176870748299,0.05442176870748299,0.05442176870748299,0.05442176870748299,0.05442176870748299,0.05442176870748299,0.05442176870748299,0.05442176870748299,0.05442176870748299,0.05442176870748299,0.05442176870748299,0.05442176870748299,0.05442176870748299,0.05442176870748299,0.05442176870748299,0.05442176870748299,0.05442176870748299,0.05442176870748299,0.05442176870748299,0.05442176870748299,0.05442176870748299,0.05442176870748299,0.05442176870748299,0.05442176870748299,0.05442176870748299,0.05442176870748299,0.05442176870748299,0.05442176870748299,0.05442176870748299,0.05442176870748299,0.05442176870748299,0.05442176870748299,0.05442176870748299,0.05442176870748299,0.05442176870748299,0.05442176870748299,0.05442176870748299,0.05442176870748299,0.05442176870748299,0.05442176870748299,0.05442176870748299,0.05442176870748299,0.05442176870748299,0.05442176870748299,0.05442176870748299,0.05442176870748299,0.05442176870748299,0.05442176870748299,0.05442176870748299,0.05442176870748299,0.05442176870748299,0.05442176870748299,0.05442176870748299,0.05442176870748299,0.05442176870748299,0.05442176870748299,0.05442176870748299,0.05442176870748299,0.05442176870748299,0.05442176870748299,0.05442176870748299,0.05442176870748299,0.05442176870748299,0.05442176870748299,0.05442176870748299,0.05442176870748299,0.05442176870748299,0.05442176870748299,0.05442176870748299,0.05442176870748299,0.05442176870748299,0.05442176870748299,0.05442176870748299,0.05442176870748299,0.05442176870748299,0.05442176870748299,0.05442176870748299,0.05442176870748299,0.05442176870748299,0.05442176870748299,0.05442176870748299,0.05442176870748299,0.05442176870748299,0.05442176870748299,0.05442176870748299,0.05442176870748299,0.05442176870748299,0.05442176870748299,0.05442176870748299,0.05442176870748299,0.05442176870748299,0.05442176870748299,0.05442176870748299,0.05442176870748299,0.05442176870748299,0.05442176870748299,0.05442176870748299,0.05442176870748299,0.05442176870748299,0.05442176870748299,0.05442176870748299,0.05442176870748299,0.05442176870748299,0.05442176870748299,0.05442176870748299,0.05442176870748299,0.05442176870748299,0.05442176870748299,0.05442176870748299,0.05442176870748299,0.05442176870748299,0.05442176870748299,0.05442176870748299,0.05442176870748299,0.05442176870748299,0.05442176870748299,0.05442176870748299,0.05442176870748299,0.05442176870748299,0.05442176870748299,0.05442176870748299,0.05442176870748299,0.05442176870748299,0.05442176870748299,0.05442176870748299,0.05442176870748299,0.05442176870748299,0.05442176870748299,0.05442176870748299,0.05442176870748299,0.05442176870748299,0.05442176870748299,0.05442176870748299,0.05442176870748299,0.05442176870748299,0.05442176870748299,0.05442176870748299,0.05442176870748299,0.05442176870748299,0.05442176870748299,0.05442176870748299,0.05442176870748299,0.05442176870748299,0.05442176870748299,0.05442176870748299,0.05442176870748299,0.05442176870748299,0.05442176870748299,0.05442176870748299,0.05442176870748299,0.05442176870748299,0.05442176870748299,0.05442176870748299,0.05442176870748299,0.05442176870748299,0.05442176870748299,0.05442176870748299,0.05442176870748299,0.05442176870748299,0.05442176870748299,0.05442176870748299,0.05442176870748299,0.05442176870748299,0.05442176870748299,0.05442176870748299,0.05442176870748299,0.05442176870748299,0.05442176870748299,0.12244897959183673,0.23129251700680273,0.30952380952380953,0.35714285714285715,0.41496598639455784,0.48299319727891155,0.5340136054421769,0.5340136054421769,0.564625850340136,0.5816326530612245,0.5884353741496599,0.5952380952380952,0.5986394557823129,0.6020408163265306,0.6054421768707483,0.608843537414966,0.608843537414966,0.6122448979591837,0.6122448979591837,0.6122448979591837,0.6122448979591837,0.6054421768707483,0.5918367346938775,0.5782312925170068,0.564625850340136,0.54421768707483,0.5238095238095238,0.4965986394557823,0.48299319727891155,0.48299319727891155,0.46938775510204084,0.4523809523809524,0.4421768707482993,0.43197278911564624,0.42517006802721086,0.42517006802721086,0.4217687074829932,0.41496598639455784,0.41156462585034015,0.40476190476190477,0.40476190476190477,0.4013605442176871,0.4013605442176871,0.4013605442176871,0.46938775510204084,0.6802721088435374,0.6802721088435374,0.7380952380952381,0.7653061224489796,0.7925170068027211,0.8095238095238095,0.8197278911564626,0.826530612244898,0.8299319727891157,0.8333333333333334,0.8333333333333334,0.8367346938775511,0.8367346938775511,0.8367346938775511,0.8401360544217688,0.8401360544217688,0.8401360544217688,0.8401360544217688,0.8435374149659864,0.8503401360544217,0.8605442176870748,0.8707482993197279,0.8741496598639455,0.8775510204081632,0.8877551020408163,0.9183673469387755,0.9863945578231292,1.0408163265306123,1.119047619047619,1.153061224489796,1.153061224489796,1.163265306122449,1.1666666666666667,1.1700680272108843,1.1700680272108843,1.1734693877551021,1.1734693877551021,1.1734693877551021,1.1734693877551021,1.1734693877551021,1.1734693877551021,1.1666666666666667,1.163265306122449,1.1598639455782314,1.1564625850340136,1.1564625850340136,1.1564625850340136,1.1564625850340136,1.1564625850340136,1.1564625850340136,1.153061224489796,1.153061224489796,1.153061224489796,1.1496598639455782,1.1428571428571428,1.1360544217687074,1.1326530612244898,1.129251700680272,1.1258503401360545,1.1258503401360545,1.1258503401360545,1.1224489795918366,1.119047619047619,1.1156462585034013,1.1088435374149659,1.1020408163265305,1.0918367346938775,1.0782312925170068,1.054421768707483,1.030612244897959,1.0204081632653061,1,1,0.9829931972789115,0.9829931972789115,0.9625850340136054,0.9455782312925171,0.9217687074829932,0.9013605442176871,0.8809523809523809,0.8571428571428571,0.826530612244898,0.7857142857142857,0.7380952380952381,0.6904761904761905,0.6530612244897959,0.6122448979591837,0.5816326530612245,0.5510204081632653,0.48639455782312924,0.46258503401360546,0.4387755102040816,0.42857142857142855,0.4217687074829932,0.41836734693877553,0.41156462585034015,0.40816326530612246,0.40476190476190477,0.40476190476190477,0.40476190476190477,0.40476190476190477,0.40476190476190477,0.41836734693877553,0.41836734693877553,0.41836734693877553,0.41836734693877553,0.41836734693877553,0.41836734693877553,0.41836734693877553,0.41836734693877553,0.41836734693877553,0.41836734693877553,0.41836734693877553,0.41836734693877553,0.41836734693877553,0.41836734693877553,0.41836734693877553,0.41836734693877553,0.41836734693877553,0.41836734693877553,0.41836734693877553,0.41836734693877553,0.41836734693877553,0.41836734693877553,0.41836734693877553,0.41836734693877553,0.41836734693877553,0.41836734693877553,0.41836734693877553,0.41836734693877553,0.41836734693877553,0.41836734693877553,0.41836734693877553,0.41836734693877553,0.41836734693877553,0.41836734693877553,0.41836734693877553,0.41836734693877553,0.41836734693877553,0.41836734693877553,0.41836734693877553,0.41836734693877553,0.41836734693877553,0.41836734693877553,0.41836734693877553,0.41836734693877553,0.41836734693877553,0.41836734693877553,0.41836734693877553,0.41836734693877553,0.41836734693877553,0.41836734693877553,0.41836734693877553,0.41836734693877553,0.41836734693877553,0.41836734693877553,0.391156462585034,0.3707482993197279,0.3469387755102041,0.32653061224489793,0.30612244897959184,0.2789115646258503,0.272108843537415,0.2653061224489796,0.25170068027210885,0.24149659863945577,0.23469387755102042,0.22789115646258504,0.22448979591836735,0.22448979591836735,0.22108843537414966,0.22108843537414966,0.21768707482993196,0.21428571428571427,0.2108843537414966,0.20748299319727892,0.20408163265306123,0.20068027210884354,0.19387755102040816,0.19047619047619047,0.1870748299319728,0.18027210884353742,0.17687074829931973,0.17346938775510204,0.17006802721088435,0.17006802721088435,0.17006802721088435,0.17006802721088435,0.17006802721088435,0.17006802721088435,0.17006802721088435,0.17006802721088435,0.17006802721088435,0.17006802721088435,0.17006802721088435,0.17006802721088435,0.17006802721088435,0.17006802721088435,0.17006802721088435,0.17006802721088435,0.17006802721088435,0.17006802721088435,0.17006802721088435,0.17006802721088435,0.17006802721088435,0.17006802721088435,0.17006802721088435,0.17006802721088435,0.17006802721088435,0.17006802721088435,0.17006802721088435,0.17006802721088435,0.17006802721088435,0.17006802721088435,0.17006802721088435,0.17006802721088435,0.17006802721088435,0.17006802721088435,0.17006802721088435,0.17006802721088435,0.17006802721088435,0.17006802721088435,0.17006802721088435,0.17006802721088435,0.17006802721088435,0.17006802721088435,0.17006802721088435,0.17006802721088435,0.17006802721088435,0.17006802721088435,0.17006802721088435,0.17006802721088435,0.17006802721088435,0.17006802721088435,0.17006802721088435,0.17006802721088435,0.17006802721088435,0.16666666666666666,0.16326530612244897,0.1598639455782313,0.1564625850340136,0.15306122448979592,0.15306122448979592,0.14965986394557823,0.14965986394557823,0.14965986394557823,0.14285714285714285,0.14285714285714285,0.14285714285714285,0.14285714285714285,0.14285714285714285,0.14285714285714285,0.14285714285714285,0.14285714285714285,0.14285714285714285,0.14285714285714285,0.14285714285714285,0.14285714285714285,0.14285714285714285,0.14285714285714285,0.14285714285714285,0.14285714285714285,0.14285714285714285,0.14285714285714285,0.14285714285714285,0.14285714285714285,0.14285714285714285,0.14285714285714285,0.14285714285714285,0.14285714285714285,0.14285714285714285,0.14285714285714285,0.14285714285714285,0.14285714285714285,0.14285714285714285,0.14285714285714285,0.14285714285714285,0.14285714285714285,0.14285714285714285,0.14285714285714285,0.14285714285714285,0.14285714285714285,0.14285714285714285,0.14285714285714285,0.14625850340136054,0.14625850340136054,0.14625850340136054,0.14625850340136054,0.14625850340136054,0.14625850340136054,0.14965986394557823,0.14965986394557823,0.14965986394557823,0.14965986394557823,0.15306122448979592,0.15306122448979592,0.15306122448979592,0.1564625850340136,0.1564625850340136,0.1598639455782313,0.1598639455782313,0.16326530612244897,0.16326530612244897,0.16326530612244897,0.16666666666666666,0.16666666666666666,0.17006802721088435,0.17006802721088435,0.17006802721088435,0.17006802721088435,0.17006802721088435,0.17006802721088435,0.17006802721088435,0.17006802721088435,0.17006802721088435,0.17006802721088435,0.17006802721088435,0.17006802721088435,0.17006802721088435,0.17006802721088435,0.17006802721088435,0.17006802721088435,0.17006802721088435,0.17006802721088435,0.17006802721088435,0.17006802721088435,0.17006802721088435,0.17006802721088435,0.17006802721088435,0.17006802721088435,0.17006802721088435,0.17006802721088435,0.17006802721088435,0.17006802721088435,0.17006802721088435,0.17006802721088435,0.17006802721088435,0.17006802721088435,0.17006802721088435,0.17006802721088435,0.17006802721088435,0.17006802721088435,0.17006802721088435,0.17006802721088435,0.17006802721088435,0.17006802721088435,0.17006802721088435,0.17006802721088435,0.17006802721088435,0.17006802721088435,0.17006802721088435,0.17006802721088435,0.17006802721088435,0.17006802721088435,0.17006802721088435,0.17006802721088435,0.17006802721088435,0.17006802721088435,0.17006802721088435,0.17006802721088435,0.17006802721088435,0.17006802721088435,0.17006802721088435,0.17006802721088435,0.17006802721088435,0.17006802721088435,0.17006802721088435,0.17006802721088435,0.17006802721088435,0.17006802721088435,0.17006802721088435,0.17006802721088435,0.17006802721088435,0.17006802721088435,0.17006802721088435,0.17006802721088435,0.17006802721088435,0.17006802721088435,0.17006802721088435,0.17006802721088435,0.17006802721088435,0.17006802721088435,0.17006802721088435,0.17006802721088435,0.17006802721088435,0.17006802721088435,0.17006802721088435,0.17006802721088435,0.17006802721088435,0.17006802721088435,0.17006802721088435,0.17006802721088435,0.17006802721088435,0.17006802721088435,0.17006802721088435,0.17006802721088435,0.17006802721088435,0.17006802721088435,0.17006802721088435,0.17006802721088435,0.17006802721088435,0.17006802721088435,0.17006802721088435,0.17006802721088435,0.17006802721088435,0.17006802721088435,0.17006802721088435,0.17006802721088435,0.17006802721088435,0.17006802721088435,0.17006802721088435,0.17006802721088435,0.17006802721088435,0.17006802721088435,0.17006802721088435,0.17006802721088435,0.17006802721088435,0.17006802721088435,0.17006802721088435,0.17006802721088435,0.17006802721088435,0.17006802721088435,0.17006802721088435,0.17006802721088435,0.17006802721088435,0.17006802721088435,0.17006802721088435,0.17006802721088435,0.17006802721088435,0.17006802721088435,0.17006802721088435,0.17006802721088435,0.17006802721088435,0.17006802721088435,0.17006802721088435,0.17006802721088435,0.17006802721088435,0.17006802721088435,0.17006802721088435,0.17006802721088435,0.17006802721088435,0.17006802721088435,0.17006802721088435,0.17006802721088435,0.17006802721088435,0.17006802721088435,0.17006802721088435,0.17006802721088435,0.17006802721088435,0.17006802721088435,0.17006802721088435,0.17006802721088435,0.17006802721088435,0.17006802721088435,0.17006802721088435,0.17006802721088435,0.17006802721088435,0.17006802721088435,0.17006802721088435,0.17006802721088435,0.17006802721088435,0.17006802721088435,0.17006802721088435,0.17006802721088435,0.17006802721088435,0.17006802721088435,0.17006802721088435,0.17006802721088435,0.17006802721088435,0.17006802721088435,0.17006802721088435,0.17006802721088435,0.17006802721088435,0.17006802721088435,0.17006802721088435,0.17006802721088435,0.17006802721088435,0.17006802721088435,0.17006802721088435,0.17006802721088435,0.17006802721088435,0.17006802721088435,0.17006802721088435,0.17006802721088435,0.17006802721088435,0.17006802721088435,0.17006802721088435,0.17006802721088435,0.17006802721088435,0.17006802721088435,0.17006802721088435,0.17006802721088435,0.17006802721088435,0.17006802721088435,0.17006802721088435,0.17006802721088435,0.17006802721088435,0.17006802721088435,0.17006802721088435,0.17006802721088435,0.17006802721088435,0.17006802721088435,0.18027210884353742,0.1870748299319728,0.19387755102040816,0.19727891156462585,0.20068027210884354,0.20068027210884354,0.20408163265306123,0.20408163265306123,0.20748299319727892,0.20748299319727892,0.2108843537414966,0.21428571428571427,0.21768707482993196,0.22448979591836735,0.22789115646258504,0.23469387755102042,0.23469387755102042,0.23809523809523808,0.24149659863945577,0.24149659863945577,0.24149659863945577,0.24489795918367346,0.24489795918367346,0.24829931972789115,0.24829931972789115,0.24829931972789115,0.25170068027210885,0.25170068027210885,0.25510204081632654,0.25510204081632654,0.25510204081632654,0.2585034013605442,0.2585034013605442,0.2585034013605442,0.2585034013605442,0.2585034013605442,0.2585034013605442,0.2619047619047619,0.2619047619047619,0.2619047619047619,0.2619047619047619,0.2619047619047619,0.2619047619047619,0.2619047619047619,0.2619047619047619,0.2619047619047619,0.2619047619047619,0.2619047619047619,0.2619047619047619,0.2619047619047619,0.2619047619047619,0.2619047619047619,0.2619047619047619,0.2619047619047619,0.2619047619047619,0.2619047619047619,0.2619047619047619,0.2619047619047619,0.2619047619047619,0.2619047619047619,0.2619047619047619,0.2619047619047619,0.2619047619047619,0.2619047619047619,0.2619047619047619,0.2619047619047619,0.2619047619047619,0.2619047619047619,0.2619047619047619,0.2619047619047619,0.2619047619047619,0.2619047619047619,0.2619047619047619,0.2619047619047619,0.2619047619047619,0.2619047619047619,0.2619047619047619,0.2619047619047619,0.2619047619047619,0.2619047619047619,0.2619047619047619,0.2619047619047619,0.2619047619047619,0.2619047619047619,0.2619047619047619,0.2619047619047619,0.2619047619047619,0.2619047619047619,0.2619047619047619,0.2619047619047619,0.2619047619047619,0.2585034013605442,0.2585034013605442,0.2585034013605442,0.2585034013605442,0.2585034013605442,0.2585034013605442,0.2585034013605442,0.2585034013605442,0.2585034013605442,0.2585034013605442,0.2585034013605442,0.2585034013605442,0.2585034013605442,0.2585034013605442,0.2585034013605442,0.2585034013605442,0.2585034013605442,0.2585034013605442,0.2585034013605442,0.2585034013605442,0.2585034013605442,0.2585034013605442,0.2585034013605442,0.2585034013605442,0.2585034013605442,0.2585034013605442,0.2585034013605442,0.2585034013605442,0.2585034013605442,0.2585034013605442,0.2585034013605442,0.2585034013605442,0.2585034013605442,0.2585034013605442,0.2585034013605442,0.2585034013605442,0.2585034013605442,0.2585034013605442,0.2585034013605442,0.2585034013605442,0.2585034013605442,0.2585034013605442,0.2585034013605442,0.2585034013605442,0.2585034013605442,0.2585034013605442,0.2585034013605442,0.2585034013605442,0.2585034013605442,0.2585034013605442,0.2585034013605442,0.2585034013605442,0.2687074829931973,0.282312925170068,0.29591836734693877,0.3163265306122449,0.3163265306122449,0.35714285714285715,0.3945578231292517,0.41836734693877553,0.4421768707482993,0.4489795918367347,0.45918367346938777,0.46598639455782315,0.46938775510204084,0.47619047619047616,0.48299319727891155,0.4897959183673469,0.4965986394557823,0.5,0.5,0.5034013605442177,0.5068027210884354,0.5102040816326531,0.5136054421768708,0.5204081632653061,0.5238095238095238,0.5272108843537415,0.5272108843537415,0.5306122448979592,0.5306122448979592,0.5340136054421769,0.5340136054421769,0.5340136054421769,0.5340136054421769,0.5374149659863946,0.5374149659863946,0.5374149659863946,0.5374149659863946,0.5374149659863946,0.5374149659863946,0.5374149659863946,0.5374149659863946,0.5374149659863946,0.5374149659863946,0.5374149659863946,0.5374149659863946,0.5374149659863946,0.5374149659863946,0.5374149659863946,0.5374149659863946,0.5374149659863946,0.5374149659863946,0.5374149659863946,0.5374149659863946,0.5374149659863946,0.5374149659863946,0.5374149659863946,0.5374149659863946,0.5374149659863946,0.5374149659863946,0.5374149659863946,0.5374149659863946,0.5374149659863946,0.5374149659863946,0.5374149659863946,0.5374149659863946,0.5374149659863946,0.5374149659863946,0.5374149659863946,0.5374149659863946,0.5374149659863946,0.5374149659863946,0.5374149659863946,0.5374149659863946,0.5374149659863946,0.5374149659863946,0.5374149659863946,0.5374149659863946,0.5374149659863946,0.5374149659863946,0.5374149659863946,0.5374149659863946,0.5374149659863946,0.5374149659863946,0.5374149659863946,0.5374149659863946,0.5374149659863946,0.5374149659863946,0.5374149659863946,0.5374149659863946,0.5374149659863946,0.5374149659863946,0.5374149659863946,0.5374149659863946,0.5374149659863946,0.5374149659863946,0.5374149659863946,0.5374149659863946,0.5374149659863946,0.5374149659863946,0.5374149659863946,0.5374149659863946,0.5374149659863946,0.5374149659863946,0.5374149659863946,0.5374149659863946,0.5374149659863946,0.5374149659863946,0.5374149659863946,0.5374149659863946,0.5374149659863946,0.5374149659863946,0.5374149659863946,0.5374149659863946,0.5374149659863946,0.5374149659863946,0.5374149659863946,0.5374149659863946,0.5374149659863946,0.5374149659863946,0.5374149659863946,0.5374149659863946,0.5374149659863946,0.5374149659863946,0.5374149659863946,0.5374149659863946,0.5374149659863946,0.5374149659863946,0.5374149659863946,0.5374149659863946,0.5374149659863946,0.5374149659863946,0.5374149659863946,0.5374149659863946,0.5374149659863946,0.5374149659863946,0.5374149659863946,0.5374149659863946,0.5374149659863946,0.5374149659863946,0.5374149659863946,0.5374149659863946,0.5374149659863946,0.5374149659863946,0.5374149659863946,0.5374149659863946,0.5374149659863946,0.5374149659863946,0.5374149659863946,0.5374149659863946,0.5374149659863946,0.5374149659863946,0.5374149659863946,0.5374149659863946,0.5374149659863946,0.5374149659863946,0.5374149659863946,0.5374149659863946,0.5374149659863946,0.5374149659863946,0.5374149659863946,0.5374149659863946,0.5374149659863946,0.5374149659863946,0.5374149659863946,0.5374149659863946,0.5374149659863946,0.5374149659863946,0.5374149659863946,0.5374149659863946,0.5374149659863946,0.5374149659863946,0.5374149659863946,0.5374149659863946,0.5374149659863946,0.5374149659863946,0.5374149659863946,0.5374149659863946,0.5374149659863946,0.5374149659863946,0.5374149659863946,0.5374149659863946,0.5374149659863946,0.5374149659863946,0.5374149659863946,0.5374149659863946,0.5374149659863946,0.5374149659863946,0.5374149659863946,0.5374149659863946,0.5374149659863946,0.5374149659863946,0.5374149659863946,0.5374149659863946,0.5374149659863946,0.5374149659863946,0.5374149659863946,0.5374149659863946,0.5374149659863946,0.5374149659863946,0.5374149659863946,0.5374149659863946,0.5374149659863946,0.5374149659863946,0.5374149659863946,0.5374149659863946,0.5374149659863946,0.5374149659863946,0.5374149659863946,0.5374149659863946,0.5374149659863946,0.5374149659863946,0.5374149659863946,0.5374149659863946,0.5374149659863946,0.5374149659863946,0.5374149659863946,0.5374149659863946,0.5374149659863946,0.5374149659863946,0.5374149659863946,0.5374149659863946,0.5374149659863946,0.5374149659863946,0.5374149659863946,0.5374149659863946,0.5374149659863946,0.5374149659863946,0.5374149659863946,0.5374149659863946,0.5374149659863946,0.5374149659863946,0.5374149659863946,0.5374149659863946,0.5374149659863946,0.5374149659863946,0.5374149659863946,0.5374149659863946,0.5374149659863946,0.5374149659863946,0.5374149659863946,0.5374149659863946,0.5374149659863946,0.5374149659863946,0.5374149659863946,0.5374149659863946,0.5374149659863946,0.5374149659863946,0.5374149659863946,0.5374149659863946,0.5374149659863946,0.5374149659863946,0.5374149659863946,0.5374149659863946,0.5374149659863946,0.5374149659863946,0.5374149659863946,0.5374149659863946,0.5374149659863946,0.5374149659863946,0.5374149659863946,0.5374149659863946,0.5374149659863946,0.5374149659863946,0.5374149659863946,0.5374149659863946,0.5374149659863946,0.5374149659863946,0.5374149659863946,0.5374149659863946,0.5374149659863946,0.5374149659863946,0.5374149659863946,0.5374149659863946,0.5374149659863946,0.5374149659863946,0.5374149659863946,0.5374149659863946,0.5374149659863946,0.5374149659863946,0.5374149659863946,0.5374149659863946,0.5374149659863946,0.5374149659863946,0.5374149659863946,0.5374149659863946,0.5374149659863946,0.5374149659863946,0.5374149659863946,0.5374149659863946,0.5374149659863946,0.5374149659863946,0.5374149659863946,0.5374149659863946,0.5374149659863946,0.5374149659863946,0.5374149659863946,0.5374149659863946,0.5374149659863946,0.5374149659863946,0.5374149659863946,0.5374149659863946,0.5374149659863946,0.5374149659863946,0.5374149659863946,0.5374149659863946,0.5374149659863946,0.5374149659863946,0.5374149659863946,0.5374149659863946,0.5374149659863946,0.5374149659863946,0.5374149659863946,0.5374149659863946,0.5374149659863946,0.5374149659863946,0.5374149659863946,0.5374149659863946,0.5374149659863946,0.5374149659863946,0.5374149659863946,0.5374149659863946,0.5374149659863946,0.5374149659863946,0.5374149659863946,0.5374149659863946,0.5374149659863946,0.5374149659863946,0.5374149659863946,0.5374149659863946,0.5374149659863946,0.5374149659863946,0.5374149659863946,0.5374149659863946,0.5374149659863946,0.5374149659863946,0.5374149659863946,0.5374149659863946,0.5374149659863946,0.5374149659863946,0.5374149659863946,0.5374149659863946,0.5374149659863946,0.5374149659863946,0.5374149659863946,0.5374149659863946,0.5374149659863946,0.5374149659863946,0.5374149659863946,0.5374149659863946,0.5374149659863946,0.5374149659863946,0.5374149659863946,0.5374149659863946,0.5374149659863946,0.5374149659863946,0.5374149659863946,0.5374149659863946,0.5374149659863946,0.5374149659863946,0.5374149659863946,0.5374149659863946,0.5374149659863946,0.5374149659863946,0.5374149659863946,0.5374149659863946,0.5374149659863946,0.5374149659863946,0.5374149659863946,0.5374149659863946,0.5374149659863946,0.5374149659863946,0.5374149659863946,0.5374149659863946,0.5374149659863946,0.5374149659863946,0.5374149659863946,0.5374149659863946,0.5374149659863946,0.5374149659863946,0.5374149659863946,0.5374149659863946,0.5374149659863946,0.5374149659863946,0.5374149659863946,0.5374149659863946,0.5374149659863946,0.5374149659863946,0.5374149659863946,0.5374149659863946,0.5374149659863946,0.5374149659863946,0.5374149659863946,0.5374149659863946,0.5374149659863946,0.5374149659863946,0.5374149659863946,0.5374149659863946,0.5374149659863946,0.5374149659863946,0.5374149659863946,0.5374149659863946,0.5374149659863946,0.5374149659863946,0.5374149659863946,0.5374149659863946,0.5374149659863946,0.5374149659863946,0.5374149659863946,0.5374149659863946,0.5374149659863946,0.5374149659863946,0.5374149659863946,0.5374149659863946,0.5374149659863946,0.5374149659863946,0.5374149659863946,0.5374149659863946,0.5374149659863946,0.5374149659863946,0.5374149659863946,0.5374149659863946,0.5374149659863946,0.5374149659863946,0.5374149659863946,0.5374149659863946,0.5374149659863946,0.5374149659863946,0.5374149659863946,0.5374149659863946,0.5374149659863946,0.5374149659863946,0.5374149659863946,0.5374149659863946,0.5374149659863946,0.5374149659863946,0.5374149659863946,0.5374149659863946,0.5374149659863946,0.5374149659863946,0.5374149659863946,0.5374149659863946,0.5374149659863946,0.5374149659863946,0.5374149659863946,0.5374149659863946,0.5374149659863946,0.5374149659863946,0.5374149659863946,0.5374149659863946,0.5374149659863946,0.5374149659863946,0.5374149659863946,0.5374149659863946,0.5374149659863946,0.5374149659863946,0.5374149659863946,0.5374149659863946,0.5374149659863946,0.5374149659863946,0.5374149659863946,0.5374149659863946,0.5374149659863946,0.5374149659863946,0.5374149659863946,0.5374149659863946,0.5374149659863946,0.5374149659863946,0.5374149659863946,0.5374149659863946,0.5374149659863946,0.5374149659863946,0.5374149659863946,0.5374149659863946,0.5374149659863946,0.5374149659863946,0.5374149659863946,0.5374149659863946,0.5374149659863946,0.5374149659863946,0.5374149659863946,0.5374149659863946,0.5374149659863946,0.5374149659863946,0.5374149659863946,0.5374149659863946,0.5374149659863946,0.5374149659863946,0.5374149659863946,0.5374149659863946,0.5374149659863946,0.5374149659863946,0.5374149659863946,0.5374149659863946,0.5374149659863946,0.5374149659863946,0.5374149659863946,0.5374149659863946,0.5374149659863946,0.5374149659863946,0.5374149659863946,0.5374149659863946,0.5374149659863946,0.5374149659863946,0.5374149659863946,0.5374149659863946,0.5374149659863946,0.5374149659863946,0.5374149659863946,0.5374149659863946,0.5374149659863946,0.5374149659863946,0.5374149659863946,0.5374149659863946,0.5374149659863946,0.5374149659863946,0.5374149659863946,0.5374149659863946,0.5374149659863946,0.5374149659863946,0.5374149659863946,0.5374149659863946,0.5374149659863946,0.5374149659863946,0.5374149659863946,0.5374149659863946,0.5374149659863946,0.5374149659863946,0.5374149659863946,0.5374149659863946,0.5374149659863946,0.5374149659863946,0.5374149659863946,0.5408163265306123,0.6258503401360545,0.673469387755102,0.717687074829932,0.7517006802721088,0.7789115646258503,0.8129251700680272,0.8435374149659864,0.8571428571428571,0.8673469387755102,0.8707482993197279,0.8707482993197279,0.8707482993197279,0.8707482993197279,0.8707482993197279,0.8707482993197279,0.8707482993197279,0.8707482993197279,0.8707482993197279,0.8707482993197279,0.8707482993197279,0.8707482993197279,0.8707482993197279,0.8707482993197279,0.8707482993197279,0.8707482993197279,0.8707482993197279,0.8707482993197279,0.8707482993197279,0.8707482993197279,0.8707482993197279,0.8707482993197279,0.8707482993197279,0.8707482993197279,0.8707482993197279,0.8707482993197279,0.8707482993197279,0.8707482993197279,0.8707482993197279,0.8707482993197279,0.8707482993197279,0.8707482993197279,0.8707482993197279,0.8707482993197279,0.8707482993197279,0.8707482993197279,0.8707482993197279,0.8707482993197279,0.8707482993197279,0.8707482993197279,0.8707482993197279,0.8707482993197279,0.8707482993197279,0.8707482993197279,0.8707482993197279,0.8707482993197279,0.8707482993197279,0.8707482993197279,0.8707482993197279,0.8707482993197279,0.8707482993197279,0.8707482993197279,0.8707482993197279,0.8707482993197279,0.8707482993197279,0.8707482993197279,0.8707482993197279,0.8707482993197279,0.8707482993197279,0.8707482993197279,0.8707482993197279,0.8707482993197279,0.8707482993197279,0.8707482993197279,0.8707482993197279,0.8707482993197279,0.8707482993197279,0.8707482993197279,0.8707482993197279,0.8707482993197279,0.8707482993197279,0.8707482993197279,0.8707482993197279,0.8707482993197279,0.8707482993197279,0.8707482993197279,0.8707482993197279,0.8707482993197279,0.8707482993197279,0.8707482993197279,0.8707482993197279,0.8707482993197279,0.8707482993197279,0.8707482993197279,0.8707482993197279,0.8707482993197279,0.8707482993197279,0.8707482993197279,0.8707482993197279,0.8707482993197279,0.8707482993197279,0.8707482993197279,0.8707482993197279,0.8707482993197279,0.8707482993197279,0.8707482993197279,0.8707482993197279,0.8707482993197279,0.8707482993197279,0.8707482993197279,0.8707482993197279,0.8707482993197279,0.8707482993197279,0.8707482993197279,0.8707482993197279,0.8707482993197279,0.8707482993197279,0.8707482993197279,0.8707482993197279,0.8707482993197279,0.8707482993197279,0.8707482993197279,0.8707482993197279,0.8707482993197279,0.8707482993197279,0.8707482993197279,0.8707482993197279,0.8707482993197279,0.8707482993197279,0.8707482993197279,0.8707482993197279,0.8707482993197279,0.8707482993197279,0.8707482993197279,0.8707482993197279,0.8707482993197279,0.8707482993197279,0.8707482993197279,0.8707482993197279,0.8707482993197279,0.8707482993197279,0.8707482993197279,0.8707482993197279,0.8707482993197279,0.8707482993197279,0.8707482993197279,0.8707482993197279,0.8707482993197279,0.8707482993197279,0.8707482993197279,0.8707482993197279,0.8707482993197279,0.8707482993197279,0.8707482993197279,0.8707482993197279,0.8707482993197279,0.8707482993197279,0.8707482993197279,0.8707482993197279,0.8707482993197279,0.8707482993197279,0.8707482993197279,0.8707482993197279,0.8707482993197279,0.8707482993197279,0.8707482993197279,0.8707482993197279,0.8707482993197279,0.8707482993197279,0.8707482993197279,0.8707482993197279,0.8707482993197279,0.8707482993197279,0.8707482993197279,0.8707482993197279,0.8707482993197279,0.8707482993197279,0.8707482993197279,0.8707482993197279,0.8707482993197279,0.8707482993197279,0.8707482993197279,0.8707482993197279,0.8707482993197279,0.8707482993197279,0.8707482993197279,0.8707482993197279,0.8707482993197279,0.8707482993197279,0.8707482993197279,0.8707482993197279,0.8707482993197279,0.8707482993197279,0.8707482993197279,0.8707482993197279,0.8707482993197279,0.8707482993197279,0.8707482993197279,0.8707482993197279,0.8707482993197279,0.8707482993197279,0.8707482993197279,0.8707482993197279,0.8707482993197279,0.8707482993197279,0.8707482993197279,0.8707482993197279,0.8707482993197279,0.8707482993197279,0.8707482993197279,0.8707482993197279,0.8707482993197279,0.8707482993197279,0.8707482993197279,0.8707482993197279,0.8707482993197279,0.8707482993197279,0.8707482993197279,0.8707482993197279,0.8707482993197279,0.8707482993197279,0.8707482993197279,0.8707482993197279,0.8707482993197279,0.8707482993197279,0.8707482993197279,0.8707482993197279,0.8707482993197279,0.8707482993197279,0.8707482993197279,0.8707482993197279,0.8707482993197279,0.8707482993197279,0.8707482993197279,0.8707482993197279,0.8707482993197279,0.8707482993197279,0.8707482993197279,0.8707482993197279,0.8707482993197279,0.8707482993197279,0.8707482993197279,0.8707482993197279,0.8707482993197279,0.8707482993197279,0.8707482993197279,0.8707482993197279,0.8707482993197279,0.8707482993197279,0.8707482993197279,0.8707482993197279,0.8707482993197279,0.8707482993197279,0.8707482993197279,0.8707482993197279,0.8707482993197279,0.8707482993197279,0.8707482993197279,0.8707482993197279,0.8707482993197279,0.8707482993197279,0.8707482993197279,0.8707482993197279,0.8707482993197279,0.8707482993197279,0.8707482993197279,0.8707482993197279,0.8707482993197279,0.8707482993197279,0.8707482993197279,0.8707482993197279,0.8707482993197279,0.8707482993197279,0.8197278911564626,0.7687074829931972,0.717687074829932,0.6666666666666666,0.6190476190476191,0.5952380952380952,0.5748299319727891,0.5408163265306123,0.4965986394557823,0.47959183673469385,0.46258503401360546,0.445578231292517,0.43197278911564624,0.41836734693877553,0.41836734693877553,0.4013605442176871,0.3707482993197279,0.36394557823129253,0.35714285714285715,0.35034013605442177,0.336734693877551,0.3299319727891156,0.32653061224489793,0.3231292517006803,0.3197278911564626,0.3197278911564626,0.3197278911564626,0.3197278911564626,0.3197278911564626,0.3197278911564626,0.3197278911564626,0.3197278911564626,0.3197278911564626,0.3197278911564626,0.3197278911564626,0.3197278911564626,0.3197278911564626,0.3197278911564626,0.3197278911564626,0.3197278911564626,0.3197278911564626,0.3197278911564626,0.3197278911564626,0.3197278911564626,0.3197278911564626,0.3197278911564626,0.3197278911564626,0.2857142857142857,0.25170068027210885,0.23129251700680273,0.22448979591836735,0.22448979591836735,0.21768707482993196,0.21428571428571427,0.20748299319727892,0.20408163265306123,0.20068027210884354,0.20068027210884354,0.19387755102040816,0.19047619047619047,0.1870748299319728,0.1870748299319728,0.1870748299319728,0.1836734693877551,0.18027210884353742,0.18027210884353742,0.18027210884353742,0.17687074829931973,0.17687074829931973,0.17687074829931973,0.17687074829931973,0.17346938775510204,0.17346938775510204,0.17346938775510204,0.17346938775510204,0.17346938775510204,0.17346938775510204,0.17346938775510204,0.17346938775510204,0.17346938775510204,0.17346938775510204,0.17346938775510204,0.17346938775510204,0.17346938775510204,0.17346938775510204,0.17346938775510204,0.17346938775510204,0.17346938775510204,0.17346938775510204,0.17346938775510204,0.17346938775510204,0.17346938775510204,0.17346938775510204,0.17346938775510204,0.17346938775510204,0.17346938775510204,0.17346938775510204,0.17346938775510204,0.17346938775510204,0.17346938775510204,0.17346938775510204,0.17346938775510204,0.17346938775510204,0.17346938775510204,0.17006802721088435,0.17006802721088435,0.17006802721088435,0.17006802721088435,0.17006802721088435,0.17006802721088435,0.17006802721088435,0.17006802721088435,0.17006802721088435,0.17006802721088435,0.17006802721088435,0.17006802721088435,0.17006802721088435,0.17006802721088435,0.17006802721088435,0.17006802721088435,0.17006802721088435,0.17006802721088435,0.17006802721088435,0.17006802721088435,0.17006802721088435,0.17006802721088435,0.17006802721088435,0.17006802721088435,0.17006802721088435,0.17006802721088435,0.17006802721088435,0.17006802721088435,0.17006802721088435,0.17006802721088435,0.17006802721088435,0.17006802721088435,0.17006802721088435,0.17006802721088435,0.17006802721088435,0.17006802721088435,0.17006802721088435,0.17006802721088435,0.17006802721088435,0.17006802721088435,0.17006802721088435,0.17006802721088435,0.17006802721088435,0.17006802721088435,0.17006802721088435,0.17006802721088435,0.17006802721088435,0.17006802721088435,0.17006802721088435,0.17006802721088435,0.17006802721088435,0.17006802721088435,0.17006802721088435,0.17006802721088435,0.17006802721088435,0.17006802721088435,0.17006802721088435,0.17006802721088435,0.17006802721088435,0.17006802721088435,0.17006802721088435,0.17006802721088435,0.17346938775510204,0.17346938775510204,0.19727891156462585,0.3299319727891156,0.42517006802721086,0.5408163265306123,0.5408163265306123,0.5612244897959183,0.564625850340136,0.5680272108843537,0.5714285714285714,0.5714285714285714,0.5714285714285714,0.5714285714285714,0.564625850340136,0.5578231292517006,0.5510204081632653,0.5510204081632653,0.5408163265306123,0.5136054421768708,0.4965986394557823,0.48299319727891155,0.47278911564625853,0.46598639455782315,0.46258503401360546,0.4557823129251701,0.4557823129251701,0.445578231292517,0.43537414965986393,0.42517006802721086,0.4217687074829932,0.41836734693877553,0.41496598639455784,0.41496598639455784,0.41156462585034015,0.41156462585034015,0.41156462585034015,0.41156462585034015,0.41156462585034015,0.41156462585034015,0.41156462585034015,0.41156462585034015,0.41156462585034015,0.41156462585034015,0.41156462585034015,0.41156462585034015,0.41156462585034015,0.41156462585034015,0.41156462585034015,0.41156462585034015,0.41156462585034015,0.41156462585034015,0.41156462585034015,0.41156462585034015,0.41156462585034015,0.41156462585034015,0.41156462585034015,0.41156462585034015,0.41156462585034015,0.41156462585034015,0.41156462585034015,0.41156462585034015,0.41156462585034015,0.41156462585034015,0.41156462585034015,0.41156462585034015,0.41156462585034015,0.41156462585034015,0.41156462585034015,0.41156462585034015,0.41156462585034015,0.41156462585034015,0.41156462585034015,0.41156462585034015,0.41156462585034015,0.41156462585034015,0.41156462585034015,0.41156462585034015,0.41156462585034015,0.41156462585034015,0.41156462585034015,0.41156462585034015,0.41156462585034015,0.41156462585034015,0.41156462585034015,0.41156462585034015,0.41156462585034015,0.41156462585034015,0.41156462585034015,0.41156462585034015,0.41156462585034015,0.41156462585034015,0.41156462585034015,0.41156462585034015,0.41156462585034015,0.41156462585034015,0.41156462585034015,0.41156462585034015,0.41156462585034015,0.41156462585034015,0.41156462585034015,0.41156462585034015,0.41156462585034015,0.41156462585034015,0.41156462585034015,0.41156462585034015,0.41156462585034015,0.41156462585034015,0.41156462585034015,0.41156462585034015,0.41156462585034015,0.41836734693877553,0.4387755102040816,0.47619047619047616,0.47619047619047616,0.4897959183673469,0.5,0.5,0.5102040816326531,0.5204081632653061,0.5272108843537415,0.5374149659863946,0.5408163265306123,0.5476190476190477,0.5510204081632653,0.5544217687074829,0.5544217687074829,0.5544217687074829,0.5578231292517006,0.5578231292517006,0.5578231292517006,0.5578231292517006,0.5578231292517006,0.5612244897959183,0.5612244897959183,0.5612244897959183,0.5612244897959183,0.5612244897959183,0.5612244897959183,0.564625850340136,0.5714285714285714,0.5748299319727891,0.5782312925170068,0.5816326530612245,0.5850340136054422,0.5850340136054422,0.5918367346938775,0.6156462585034014,0.6326530612244898,0.6496598639455783,0.6666666666666666,0.673469387755102,0.6802721088435374,0.6836734693877551,0.6870748299319728,0.6870748299319728,0.6870748299319728,0.6870748299319728,0.6870748299319728,0.6904761904761905,0.6904761904761905,0.6904761904761905,0.6904761904761905,0.6938775510204082,0.6938775510204082,0.6938775510204082,0.6972789115646258,0.6972789115646258,0.6972789115646258,0.6972789115646258,0.6972789115646258,0.6972789115646258,0.6972789115646258,0.6972789115646258,0.6972789115646258,0.6972789115646258,0.6972789115646258,0.6972789115646258,0.6972789115646258,0.6972789115646258,0.6972789115646258,0.6972789115646258,0.6972789115646258,0.6972789115646258,0.6972789115646258,0.6972789115646258,0.6972789115646258,0.6972789115646258,0.6972789115646258,0.6972789115646258,0.6972789115646258,0.6972789115646258,0.6972789115646258,0.6972789115646258,0.6972789115646258,0.6972789115646258,0.6972789115646258,0.6972789115646258,0.6972789115646258,0.6972789115646258,0.6972789115646258,0.6972789115646258,0.6972789115646258,0.6972789115646258,0.6972789115646258,0.6972789115646258,0.6972789115646258,0.6972789115646258,0.6972789115646258,0.6972789115646258,0.6972789115646258,0.6972789115646258,0.6972789115646258,0.6972789115646258,0.6972789115646258,0.6972789115646258,0.6972789115646258,0.6972789115646258,0.6972789115646258,0.6972789115646258,0.6972789115646258,0.6972789115646258,0.6972789115646258,0.6972789115646258,0.6972789115646258,0.6972789115646258,0.6972789115646258,0.6972789115646258,0.6972789115646258,0.6972789115646258,0.6972789115646258,0.6972789115646258,0.6972789115646258,0.6938775510204082,0.6938775510204082,0.6938775510204082,0.6938775510204082,0.6938775510204082,0.6938775510204082,0.6938775510204082,0.6938775510204082,0.6938775510204082,0.6938775510204082,0.6938775510204082,0.6938775510204082,0.6938775510204082,0.6938775510204082,0.6938775510204082,0.6938775510204082,0.6938775510204082,0.6938775510204082,0.6938775510204082,0.6972789115646258,0.7074829931972789,0.7312925170068028,0.7414965986394558,0.7482993197278912,0.7551020408163265,0.7687074829931972,0.7891156462585034,0.8095238095238095,0.8299319727891157,0.8367346938775511,0.8469387755102041,0.8469387755102041,0.8503401360544217,0.8503401360544217,0.8503401360544217,0.8503401360544217,0.8537414965986394,0.8537414965986394,0.8537414965986394,0.8537414965986394,0.8537414965986394,0.8537414965986394,0.8537414965986394,0.8537414965986394,0.8537414965986394,0.8537414965986394,0.8537414965986394,0.8537414965986394,0.8537414965986394,0.8537414965986394,0.8469387755102041,0.8469387755102041,0.8299319727891157,0.8095238095238095,0.7857142857142857,0.7517006802721088,0.7210884353741497,0.6904761904761905,0.6598639455782312,0.6462585034013606,0.6326530612244898,0.6224489795918368,0.6156462585034014,0.6122448979591837,0.6122448979591837,0.608843537414966,0.6020408163265306,0.5952380952380952,0.5884353741496599,0.5850340136054422,0.5816326530612245,0.5782312925170068,0.5748299319727891,0.5680272108843537,0.5612244897959183,0.5510204081632653,0.5374149659863946,0.5238095238095238,0.5170068027210885,0.5102040816326531,0.5034013605442177,0.5,0.4965986394557823,0.4931972789115646,0.48639455782312924,0.48299319727891155,0.47619047619047616,0.46938775510204084,0.46598639455782315,0.46258503401360546,0.46258503401360546,0.45918367346938777,0.45918367346938777,0.45918367346938777,0.45918367346938777,0.4557823129251701,0.4557823129251701,0.4557823129251701,0.4557823129251701,0.4557823129251701,0.4557823129251701,0.4557823129251701,0.4523809523809524,0.4523809523809524,0.4523809523809524,0.4523809523809524,0.4523809523809524,0.4523809523809524,0.4523809523809524,0.4523809523809524,0.4523809523809524,0.4523809523809524,0.4523809523809524,0.4523809523809524,0.4523809523809524,0.4523809523809524,0.4523809523809524,0.4523809523809524,0.4523809523809524,0.4523809523809524,0.4523809523809524,0.4523809523809524,0.4523809523809524,0.4523809523809524,0.4523809523809524,0.4523809523809524,0.4523809523809524,0.4523809523809524,0.4523809523809524,0.4523809523809524,0.4523809523809524,0.4523809523809524,0.4523809523809524,0.4523809523809524,0.4523809523809524,0.4523809523809524,0.4523809523809524,0.4523809523809524,0.4523809523809524,0.4523809523809524,0.4523809523809524,0.4523809523809524,0.4523809523809524,0.4523809523809524,0.4523809523809524,0.4523809523809524,0.4523809523809524,0.4523809523809524,0.4523809523809524,0.4523809523809524,0.4523809523809524,0.4523809523809524,0.4523809523809524,0.4523809523809524,0.4523809523809524,0.4523809523809524,0.4523809523809524,0.4523809523809524,0.4523809523809524,0.4523809523809524,0.4523809523809524,0.4523809523809524,0.4523809523809524,0.4523809523809524,0.4523809523809524,0.4523809523809524,0.4523809523809524,0.4421768707482993,0.41156462585034015,0.41156462585034015,0.3945578231292517,0.3843537414965986,0.37755102040816324,0.3707482993197279,0.3707482993197279,0.3469387755102041,0.3163265306122449,0.29591836734693877,0.272108843537415,0.25510204081632654,0.24829931972789115,0.23469387755102042,0.22108843537414966,0.20408163265306123,0.1836734693877551,0.1598639455782313,0.14625850340136054,0.12585034013605442,0.10204081632653061,0.08503401360544217,0.07482993197278912,0.061224489795918366,0.05782312925170068,0.05442176870748299,0.05102040816326531,0.05102040816326531,0.047619047619047616,0.047619047619047616,0.04421768707482993,0.04421768707482993,0.04081632653061224,0.04081632653061224,0.03741496598639456,0.030612244897959183,0.027210884353741496,0.023809523809523808,0.02040816326530612,0.017006802721088437,0.017006802721088437,0.013605442176870748,0.013605442176870748,0.013605442176870748,0.013605442176870748,0.013605442176870748,0.013605442176870748,0.013605442176870748,0.013605442176870748,0.013605442176870748,0.013605442176870748,0.013605442176870748,0.013605442176870748,0.013605442176870748,0.013605442176870748,0.013605442176870748,0.013605442176870748,0.013605442176870748,0.013605442176870748,0.013605442176870748,0.013605442176870748,0.013605442176870748,0.013605442176870748,0.013605442176870748,0.013605442176870748,0.013605442176870748,0.013605442176870748,0.013605442176870748,0.013605442176870748,0.013605442176870748,0.013605442176870748,0.013605442176870748,0.013605442176870748,0.013605442176870748,0.013605442176870748,0.013605442176870748,0.013605442176870748,0.013605442176870748,0.013605442176870748,0.013605442176870748,0.013605442176870748,0.013605442176870748,0.013605442176870748,0.013605442176870748,0.013605442176870748,0.013605442176870748,0.013605442176870748,0.013605442176870748,0.013605442176870748,0.013605442176870748,0.013605442176870748,0.013605442176870748,0.013605442176870748,0.013605442176870748,0.013605442176870748,0.013605442176870748,0.013605442176870748,0.013605442176870748,0.013605442176870748,0.013605442176870748,0.013605442176870748,0.02040816326530612,0.030612244897959183,0.05442176870748299,0.09523809523809523,0.09523809523809523,0.12585034013605442,0.1564625850340136,0.17346938775510204,0.19387755102040816,0.22789115646258504,0.25170068027210885,0.25170068027210885,0.2755102040816326,0.3231292517006803,0.3435374149659864,0.35374149659863946,0.36054421768707484,0.36054421768707484,0.36394557823129253,0.36394557823129253,0.3673469387755102,0.3673469387755102,0.3707482993197279,0.3707482993197279,0.3707482993197279,0.3741496598639456,0.38095238095238093,0.3877551020408163,0.3945578231292517,0.4013605442176871,0.4013605442176871,0.4489795918367347,0.46598639455782315,0.47959183673469385,0.4931972789115646,0.5102040816326531,0.5238095238095238,0.5374149659863946,0.5476190476190477,0.5612244897959183,0.5714285714285714,0.5782312925170068,0.5884353741496599,0.6020408163265306,0.6156462585034014,0.6360544217687075,0.6360544217687075,0.6462585034013606,0.6530612244897959,0.6666666666666666,0.6700680272108843,0.673469387755102,0.6802721088435374,0.6836734693877551,0.6870748299319728,0.6904761904761905,0.6904761904761905,0.6938775510204082,0.6938775510204082,0.6972789115646258,0.7006802721088435,0.7040816326530612,0.7074829931972789,0.7108843537414966,0.7108843537414966,0.7142857142857143,0.7142857142857143,0.7142857142857143,0.717687074829932,0.717687074829932,0.717687074829932,0.717687074829932,0.7210884353741497,0.7210884353741497,0.7210884353741497,0.7210884353741497,0.7210884353741497,0.7244897959183674,0.7244897959183674,0.7244897959183674,0.7244897959183674,0.7244897959183674,0.7244897959183674,0.7244897959183674,0.7244897959183674,0.7244897959183674,0.7244897959183674,0.7244897959183674,0.7244897959183674,0.7244897959183674,0.7244897959183674,0.7244897959183674,0.7244897959183674,0.7244897959183674,0.7244897959183674,0.7244897959183674,0.7244897959183674,0.7244897959183674,0.7244897959183674,0.7244897959183674,0.7244897959183674,0.7244897959183674,0.7244897959183674,0.7210884353741497,0.7210884353741497,0.7210884353741497,0.717687074829932,0.717687074829932,0.717687074829932,0.717687074829932,0.717687074829932,0.717687074829932,0.717687074829932,0.717687074829932,0.717687074829932,0.7142857142857143,0.7142857142857143,0.7142857142857143,0.7142857142857143,0.7142857142857143,0.7142857142857143,0.7142857142857143,0.7142857142857143,0.7142857142857143,0.7108843537414966,0.7108843537414966,0.7108843537414966,0.7108843537414966,0.7108843537414966,0.7108843537414966,0.7074829931972789,0.7040816326530612,0.7040816326530612,0.7006802721088435,0.7006802721088435,0.7006802721088435,0.7006802721088435,0.6972789115646258,0.6972789115646258,0.6972789115646258,0.6972789115646258,0.6972789115646258,0.6972789115646258,0.6972789115646258,0.7006802721088435,0.7074829931972789,0.7074829931972789,0.7074829931972789,0.7074829931972789,0.7074829931972789,0.7074829931972789,0.7074829931972789,0.7074829931972789,0.7074829931972789,0.7074829931972789,0.7074829931972789,0.7074829931972789,0.7074829931972789,0.7074829931972789,0.7074829931972789,0.7074829931972789,0.7074829931972789,0.7074829931972789,0.7074829931972789,0.7244897959183674,0.7619047619047619,0.7925170068027211,0.8061224489795918,0.8095238095238095,0.8129251700680272,0.8129251700680272,0.8163265306122449,0.8163265306122449,0.8163265306122449,0.8163265306122449,0.8197278911564626,0.8197278911564626,0.8197278911564626,0.8197278911564626,0.8197278911564626,0.8231292517006803,0.8231292517006803,0.8231292517006803,0.8231292517006803,0.826530612244898,0.826530612244898,0.826530612244898,0.826530612244898,0.8299319727891157,0.8299319727891157,0.8299319727891157,0.8299319727891157,0.8299319727891157,0.8299319727891157,0.8299319727891157,0.8299319727891157,0.8299319727891157,0.8299319727891157,0.8299319727891157,0.8299319727891157,0.8299319727891157,0.8299319727891157,0.8299319727891157,0.8299319727891157,0.8299319727891157,0.8299319727891157,0.8299319727891157,0.8299319727891157,0.8299319727891157,0.8299319727891157,0.8299319727891157,0.8299319727891157,0.8537414965986394,0.9047619047619048,1.0170068027210883,1.1224489795918366,1.1428571428571428,1.1598639455782314,1.1700680272108843,1.1768707482993197,1.1802721088435375,1.183673469387755,1.1870748299319729,1.1870748299319729,1.1870748299319729,1.1904761904761905,1.1904761904761905,1.1904761904761905,1.1938775510204083,1.1938775510204083,1.1938775510204083,1.1938775510204083,1.1938775510204083,1.1938775510204083,1.1938775510204083,1.1938775510204083,1.1938775510204083,1.1938775510204083,1.1938775510204083,1.1938775510204083,1.1938775510204083,1.1938775510204