[{"success":true,"trial_type":"fullscreen","trial_index":0,"time_elapsed":27059,"internal_node_id":"0.0-0.0","protocol_sum":"","subject_identifier":221,"subject_sum":[155,219,42,246,121,146,4,162,153,198,3,153,75,142,64,14,75,31,214,37,239,219,116,6,108,200,105,254,228,44,157,243],"subject_pair":110,"STUDY_ID":"669eec2e4270c76bc184a38e","PROLIFIC_PID":"614de6895ac2892842f52ec7","SESSION_ID":"669fc90a0e834642e33c2806","practice_instructions":1,"leaderboard_instructions":0,"bonus":0,"reveal_word":true,"self_rating":"4","confidence":"78"},{"view_history":"[{\"page_index\":0,\"viewing_time\":5296.19999999553}]","rt":5296.5,"trial_type":"instructions","trial_index":1,"time_elapsed":32356,"internal_node_id":"0.0-1.0","protocol_sum":"","subject_identifier":221,"subject_sum":[155,219,42,246,121,146,4,162,153,198,3,153,75,142,64,14,75,31,214,37,239,219,116,6,108,200,105,254,228,44,157,243],"subject_pair":110,"STUDY_ID":"669eec2e4270c76bc184a38e","PROLIFIC_PID":"614de6895ac2892842f52ec7","SESSION_ID":"669fc90a0e834642e33c2806","practice_instructions":1,"leaderboard_instructions":0,"bonus":0,"reveal_word":true,"self_rating":"4","confidence":"78"},{"view_history":"[{\"page_index\":0,\"viewing_time\":23624.60000000149}]","rt":23624.79999999702,"trial_type":"instructions","trial_index":2,"time_elapsed":55981,"internal_node_id":"0.0-2.0-0.0","protocol_sum":"","subject_identifier":221,"subject_sum":[155,219,42,246,121,146,4,162,153,198,3,153,75,142,64,14,75,31,214,37,239,219,116,6,108,200,105,254,228,44,157,243],"subject_pair":110,"STUDY_ID":"669eec2e4270c76bc184a38e","PROLIFIC_PID":"614de6895ac2892842f52ec7","SESSION_ID":"669fc90a0e834642e33c2806","practice_instructions":1,"leaderboard_instructions":0,"bonus":0,"reveal_word":true,"self_rating":"4","confidence":"78"},{"rt":16988.80000000447,"responses":"{\"Q0\":\"... reveal the word with as <b>few letter guesses</b> as possible\"}","question_order":"[0]","trial_type":"survey-multi-choice","trial_index":3,"time_elapsed":72971,"internal_node_id":"0.0-2.0-1.0","protocol_sum":"","subject_identifier":221,"subject_sum":[155,219,42,246,121,146,4,162,153,198,3,153,75,142,64,14,75,31,214,37,239,219,116,6,108,200,105,254,228,44,157,243],"subject_pair":110,"correct":true,"test_part":"multichoice_nonpretend","STUDY_ID":"669eec2e4270c76bc184a38e","PROLIFIC_PID":"614de6895ac2892842f52ec7","SESSION_ID":"669fc90a0e834642e33c2806","practice_instructions":1,"leaderboard_instructions":0,"bonus":0,"reveal_word":true,"self_rating":"4","confidence":"78"},{"view_history":"[{\"page_index\":0,\"viewing_time\":1883.0999999940395}]","rt":1883.199999988079,"trial_type":"instructions","trial_index":4,"time_elapsed":74855,"internal_node_id":"0.0-3.0","protocol_sum":"","subject_identifier":221,"subject_sum":[155,219,42,246,121,146,4,162,153,198,3,153,75,142,64,14,75,31,214,37,239,219,116,6,108,200,105,254,228,44,157,243],"subject_pair":110,"STUDY_ID":"669eec2e4270c76bc184a38e","PROLIFIC_PID":"614de6895ac2892842f52ec7","SESSION_ID":"669fc90a0e834642e33c2806","practice_instructions":1,"leaderboard_instructions":0,"bonus":0,"reveal_word":true,"self_rating":"4","confidence":"78"},{"word":"ZEBRA","click_log":{"letter":["","H","R","L","O","S","T","N","Y","E","D","A","B","Z"],"t":[0,5480,10596.59999999404,24803.89999999106,27476.79999999702,38040.09999999404,39084.89999999106,41455.29999999702,46233,48308.79999999702,52593.79999999702,56510.29999999702,70314.79999999702,73375.79999999702],"hit":[null,0,1,0,0,0,0,0,0,1,0,1,1,1],"asked":["","H","HR","HRL","HRLO","HRLOS","HRLOST","HRLOSTN","HRLOSTNY","HRLOSTNYE","HRLOSTNYED","HRLOSTNYEDA","HRLOSTNYEDAB","HRLOSTNYEDABZ"],"word_state":["_____","_____","___R_","___R_","___R_","___R_","___R_","___R_","___R_","_E_R_","_E_R_","_E_RA","_EBRA","ZEBRA"]},"hover_log":{"letter":["?","?","?","?","?","?","?","?","?","?","?","?","?","?","?","?","?","?","?","?","?","?","?","?","?","?","?","?","?","?","?","?","?","?","?","?","?","?","?","?","?","?","?","?","?","?","?","?","?","?","?","?","?","?","?","?","?","?","?","?","?","?","?","?","?","?","?","?","?","?","?","?","?","?","?","?","?","?","?","?","?","?","?","?","?","?","?","?","?","?","?","?","?","?","?","?","?","?","?","?","?","?","?","J","J","?","A","?","?","?","?","?","?","?","?","?","?","?","?","?","?","?","?","?","?","?","?","?","?","?","?","?","?","?","?","?","?","?","?","?","?","?","?","?","?","?","?","?","?","?","?","?","?","?","?","?","?","?","?","?","?","?","?","?","?","?","?","?","?","?","?","?","?","?","?","?","?","?","?","?","?","?","?","?","?","?","?","?","?","?","?","?","?","?","?","?","?","?","?","?","?","?","?","?","?","?","?","?","?","?","?","?","?","?","?","?","?","?","?","?","?","?","?","?","F","F","F","F","F","F","F","F","F","F","F","F","F","F","F","F","?","?","?","?","?","?","?","?","?","?","?","?","?","?","?","?","?","?","?","?","?","?","?","?","?","?","?","?","?","?","?","H","H","H","H","H","H","H","H","H","H","H","H","H","H","H","H","H","H","H","H","H","H","H","H","H","H","H","H","H","H","H","H","H","H","H","H","H","H","H","H","H","H","H","H","H","H","H","H","H","H","H","H","H","H","H","H","H","H","H","H","H","H","H","H","H","H","H","H","H","H","H","H","H","H","H","H","H","H","H","H","H","H","H","H","H","H","H","H","H","H","H","H","H","H","H","H","H","H","H","H","H","H","H","H","H","H","H","H","H","H","H","H","H","H","H","H","H","H","H","H","H","H","H","H","H","H","H","H","H","H","H","H","H","H","H","H","H","H","H","H","H","H","H","H","H","H","H","H","H","H","H","H","H","H","H","H","H","H","H","H","H","H","H","H","H","H","H","H","H","H","H","H","H","?","G","G","G","G","G","G","G","G","G","G","?","?","?","F","F","F","F","F","F","F","F","F","F","F","F","?","?","?","?","?","?","?","?","?","?","?","?","?","?","?","?","?","?","?","?","?","?","?","?","?","?","?","?","?","?","?","?","K","K","K","K","K","K","K","K","K","K","K","K","K","K","K","K","K","?","L","L","L","?","M","M","?","N","?","?","O","O","O","?","?","P","P","P","P","?","Q","Q","Q","Q","Q","Q","Q","?","?","R","R","R","R","R","R","R","R","R","R","R","R","R","R","R","R","R","R","R","R","R","?","?","?","?","?","?","?","Q","Q","Q","Q","Q","Q","Q","Q","Q","Q","Q","Q","Q","Q","Q","Q","Q","Q","Q","Q","?","?","?","?","R","R","R","R","R","R","R","R","R","R","R","R","R","R","R","R","R","R","R","R","R","R","R","R","R","R","R","R","R","R","R","R","R","R","R","R","R","R","R","R","R","R","R","R","R","R","R","R","R","R","R","R","R","R","R","R","R","R","R","R","R","R","R","R","R","R","R","R","R","?","?","Q","Q","?","?","?","?","?","?","?","?","?","?","?","?","?","?","?","?","?","?","?","?","?","?","?","?","?","?","?","?","?","?","?","?","?","?","?","?","?","?","?","?","?","?","?","?","?","?","?","?","?","?","?","?","?","?","?","?","?","?","?","?","E","?","?","?","?","?","?","?","?","?","?","?","?","?","?","?","?","?","?","?","?","?","?","?","?","?","?","?","?","?","?","?","?","?","?","?","?","?","?","?","?","?","?","?","?","?","?","?","?","?","?","?","?","?","?","?","?","?","?","?","?","?","?","?","?","?","?","?","?","?","?","?","?","?","?","?","?","?","?","?","?","?","?","?","?","?","?","?","?","?","?","?","?","?","?","?","?","?","?","?","?","?","?","?","?","?","?","?","?","?","?","?","?","?","?","?","?","?","?","?","?","?","?","?","?","?","?","?","?","?","?","?","?","?","?","?","?","?","?","?","?","?","?","?","?","?","?","?","?","?","?","?","?","?","?","?","?","?","?","?","?","?","?","?","?","?","?","?","?","?","?","?","?","?","?","?","?","?","?","?","?","?","?","?","?","?","?","?","?","?","?","?","?","?","?","?","?","?","?","?","?","?","?","?","?","?","?","?","?","?","?","?","?","?","?","?","?","?","?","?","?","?","?","?","?","?","?","?","?","?","?","?","?","?","?","?","?","?","?","?","?","?","?","?","?","?","?","?","?","?","?","?","?","?","?","?","?","?","?","?","?","?","?","?","?","?","?","?","?","?","?","?","?","?","?","?","?","?","?","?","?","?","?","?","?","?","?","?","?","?","?","?","?","?","?","?","?","?","?","?","?","?","?","?","?","?","?","?","?","?","?","?","?","?","?","?","?","?","?","?","?","?","?","?","?","?","?","?","?","?","?","?","?","?","?","?","?","?","?","?","?","?","?","?","?","?","?","?","?","?","?","?","?","?","?","?","?","?","?","?","?","?","?","?","?","?","?","?","?","?","?","?","?","?","?","?","?","?","?","?","?","?","?","?","?","?","?","?","?","?","?","?","?","?","?","?","?","?","?","?","?","?","?","?","?","?","?","?","?","?","?","?","?","?","?","?","?","?","?","?","?","?","?","?","?","?","?","?","?","?","?","?","?","?","?","?","?","?","?","?","?","?","?","?","?","?","?","?","?","?","?","?","?","?","?","?","?","?","?","?","?","?","?","?","?","?","?","?","?","?","?","?","?","?","?","?","?","?","?","?","?","?","?","?","?","?","?","?","?","?","?","?","?","?","?","?","?","?","?","?","?","?","?","?","?","?","?","?","?","?","?","?","?","?","?","?","?","?","?","?","?","?","?","?","?","?","?","?","?","?","?","?","?","?","?","?","?","?","?","?","?","?","?","?","?","?","?","?","?","?","?","?","?","?","?","?","?","?","?","?","?","?","?","?","?","?","?","?","?","?","?","?","?","?","?","?","?","?","?","?","?","?","?","?","?","?","?","?","?","?","?","?","?","?","?","?","?","?","?","?","?","?","?","?","?","?","?","?","?","?","?","?","?","?","?","?","?","?","?","?","?","?","?","?","?","?","G","?","?","?","H","H","H","H","H","H","H","H","?","?","?","?","?","I","I","I","I","I","I","I","I","I","I","I","I","I","I","I","I","I","I","I","I","I","I","I","I","I","I","I","I","I","I","I","I","I","I","I","I","I","I","I","I","I","I","I","H","?","G","?","F","?","E","E","E","?","?","?","?","?","?","?","?","?","?","?","?","?","?","?","?","?","L","L","L","L","L","L","L","L","L","L","L","L","L","L","L","L","L","L","L","L","L","L","L","L","L","L","L","L","L","L","L","L","L","L","L","L","L","L","L","L","L","L","L","L","L","L","L","L","L","L","L","L","L","L","L","L","L","L","L","L","L","L","L","L","L","L","L","L","L","L","L","L","L","L","L","L","L","L","L","L","L","L","L","L","L","L","L","L","L","L","L","L","L","L","L","L","L","L","L","L","L","L","L","L","L","L","L","L","L","L","L","L","L","?","?","M","M","M","M","M","?","?","N","N","N","N","N","N","N","N","N","N","N","N","N","N","N","N","N","?","?","?","?","?","O","O","O","O","O","O","O","O","O","O","O","O","O","O","O","O","O","O","O","O","O","O","O","O","O","O","O","O","O","O","O","O","O","O","O","O","O","O","O","O","O","O","O","O","O","O","O","O","O","O","O","O","O","O","O","O","O","O","O","O","O","O","O","O","O","O","O","O","O","O","O","O","O","O","O","O","O","O","O","O","O","O","O","O","O","O","O","O","O","O","O","O","O","O","O","O","O","O","O","O","O","O","O","O","O","O","O","O","O","O","O","O","O","O","O","O","O","O","O","O","O","O","O","O","O","O","O","O","O","O","O","O","O","O","O","O","O","O","O","O","O","O","O","O","O","O","O","O","O","O","O","O","O","O","O","O","O","O","O","O","O","O","O","O","O","O","O","O","O","O","O","O","O","O","O","O","O","O","O","O","O","O","O","O","O","O","O","O","O","O","O","O","O","O","O","O","O","O","O","O","O","O","O","O","O","O","O","O","O","O","O","O","O","O","O","O","O","O","O","O","O","O","O","O","O","O","O","O","O","O","O","O","O","O","O","O","O","O","O","O","O","O","O","O","O","O","O","O","O","O","O","O","O","O","O","O","O","O","O","O","O","O","O","O","O","O","O","O","O","O","O","O","O","O","O","O","O","O","O","O","O","O","O","O","O","O","O","O","O","O","O","O","O","O","O","O","O","O","O","O","O","O","O","O","O","O","O","O","O","O","O","O","O","O","O","O","O","O","O","O","O","O","O","O","O","O","O","O","O","O","O","O","O","O","O","O","O","O","O","O","O","O","O","O","O","O","O","O","?","?","N","N","N","N","N","N","N","N","N","N","N","N","N","N","N","N","N","N","N","N","N","N","N","N","N","N","N","N","N","N","N","N","N","N","N","N","N","N","N","N","N","N","N","N","N","N","N","N","N","N","N","N","N","N","N","N","N","N","N","N","N","N","N","N","N","N","N","N","N","N","N","N","N","N","N","N","N","N","N","N","N","N","N","N","N","N","N","N","N","?","?","?","?","?","?","?","?","?","?","?","?","?","?","?","?","?","?","?","?","?","?","?","?","F","F","F","F","F","F","F","F","F","F","F","F","F","F","F","F","F","F","F","F","F","F","F","F","F","F","F","F","F","F","F","F","F","F","F","F","F","F","F","F","F","F","F","F","F","F","F","F","F","F","F","F","F","F","F","F","F","F","?","?","E","E","E","E","E","E","E","?","?","D","D","D","D","D","D","D","D","D","D","D","D","D","D","D","D","D","D","D","D","D","D","D","D","D","D","D","D","D","D","D","D","D","D","D","D","D","D","D","D","D","D","D","D","D","D","D","D","D","D","D","D","D","D","D","D","D","D","D","D","D","D","D","D","D","D","D","D","D","D","D","D","D","D","D","D","D","D","D","D","D","D","?","?","L","L","L","L","L","L","L","?","?","?","?","?","?","?","?","?","?","?","?","?","?","?","?","T","T","T","T","T","T","T","T","T","T","T","T","T","T","T","T","T","T","T","T","?","?","?","?","?","?","?","?","?","?","S","S","S","S","S","S","S","S","S","S","S","S","S","S","S","S","S","S","S","S","S","S","S","S","S","S","S","S","S","S","S","S","S","S","S","S","S","S","S","S","S","S","S","S","S","S","S","S","S","S","?","?","?","T","T","T","T","T","T","T","T","T","T","T","T","T","T","T","T","T","T","T","T","T","T","T","T","T","T","T","T","T","T","T","T","T","T","T","T","T","T","T","T","T","T","T","T","T","T","T","T","T","T","T","T","T","T","T","T","T","T","T","T","T","T","T","T","T","T","T","T","T","T","T","T","T","T","T","?","?","?","?","?","?","?","?","?","?","L","L","L","L","L","L","L","L","L","?","?","K","K","K","K","K","K","K","K","K","K","K","K","K","K","K","K","K","K","K","K","K","K","K","K","K","?","L","L","L","L","L","L","?","?","M","M","M","M","M","M","M","M","M","M","M","M","M","M","M","?","N","N","N","N","N","N","N","N","N","N","N","N","N","N","N","N","N","N","N","N","N","N","N","N","N","N","N","N","N","N","N","N","N","N","N","N","N","N","N","N","N","N","N","N","N","N","N","N","N","N","N","N","N","N","N","N","N","N","N","N","N","N","N","N","N","N","N","N","N","N","N","N","N","N","N","N","N","N","N","N","N","N","N","N","N","N","N","N","N","N","N","N","N","N","N","N","N","N","N","N","N","N","N","N","N","N","N","N","N","N","N","N","N","N","N","N","N","N","N","N","N","N","N","N","N","N","N","N","N","N","N","N","?","?","?","?","F","F","F","F","F","F","F","F","?","?","?","?","?","?","?","?","?","?","?","?","G","G","G","G","G","G","G","G","G","G","G","G","G","G","G","G","G","G","G","G","G","G","G","G","G","G","G","G","G","G","G","G","G","G","G","G","G","G","G","G","G","G","G","G","G","G","G","G","G","G","G","G","G","G","G","G","G","G","G","G","G","G","G","G","G","G","G","G","G","G","G","G","G","G","G","G","G","G","G","G","G","G","G","G","G","G","G","G","G","G","G","G","G","G","G","G","G","G","G","?","?","?","P","P","P","P","P","P","P","P","P","P","?","?","?","?","?","?","?","?","?","?","?","?","?","?","?","?","?","?","Y","Y","Y","Y","Y","Y","Y","Y","Y","Y","Y","Y","Y","Y","Y","Y","Y","Y","Y","Y","Y","Y","Y","Y","Y","Y","Y","Y","Y","Y","Y","Y","Y","Y","Y","Y","Y","Y","Y","Y","Y","Y","Y","Y","Y","Y","Y","Y","Y","Y","Y","Y","Y","Y","Y","Y","Y","Y","Y","Y","Y","Y","Y","Y","Y","Y","Y","Y","Y","Y","Y","Y","Y","Y","Y","Y","Y","Y","Y","Y","Y","Y","Y","Y","Y","Y","Y","Y","Y","Y","Y","?","?","?","?","?","?","?","N","N","N","N","?","?","?","?","?","D","D","D","D","D","D","D","D","D","D","D","D","D","D","D","D","?","?","E","E","E","E","E","E","E","E","E","E","E","E","E","E","E","E","E","E","E","E","E","E","E","E","E","E","E","E","E","E","E","E","E","E","E","E","E","E","E","E","E","E","E","E","E","E","E","E","E","E","E","E","E","E","E","E","E","E","E","E","E","E","E","E","E","E","E","E","E","E","E","E","E","E","E","E","E","E","E","E","E","E","E","E","E","E","E","E","E","E","E","E","E","E","E","E","E","E","E","E","E","E","E","E","E","E","E","E","E","E","E","E","E","E","E","E","E","E","E","E","E","E","E","E","?","D","D","D","D","D","D","D","D","D","?","C","C","C","C","C","C","C","C","?","?","B","B","B","B","B","B","B","B","B","B","B","B","B","B","B","B","B","B","B","B","B","B","B","B","B","B","B","B","B","B","B","B","B","B","B","B","B","B","B","B","B","B","B","B","B","B","B","B","B","B","B","B","B","B","B","B","B","B","B","B","B","B","B","B","B","B","B","B","B","B","B","B","B","?","?","C","C","C","C","C","C","C","C","C","C","C","C","C","C","C","C","C","C","C","?","?","?","?","?","?","?","?","?","?","?","?","?","?","?","D","D","D","D","D","D","D","D","D","D","D","D","D","D","D","D","D","D","D","D","D","D","D","D","D","D","D","D","D","D","D","D","D","D","D","D","D","D","D","D","D","D","D","D","D","D","D","D","D","D","D","D","D","D","D","D","D","D","D","D","D","D","D","D","D","D","D","D","D","D","D","D","D","D","D","D","D","D","D","D","D","D","D","D","D","D","D","D","D","D","D","D","D","D","D","D","D","D","D","D","D","D","D","D","D","D","D","D","D","D","D","D","D","D","D","D","D","D","D","D","D","D","D","D","D","D","D","D","D","D","D","D","D","D","D","D","D","D","D","D","D","D","D","D","D","D","D","D","D","D","D","D","D","D","D","D","D","D","D","D","D","D","D","D","D","D","D","D","D","D","D","D","D","D","D","D","D","D","D","D","D","D","D","D","D","D","D","D","D","D","D","D","D","D","D","D","D","D","D","D","D","D","D","D","D","D","D","D","D","D","D","D","D","D","D","D","D","D","D","D","D","D","D","D","D","?","C","?","B","B","B","B","B","?","?","A","A","A","A","A","A","A","A","A","A","A","A","A","A","A","A","A","A","A","A","A","A","A","A","A","A","A","A","A","A","A","A","A","A","A","A","A","A","A","A","A","A","A","A","A","A","A","A","A","A","A","A","A","A","A","A","A","A","A","A","A","A","A","A","A","A","A","A","A","A","A","A","A","A","A","A","A","A","A","A","A","A","A","A","A","A","A","A","A","A","A","A","A","A","A","A","A","A","A","A","A","A","A","A","A","A","A","A","A","A","A","A","A","A","A","A","A","A","A","A","A","A","A","A","A","A","A","A","A","A","A","A","A","A","A","A","A","A","A","A","A","A","A","A","A","A","A","A","A","A","A","A","A","A","A","A","A","A","A","A","A","A","A","A","A","A","A","A","A","A","A","A","A","A","A","A","A","A","A","A","A","A","A","A","A","A","A","A","A","A","A","A","A","A","A","A","A","A","A","A","A","A","A","A","A","A","A","A","A","A","A","A","A","A","A","A","A","A","A","A","A","A","A","A","A","A","A","A","A","A","A","A","A","A","A","A","A","A","A","A","A","A","A","A","A","A","A","A","A","A","A","A","A","A","A","A","A","A","?","?","B","B","B","B","B","B","B","?","C","C","C","C","?","?","D","D","D","D","?","?","E","E","E","E","E","E","E","E","?","?","?","?","F","F","F","F","F","F","F","F","F","F","F","F","F","F","F","F","F","F","F","F","F","F","F","F","F","F","F","F","F","F","F","F","F","F","F","F","F","?","?","?","?","?","?","?","?","?","?","?","?","?","?","?","?","?","?","?","?","?","?","?","?","?","?","?","?","?","?","?","?","?","?","?","?","?","?","?","?","?","?","?","?","?","?","?","?","?","?","?","?","?","?","?","?","?","?","?","?","?","?","?","?","?","?","?","?","?","?","?","?","?","?","?","?","?","?","?","?","?","?","?","?","?","?","?","?","?","?","?","?","?","?","?","?","?","?","?","?","?","?","?","?","?","?","?","?","?","?","?","?","?","?","?","?","?","?","?","?","?","?","?","?","?","?","?","?","?","?","?","?","?","?","?","?","?","?","?","?","?","?","?","?","?","?","?","?","?","?","?","?","?","?","?","?","?","?","?","?","?","?","?","?","?","?","?","?","?","?","?","?","?","?","?","?","?","?","?","?","?","?","?","?","?","?","?","?","?","?","?","?","?","?","?","?","?","?","?","?","?","?","?","?","?","?","?","?","?","?","?","?","?","?","?","?","?","?","?","?","?","?","?","?","?","?","?","?","?","?","?","?","?","?","?","?","G","G","G","G","G","G","G","G","G","G","G","G","G","G","G","G","G","G","G","G","G","G","G","G","G","G","G","G","G","G","G","G","G","G","G","G","G","G","G","G","G","G","G","G","G","G","G","G","G","G","G","G","G","G","G","G","G","G","G","G","G","G","G","G","G","G","G","G","G","G","G","G","G","G","G","G","G","G","?","?","?","?","?","?","?","P","P","P","P","P","P","P","P","P","P","P","P","P","P","P","P","P","P","P","P","P","P","P","P","P","P","P","P","P","P","P","P","P","P","P","P","P","P","P","P","P","P","P","P","P","P","P","P","P","P","P","P","P","P","P","P","?","?","?","?","?","?","E","E","E","E","E","E","?","?","D","D","D","D","D","D","D","D","D","D","D","?","?","?","?","?","?","?","C","C","C","C","C","C","C","C","C","C","C","C","C","C","C","C","C","C","C","C","C","C","C","C","C","C","C","C","C","C","C","C","C","C","C","C","C","C","C","C","C","C","C","C","?","?","?","?","B","B","B","B","B","B","B","B","B","B","B","B","B","B","B","B","B","B","B","B","B","B","B","B","B","B","B","B","B","B","B","B","B","B","B","B","B","B","B","B","B","B","B","B","B","B","B","B","B","B","B","B","B","B","B","B","B","B","B","B","B","B","B","B","B","B","B","B","B","B","B","B","B","B","B","B","B","B","B","B","B","B","B","B","B","B","B","B","B","B","B","B","B","B","B","B","B","B","B","B","B","B","B","B","B","B","B","B","B","B","B","B","B","B","B","B","B","B","B","B","B","B","B","B","B","B","B","B","B","B","B","B","B","B","B","B","B","B","B","B","B","B","B","B","B","B","B","B","B","B","B","B","B","B","B","B","B","B","B","B","B","B","B","B","B","B","B","B","B","B","B","B","B","B","?","?","K","K","K","K","K","K","K","K","K","K","?","?","?","?","?","?","?","?","?","W","W","?","X","X","X","?","Y","Y","Y","Y","Y","Y","Y","Y","Y","Y","Y","Y","?","?","?","?","?","?","?","?","?","?","?","?","?","Z","Z","Z","Z","Z","Z","Z","Z","Z","Z","Z","Z","Z","Z","Z","Z","Z","Z","Z","Z","Z","Z","Z","Z","Z","Z","Z","Z","Z","Z","Z","Z","Z","Z","Z","Z","Z","Z","Z","Z","Z","Z","Z","Z","Z","Z","Z","Z","Z","Z","Z","Z","Z","Z","Z","Z","Z","Z","Z","Z","Z","Z","Z","Z","Z","Z","Z","Z","Z","Z","Z","Z","Z","Z","Z","Z","Z","Z","Z","Z","Z","Z","Z","Z","Z","Z","Z","Z","Z","Z","Z","Z","Z","Z","Z","Z","Z","Z","Z","Z","Z","Z","Z","Z","Z","Z","Z","Z","Z","Z","Z","Z","Z","Z","Z","Z","Z","Z","Z","Z","Z","Z","Z","Z","Z","Z","Z","Z","Z","Z","Z","Z","Z","Z","Z","Z","Z","Z","Z","Z","Z","Z","Z","Z","Z","Z","Z","Z","Z","Z"],"t":[40,47,72,88,105,122,143,155,173,189,205,222,239,255,272,288,305,322,339,355,373,389,406,422,439,455,472,488,505,522,538,555,572,589,605,622,639,656,672,688,705,722,738,755,772,789,805,822,839,855,871,888,905,922,938,955,972,989,1005,1022,1039,1055,1072,1088,1105,1122,1138,1155,1172,1188,1205,1222,1239,1256,1272,1288,1306,1322,1339,1355,1372,1388,1406,1422,1439,1455,1472,1488,1505,1522,1538,1555,1572,1588,1605,1622,1639,1655,1672,1688,1705,1722,1739,1767,1772,1789,1806,1822,1839,1856,1872,1889,1906,1922,1939,1956,1972,1989,2005,2023,2039,2056,2072,2089,2107,2122,2139,2156,2172,2189,2206,2222,2239,2256,2272,2289,2306,2322,2339,2356,2372,2389,2406,2422,2439,2455,2472,2489,2506,2522,2539,2556,2572,2589,2606,2622,2639,2655,2672,2689,2706,2722,2739,2756,2772,2789,2806,2822,2839,2856,2872,2889,2906,2922,2939,2956,2973,2989,3006,3022,3039,3056,3073,3089,3105,3122,3139,3156,3172,3189,3206,3222,3239,3256,3272,3289,3306,3322,3339,3356,3372,3389,3406,3422,3440,3455,3473,3489,3506,3522,3539,3555,3572,3589,3606,3622,3640,3656,3672,3689,3706,3722,3739,3756,3773,3789,3806,3823,3839,3856,3872,3889,3906,3922,3939,3956,3972,3989,4006,4022,4039,4056,4072,4089,4106,4122,4139,4156,4172,4189,4206,4222,4239,4256,4273,4289,4306,4322,4339,4356,4372,4389,4406,4423,4439,4456,4472,4489,4506,4522,4539,4556,4573,4590,4606,4622,4639,4655,4672,4689,4706,4722,4739,4756,4772,4789,4807,4822,4839,4856,4873,4889,4906,4923,4939,4956,4972,4989,5006,5023,5039,5056,5073,5089,5106,5122,5139,5155,5172,5189,5206,5222,5239,5256,5272,5289,5306,5322,5339,5355,5372,5389,5406,5422,5439,5457,5473,5489,5506,5523,5539,5556,5573,5589,5606,5623,5639,5656,5673,5690,5706,5723,5739,5756,5773,5789,5806,5823,5840,5857,5873,5889,5906,5923,5939,5957,5973,5989,6006,6023,6040,6056,6073,6090,6106,6123,6139,6156,6173,6189,6206,6223,6239,6256,6272,6290,6306,6322,6339,6356,6373,6389,6406,6423,6439,6456,6473,6489,6506,6523,6539,6556,6572,6589,6606,6623,6639,6656,6673,6689,6706,6723,6740,6756,6773,6789,6806,6822,6839,6856,6873,6889,6906,6923,6940,6956,6973,6990,7006,7022,7039,7056,7073,7089,7106,7122,7139,7156,7173,7189,7207,7223,7240,7256,7273,7289,7306,7323,7339,7357,7372,7389,7406,7422,7439,7457,7473,7490,7506,7523,7540,7556,7572,7589,7606,7623,7639,7656,7673,7689,7706,7723,7739,7756,7773,7789,7807,7823,7839,7856,7873,7890,7906,7923,7939,7956,7973,7989,8006,8023,8040,8056,8073,8089,8106,8123,8139,8156,8173,8190,8206,8223,8239,8256,8273,8290,8306,8323,8339,8357,8373,8390,8406,8423,8440,8456,8473,8489,8506,8523,8539,8556,8573,8590,8607,8623,8639,8656,8673,8690,8706,8723,8740,8757,8774,8790,8807,8823,8839,8856,8873,8889,8906,8923,8940,8956,8973,8990,9007,9023,9040,9057,9073,9089,9107,9123,9140,9157,9173,9190,9206,9223,9239,9256,9273,9289,9307,9323,9339,9356,9373,9389,9407,9423,9440,9457,9473,9489,9506,9523,9540,9557,9573,9590,9606,9623,9640,9657,9673,9690,9706,9723,9740,9756,9773,9790,9807,9823,9840,9857,9873,9889,9906,9923,9940,9957,9973,9989,10007,10023,10040,10057,10073,10090,10106,10123,10140,10156,10173,10190,10206,10223,10240,10257,10273,10290,10307,10323,10340,10357,10373,10390,10407,10423,10440,10457,10473,10489,10506,10523,10540,10556,10573,10589,10609,10624,10640,10657,10674,10690,10707,10723,10740,10757,10773,10790,10806,10823,10840,10857,10874,10890,10907,10923,10940,10957,10973,10989,11007,11023,11040,11057,11073,11090,11107,11124,11140,11157,11173,11189,11207,11223,11240,11257,11273,11290,11307,11323,11340,11357,11373,11390,11407,11423,11440,11457,11474,11490,11507,11523,11540,11557,11574,11590,11607,11624,11640,11657,11673,11690,11707,11723,11740,11756,11774,11790,11807,11824,11840,11857,11873,11890,11907,11923,11940,11957,11974,11990,12007,12024,12040,12057,12073,12090,12107,12123,12140,12157,12173,12190,12207,12223,12240,12257,12274,12290,12307,12324,12341,12357,12373,12390,12407,12423,12440,12457,12473,12490,12507,12524,12540,12557,12573,12590,12607,12623,12640,12657,12673,12690,12707,12723,12740,12757,12774,12790,12807,12824,12840,12857,12873,12890,12907,12923,12940,12957,12974,12990,13007,13023,13041,13057,13074,13090,13107,13124,13140,13157,13173,13190,13207,13224,13240,13257,13274,13290,13307,13324,13340,13357,13373,13390,13407,13424,13440,13457,13474,13490,13507,13524,13540,13557,13574,13590,13607,13623,13640,13657,13674,13690,13707,13724,13740,13757,13774,13790,13807,13824,13840,13857,13873,13890,13907,13924,13940,13957,13974,13990,14007,14024,14040,14057,14073,14090,14107,14124,14140,14157,14174,14190,14207,14224,14240,14257,14273,14290,14307,14324,14340,14357,14374,14390,14407,14424,14441,14458,14474,14491,14507,14523,14540,14557,14574,14590,14607,14624,14640,14657,14674,14690,14707,14724,14740,14757,14774,14790,14807,14824,14840,14857,14873,14890,14907,14924,14940,14957,14974,14990,15007,15024,15040,15057,15074,15090,15107,15124,15140,15157,15174,15191,15207,15224,15240,15257,15274,15290,15307,15324,15341,15357,15374,15391,15407,15423,15441,15457,15474,15490,15507,15524,15540,15557,15574,15590,15607,15624,15640,15657,15674,15690,15707,15724,15740,15757,15774,15790,15807,15824,15841,15858,15874,15890,15907,15924,15940,15957,15974,15990,16008,16024,16041,16057,16074,16090,16107,16123,16140,16157,16174,16190,16207,16224,16241,16257,16274,16290,16307,16324,16340,16357,16374,16390,16408,16424,16440,16458,16474,16490,16507,16524,16540,16557,16574,16591,16607,16625,16641,16657,16674,16690,16708,16724,16740,16758,16774,16790,16807,16824,16840,16857,16874,16891,16907,16924,16941,16958,16974,16990,17007,17025,17041,17057,17074,17091,17107,17124,17140,17157,17174,17191,17208,17224,17241,17257,17274,17291,17307,17324,17341,17357,17375,17391,17407,17424,17440,17458,17474,17490,17507,17524,17541,17557,17574,17591,17608,17624,17641,17658,17674,17690,17707,17724,17740,17757,17774,17790,17807,17824,17841,17857,17874,17891,17908,17924,17941,17957,17974,17991,18007,18024,18040,18058,18074,18091,18107,18125,18140,18157,18174,18191,18207,18224,18241,18258,18274,18291,18307,18325,18341,18357,18374,18391,18408,18424,18441,18457,18475,18491,18508,18524,18541,18558,18574,18591,18608,18624,18641,18657,18675,18691,18708,18724,18741,18758,18774,18791,18808,18824,18841,18858,18874,18891,18908,18924,18941,18958,18974,18991,19008,19024,19041,19058,19074,19091,19108,19124,19141,19158,19175,19191,19207,19224,19241,19258,19275,19291,19308,19324,19341,19358,19374,19391,19408,19424,19441,19458,19474,19491,19508,19524,19541,19558,19574,19591,19608,19625,19641,19657,19674,19691,19708,19725,19741,19757,19774,19791,19808,19824,19841,19857,19874,19891,19908,19924,19941,19958,19974,19991,20008,20025,20041,20058,20074,20091,20108,20125,20141,20158,20174,20191,20208,20225,20241,20257,20274,20291,20308,20324,20341,20358,20374,20391,20408,20424,20441,20458,20474,20491,20508,20524,20541,20558,20575,20591,20608,20624,20641,20658,20674,20691,20708,20724,20741,20758,20775,20791,20808,20824,20841,20858,20876,20891,20908,20924,20941,20958,20975,20991,21008,21024,21041,21058,21074,21091,21108,21124,21141,21158,21175,21191,21208,21224,21242,21257,21274,21292,21308,21324,21342,21358,21374,21391,21408,21425,21441,21458,21474,21491,21508,21525,21541,21558,21574,21591,21608,21624,21642,21658,21675,21691,21708,21724,21741,21758,21774,21791,21808,21824,21841,21858,21875,21891,21908,21924,21941,21958,21974,21991,22008,22024,22041,22058,22075,22092,22108,22125,22141,22158,22175,22191,22208,22225,22241,22258,22275,22291,22308,22325,22341,22358,22375,22391,22408,22424,22441,22458,22475,22491,22508,22525,22541,22558,22574,22591,22608,22625,22641,22658,22675,22691,22708,22725,22741,22758,22775,22792,22808,22825,22841,22859,22875,22891,22908,22925,22941,22958,22975,22992,23008,23025,23042,23058,23075,23091,23108,23125,23141,23158,23175,23192,23208,23225,23241,23258,23275,23291,23308,23325,23341,23358,23374,23392,23408,23425,23441,23458,23475,23492,23508,23525,23542,23558,23575,23591,23608,23625,23641,23658,23675,23691,23708,23725,23741,23758,23775,23791,23808,23825,23841,23858,23875,23891,23908,23925,23942,23958,23975,23992,24009,24025,24041,24058,24075,24091,24108,24125,24141,24158,24175,24191,24208,24225,24242,24258,24275,24291,24308,24325,24342,24358,24375,24391,24408,24425,24441,24458,24475,24491,24508,24525,24542,24558,24575,24591,24608,24625,24642,24658,24675,24691,24708,24725,24741,24758,24775,24792,24808,24825,24841,24858,24875,24891,24909,24925,24941,24958,24975,24992,25008,25025,25041,25058,25075,25092,25108,25125,25142,25158,25175,25192,25208,25225,25242,25258,25275,25292,25308,25325,25342,25358,25375,25392,25408,25425,25441,25458,25475,25492,25508,25525,25542,25558,25575,25591,25608,25625,25641,25658,25675,25692,25709,25725,25741,25758,25775,25792,25808,25825,25842,25859,25875,25891,25908,25925,25942,25959,25975,25992,26009,26025,26041,26058,26075,26092,26108,26125,26142,26158,26175,26192,26208,26225,26242,26258,26276,26292,26308,26325,26342,26358,26375,26392,26409,26425,26441,26458,26475,26492,26509,26525,26542,26558,26575,26591,26608,26625,26642,26658,26675,26692,26708,26725,26742,26758,26776,26792,26809,26825,26842,26859,26875,26892,26909,26925,26942,26958,26975,26992,27008,27025,27042,27059,27075,27092,27109,27125,27142,27159,27176,27192,27209,27225,27242,27259,27276,27293,27309,27325,27342,27359,27376,27392,27409,27426,27442,27459,27476,27493,27509,27526,27542,27558,27575,27592,27608,27625,27642,27659,27676,27692,27709,27726,27742,27759,27775,27792,27809,27826,27842,27859,27876,27893,27909,27925,27942,27959,27976,27992,28009,28026,28042,28059,28076,28092,28109,28125,28143,28159,28175,28192,28209,28225,28242,28259,28276,28292,28309,28326,28342,28359,28376,28392,28409,28425,28442,28458,28476,28492,28509,28526,28542,28558,28575,28592,28609,28625,28642,28659,28675,28692,28708,28726,28742,28759,28776,28793,28809,28826,28842,28858,28876,28892,28909,28926,28942,28959,28976,28992,29009,29026,29042,29059,29076,29092,29109,29126,29142,29159,29176,29192,29209,29225,29242,29259,29276,29292,29309,29326,29342,29358,29376,29393,29409,29425,29442,29459,29476,29493,29509,29526,29542,29559,29576,29592,29609,29625,29642,29659,29676,29692,29709,29726,29742,29759,29775,29793,29809,29826,29842,29859,29876,29892,29909,29926,29942,29959,29976,29992,30009,30025,30043,30059,30076,30092,30109,30126,30142,30159,30176,30192,30209,30226,30243,30259,30276,30292,30309,30326,30343,30359,30376,30392,30409,30426,30442,30459,30476,30493,30509,30526,30542,30559,30576,30592,30609,30627,30642,30659,30676,30692,30709,30726,30743,30759,30776,30792,30810,30826,30843,30859,30876,30892,30909,30926,30942,30959,30976,30992,31010,31026,31042,31059,31076,31092,31109,31126,31142,31159,31176,31192,31209,31226,31243,31259,31276,31292,31309,31326,31342,31359,31376,31392,31409,31426,31443,31459,31476,31492,31509,31526,31543,31559,31576,31592,31609,31626,31643,31659,31676,31692,31709,31726,31743,31759,31776,31792,31809,31826,31843,31859,31876,31893,31909,31925,31942,31959,31976,31992,32009,32026,32043,32059,32076,32092,32109,32126,32143,32159,32176,32192,32209,32226,32242,32259,32276,32292,32310,32326,32342,32359,32376,32392,32409,32426,32443,32459,32476,32492,32509,32526,32543,32559,32576,32592,32609,32626,32643,32659,32676,32693,32710,32726,32743,32759,32776,32792,32809,32826,32842,32859,32876,32893,32909,32926,32943,32959,32976,32993,33009,33026,33043,33059,33076,33093,33109,33126,33143,33159,33176,33192,33209,33226,33243,33259,33276,33292,33309,33326,33343,33359,33376,33393,33409,33426,33443,33459,33476,33493,33509,33526,33543,33559,33576,33592,33610,33626,33643,33659,33676,33692,33709,33726,33743,33759,33776,33792,33809,33826,33843,33859,33876,33893,33910,33926,33943,33959,33976,33992,34009,34026,34043,34059,34077,34093,34109,34126,34143,34159,34176,34193,34209,34226,34243,34259,34276,34293,34309,34326,34343,34359,34376,34393,34409,34426,34443,34459,34476,34493,34509,34526,34543,34559,34576,34593,34609,34626,34643,34659,34676,34693,34709,34726,34742,34759,34776,34793,34810,34827,34843,34859,34876,34893,34909,34926,34943,34959,34976,34993,35010,35026,35044,35059,35076,35093,35109,35126,35143,35159,35177,35193,35209,35227,35243,35259,35276,35293,35310,35327,35343,35359,35376,35393,35410,35427,35443,35459,35476,35493,35510,35527,35543,35559,35576,35593,35610,35626,35643,35659,35676,35693,35710,35726,35743,35759,35776,35793,35809,35827,35843,35859,35876,35893,35910,35927,35943,35960,35976,35993,36009,36026,36044,36060,36076,36093,36110,36127,36143,36159,36176,36193,36209,36226,36243,36259,36276,36293,36310,36327,36343,36359,36376,36393,36409,36426,36443,36460,36476,36493,36510,36527,36543,36560,36577,36593,36610,36627,36643,36660,36676,36693,36710,36726,36743,36759,36777,36793,36810,36826,36843,36860,36877,36893,36910,36927,36943,36959,36977,36993,37010,37026,37044,37060,37077,37093,37110,37127,37143,37160,37176,37193,37210,37226,37243,37260,37277,37294,37310,37327,37343,37360,37376,37393,37410,37427,37443,37460,37477,37493,37510,37527,37544,37560,37577,37593,37610,37627,37644,37660,37677,37693,37710,37727,37743,37760,37776,37793,37810,37827,37843,37860,37877,37893,37910,37927,37943,37959,37977,37994,38010,38027,38043,38060,38077,38093,38110,38127,38144,38160,38177,38193,38210,38226,38243,38260,38277,38293,38310,38327,38343,38360,38377,38393,38410,38427,38443,38460,38477,38494,38510,38526,38544,38560,38577,38593,38610,38627,38643,38660,38677,38694,38710,38727,38744,38760,38777,38793,38810,38827,38844,38860,38877,38893,38910,38927,38944,38960,38977,38993,39010,39027,39043,39061,39077,39093,39110,39127,39143,39160,39177,39194,39210,39227,39243,39260,39277,39294,39310,39327,39343,39360,39377,39394,39410,39427,39444,39460,39477,39494,39510,39527,39544,39560,39577,39593,39610,39627,39644,39660,39677,39694,39710,39727,39743,39760,39777,39793,39810,39827,39843,39860,39877,39894,39910,39927,39944,39960,39977,39994,40010,40027,40043,40060,40077,40094,40110,40127,40143,40160,40177,40194,40210,40227,40243,40260,40277,40294,40310,40327,40344,40360,40377,40394,40410,40427,40445,40460,40476,40494,40510,40527,40543,40560,40577,40593,40610,40627,40644,40660,40677,40694,40710,40727,40744,40760,40777,40794,40810,40827,40844,40860,40877,40894,40910,40927,40944,40960,40977,40993,41010,41027,41043,41060,41077,41094,41110,41127,41143,41160,41177,41194,41210,41227,41244,41260,41277,41294,41310,41327,41344,41360,41377,41394,41410,41427,41444,41460,41477,41494,41510,41527,41544,41560,41577,41594,41610,41627,41644,41660,41677,41694,41710,41727,41744,41760,41777,41794,41810,41827,41844,41860,41877,41894,41910,41927,41944,41960,41977,41994,42010,42027,42044,42060,42077,42094,42110,42127,42144,42160,42177,42194,42210,42227,42244,42260,42277,42294,42311,42327,42344,42360,42377,42394,42410,42427,42445,42460,42477,42494,42511,42527,42544,42560,42577,42594,42611,42627,42644,42661,42677,42694,42710,42727,42744,42760,42777,42794,42810,42827,42844,42860,42877,42894,42910,42927,42944,42961,42977,42994,43010,43027,43044,43061,43078,43094,43110,43127,43143,43160,43177,43194,43210,43227,43244,43260,43277,43294,43311,43327,43344,43360,43377,43394,43411,43428,43444,43460,43477,43494,43510,43527,43544,43561,43577,43594,43611,43627,43644,43660,43678,43694,43711,43727,43744,43760,43777,43794,43810,43827,43844,43861,43878,43894,43910,43928,43944,43960,43977,43994,44010,44027,44044,44060,44077,44094,44111,44128,44144,44160,44177,44194,44211,44227,44244,44260,44277,44294,44311,44327,44344,44360,44377,44394,44410,44427,44444,44460,44477,44494,44511,44527,44544,44561,44577,44594,44611,44628,44645,44660,44677,44694,44711,44727,44744,44760,44777,44794,44811,44828,44844,44861,44878,44894,44910,44927,44944,44961,44977,44994,45011,45027,45044,45061,45077,45094,45111,45128,45144,45161,45178,45194,45211,45227,45244,45261,45277,45294,45311,45328,45344,45361,45378,45394,45411,45428,45444,45461,45478,45495,45511,45527,45544,45561,45578,45594,45611,45628,45644,45661,45678,45694,45711,45727,45744,45761,45778,45794,45811,45828,45844,45861,45878,45895,45911,45928,45944,45960,45977,45994,46011,46027,46044,46061,46078,46094,46111,46128,46144,46160,46178,46194,46211,46228,46244,46261,46278,46294,46312,46328,46344,46361,46378,46395,46411,46428,46444,46461,46478,46494,46511,46528,46544,46561,46578,46595,46611,46628,46645,46661,46677,46694,46711,46728,46744,46761,46778,46795,46811,46828,46845,46861,46878,46894,46911,46928,46944,46961,46978,46994,47011,47028,47045,47061,47078,47094,47111,47128,47144,47161,47178,47195,47211,47228,47244,47261,47278,47294,47311,47328,47345,47361,47378,47396,47411,47427,47444,47461,47478,47495,47511,47528,47544,47561,47578,47595,47611,47628,47645,47661,47678,47695,47711,47728,47744,47761,47778,47794,47811,47828,47845,47861,47878,47895,47911,47928,47945,47961,47978,47995,48011,48028,48045,48061,48078,48095,48111,48128,48145,48161,48178,48195,48211,48228,48244,48261,48278,48294,48311,48328,48345,48361,48378,48395,48411,48428,48445,48461,48478,48494,48511,48528,48545,48561,48578,48594,48612,48628,48644,48661,48678,48695,48711,48728,48745,48761,48778,48796,48811,48828,48845,48861,48878,48895,48911,48928,48945,48962,48978,48995,49011,49028,49045,49062,49078,49095,49111,49128,49145,49161,49178,49195,49211,49228,49245,49261,49278,49295,49312,49328,49345,49361,49378,49395,49411,49429,49445,49462,49478,49495,49512,49528,49545,49562,49578,49595,49611,49628,49645,49661,49678,49695,49712,49728,49745,49761,49779,49795,49811,49828,49845,49862,49878,49895,49911,49928,49944,49961,49978,49995,50011,50028,50045,50062,50078,50095,50112,50128,50145,50162,50178,50195,50211,50228,50245,50261,50278,50295,50311,50328,50345,50362,50378,50394,50411,50428,50445,50461,50478,50495,50511,50528,50545,50562,50578,50595,50612,50628,50645,50661,50678,50695,50712,50729,50745,50761,50778,50795,50811,50829,50845,50861,50878,50895,50911,50928,50945,50961,50978,50995,51012,51028,51044,51061,51078,51095,51112,51128,51145,51161,51178,51195,51212,51228,51245,51262,51278,51295,51311,51328,51345,51361,51378,51395,51412,51428,51445,51461,51478,51495,51512,51528,51545,51562,51578,51595,51612,51628,51645,51662,51678,51695,51711,51728,51745,51762,51778,51795,51811,51828,51845,51861,51878,51895,51911,51929,51945,51961,51978,51995,52012,52028,52045,52061,52078,52095,52112,52128,52145,52162,52178,52195,52212,52229,52245,52262,52278,52295,52311,52328,52345,52361,52378,52396,52412,52429,52445,52462,52479,52496,52511,52528,52545,52562,52578,52595,52612,52629,52645,52662,52679,52695,52712,52728,52745,52762,52779,52795,52811,52828,52845,52862,52878,52895,52912,52928,52945,52961,52978,52995,53012,53029,53046,53062,53079,53095,53112,53128,53145,53162,53178,53195,53212,53228,53245,53262,53278,53296,53312,53329,53345,53363,53379,53395,53412,53429,53446,53462,53478,53495,53512,53528,53545,53562,53579,53595,53611,53629,53645,53662,53679,53695,53712,53729,53745,53762,53779,53796,53812,53829,53845,53862,53879,53896,53912,53929,53945,53962,53979,53996,54012,54028,54045,54062,54078,54095,54112,54128,54146,54162,54179,54195,54212,54228,54246,54262,54278,54295,54312,54328,54345,54362,54379,54395,54412,54428,54445,54462,54478,54496,54512,54528,54546,54562,54579,54595,54612,54629,54646,54662,54679,54695,54712,54729,54745,54763,54779,54796,54812,54829,54846,54863,54879,54895,54912,54929,54946,54962,54979,54996,55012,55029,55046,55062,55080,55095,55112,55129,55146,55162,55179,55196,55212,55229,55246,55262,55279,55296,55313,55329,55346,55362,55379,55396,55412,55429,55446,55462,55479,55496,55512,55529,55546,55562,55579,55596,55612,55629,55646,55662,55679,55695,55713,55729,55745,55762,55779,55796,55812,55829,55846,55862,55878,55896,55912,55929,55946,55962,55979,55996,56012,56029,56046,56062,56079,56096,56113,56129,56146,56162,56179,56196,56212,56229,56246,56262,56279,56296,56312,56329,56346,56363,56379,56396,56412,56428,56446,56462,56479,56496,56512,56529,56546,56562,56579,56595,56612,56629,56646,56662,56679,56696,56712,56729,56746,56762,56779,56796,56812,56829,56846,56862,56879,56896,56913,56929,56946,56962,56979,56996,57012,57029,57045,57062,57079,57096,57112,57129,57146,57163,57179,57196,57212,57229,57246,57262,57279,57296,57312,57329,57346,57363,57379,57396,57412,57429,57446,57463,57479,57496,57512,57529,57546,57563,57579,57596,57612,57629,57646,57663,57679,57695,57712,57729,57746,57763,57779,57796,57813,57829,57846,57863,57879,57896,57913,57929,57946,57962,57979,57996,58012,58029,58046,58062,58079,58096,58112,58129,58146,58162,58179,58196,58212,58229,58246,58262,58279,58296,58313,58329,58346,58363,58379,58395,58412,58429,58446,58462,58479,58496,58513,58529,58546,58563,58579,58597,58612,58629,58646,58662,58679,58696,58713,58729,58746,58763,58779,58796,58812,58829,58846,58862,58879,58896,58913,58930,58946,58963,58980,58996,59012,59029,59046,59062,59079,59096,59112,59129,59146,59163,59179,59196,59213,59229,59246,59263,59279,59296,59313,59329,59346,59363,59379,59396,59413,59429,59446,59463,59480,59496,59512,59529,59546,59563,59579,59596,59613,59629,59646,59663,59679,59697,59713,59730,59746,59763,59779,59796,59812,59829,59846,59862,59879,59896,59913,59929,59946,59963,59979,59996,60012,60029,60046,60063,60079,60096,60113,60130,60146,60163,60179,60197,60213,60229,60246,60263,60279,60296,60313,60329,60346,60362,60380,60396,60413,60429,60447,60463,60479,60496,60513,60529,60546,60563,60579,60596,60612,60629,60646,60663,60679,60696,60713,60729,60746,60763,60780,60796,60813,60830,60846,60863,60879,60896,60913,60929,60946,60963,60979,60996,61013,61029,61046,61063,61080,61096,61113,61129,61146,61162,61179,61196,61213,61229,61246,61263,61280,61296,61313,61330,61346,61362,61379,61396,61413,61429,61447,61463,61480,61497,61513,61529,61546,61563,61580,61597,61613,61630,61646,61663,61679,61696,61713,61730,61746,61763,61779,61796,61813,61830,61847,61863,61879,61897,61913,61929,61946,61964,61980,61996,62013,62030,62046,62063,62079,62096,62113,62129,62147,62163,62180,62196,62213,62229,62246,62263,62279,62296,62314,62329,62347,62363,62380,62396,62413,62429,62447,62463,62479,62496,62513,62530,62546,62563,62580,62596,62613,62629,62647,62663,62679,62696,62713,62729,62747,62763,62780,62796,62813,62830,62847,62863,62879,62896,62913,62930,62947,62964,62980,62997,63013,63029,63047,63063,63079,63096,63113,63130,63146,63163,63180,63196,63214,63229,63247,63263,63280,63296,63313,63330,63347,63364,63380,63397,63413,63430,63447,63463,63480,63496,63513,63530,63546,63563,63580,63597,63613,63630,63647,63664,63680,63697,63713,63730,63747,63763,63780,63796,63813,63830,63847,63863,63880,63897,63913,63930,63947,63963,63980,63997,64013,64030,64047,64064,64080,64097,64113,64130,64147,64163,64180,64197,64213,64230,64247,64263,64281,64297,64314,64330,64347,64364,64380,64397,64413,64430,64447,64463,64480,64497,64513,64530,64547,64563,64581,64597,64613,64630,64647,64664,64680,64697,64714,64730,64747,64764,64780,64797,64814,64830,64847,64863,64880,64897,64914,64930,64947,64963,64980,64997,65013,65030,65047,65063,65080,65097,65114,65130,65147,65163,65180,65197,65213,65230,65247,65263,65280,65297,65313,65330,65347,65364,65380,65397,65414,65430,65447,65463,65480,65497,65513,65530,65547,65564,65580,65597,65613,65630,65647,65664,65680,65697,65713,65730,65747,65763,65780,65797,65814,65830,65847,65863,65880,65897,65914,65930,65947,65964,65980,65997,66014,66030,66047,66064,66080,66097,66114,66130,66147,66163,66180,66197,66214,66230,66247,66264,66280,66297,66314,66330,66348,66364,66380,66397,66413,66430,66447,66464,66480,66497,66513,66530,66547,66564,66580,66597,66614,66630,66647,66663,66680,66697,66713,66730,66747,66765,66780,66797,66814,66830,66847,66864,66880,66897,66914,66930,66947,66964,66980,66997,67014,67030,67047,67063,67080,67097,67114,67130,67147,67164,67180,67197,67214,67230,67247,67264,67280,67297,67314,67330,67347,67364,67380,67397,67414,67430,67447,67464,67480,67497,67514,67530,67547,67564,67580,67597,67614,67630,67647,67664,67680,67697,67714,67730,67747,67764,67781,67797,67814,67830,67847,67864,67880,67897,67914,67930,67947,67964,67980,67997,68014,68030,68047,68064,68080,68097,68114,68130,68147,68164,68180,68197,68214,68230,68247,68264,68280,68297,68314,68330,68347,68363,68380,68397,68413,68430,68447,68464,68480,68497,68514,68530,68547,68563,68580,68597,68614,68630,68647,68664,68680,68697,68714,68731,68747,68763,68780,68797,68813,68830,68847,68864,68880,68897,68914,68930,68947,68964,68980,68997,69014,69031,69047,69064,69080,69097,69114,69130,69147,69164,69180,69197,69214,69231,69247,69264,69280,69298,69314,69330,69348,69364,69380,69397,69414,69431,69447,69464,69480,69497,69514,69530,69547,69564,69581,69597,69614,69631,69647,69664,69681,69697,69714,69730,69747,69764,69780,69797,69814,69831,69847,69864,69880,69897,69915,69930,69947,69964,69981,69997,70014,70030,70048,70064,70081,70097,70114,70131,70147,70164,70180,70197,70214,70231,70247,70264,70281,70297,70314,70330,70347,70364,70381,70398,70414,70430,70448,70464,70481,70498,70514,70531,70547,70564,70581,70597,70614,70630,70647,70664,70680,70698,70714,70730,70747,70764,70780,70797,70814,70831,70848,70865,70881,70897,70914,70930,70947,70964,70981,70997,71014,71031,71047,71065,71081,71097,71114,71131,71147,71164,71181,71198,71214,71231,71247,71264,71282,71298,71314,71331,71348,71364,71381,71397,71414,71431,71448,71464,71481,71498,71514,71531,71548,71564,71580,71598,71614,71631,71648,71665,71681,71698,71714,71731,71748,71765,71781,71798,71814,71831,71847,71865,71881,71897,71915,71931,71948,71965,71981,71999,72014,72031,72048,72064,72081,72098,72114,72131,72148,72164,72181,72198,72215,72231,72248,72265,72281,72298,72314,72331,72348,72365,72381,72398,72415,72431,72448,72464,72481,72498,72515,72531,72548,72565,72581,72598,72615,72631,72647,72664,72681,72698,72714,72731,72749,72764,72781,72798,72815,72831,72848,72864,72881,72898,72914,72931,72948,72965,72981,72998,73015,73031,73048,73065,73081,73097,73114,73131,73148,73164,73181,73198,73214,73231,73248,73264,73281,73297,73315,73331,73348,73364,73381,73398,73415,73431,73448,73465,73481,73498,73514,73531,73548,73565,73581,73598,73615,73632,73648,73664,73681,73698,73714,73731,73748,73765,73781,73799,73815,73831,73848,73865,73881,73898,73915,73931,73948,73965,73981,73998,74015,74032,74048,74065,74082,74098,74115,74131,74148,74165,74181,74198,74215,74232,74248,74265,74281,74298,74315,74331,74348,74365,74381,74398,74415,74432,74448,74465,74481,74498,74515,74531,74548,74565,74581,74598,74615,74632,74648,74665,74682,74698,74715,74731,74748,74765,74782,74798,74815,74831,74848,74865,74882,74898,74915,74931,74948,74965,74981,74998,75014,75032,75048,75065,75081,75098,75115,75131,75149,75165,75182,75198,75214,75231,75248,75265,75281,75298,75315,75331,75349,75365,75383],"hit":[null],"x":[-2.0408163265306123,-2.0408163265306123,-2.0408163265306123,-2.0408163265306123,-2.0408163265306123,-2.0408163265306123,-2.0408163265306123,-2.0408163265306123,-2.0408163265306123,-2.0408163265306123,-2.0408163265306123,-2.0408163265306123,-2.0408163265306123,-2.0408163265306123,-2.0408163265306123,-2.0408163265306123,-2.0408163265306123,-2.0408163265306123,-2.0408163265306123,-2.0408163265306123,-2.0408163265306123,-2.0408163265306123,-2.0408163265306123,-2.0408163265306123,-2.0408163265306123,-2.0408163265306123,-2.0408163265306123,-2.0408163265306123,-2.0408163265306123,-2.0408163265306123,-2.0408163265306123,-2.0408163265306123,-2.0408163265306123,-2.0408163265306123,-2.0408163265306123,-2.0408163265306123,-2.0408163265306123,-2.0408163265306123,-2.0408163265306123,-2.0408163265306123,-2.0408163265306123,-2.0408163265306123,-2.0408163265306123,-2.0408163265306123,-2.0408163265306123,-2.0408163265306123,-2.0408163265306123,-2.0408163265306123,-2.0408163265306123,-2.0408163265306123,-2.0408163265306123,-2.0408163265306123,-2.0408163265306123,-2.0408163265306123,-2.0408163265306123,-2.0408163265306123,-2.0408163265306123,-2.0408163265306123,-2.0408163265306123,-2.0408163265306123,-2.0408163265306123,-2.0408163265306123,-2.0408163265306123,-2.0408163265306123,-2.0408163265306123,-2.0408163265306123,-2.0408163265306123,-2.0408163265306123,-2.0408163265306123,-2.0408163265306123,-2.0408163265306123,-2.0408163265306123,-2.0408163265306123,-2.0408163265306123,-2.0408163265306123,-2.0408163265306123,-2.0408163265306123,-2.0408163265306123,-2.0408163265306123,-2.0408163265306123,-2.0408163265306123,-2.0408163265306123,-2.0408163265306123,-2.0408163265306123,-2.0408163265306123,-2.0408163265306123,-2.0408163265306123,-2.0408163265306123,-2.0408163265306123,-2.0408163265306123,-2.0408163265306123,-2.0408163265306123,-2.0408163265306123,-2.0408163265306123,-2.0408163265306123,-2.0408163265306123,-2.0408163265306123,-2.0408163265306123,-2.0408163265306123,-2.0408163265306123,-2.0408163265306123,-2.0408163265306123,-2.0408163265306123,-0.04081632653061224,-0.023809523809523808,0,0.030612244897959183,0.07482993197278912,0.1360544217687075,0.17346938775510204,0.1870748299319728,0.19047619047619047,0.19047619047619047,0.19047619047619047,0.19047619047619047,0.19387755102040816,0.19727891156462585,0.19727891156462585,0.20408163265306123,0.20408163265306123,0.2108843537414966,0.2108843537414966,0.2108843537414966,0.2108843537414966,0.21428571428571427,0.21768707482993196,0.21768707482993196,0.21768707482993196,0.21768707482993196,0.22108843537414966,0.22108843537414966,0.23809523809523808,0.25510204081632654,0.2755102040816326,0.29931972789115646,0.3129251700680272,0.3231292517006803,0.32653061224489793,0.32653061224489793,0.32653061224489793,0.3299319727891156,0.3299319727891156,0.3333333333333333,0.3333333333333333,0.3401360544217687,0.3401360544217687,0.3435374149659864,0.35374149659863946,0.35374149659863946,0.38095238095238093,0.3979591836734694,0.4013605442176871,0.40476190476190477,0.40816326530612246,0.40816326530612246,0.40816326530612246,0.40816326530612246,0.41156462585034015,0.41156462585034015,0.41156462585034015,0.41156462585034015,0.41156462585034015,0.41156462585034015,0.41156462585034015,0.41156462585034015,0.41156462585034015,0.41156462585034015,0.41156462585034015,0.42517006802721086,0.445578231292517,0.46258503401360546,0.4897959183673469,0.5204081632653061,0.54421768707483,0.5578231292517006,0.564625850340136,0.5680272108843537,0.5714285714285714,0.5748299319727891,0.5816326530612245,0.5884353741496599,0.5884353741496599,0.5918367346938775,0.5918367346938775,0.5918367346938775,0.5952380952380952,0.5952380952380952,0.5986394557823129,0.5986394557823129,0.5986394557823129,0.6020408163265306,0.6122448979591837,0.6394557823129252,0.6598639455782312,0.6836734693877551,0.7074829931972789,0.7210884353741497,0.7312925170068028,0.7482993197278912,0.7619047619047619,0.7755102040816326,0.782312925170068,0.7993197278911565,0.8027210884353742,0.8163265306122449,0.8197278911564626,0.8231292517006803,0.8231292517006803,0.8197278911564626,0.8163265306122449,0.8061224489795918,0.7993197278911565,0.7925170068027211,0.7857142857142857,0.782312925170068,0.7789115646258503,0.7755102040816326,0.7721088435374149,0.7619047619047619,0.7551020408163265,0.7517006802721088,0.7482993197278912,0.7482993197278912,0.7482993197278912,0.7448979591836735,0.7380952380952381,0.7346938775510204,0.7312925170068028,0.7278911564625851,0.7210884353741497,0.717687074829932,0.717687074829932,0.717687074829932,0.717687074829932,0.717687074829932,0.717687074829932,0.717687074829932,0.717687074829932,0.717687074829932,0.7210884353741497,0.7278911564625851,0.7312925170068028,0.7414965986394558,0.7482993197278912,0.7551020408163265,0.7619047619047619,0.7755102040816326,0.7925170068027211,0.8435374149659864,0.8707482993197279,0.8979591836734694,0.9387755102040817,0.9489795918367347,0.95578231292517,0.9625850340136054,0.9659863945578231,0.9659863945578231,0.9659863945578231,0.9659863945578231,0.9659863945578231,0.9659863945578231,0.9693877551020408,0.9693877551020408,0.9693877551020408,0.9693877551020408,0.9693877551020408,0.9693877551020408,0.9693877551020408,0.9693877551020408,0.9693877551020408,0.9693877551020408,0.9727891156462585,0.9795918367346939,0.9863945578231292,0.9897959183673469,0.9931972789115646,0.9931972789115646,0.9931972789115646,0.9931972789115646,0.9931972789115646,0.9931972789115646,0.9931972789115646,0.9931972789115646,0.9931972789115646,0.9931972789115646,0.9931972789115646,0.9931972789115646,0.9931972789115646,0.9931972789115646,0.9931972789115646,0.9931972789115646,0.9931972789115646,0.9931972789115646,0.9931972789115646,0.9931972789115646,0.9931972789115646,0.9931972789115646,0.9931972789115646,0.9931972789115646,0.9931972789115646,0.9931972789115646,0.9931972789115646,0.9931972789115646,0.9931972789115646,0.9931972789115646,0.9931972789115646,0.9931972789115646,0.9931972789115646,0.9931972789115646,0.9931972789115646,0.9931972789115646,0.9931972789115646,0.9931972789115646,0.9931972789115646,0.9931972789115646,0.9931972789115646,0.9931972789115646,0.9931972789115646,0.9931972789115646,0.9931972789115646,0.9931972789115646,0.9931972789115646,0.9931972789115646,0.9931972789115646,0.9931972789115646,0.9931972789115646,0.9931972789115646,0.9931972789115646,0.9931972789115646,0.9931972789115646,0.9931972789115646,0.9931972789115646,0.9931972789115646,0.9931972789115646,0.9931972789115646,0.9931972789115646,0.9931972789115646,0.9931972789115646,0.9931972789115646,0.9931972789115646,0.9931972789115646,0.9931972789115646,0.9931972789115646,0.9931972789115646,0.9931972789115646,0.9931972789115646,0.9931972789115646,0.9931972789115646,0.9931972789115646,0.9931972789115646,0.9931972789115646,0.9931972789115646,0.9931972789115646,0.9931972789115646,0.9931972789115646,0.9931972789115646,0.9931972789115646,0.9931972789115646,0.9931972789115646,0.9931972789115646,0.9931972789115646,0.9931972789115646,0.9931972789115646,0.9931972789115646,0.9931972789115646,0.9931972789115646,0.9931972789115646,0.9931972789115646,0.9931972789115646,0.9931972789115646,0.9931972789115646,0.9931972789115646,0.9931972789115646,0.9931972789115646,0.9931972789115646,0.9931972789115646,0.9931972789115646,0.9931972789115646,0.9931972789115646,0.9931972789115646,0.9931972789115646,0.9931972789115646,0.9931972789115646,0.9931972789115646,0.9931972789115646,0.9931972789115646,0.9931972789115646,0.9931972789115646,0.9931972789115646,0.9931972789115646,0.9931972789115646,0.9931972789115646,0.9931972789115646,0.9931972789115646,0.9931972789115646,0.9931972789115646,0.9931972789115646,0.9931972789115646,0.9931972789115646,0.9931972789115646,0.9931972789115646,0.9931972789115646,0.9931972789115646,0.9931972789115646,0.9931972789115646,0.9931972789115646,0.9931972789115646,0.9931972789115646,0.9931972789115646,0.9931972789115646,0.9931972789115646,0.9931972789115646,0.9931972789115646,0.9931972789115646,0.9931972789115646,0.9931972789115646,0.9931972789115646,0.9931972789115646,0.9931972789115646,0.9931972789115646,0.9931972789115646,0.9931972789115646,0.9931972789115646,0.9931972789115646,0.9931972789115646,0.9931972789115646,0.9931972789115646,0.9931972789115646,0.9931972789115646,0.9931972789115646,0.9931972789115646,0.9931972789115646,0.9931972789115646,0.9931972789115646,0.9931972789115646,0.9931972789115646,0.9931972789115646,0.9931972789115646,0.9931972789115646,0.9931972789115646,0.9931972789115646,0.9897959183673469,0.9693877551020408,0.9523809523809523,0.9217687074829932,0.9047619047619048,0.8945578231292517,0.8809523809523809,0.8605442176870748,0.8503401360544217,0.8435374149659864,0.8367346938775511,0.826530612244898,0.8197278911564626,0.8061224489795918,0.7925170068027211,0.7789115646258503,0.7687074829931972,0.7585034013605442,0.7482993197278912,0.7346938775510204,0.7278911564625851,0.7278911564625851,0.7244897959183674,0.7244897959183674,0.7244897959183674,0.717687074829932,0.7142857142857143,0.7074829931972789,0.6938775510204082,0.6768707482993197,0.6496598639455783,0.6258503401360545,0.6054421768707483,0.5918367346938775,0.5748299319727891,0.5748299319727891,0.5748299319727891,0.5714285714285714,0.5612244897959183,0.5510204081632653,0.54421768707483,0.5170068027210885,0.48299319727891155,0.4523809523809524,0.4217687074829932,0.3673469387755102,0.336734693877551,0.30952380952380953,0.29591836734693877,0.2755102040816326,0.2755102040816326,0.272108843537415,0.2687074829931973,0.2653061224489796,0.25510204081632654,0.24829931972789115,0.23469387755102042,0.23129251700680273,0.21768707482993196,0.20408163265306123,0.20068027210884354,0.1836734693877551,0.17687074829931973,0.17006802721088435,0.1598639455782313,0.15306122448979592,0.15306122448979592,0.15306122448979592,0.14965986394557823,0.14965986394557823,0.14965986394557823,0.14965986394557823,0.14965986394557823,0.14965986394557823,0.14965986394557823,0.14965986394557823,0.15306122448979592,0.17687074829931973,0.20748299319727892,0.24149659863945577,0.2687074829931973,0.29931972789115646,0.3401360544217687,0.4013605442176871,0.4557823129251701,0.5204081632653061,0.5816326530612245,0.6292517006802721,0.6530612244897959,0.6802721088435374,0.7074829931972789,0.7482993197278912,0.7721088435374149,0.7959183673469388,0.8367346938775511,0.8605442176870748,0.8843537414965986,0.8979591836734694,0.9285714285714286,0.9489795918367347,0.9693877551020408,0.9863945578231292,1.010204081632653,1.0272108843537415,1.0374149659863945,1.0476190476190477,1.0612244897959184,1.0748299319727892,1.08843537414966,1.1122448979591837,1.1258503401360545,1.129251700680272,1.1326530612244898,1.1394557823129252,1.1394557823129252,1.1428571428571428,1.153061224489796,1.1564625850340136,1.1666666666666667,1.1666666666666667,1.1666666666666667,1.1700680272108843,1.1700680272108843,1.1700680272108843,1.1700680272108843,1.1700680272108843,1.1564625850340136,1.1326530612244898,1.1156462585034013,1.1020408163265305,1.0952380952380953,1.0850340136054422,1.0816326530612246,1.064625850340136,1.0578231292517006,1.0476190476190477,1.034013605442177,1.034013605442177,1.034013605442177,1.034013605442177,1.034013605442177,1.034013605442177,1.034013605442177,1.034013605442177,1.034013605442177,1.034013605442177,1.034013605442177,1.034013605442177,1.034013605442177,1.034013605442177,1.034013605442177,1.034013605442177,1.034013605442177,1.034013605442177,1.0374149659863945,1.0476190476190477,1.0510204081632653,1.0612244897959184,1.0714285714285714,1.0850340136054422,1.0952380952380953,1.098639455782313,1.1020408163265305,1.1020408163265305,1.1020408163265305,1.1156462585034013,1.1224489795918366,1.1224489795918366,1.1258503401360545,1.1258503401360545,1.1258503401360545,1.1258503401360545,1.1258503401360545,1.1258503401360545,1.1258503401360545,1.1258503401360545,1.1258503401360545,1.1258503401360545,1.1258503401360545,1.1258503401360545,1.1258503401360545,1.1258503401360545,1.1258503401360545,1.1258503401360545,1.1258503401360545,1.1258503401360545,1.1258503401360545,1.1258503401360545,1.1258503401360545,1.1258503401360545,1.1258503401360545,1.1258503401360545,1.1258503401360545,1.1258503401360545,1.1258503401360545,1.1258503401360545,1.1258503401360545,1.1258503401360545,1.1258503401360545,1.1258503401360545,1.1258503401360545,1.1258503401360545,1.1258503401360545,1.1258503401360545,1.1258503401360545,1.1258503401360545,1.1258503401360545,1.1258503401360545,1.1258503401360545,1.1258503401360545,1.1258503401360545,1.1258503401360545,1.1258503401360545,1.1258503401360545,1.1258503401360545,1.1258503401360545,1.1258503401360545,1.1258503401360545,1.1258503401360545,1.1258503401360545,1.1258503401360545,1.1258503401360545,1.1258503401360545,1.1258503401360545,1.1258503401360545,1.1258503401360545,1.1258503401360545,1.1258503401360545,1.1258503401360545,1.0918367346938775,1.0578231292517006,1.0170068027210883,0.9931972789115646,0.9795918367346939,0.9523809523809523,0.9387755102040817,0.9251700680272109,0.9115646258503401,0.8979591836734694,0.8877551020408163,0.8843537414965986,0.8775510204081632,0.8673469387755102,0.8571428571428571,0.8367346938775511,0.8129251700680272,0.7891156462585034,0.782312925170068,0.7789115646258503,0.7789115646258503,0.7755102040816326,0.7755102040816326,0.7755102040816326,0.7619047619047619,0.7551020408163265,0.7448979591836735,0.7312925170068028,0.7108843537414966,0.7074829931972789,0.6972789115646258,0.6938775510204082,0.673469387755102,0.6564625850340136,0.6394557823129252,0.6258503401360545,0.6054421768707483,0.5986394557823129,0.5986394557823129,0.5986394557823129,0.5986394557823129,0.5986394557823129,0.5986394557823129,0.5986394557823129,0.5986394557823129,0.5986394557823129,0.5986394557823129,0.5986394557823129,0.5986394557823129,0.5986394557823129,0.5986394557823129,0.5986394557823129,0.5986394557823129,0.5986394557823129,0.5986394557823129,0.5986394557823129,0.5986394557823129,0.5986394557823129,0.5986394557823129,0.5986394557823129,0.5986394557823129,0.5986394557823129,0.5986394557823129,0.5850340136054422,0.5476190476190477,0.5068027210884354,0.45918367346938777,0.42857142857142855,0.40816326530612246,0.38095238095238093,0.35714285714285715,0.3469387755102041,0.3299319727891156,0.3163265306122449,0.30612244897959184,0.2925170068027211,0.272108843537415,0.25170068027210885,0.24149659863945577,0.23129251700680273,0.22448979591836735,0.22108843537414966,0.21768707482993196,0.21768707482993196,0.21768707482993196,0.21768707482993196,0.21768707482993196,0.21768707482993196,0.21768707482993196,0.21768707482993196,0.21768707482993196,0.21768707482993196,0.23469387755102042,0.24829931972789115,0.272108843537415,0.2857142857142857,0.29591836734693877,0.29931972789115646,0.29931972789115646,0.29931972789115646,0.30952380952380953,0.3231292517006803,0.336734693877551,0.3469387755102041,0.3673469387755102,0.3707482993197279,0.3741496598639456,0.37755102040816324,0.38095238095238093,0.391156462585034,0.4013605442176871,0.42857142857142855,0.43537414965986393,0.445578231292517,0.4489795918367347,0.4489795918367347,0.46258503401360546,0.47619047619047616,0.4931972789115646,0.5170068027210885,0.5204081632653061,0.5238095238095238,0.5306122448979592,0.5306122448979592,0.5306122448979592,0.5306122448979592,0.5306122448979592,0.5306122448979592,0.5340136054421769,0.5340136054421769,0.54421768707483,0.5578231292517006,0.5714285714285714,0.5884353741496599,0.5986394557823129,0.6054421768707483,0.6054421768707483,0.6054421768707483,0.6054421768707483,0.608843537414966,0.608843537414966,0.608843537414966,0.6122448979591837,0.6122448979591837,0.6122448979591837,0.6122448979591837,0.6190476190476191,0.6292517006802721,0.6394557823129252,0.6530612244897959,0.6564625850340136,0.6632653061224489,0.6700680272108843,0.6870748299319728,0.6938775510204082,0.7074829931972789,0.7142857142857143,0.7210884353741497,0.7312925170068028,0.7346938775510204,0.7482993197278912,0.7619047619047619,0.7755102040816326,0.7789115646258503,0.7789115646258503,0.782312925170068,0.782312925170068,0.7857142857142857,0.7857142857142857,0.7857142857142857,0.7857142857142857,0.7857142857142857,0.7857142857142857,0.7857142857142857,0.7857142857142857,0.7857142857142857,0.7857142857142857,0.7857142857142857,0.7857142857142857,0.7857142857142857,0.7857142857142857,0.7857142857142857,0.7857142857142857,0.7857142857142857,0.7857142857142857,0.7857142857142857,0.7857142857142857,0.7857142857142857,0.7857142857142857,0.7857142857142857,0.7857142857142857,0.7857142857142857,0.7857142857142857,0.7857142857142857,0.7857142857142857,0.7857142857142857,0.7857142857142857,0.7857142857142857,0.7857142857142857,0.7857142857142857,0.7857142857142857,0.7857142857142857,0.7857142857142857,0.7857142857142857,0.7857142857142857,0.7857142857142857,0.7857142857142857,0.7857142857142857,0.7857142857142857,0.7857142857142857,0.7857142857142857,0.7857142857142857,0.7857142857142857,0.7857142857142857,0.7857142857142857,0.7857142857142857,0.7857142857142857,0.7857142857142857,0.7857142857142857,0.7857142857142857,0.7857142857142857,0.7857142857142857,0.7857142857142857,0.7857142857142857,0.7857142857142857,0.7857142857142857,0.7857142857142857,0.7857142857142857,0.7857142857142857,0.7857142857142857,0.7857142857142857,0.7857142857142857,0.7857142857142857,0.7857142857142857,0.7857142857142857,0.7857142857142857,0.7857142857142857,0.7857142857142857,0.7857142857142857,0.7857142857142857,0.7857142857142857,0.7857142857142857,0.7857142857142857,0.7857142857142857,0.7857142857142857,0.7857142857142857,0.7857142857142857,0.7857142857142857,0.7857142857142857,0.7857142857142857,0.7857142857142857,0.7857142857142857,0.7857142857142857,0.7857142857142857,0.7857142857142857,0.7857142857142857,0.7857142857142857,0.7857142857142857,0.7857142857142857,0.7857142857142857,0.7857142857142857,0.7857142857142857,0.7857142857142857,0.7857142857142857,0.7857142857142857,0.7857142857142857,0.7857142857142857,0.7857142857142857,0.7857142857142857,0.7857142857142857,0.7857142857142857,0.7857142857142857,0.7857142857142857,0.7857142857142857,0.7857142857142857,0.7857142857142857,0.7857142857142857,0.7857142857142857,0.7857142857142857,0.7857142857142857,0.7857142857142857,0.7857142857142857,0.7857142857142857,0.7857142857142857,0.7857142857142857,0.7857142857142857,0.7857142857142857,0.7857142857142857,0.7857142857142857,0.7857142857142857,0.7857142857142857,0.7857142857142857,0.7857142857142857,0.7857142857142857,0.7857142857142857,0.7857142857142857,0.7857142857142857,0.7857142857142857,0.7857142857142857,0.7857142857142857,0.7857142857142857,0.7857142857142857,0.7857142857142857,0.7857142857142857,0.7857142857142857,0.7857142857142857,0.7857142857142857,0.7857142857142857,0.7857142857142857,0.7857142857142857,0.7857142857142857,0.7857142857142857,0.7857142857142857,0.7857142857142857,0.7857142857142857,0.7857142857142857,0.7857142857142857,0.7857142857142857,0.7857142857142857,0.7857142857142857,0.7857142857142857,0.7857142857142857,0.7857142857142857,0.7857142857142857,0.7857142857142857,0.7857142857142857,0.7857142857142857,0.7857142857142857,0.7857142857142857,0.7857142857142857,0.7857142857142857,0.7857142857142857,0.7857142857142857,0.7857142857142857,0.7857142857142857,0.7857142857142857,0.7857142857142857,0.7857142857142857,0.7857142857142857,0.7857142857142857,0.7857142857142857,0.7857142857142857,0.7857142857142857,0.7857142857142857,0.7857142857142857,0.7857142857142857,0.7857142857142857,0.7857142857142857,0.7857142857142857,0.7857142857142857,0.7857142857142857,0.7857142857142857,0.7857142857142857,0.7857142857142857,0.7857142857142857,0.7857142857142857,0.7857142857142857,0.7857142857142857,0.7857142857142857,0.7857142857142857,0.7857142857142857,0.7857142857142857,0.7857142857142857,0.7857142857142857,0.7857142857142857,0.7857142857142857,0.7857142857142857,0.7857142857142857,0.7857142857142857,0.7857142857142857,0.7857142857142857,0.7857142857142857,0.7857142857142857,0.7857142857142857,0.7857142857142857,0.7857142857142857,0.7857142857142857,0.7857142857142857,0.7857142857142857,0.7857142857142857,0.7857142857142857,0.7857142857142857,0.7857142857142857,0.7857142857142857,0.7857142857142857,0.7857142857142857,0.7857142857142857,0.7857142857142857,0.7857142857142857,0.7857142857142857,0.7857142857142857,0.7857142857142857,0.7857142857142857,0.7857142857142857,0.7857142857142857,0.7857142857142857,0.7857142857142857,0.7857142857142857,0.7857142857142857,0.7857142857142857,0.7857142857142857,0.7857142857142857,0.7857142857142857,0.7857142857142857,0.7857142857142857,0.7857142857142857,0.7857142857142857,0.7857142857142857,0.7857142857142857,0.7857142857142857,0.7857142857142857,0.7857142857142857,0.7857142857142857,0.7857142857142857,0.7857142857142857,0.7857142857142857,0.7857142857142857,0.7857142857142857,0.7857142857142857,0.7857142857142857,0.7857142857142857,0.7857142857142857,0.7857142857142857,0.7857142857142857,0.7857142857142857,0.7857142857142857,0.7857142857142857,0.7857142857142857,0.7857142857142857,0.7857142857142857,0.7857142857142857,0.7857142857142857,0.7857142857142857,0.7857142857142857,0.7857142857142857,0.7857142857142857,0.7857142857142857,0.7857142857142857,0.7857142857142857,0.7857142857142857,0.7857142857142857,0.7857142857142857,0.7857142857142857,0.7857142857142857,0.7857142857142857,0.7857142857142857,0.7857142857142857,0.7857142857142857,0.7857142857142857,0.7857142857142857,0.7857142857142857,0.7857142857142857,0.7857142857142857,0.7857142857142857,0.7857142857142857,0.7857142857142857,0.7857142857142857,0.7857142857142857,0.7857142857142857,0.7857142857142857,0.7857142857142857,0.7857142857142857,0.7857142857142857,0.7857142857142857,0.7857142857142857,0.7857142857142857,0.7857142857142857,0.7857142857142857,0.7857142857142857,0.7857142857142857,0.7857142857142857,0.7857142857142857,0.7857142857142857,0.7857142857142857,0.7857142857142857,0.7857142857142857,0.7857142857142857,0.7857142857142857,0.7857142857142857,0.7857142857142857,0.7857142857142857,0.7857142857142857,0.7857142857142857,0.7857142857142857,0.7857142857142857,0.7857142857142857,0.7857142857142857,0.7857142857142857,0.7857142857142857,0.7857142857142857,0.7857142857142857,0.7857142857142857,0.7857142857142857,0.7857142857142857,0.7857142857142857,0.7857142857142857,0.7857142857142857,0.7857142857142857,0.7857142857142857,0.7857142857142857,0.7857142857142857,0.7857142857142857,0.7857142857142857,0.7857142857142857,0.7857142857142857,0.7857142857142857,0.7857142857142857,0.7857142857142857,0.7857142857142857,0.7857142857142857,0.7857142857142857,0.7857142857142857,0.7857142857142857,0.7857142857142857,0.7857142857142857,0.7857142857142857,0.7857142857142857,0.7857142857142857,0.7857142857142857,0.7857142857142857,0.7857142857142857,0.7857142857142857,0.7857142857142857,0.7857142857142857,0.7857142857142857,0.7857142857142857,0.7857142857142857,0.7755102040816326,0.7721088435374149,0.7653061224489796,0.7585034013605442,0.7551020408163265,0.7517006802721088,0.7517006802721088,0.7517006802721088,0.7482993197278912,0.7482993197278912,0.7482993197278912,0.7448979591836735,0.7414965986394558,0.7414965986394558,0.7414965986394558,0.7380952380952381,0.7380952380952381,0.7380952380952381,0.7380952380952381,0.7380952380952381,0.7380952380952381,0.7380952380952381,0.7380952380952381,0.7380952380952381,0.7380952380952381,0.7380952380952381,0.7380952380952381,0.7380952380952381,0.7380952380952381,0.7380952380952381,0.7380952380952381,0.7380952380952381,0.7380952380952381,0.7380952380952381,0.7380952380952381,0.7380952380952381,0.7380952380952381,0.7380952380952381,0.7380952380952381,0.7380952380952381,0.7380952380952381,0.7380952380952381,0.7380952380952381,0.7380952380952381,0.7380952380952381,0.7380952380952381,0.7380952380952381,0.7380952380952381,0.7380952380952381,0.7380952380952381,0.7380952380952381,0.7380952380952381,0.7380952380952381,0.7380952380952381,0.7380952380952381,0.7380952380952381,0.7380952380952381,0.7380952380952381,0.7380952380952381,0.7380952380952381,0.7380952380952381,0.7380952380952381,0.7380952380952381,0.7380952380952381,0.7380952380952381,0.7380952380952381,0.7380952380952381,0.7380952380952381,0.7380952380952381,0.7380952380952381,0.7380952380952381,0.7380952380952381,0.7380952380952381,0.7380952380952381,0.7380952380952381,0.7380952380952381,0.7380952380952381,0.7380952380952381,0.7380952380952381,0.7380952380952381,0.7380952380952381,0.7380952380952381,0.7380952380952381,0.7380952380952381,0.7380952380952381,0.7380952380952381,0.7380952380952381,0.7380952380952381,0.7380952380952381,0.7380952380952381,0.7380952380952381,0.7380952380952381,0.7380952380952381,0.7380952380952381,0.7380952380952381,0.7380952380952381,0.7380952380952381,0.7380952380952381,0.7380952380952381,0.7380952380952381,0.7380952380952381,0.7380952380952381,0.7380952380952381,0.7380952380952381,0.7380952380952381,0.7380952380952381,0.7380952380952381,0.7380952380952381,0.7380952380952381,0.7380952380952381,0.7380952380952381,0.7380952380952381,0.7380952380952381,0.7380952380952381,0.7380952380952381,0.7380952380952381,0.7380952380952381,0.7380952380952381,0.7380952380952381,0.7380952380952381,0.7380952380952381,0.7380952380952381,0.7380952380952381,0.7380952380952381,0.7380952380952381,0.7380952380952381,0.7380952380952381,0.7380952380952381,0.7380952380952381,0.7380952380952381,0.7380952380952381,0.7380952380952381,0.7380952380952381,0.7380952380952381,0.7380952380952381,0.7380952380952381,0.7380952380952381,0.7380952380952381,0.7380952380952381,0.7380952380952381,0.7380952380952381,0.7380952380952381,0.7380952380952381,0.7380952380952381,0.7380952380952381,0.7380952380952381,0.7380952380952381,0.7380952380952381,0.7380952380952381,0.7380952380952381,0.7380952380952381,0.7380952380952381,0.7380952380952381,0.7380952380952381,0.7380952380952381,0.7448979591836735,0.7482993197278912,0.7585034013605442,0.7619047619047619,0.782312925170068,0.7959183673469388,0.8163265306122449,0.8469387755102041,0.8843537414965986,0.9013605442176871,0.9183673469387755,0.9319727891156463,0.9489795918367347,0.9591836734693877,0.9693877551020408,0.9795918367346939,0.9965986394557823,1.010204081632653,1.0272108843537415,1.0442176870748299,1.0612244897959184,1.0680272108843538,1.0748299319727892,1.0850340136054422,1.0918367346938775,1.0952380952380953,1.1020408163265305,1.1054421768707483,1.1088435374149659,1.1122448979591837,1.1156462585034013,1.1156462585034013,1.1156462585034013,1.1156462585034013,1.1156462585034013,1.119047619047619,1.119047619047619,1.1224489795918366,1.129251700680272,1.129251700680272,1.129251700680272,1.129251700680272,1.129251700680272,1.129251700680272,1.129251700680272,1.129251700680272,1.129251700680272,1.129251700680272,1.129251700680272,1.129251700680272,1.129251700680272,1.129251700680272,1.129251700680272,1.129251700680272,1.129251700680272,1.129251700680272,1.129251700680272,1.129251700680272,1.129251700680272,1.129251700680272,1.129251700680272,1.129251700680272,1.129251700680272,1.129251700680272,1.129251700680272,1.129251700680272,1.129251700680272,1.129251700680272,1.0170068027210883,0.9251700680272109,0.8503401360544217,0.7789115646258503,0.6802721088435374,0.6462585034013606,0.6224489795918368,0.5986394557823129,0.5612244897959183,0.5306122448979592,0.5034013605442177,0.4897959183673469,0.47959183673469385,0.47959183673469385,0.47959183673469385,0.47619047619047616,0.4557823129251701,0.43537414965986393,0.4013605442176871,0.3673469387755102,0.35374149659863946,0.35374149659863946,0.35034013605442177,0.3435374149659864,0.3333333333333333,0.3197278911564626,0.30952380952380953,0.29591836734693877,0.2891156462585034,0.2857142857142857,0.2857142857142857,0.2857142857142857,0.2857142857142857,0.2857142857142857,0.2857142857142857,0.2857142857142857,0.2857142857142857,0.2857142857142857,0.2857142857142857,0.2857142857142857,0.2857142857142857,0.2857142857142857,0.2857142857142857,0.2857142857142857,0.2857142857142857,0.2857142857142857,0.2857142857142857,0.2857142857142857,0.2857142857142857,0.2857142857142857,0.2857142857142857,0.2857142857142857,0.2857142857142857,0.2857142857142857,0.2857142857142857,0.2857142857142857,0.2857142857142857,0.2857142857142857,0.2857142857142857,0.2857142857142857,0.2857142857142857,0.2857142857142857,0.2857142857142857,0.2857142857142857,0.2857142857142857,0.2857142857142857,0.2857142857142857,0.2857142857142857,0.2857142857142857,0.2857142857142857,0.2857142857142857,0.2857142857142857,0.2857142857142857,0.2857142857142857,0.2857142857142857,0.2857142857142857,0.2857142857142857,0.2857142857142857,0.2857142857142857,0.2857142857142857,0.2857142857142857,0.2857142857142857,0.2857142857142857,0.2857142857142857,0.2857142857142857,0.2857142857142857,0.2857142857142857,0.2857142857142857,0.2857142857142857,0.2857142857142857,0.2857142857142857,0.2857142857142857,0.2857142857142857,0.2857142857142857,0.2857142857142857,0.2857142857142857,0.2857142857142857,0.2857142857142857,0.2857142857142857,0.2857142857142857,0.2857142857142857,0.2857142857142857,0.2857142857142857,0.2857142857142857,0.2857142857142857,0.2857142857142857,0.2857142857142857,0.2857142857142857,0.2857142857142857,0.2857142857142857,0.2857142857142857,0.2857142857142857,0.2857142857142857,0.2857142857142857,0.2857142857142857,0.2857142857142857,0.2857142857142857,0.2857142857142857,0.2857142857142857,0.2857142857142857,0.2857142857142857,0.2857142857142857,0.2857142857142857,0.2857142857142857,0.2857142857142857,0.2857142857142857,0.2857142857142857,0.2857142857142857,0.2857142857142857,0.2857142857142857,0.2857142857142857,0.2857142857142857,0.2857142857142857,0.2857142857142857,0.2857142857142857,0.2857142857142857,0.2857142857142857,0.30272108843537415,0.3231292517006803,0.3401360544217687,0.3707482993197279,0.391156462585034,0.40816326530612246,0.4217687074829932,0.4489795918367347,0.46258503401360546,0.48639455782312924,0.5102040816326531,0.5408163265306123,0.5578231292517006,0.5714285714285714,0.5714285714285714,0.5782312925170068,0.5850340136054422,0.5884353741496599,0.5918367346938775,0.6054421768707483,0.6122448979591837,0.6156462585034014,0.6156462585034014,0.6190476190476191,0.6190476190476191,0.6190476190476191,0.6190476190476191,0.6190476190476191,0.6292517006802721,0.6360544217687075,0.6530612244897959,0.6598639455782312,0.6598639455782312,0.6632653061224489,0.6632653061224489,0.6666666666666666,0.6666666666666666,0.6666666666666666,0.6666666666666666,0.6666666666666666,0.6666666666666666,0.6666666666666666,0.6666666666666666,0.6666666666666666,0.6666666666666666,0.6666666666666666,0.6666666666666666,0.6666666666666666,0.6666666666666666,0.6666666666666666,0.6666666666666666,0.6666666666666666,0.6666666666666666,0.6666666666666666,0.6666666666666666,0.6666666666666666,0.6666666666666666,0.6666666666666666,0.6666666666666666,0.6666666666666666,0.6666666666666666,0.6666666666666666,0.6666666666666666,0.6666666666666666,0.6666666666666666,0.6666666666666666,0.6666666666666666,0.6666666666666666,0.6666666666666666,0.6666666666666666,0.6666666666666666,0.6666666666666666,0.6666666666666666,0.6666666666666666,0.6666666666666666,0.6666666666666666,0.6666666666666666,0.6666666666666666,0.6666666666666666,0.6666666666666666,0.6666666666666666,0.6666666666666666,0.6666666666666666,0.6666666666666666,0.6666666666666666,0.6666666666666666,0.6666666666666666,0.6666666666666666,0.6666666666666666,0.6666666666666666,0.6666666666666666,0.6666666666666666,0.6666666666666666,0.6666666666666666,0.6666666666666666,0.6666666666666666,0.6666666666666666,0.6666666666666666,0.6666666666666666,0.6666666666666666,0.6666666666666666,0.6666666666666666,0.6666666666666666,0.6666666666666666,0.6666666666666666,0.6666666666666666,0.6666666666666666,0.6666666666666666,0.6666666666666666,0.6666666666666666,0.6666666666666666,0.6666666666666666,0.6666666666666666,0.6666666666666666,0.6666666666666666,0.6666666666666666,0.6666666666666666,0.6666666666666666,0.6666666666666666,0.6666666666666666,0.6666666666666666,0.6666666666666666,0.6666666666666666,0.6666666666666666,0.6666666666666666,0.6666666666666666,0.6666666666666666,0.6666666666666666,0.6666666666666666,0.6666666666666666,0.6666666666666666,0.6666666666666666,0.6666666666666666,0.6666666666666666,0.6666666666666666,0.6666666666666666,0.6666666666666666,0.6666666666666666,0.6666666666666666,0.6666666666666666,0.6666666666666666,0.6666666666666666,0.6666666666666666,0.6666666666666666,0.6666666666666666,0.6666666666666666,0.6666666666666666,0.6666666666666666,0.6666666666666666,0.6666666666666666,0.6666666666666666,0.6666666666666666,0.6666666666666666,0.6666666666666666,0.6666666666666666,0.6666666666666666,0.6666666666666666,0.6666666666666666,0.6666666666666666,0.6666666666666666,0.6666666666666666,0.6666666666666666,0.6666666666666666,0.6666666666666666,0.6666666666666666,0.6666666666666666,0.6666666666666666,0.6666666666666666,0.6666666666666666,0.6666666666666666,0.6666666666666666,0.6666666666666666,0.6666666666666666,0.6666666666666666,0.6666666666666666,0.6666666666666666,0.6666666666666666,0.6666666666666666,0.6666666666666666,0.6666666666666666,0.6666666666666666,0.6666666666666666,0.6666666666666666,0.6666666666666666,0.6666666666666666,0.6666666666666666,0.6666666666666666,0.6666666666666666,0.6666666666666666,0.6666666666666666,0.6666666666666666,0.6666666666666666,0.6666666666666666,0.6666666666666666,0.6666666666666666,0.6666666666666666,0.6666666666666666,0.6666666666666666,0.6666666666666666,0.6666666666666666,0.6666666666666666,0.6666666666666666,0.6666666666666666,0.6666666666666666,0.6666666666666666,0.6666666666666666,0.6666666666666666,0.6666666666666666,0.6666666666666666,0.6666666666666666,0.6666666666666666,0.6666666666666666,0.6666666666666666,0.6666666666666666,0.6666666666666666,0.6666666666666666,0.6666666666666666,0.6666666666666666,0.6666666666666666,0.6666666666666666,0.6666666666666666,0.6666666666666666,0.6666666666666666,0.6666666666666666,0.6666666666666666,0.6666666666666666,0.6666666666666666,0.6666666666666666,0.6666666666666666,0.6666666666666666,0.6666666666666666,0.6666666666666666,0.6666666666666666,0.6666666666666666,0.6666666666666666,0.6666666666666666,0.6666666666666666,0.6666666666666666,0.6666666666666666,0.6666666666666666,0.6666666666666666,0.6666666666666666,0.6666666666666666,0.6666666666666666,0.6666666666666666,0.6666666666666666,0.6666666666666666,0.6666666666666666,0.6666666666666666,0.6666666666666666,0.6666666666666666,0.6666666666666666,0.6666666666666666,0.6666666666666666,0.6666666666666666,0.6666666666666666,0.6666666666666666,0.6666666666666666,0.6666666666666666,0.6666666666666666,0.6666666666666666,0.6666666666666666,0.6666666666666666,0.6666666666666666,0.6666666666666666,0.6666666666666666,0.6666666666666666,0.6666666666666666,0.6666666666666666,0.6666666666666666,0.6666666666666666,0.6666666666666666,0.6666666666666666,0.6666666666666666,0.6666666666666666,0.6666666666666666,0.6666666666666666,0.6666666666666666,0.6666666666666666,0.6666666666666666,0.6666666666666666,0.6666666666666666,0.6666666666666666,0.6666666666666666,0.6666666666666666,0.6666666666666666,0.6666666666666666,0.6666666666666666,0.6666666666666666,0.6666666666666666,0.6666666666666666,0.6666666666666666,0.6666666666666666,0.6666666666666666,0.6666666666666666,0.6666666666666666,0.6666666666666666,0.6666666666666666,0.6666666666666666,0.6666666666666666,0.6666666666666666,0.6666666666666666,0.6666666666666666,0.6666666666666666,0.6666666666666666,0.6666666666666666,0.6666666666666666,0.6666666666666666,0.6666666666666666,0.6666666666666666,0.6666666666666666,0.6666666666666666,0.6666666666666666,0.6666666666666666,0.6666666666666666,0.6666666666666666,0.6666666666666666,0.6666666666666666,0.6666666666666666,0.6666666666666666,0.6666666666666666,0.6666666666666666,0.6666666666666666,0.6666666666666666,0.6666666666666666,0.6666666666666666,0.6666666666666666,0.6666666666666666,0.6666666666666666,0.6666666666666666,0.6666666666666666,0.6666666666666666,0.6666666666666666,0.6666666666666666,0.6666666666666666,0.6666666666666666,0.6666666666666666,0.6666666666666666,0.6666666666666666,0.6666666666666666,0.6666666666666666,0.6666666666666666,0.6666666666666666,0.6666666666666666,0.6666666666666666,0.6666666666666666,0.6666666666666666,0.6666666666666666,0.6666666666666666,0.6666666666666666,0.6666666666666666,0.6666666666666666,0.6666666666666666,0.6666666666666666,0.6666666666666666,0.6666666666666666,0.6666666666666666,0.6666666666666666,0.6666666666666666,0.6666666666666666,0.6666666666666666,0.6666666666666666,0.6666666666666666,0.6666666666666666,0.6666666666666666,0.6666666666666666,0.6666666666666666,0.6666666666666666,0.6666666666666666,0.6666666666666666,0.6666666666666666,0.6666666666666666,0.6666666666666666,0.6666666666666666,0.6666666666666666,0.6666666666666666,0.6666666666666666,0.6666666666666666,0.6666666666666666,0.6666666666666666,0.6632653061224489,0.6530612244897959,0.6360544217687075,0.6258503401360545,0.6122448979591837,0.5986394557823129,0.5850340136054422,0.5850340136054422,0.5816326530612245,0.5782312925170068,0.5782312925170068,0.5782312925170068,0.5782312925170068,0.5748299319727891,0.5680272108843537,0.564625850340136,0.564625850340136,0.564625850340136,0.564625850340136,0.5612244897959183,0.5612244897959183,0.5612244897959183,0.5612244897959183,0.5612244897959183,0.5612244897959183,0.5612244897959183,0.5612244897959183,0.5612244897959183,0.5612244897959183,0.5612244897959183,0.5612244897959183,0.5612244897959183,0.5578231292517006,0.5578231292517006,0.5578231292517006,0.5578231292517006,0.5578231292517006,0.5578231292517006,0.5578231292517006,0.5578231292517006,0.5578231292517006,0.5544217687074829,0.5544217687074829,0.5544217687074829,0.5544217687074829,0.5544217687074829,0.5544217687074829,0.5544217687074829,0.5544217687074829,0.5544217687074829,0.5544217687074829,0.5544217687074829,0.5544217687074829,0.5544217687074829,0.5544217687074829,0.5544217687074829,0.5544217687074829,0.5544217687074829,0.5544217687074829,0.5544217687074829,0.5544217687074829,0.5544217687074829,0.5544217687074829,0.5544217687074829,0.5544217687074829,0.5544217687074829,0.5544217687074829,0.5544217687074829,0.5544217687074829,0.5544217687074829,0.5544217687074829,0.5544217687074829,0.5544217687074829,0.5544217687074829,0.5544217687074829,0.5544217687074829,0.5544217687074829,0.5544217687074829,0.5544217687074829,0.5544217687074829,0.5544217687074829,0.5544217687074829,0.5544217687074829,0.5544217687074829,0.5544217687074829,0.5544217687074829,0.5544217687074829,0.5544217687074829,0.5544217687074829,0.5578231292517006,0.564625850340136,0.5714285714285714,0.5850340136054422,0.5952380952380952,0.6054421768707483,0.6122448979591837,0.6190476190476191,0.6224489795918368,0.6224489795918368,0.6292517006802721,0.6326530612244898,0.6326530612244898,0.6360544217687075,0.6360544217687075,0.6394557823129252,0.6394557823129252,0.6394557823129252,0.6394557823129252,0.6394557823129252,0.6428571428571429,0.6428571428571429,0.6428571428571429,0.6496598639455783,0.6496598639455783,0.6564625850340136,0.6666666666666666,0.673469387755102,0.6802721088435374,0.6836734693877551,0.6836734693877551,0.6836734693877551,0.6836734693877551,0.6870748299319728,0.6870748299319728,0.6904761904761905,0.6904761904761905,0.6904761904761905,0.6904761904761905,0.6904761904761905,0.6904761904761905,0.6938775510204082,0.6938775510204082,0.6938775510204082,0.6938775510204082,0.6938775510204082,0.6938775510204082,0.6938775510204082,0.6938775510204082,0.6938775510204082,0.6938775510204082,0.6938775510204082,0.6938775510204082,0.6938775510204082,0.6938775510204082,0.6938775510204082,0.6938775510204082,0.6938775510204082,0.6938775510204082,0.6938775510204082,0.6938775510204082,0.6938775510204082,0.6938775510204082,0.6938775510204082,0.6938775510204082,0.6938775510204082,0.6938775510204082,0.6938775510204082,0.6938775510204082,0.6938775510204082,0.6938775510204082,0.6938775510204082,0.6938775510204082,0.6938775510204082,0.6938775510204082,0.6938775510204082,0.6938775510204082,0.6938775510204082,0.6938775510204082,0.6938775510204082,0.6938775510204082,0.6938775510204082,0.6904761904761905,0.6768707482993197,0.6632653061224489,0.6496598639455783,0.6326530612244898,0.6122448979591837,0.6020408163265306,0.5952380952380952,0.5850340136054422,0.5680272108843537,0.5544217687074829,0.5340136054421769,0.5034013605442177,0.48639455782312924,0.47278911564625853,0.45918367346938777,0.445578231292517,0.43537414965986393,0.42857142857142855,0.42517006802721086,0.4217687074829932,0.4217687074829932,0.4217687074829932,0.4217687074829932,0.4217687074829932,0.4217687074829932,0.4217687074829932,0.4217687074829932,0.4217687074829932,0.4217687074829932,0.4217687074829932,0.4217687074829932,0.4217687074829932,0.4217687074829932,0.4217687074829932,0.4217687074829932,0.4217687074829932,0.4217687074829932,0.4217687074829932,0.4217687074829932,0.4217687074829932,0.4217687074829932,0.4217687074829932,0.4217687074829932,0.4217687074829932,0.4217687074829932,0.4217687074829932,0.4217687074829932,0.4217687074829932,0.4217687074829932,0.4217687074829932,0.4217687074829932,0.4217687074829932,0.4217687074829932,0.4217687074829932,0.4217687074829932,0.4217687074829932,0.4217687074829932,0.4217687074829932,0.4217687074829932,0.4217687074829932,0.4217687074829932,0.4217687074829932,0.4217687074829932,0.4217687074829932,0.4217687074829932,0.4217687074829932,0.4217687074829932,0.4217687074829932,0.4217687074829932,0.4217687074829932,0.4217687074829932,0.4217687074829932,0.4217687074829932,0.4217687074829932,0.4217687074829932,0.4217687074829932,0.4217687074829932,0.4217687074829932,0.4217687074829932,0.4217687074829932,0.4217687074829932,0.4217687074829932,0.4217687074829932,0.4217687074829932,0.4217687074829932,0.4217687074829932,0.4217687074829932,0.4217687074829932,0.4217687074829932,0.4217687074829932,0.4217687074829932,0.4217687074829932,0.4217687074829932,0.4217687074829932,0.3877551020408163,0.3231292517006803,0.2857142857142857,0.2653061224489796,0.24489795918367346,0.24489795918367346,0.24149659863945577,0.24149659863945577,0.24149659863945577,0.23469387755102042,0.22448979591836735,0.21768707482993196,0.2108843537414966,0.20068027210884354,0.19047619047619047,0.1870748299319728,0.17346938775510204,0.16326530612244897,0.1564625850340136,0.14965986394557823,0.14625850340136054,0.14625850340136054,0.14625850340136054,0.14285714285714285,0.14285714285714285,0.14285714285714285,0.13945578231292516,0.1360544217687075,0.1360544217687075,0.1360544217687075,0.1360544217687075,0.1360544217687075,0.1360544217687075,0.1360544217687075,0.1360544217687075,0.1360544217687075,0.1360544217687075,0.1360544217687075,0.1360544217687075,0.1360544217687075,0.1360544217687075,0.1360544217687075,0.1360544217687075,0.1360544217687075,0.1360544217687075,0.12244897959183673,0.09523809523809523,0.08163265306122448,0.07482993197278912,0.07142857142857142,0.07142857142857142,0.07142857142857142,0.07142857142857142,0.06802721088435375,0.06802721088435375,0.05442176870748299,0.05102040816326531,0.04081632653061224,0.034013605442176874,0.027210884353741496,0.027210884353741496,0.023809523809523808,0.023809523809523808,0.023809523809523808,0.023809523809523808,0.023809523809523808,0.023809523809523808,0.023809523809523808,0.023809523809523808,0.023809523809523808,0.023809523809523808,0.023809523809523808,0.023809523809523808,0.023809523809523808,0.023809523809523808,0.023809523809523808,0.023809523809523808,0.023809523809523808,0.023809523809523808,0.023809523809523808,0.023809523809523808,0.023809523809523808,0.023809523809523808,0.023809523809523808,0.023809523809523808,0.023809523809523808,0.023809523809523808,0.023809523809523808,0.023809523809523808,0.023809523809523808,0.023809523809523808,0.023809523809523808,0.023809523809523808,0.023809523809523808,0.023809523809523808,0.023809523809523808,0.023809523809523808,0.023809523809523808,0.023809523809523808,0.023809523809523808,0.023809523809523808,0.023809523809523808,0.023809523809523808,0.023809523809523808,0.034013605442176874,0.04421768707482993,0.05442176870748299,0.07482993197278912,0.08163265306122448,0.09183673469387756,0.09523809523809523,0.09863945578231292,0.09863945578231292,0.10204081632653061,0.10204081632653061,0.10204081632653061,0.10204081632653061,0.1054421768707483,0.1054421768707483,0.1054421768707483,0.10884353741496598,0.10884353741496598,0.10884353741496598,0.10884353741496598,0.10884353741496598,0.10884353741496598,0.10884353741496598,0.10884353741496598,0.10884353741496598,0.10884353741496598,0.10884353741496598,0.10884353741496598,0.10884353741496598,0.10884353741496598,0.10884353741496598,0.10884353741496598,0.10884353741496598,0.10884353741496598,0.10884353741496598,0.10884353741496598,0.10884353741496598,0.10884353741496598,0.10884353741496598,0.10884353741496598,0.10884353741496598,0.10884353741496598,0.10884353741496598,0.10884353741496598,0.10884353741496598,0.10884353741496598,0.10884353741496598,0.10884353741496598,0.10884353741496598,0.10884353741496598,0.10884353741496598,0.10884353741496598,0.10884353741496598,0.10884353741496598,0.10884353741496598,0.10884353741496598,0.10884353741496598,0.10884353741496598,0.10884353741496598,0.10884353741496598,0.10884353741496598,0.10884353741496598,0.10884353741496598,0.10884353741496598,0.10884353741496598,0.10884353741496598,0.10884353741496598,0.10884353741496598,0.10884353741496598,0.10884353741496598,0.10884353741496598,0.10884353741496598,0.10884353741496598,0.10884353741496598,0.10884353741496598,0.11564625850340136,0.1292517006802721,0.13945578231292516,0.16326530612244897,0.17687074829931973,0.19047619047619047,0.20748299319727892,0.23129251700680273,0.23469387755102042,0.24149659863945577,0.24489795918367346,0.24829931972789115,0.25510204081632654,0.2687074829931973,0.2755102040816326,0.2857142857142857,0.2857142857142857,0.2857142857142857,0.2687074829931973,0.2585034013605442,0.24829931972789115,0.24489795918367346,0.24149659863945577,0.22789115646258504,0.21428571428571427,0.20408163265306123,0.19387755102040816,0.19047619047619047,0.19047619047619047,0.19047619047619047,0.1870748299319728,0.17687074829931973,0.16666666666666666,0.1598639455782313,0.1564625850340136,0.1564625850340136,0.15306122448979592,0.15306122448979592,0.14965986394557823,0.14965986394557823,0.14965986394557823,0.14965986394557823,0.14965986394557823,0.14965986394557823,0.14965986394557823,0.14965986394557823,0.14965986394557823,0.14965986394557823,0.1564625850340136,0.17687074829931973,0.19047619047619047,0.21428571428571427,0.23809523809523808,0.24489795918367346,0.2619047619047619,0.2789115646258503,0.30952380952380953,0.336734693877551,0.35374149659863946,0.3707482993197279,0.38095238095238093,0.3877551020408163,0.391156462585034,0.3945578231292517,0.3945578231292517,0.4013605442176871,0.40816326530612246,0.4217687074829932,0.43197278911564624,0.43537414965986393,0.4387755102040816,0.4421768707482993,0.445578231292517,0.45918367346938777,0.47619047619047616,0.5,0.5136054421768708,0.5170068027210885,0.5170068027210885,0.5204081632653061,0.5204081632653061,0.5238095238095238,0.5238095238095238,0.5238095238095238,0.5238095238095238,0.5238095238095238,0.5238095238095238,0.5238095238095238,0.5238095238095238,0.5238095238095238,0.5238095238095238,0.5238095238095238,0.5238095238095238,0.5238095238095238,0.5238095238095238,0.5238095238095238,0.5238095238095238,0.5238095238095238,0.5238095238095238,0.5238095238095238,0.5238095238095238,0.5238095238095238,0.5238095238095238,0.5238095238095238,0.5238095238095238,0.5238095238095238,0.5238095238095238,0.5238095238095238,0.5238095238095238,0.5238095238095238,0.5238095238095238,0.5238095238095238,0.5238095238095238,0.5238095238095238,0.5238095238095238,0.5238095238095238,0.5238095238095238,0.5238095238095238,0.5238095238095238,0.5238095238095238,0.5238095238095238,0.5238095238095238,0.5238095238095238,0.5238095238095238,0.5238095238095238,0.5238095238095238,0.5238095238095238,0.5238095238095238,0.5238095238095238,0.5238095238095238,0.5238095238095238,0.5238095238095238,0.5238095238095238,0.5238095238095238,0.5238095238095238,0.5238095238095238,0.5238095238095238,0.5238095238095238,0.5238095238095238,0.5238095238095238,0.5238095238095238,0.5238095238095238,0.5238095238095238,0.5238095238095238,0.5238095238095238,0.5238095238095238,0.5238095238095238,0.5238095238095238,0.5238095238095238,0.5238095238095238,0.5238095238095238,0.5238095238095238,0.5238095238095238,0.5238095238095238,0.5238095238095238,0.5238095238095238,0.5238095238095238,0.5238095238095238,0.5238095238095238,0.5238095238095238,0.5238095238095238,0.5238095238095238,0.5238095238095238,0.5238095238095238,0.5238095238095238,0.5238095238095238,0.5238095238095238,0.5238095238095238,0.5238095238095238,0.5238095238095238,0.5238095238095238,0.5238095238095238,0.5238095238095238,0.5238095238095238,0.5238095238095238,0.5238095238095238,0.5238095238095238,0.5238095238095238,0.5238095238095238,0.5238095238095238,0.5238095238095238,0.5238095238095238,0.5238095238095238,0.5238095238095238,0.5238095238095238,0.5238095238095238,0.5238095238095238,0.5238095238095238,0.5238095238095238,0.5238095238095238,0.5238095238095238,0.5238095238095238,0.5238095238095238,0.5238095238095238,0.5238095238095238,0.5238095238095238,0.5238095238095238,0.5238095238095238,0.5238095238095238,0.5238095238095238,0.5238095238095238,0.5238095238095238,0.5238095238095238,0.5238095238095238,0.5238095238095238,0.5238095238095238,0.5408163265306123,0.5782312925170068,0.5986394557823129,0.6258503401360545,0.6462585034013606,0.673469387755102,0.6904761904761905,0.7074829931972789,0.7210884353741497,0.7380952380952381,0.7482993197278912,0.7517006802721088,0.7585034013605442,0.7687074829931972,0.7789115646258503,0.7857142857142857,0.7891156462585034,0.7925170068027211,0.7925170068027211,0.7925170068027211,0.7925170068027211,0.7925170068027211,0.7925170068027211,0.7959183673469388,0.7959183673469388,0.7959183673469388,0.8027210884353742,0.8095238095238095,0.8163265306122449,0.8231292517006803,0.826530612244898,0.8299319727891157,0.8333333333333334,0.8333333333333334,0.8367346938775511,0.8367346938775511,0.8367346938775511,0.8367346938775511,0.8367346938775511,0.8367346938775511,0.8367346938775511,0.8367346938775511,0.8367346938775511,0.8367346938775511,0.8367346938775511,0.8367346938775511,0.8367346938775511,0.8367346938775511,0.8367346938775511,0.8367346938775511,0.8367346938775511,0.8367346938775511,0.8367346938775511,0.8367346938775511,0.8367346938775511,0.8367346938775511,0.8367346938775511,0.8367346938775511,0.8367346938775511,0.8367346938775511,0.8367346938775511,0.8367346938775511,0.8367346938775511,0.8367346938775511,0.8367346938775511,0.8367346938775511,0.8367346938775511,0.8367346938775511,0.8367346938775511,0.8367346938775511,0.8367346938775511,0.8367346938775511,0.8367346938775511,0.8367346938775511,0.8367346938775511,0.8367346938775511,0.8367346938775511,0.8367346938775511,0.8367346938775511,0.8367346938775511,0.8367346938775511,0.8367346938775511,0.8367346938775511,0.8367346938775511,0.8367346938775511,0.8367346938775511,0.8367346938775511,0.8367346938775511,0.8367346938775511,0.8367346938775511,0.8367346938775511,0.8367346938775511,0.8367346938775511,0.8367346938775511,0.8367346938775511,0.8367346938775511,0.8367346938775511,0.8367346938775511,0.8367346938775511,0.8367346938775511,0.8367346938775511,0.8367346938775511,0.8367346938775511,0.8367346938775511,0.8367346938775511,0.8367346938775511,0.8367346938775511,0.8367346938775511,0.8367346938775511,0.8367346938775511,0.8367346938775511,0.8367346938775511,