[{"success":true,"trial_type":"fullscreen","trial_index":0,"time_elapsed":168246,"internal_node_id":"0.0-0.0","protocol_sum":"","subject_identifier":109,"subject_sum":[47,202,52,109,182,86,24,113,2,206,128,106,199,50,224,106,98,223,13,187,40,41,229,17,167,112,85,109,57,142,26,110],"subject_pair":54,"STUDY_ID":"669a702db1122fc5150a13ce","PROLIFIC_PID":"6659ca3aede1cd81f25f5d46","SESSION_ID":"669ab1fa99a294475a154665","practice_instructions":1,"leaderboard_instructions":0,"bonus":1,"reveal_word":true,"self_rating":"1","confidence":"94"},{"view_history":"[{\"page_index\":0,\"viewing_time\":10873.800000011921}]","rt":10875,"trial_type":"instructions","trial_index":1,"time_elapsed":179122,"internal_node_id":"0.0-1.0","protocol_sum":"","subject_identifier":109,"subject_sum":[47,202,52,109,182,86,24,113,2,206,128,106,199,50,224,106,98,223,13,187,40,41,229,17,167,112,85,109,57,142,26,110],"subject_pair":54,"STUDY_ID":"669a702db1122fc5150a13ce","PROLIFIC_PID":"6659ca3aede1cd81f25f5d46","SESSION_ID":"669ab1fa99a294475a154665","practice_instructions":1,"leaderboard_instructions":0,"bonus":1,"reveal_word":true,"self_rating":"1","confidence":"94"},{"view_history":"[{\"page_index\":0,\"viewing_time\":15997.300000011921}]","rt":15997.5,"trial_type":"instructions","trial_index":2,"time_elapsed":195121,"internal_node_id":"0.0-2.0-0.0","protocol_sum":"","subject_identifier":109,"subject_sum":[47,202,52,109,182,86,24,113,2,206,128,106,199,50,224,106,98,223,13,187,40,41,229,17,167,112,85,109,57,142,26,110],"subject_pair":54,"STUDY_ID":"669a702db1122fc5150a13ce","PROLIFIC_PID":"6659ca3aede1cd81f25f5d46","SESSION_ID":"669ab1fa99a294475a154665","practice_instructions":1,"leaderboard_instructions":0,"bonus":1,"reveal_word":true,"self_rating":"1","confidence":"94"},{"rt":7436.4000000059605,"responses":"{\"Q0\":\"... reveal the word with as <b>few letter guesses</b> as possible\"}","question_order":"[0]","trial_type":"survey-multi-choice","trial_index":3,"time_elapsed":202563,"internal_node_id":"0.0-2.0-1.0","protocol_sum":"","subject_identifier":109,"subject_sum":[47,202,52,109,182,86,24,113,2,206,128,106,199,50,224,106,98,223,13,187,40,41,229,17,167,112,85,109,57,142,26,110],"subject_pair":54,"correct":true,"test_part":"multichoice_nonpretend","STUDY_ID":"669a702db1122fc5150a13ce","PROLIFIC_PID":"6659ca3aede1cd81f25f5d46","SESSION_ID":"669ab1fa99a294475a154665","practice_instructions":1,"leaderboard_instructions":0,"bonus":1,"reveal_word":true,"self_rating":"1","confidence":"94"},{"view_history":"[{\"page_index\":0,\"viewing_time\":2885.0999999940395}]","rt":2885.2999999821186,"trial_type":"instructions","trial_index":4,"time_elapsed":205450,"internal_node_id":"0.0-3.0","protocol_sum":"","subject_identifier":109,"subject_sum":[47,202,52,109,182,86,24,113,2,206,128,106,199,50,224,106,98,223,13,187,40,41,229,17,167,112,85,109,57,142,26,110],"subject_pair":54,"STUDY_ID":"669a702db1122fc5150a13ce","PROLIFIC_PID":"6659ca3aede1cd81f25f5d46","SESSION_ID":"669ab1fa99a294475a154665","practice_instructions":1,"leaderboard_instructions":0,"bonus":1,"reveal_word":true,"self_rating":"1","confidence":"94"},{"word":"ZEBRA","click_log":{"letter":["","A","Z","E","B","R"],"t":[0,4330.4000000059605,11562.300000011921,14745.40000000596,16095.300000011921,17844.5],"hit":[null,1,1,1,1,1],"asked":["","A","AZ","AZE","AZEB","AZEBR"],"word_state":["_____","____A","Z___A","ZE__A","ZEB_A","ZEBRA"]},"hover_log":{"letter":["?","?","?","?","?","?","?","?","?","?","?","?","?","?","?","?","?","?","?","?","?","?","?","?","?","?","?","?","?","?","?","?","?","?","?","?","?","?","?","?","?","?","?","?","?","?","?","?","?","?","?","?","?","?","?","?","?","?","?","?","?","?","?","?","?","?","?","?","?","?","?","?","?","?","?","?","?","?","?","?","?","?","?","?","?","?","?","?","?","?","?","?","?","?","?","?","?","?","?","?","?","?","?","?","?","?","?","?","?","?","?","?","?","?","?","?","?","?","?","?","?","?","?","?","?","?","?","?","?","?","?","?","?","?","?","?","?","?","?","?","?","?","?","?","?","?","?","?","?","?","?","?","?","?","?","?","?","?","?","?","?","?","?","?","?","?","?","?","?","?","?","?","?","?","?","?","?","?","?","?","?","?","?","?","?","?","?","?","?","?","?","?","?","?","?","?","?","?","?","?","?","?","?","?","?","?","?","?","?","?","?","?","?","?","?","?","?","?","?","?","J","J","?","?","?","?","?","?","?","?","?","?","?","?","?","?","?","?","?","A","A","A","A","A","A","A","A","A","A","A","A","A","A","A","A","A","A","A","A","A","A","A","A","A","A","A","A","A","A","A","A","A","A","A","A","A","A","A","A","A","A","A","A","A","A","A","A","A","A","A","A","A","A","A","A","A","A","A","A","A","A","A","A","A","A","A","A","A","A","A","A","A","A","A","A","A","A","A","A","A","A","A","A","A","A","A","A","A","A","A","A","A","A","A","A","A","A","A","A","A","A","A","A","A","A","A","A","A","A","A","A","A","A","A","A","A","A","A","A","A","A","A","A","A","A","A","A","A","A","A","A","A","?","?","?","J","J","J","J","J","?","?","?","?","T","T","T","T","T","T","T","T","T","T","T","T","T","T","T","T","T","T","T","T","T","T","T","T","T","T","T","T","T","T","T","T","T","U","U","U","U","U","U","U","U","U","U","U","U","U","U","U","U","U","U","U","U","?","V","W","W","?","X","X","X","?","?","?","?","?","?","?","O","E","?","?","?","?","?","?","?","?","?","?","?","?","?","?","?","?","?","?","?","?","?","?","?","?","?","?","?","?","?","?","?","?","?","?","?","?","?","?","?","?","?","?","?","?","?","?","?","?","?","?","?","?","?","?","?","?","?","?","?","?","?","?","?","?","?","?","?","?","?","?","?","?","?","?","?","?","?","?","?","?","?","?","?","?","?","?","?","?","?","?","?","?","?","?","?","?","?","?","?","?","?","?","?","?","?","?","?","?","?","?","?","?","?","?","?","?","?","?","?","?","?","?","?","?","?","?","?","?","?","?","?","?","?","?","?","?","?","?","?","?","?","?","?","?","?","?","?","?","?","?","?","?","?","?","?","?","?","?","?","?","?","?","?","?","?","?","?","F","?","?","?","?","?","?","?","?","?","?","?","?","?","?","?","?","?","?","?","?","?","?","?","Z","Z","Z","Z","Z","Z","Z","Z","Z","Z","Z","Z","Z","Z","Z","Z","Z","Z","Z","Z","Z","Z","Z","Z","Z","Z","Z","Z","Z","Z","Z","Z","Z","Z","Z","Z","Z","Z","Z","Z","Z","Z","Z","Z","Z","Z","Z","Z","Z","Z","Z","Z","Z","Z","Z","Z","Z","Z","Z","Z","Z","Z","Z","Z","Z","Z","Z","Z","Z","Z","Z","Z","Z","Z","Z","Z","Z","Z","Z","Z","Z","Z","Z","Z","Z","Z","Z","Z","Z","Z","Z","Z","Z","Z","Z","Z","Z","Z","Z","Z","Z","Z","?","?","?","?","?","?","?","?","?","?","?","?","?","?","?","?","?","?","?","?","?","?","?","?","?","?","?","?","?","?","?","?","?","?","?","?","?","?","?","?","?","?","?","?","?","?","?","W","?","?","?","M","?","D","D","D","D","D","D","D","D","D","D","D","D","D","D","D","D","D","D","D","D","?","?","E","E","E","E","E","E","E","E","E","E","E","E","E","E","E","E","E","E","E","E","E","E","E","E","E","E","E","E","E","E","E","E","E","E","E","E","E","E","E","E","E","E","E","E","E","E","E","E","E","E","E","E","E","E","E","E","E","E","E","E","E","E","E","E","E","E","E","E","E","E","E","E","E","E","E","E","E","E","E","E","E","E","E","E","E","?","?","?","D","D","D","D","D","D","D","D","D","D","D","D","?","?","?","?","?","C","C","C","C","C","C","C","C","C","C","C","?","B","B","B","B","B","B","B","B","B","B","B","B","B","B","B","B","B","B","B","B","B","B","B","B","B","B","B","B","B","B","B","B","B","B","B","B","B","B","B","B","B","B","B","B","B","B","B","B","B","?","?","?","?","?","?","L","L","L","L","L","?","?","?","M","M","?","?","?","?","?","?","?","?","?","?","?","?","?","?","?","?","?","?","?","?","?","?","?","?","?","?","?","?","?","?","?","?","?","?","?","?","?","?","?","?","R","R","R","R","R","R","R","R","R","R","R","R","R","R","R","R","R","R","R","R","R","R","R","R","R","R","R","R","R","R","R","R","R","R","R","R","R","R","R","R","R","R","R","R","R","R","R","R","?","?","?","?","?","?","?","?","?","?","?","?","?","?","?","?","?","?","?","?","?","?","?","?","?","?","?","?","?","?","?","?","?","?","?","?","?","?","?","?","?","?","?","?","?","?","?","?","?","?","?","?","?","?","?","?","?","?","?","?","?","?","?","?","?","?","?","?","?","?","?","?","?","?","?","?","?","?","?","?","?","?","?","?","?","?","?","?","?","?","?","?","?","?","?"],"t":[46,97,125,140,159,174,192,209,225,242,259,274,290,309,324,341,360,375,391,409,425,441,458,475,490,507,524,540,559,574,590,607,623,640,657,674,690,708,724,740,757,774,791,808,824,841,859,875,891,908,924,940,957,974,990,1007,1024,1040,1057,1073,1090,1107,1124,1140,1158,1174,1191,1209,1224,1240,1259,1275,1290,1307,1325,1340,1359,1374,1390,1408,1424,1442,1457,1474,1490,1507,1524,1540,1558,1574,1591,1608,1624,1640,1658,1674,1690,1709,1724,1740,1759,1774,1790,1808,1825,1840,1857,1874,1890,1909,1924,1940,1958,1974,1990,2007,2024,2040,2059,2074,2091,2107,2124,2140,2157,2174,2190,2208,2223,2240,2258,2273,2290,2308,2324,2340,2358,2374,2390,2408,2424,2440,2458,2474,2490,2508,2524,2540,2557,2574,2590,2609,2624,2640,2657,2674,2690,2709,2724,2740,2757,2774,2790,2809,2824,2840,2857,2874,2890,2909,2925,2940,2958,2974,2990,3007,3024,3040,3057,3074,3090,3106,3123,3140,3157,3174,3190,3209,3224,3240,3259,3274,3291,3307,3324,3340,3357,3374,3390,3408,3424,3440,3457,3474,3490,3507,3524,3541,3558,3574,3590,3608,3624,3640,3658,3674,3690,3707,3723,3740,3757,3774,3790,3807,3823,3840,3857,3874,3890,3907,3923,3940,3957,3973,3990,4007,4024,4040,4057,4074,4090,4108,4123,4140,4157,4173,4190,4208,4224,4240,4258,4273,4290,4308,4324,4341,4359,4375,4391,4408,4424,4441,4459,4475,4491,4509,4524,4541,4559,4574,4590,4608,4624,4640,4659,4674,4691,4709,4725,4741,4759,4774,4791,4808,4824,4841,4859,4875,4890,4907,4923,4940,4957,4973,4990,5007,5025,5040,5058,5074,5090,5109,5124,5141,5159,5174,5191,5209,5224,5241,5258,5274,5290,5308,5324,5340,5358,5374,5390,5407,5424,5440,5458,5474,5490,5507,5523,5540,5558,5574,5590,5607,5624,5640,5658,5673,5690,5707,5723,5740,5758,5774,5790,5808,5826,5840,5858,5874,5890,5908,5924,5940,5957,5973,5990,6007,6025,6040,6058,6074,6090,6108,6125,6140,6158,6174,6190,6209,6224,6240,6258,6274,6290,6307,6323,6340,6357,6373,6390,6407,6423,6440,6458,6473,6490,6508,6524,6540,6559,6573,6590,6608,6624,6640,6659,6674,6690,6708,6724,6740,6758,6774,6790,6807,6824,6840,6858,6873,6890,6908,6923,6940,6957,6974,6990,7008,7024,7040,7057,7074,7090,7107,7123,7140,7157,7174,7190,7209,7224,7240,7258,7273,7290,7308,7324,7340,7358,7373,7390,7407,7423,7440,7457,7473,7490,7507,7523,7540,7558,7573,7590,7607,7623,7640,7657,7674,7690,7708,7724,7740,7757,7773,7790,7806,7823,7841,7858,7874,7890,7908,7924,7940,7957,7973,7990,8007,8024,8040,8058,8073,8090,8107,8123,8140,8157,8174,8190,8208,8223,8240,8256,8274,8290,8307,8323,8340,8358,8374,8390,8408,8423,8440,8457,8473,8490,8507,8524,8540,8557,8574,8590,8608,8623,8640,8657,8673,8690,8708,8723,8740,8757,8773,8790,8807,8823,8840,8857,8874,8890,8907,8923,8940,8957,8973,8990,9006,9023,9040,9056,9073,9089,9106,9123,9140,9156,9173,9190,9207,9223,9240,9256,9273,9290,9307,9323,9340,9357,9373,9390,9406,9424,9440,9457,9473,9490,9507,9523,9540,9557,9573,9590,9606,9623,9640,9657,9673,9690,9706,9723,9740,9757,9773,9790,9807,9823,9840,9856,9873,9890,9907,9923,9940,9957,9974,9990,10007,10023,10040,10057,10075,10090,10108,10124,10141,10158,10173,10190,10208,10224,10240,10257,10274,10290,10307,10324,10340,10358,10374,10390,10407,10424,10440,10457,10473,10490,10506,10524,10540,10557,10573,10590,10606,10624,10640,10657,10673,10690,10707,10723,10740,10756,10773,10790,10807,10823,10841,10857,10873,10890,10907,10923,10939,10956,10973,10990,11006,11023,11040,11056,11073,11089,11107,11123,11139,11158,11174,11190,11208,11223,11240,11257,11273,11290,11308,11324,11340,11358,11373,11390,11407,11423,11440,11457,11473,11490,11507,11523,11539,11557,11573,11590,11608,11623,11640,11658,11673,11691,11708,11724,11740,11758,11774,11790,11808,11824,11840,11857,11874,11890,11909,11924,11940,11959,11973,11991,12008,12023,12040,12056,12073,12089,12107,12124,12140,12157,12173,12190,12206,12223,12240,12257,12273,12290,12308,12323,12340,12357,12373,12389,12407,12423,12440,12457,12474,12490,12506,12523,12540,12557,12574,12590,12607,12623,12639,12657,12673,12690,12707,12723,12740,12758,12774,12790,12807,12823,12840,12858,12874,12890,12906,12924,12940,12957,12974,12990,13006,13023,13040,13057,13074,13090,13108,13124,13140,13156,13173,13189,13207,13223,13240,13257,13273,13290,13306,13323,13340,13357,13373,13390,13407,13423,13440,13457,13474,13490,13508,13523,13540,13558,13574,13590,13608,13623,13640,13656,13673,13690,13707,13723,13740,13757,13773,13790,13807,13823,13840,13857,13873,13890,13908,13923,13940,13957,13973,13990,14007,14024,14040,14057,14074,14090,14107,14123,14140,14157,14173,14190,14207,14223,14240,14257,14274,14289,14308,14324,14340,14358,14374,14390,14408,14424,14440,14457,14473,14489,14507,14523,14540,14556,14573,14590,14608,14624,14640,14657,14674,14690,14707,14723,14739,14758,14774,14790,14807,14824,14840,14858,14873,14890,14908,14924,14940,14958,14973,14990,15008,15024,15040,15058,15073,15090,15108,15124,15140,15157,15174,15190,15208,15223,15240,15257,15273,15290,15307,15324,15340,15357,15373,15390,15408,15423,15440,15457,15473,15490,15507,15524,15540,15556,15574,15589,15607,15623,15639,15657,15673,15690,15708,15724,15740,15756,15773,15793,15807,15823,15840,15856,15874,15890,15906,15924,15940,15957,15973,15990,16008,16023,16040,16057,16073,16090,16107,16123,16140,16157,16174,16190,16207,16223,16240,16257,16273,16290,16307,16324,16341,16357,16374,16390,16408,16423,16440,16457,16473,16490,16507,16524,16540,16557,16573,16589,16606,16623,16640,16657,16673,16690,16707,16723,16739,16757,16774,16790,16807,16823,16840,16857,16874,16890,16908,16924,16940,16956,16973,16990,17008,17024,17040,17057,17074,17090,17108,17124,17140,17156,17173,17190,17207,17224,17240,17257,17274,17290,17307,17323,17340,17357,17374,17390,17407,17423,17440,17458,17474,17490,17507,17523,17540,17557,17573,17589,17606,17623,17640,17657,17673,17689,17706,17723,17739,17756,17773,17789,17806,17823,17840,17859,17873,17889,17906,17923,17939,17956,17974,17990,18006,18023,18039,18057,18073,18089,18107,18124,18140,18157,18174,18190,18207,18223,18240,18257,18274,18291,18307,18325,18340,18357,18373,18390,18407,18424,18440,18456,18473,18490,18507,18523,18540,18557,18573,18590,18608,18624,18640,18658,18674,18690,18707,18723,18740,18756,18773,18790,18808,18824,18840,18857,18873,18890,18907,18923,18940,18957,18974,18990,19007,19024,19040,19057,19074,19090,19106,19123,19139,19156,19173,19189,19207,19223,19239,19257,19274,19290,19307,19324,19340,19358,19374,19391,19407,19424,19440,19458,19474,19490,19507,19524,19540,19558,19574,19590,19607,19624,19640,19658,19674,19690,19708,19724,19740,19757,19774,19790,19807,19824,19840,19861],"hit":[null],"x":[-1.3316326530612246,-1.3316326530612246,-1.3316326530612246,-1.3316326530612246,-1.3316326530612246,-1.3316326530612246,-1.3316326530612246,-1.3316326530612246,-1.3316326530612246,-1.3316326530612246,-1.3316326530612246,-1.3316326530612246,-1.3316326530612246,-1.3316326530612246,-1.3316326530612246,-1.3316326530612246,-1.3316326530612246,-1.3316326530612246,-1.3316326530612246,-1.3316326530612246,-1.3316326530612246,-1.3316326530612246,-1.3316326530612246,-1.3316326530612246,-1.3316326530612246,-1.3316326530612246,-1.3316326530612246,-1.3316326530612246,-1.3316326530612246,-1.3316326530612246,-1.3316326530612246,-1.3316326530612246,-1.3316326530612246,-1.3316326530612246,-1.3316326530612246,-1.3316326530612246,-1.3316326530612246,-1.3316326530612246,-1.3316326530612246,-1.3316326530612246,-1.3316326530612246,-1.3316326530612246,-1.3316326530612246,-1.3316326530612246,-1.3316326530612246,-1.3316326530612246,-1.3316326530612246,-1.3316326530612246,-1.3316326530612246,-1.3316326530612246,-1.3316326530612246,-1.3316326530612246,-1.3316326530612246,-1.3316326530612246,-1.3316326530612246,-1.3316326530612246,-1.3316326530612246,-1.3316326530612246,-1.3316326530612246,-1.3316326530612246,-1.3316326530612246,-1.3316326530612246,-1.3316326530612246,-1.3316326530612246,-1.3316326530612246,-1.3316326530612246,-1.3316326530612246,-1.3316326530612246,-1.3316326530612246,-1.3316326530612246,-1.3316326530612246,-1.3316326530612246,-1.3316326530612246,-1.3316326530612246,-1.3316326530612246,-1.3316326530612246,-1.3316326530612246,-1.3316326530612246,-1.3316326530612246,-1.3316326530612246,-1.3316326530612246,-1.3316326530612246,-1.3316326530612246,-1.3316326530612246,-1.3316326530612246,-1.3316326530612246,-1.3316326530612246,-1.3316326530612246,-1.3316326530612246,-1.3316326530612246,-1.3316326530612246,-1.3316326530612246,-1.3316326530612246,-1.3316326530612246,-1.3316326530612246,-1.3316326530612246,-1.3316326530612246,-1.3316326530612246,-1.3316326530612246,-1.3316326530612246,-1.3316326530612246,-1.3316326530612246,-1.3316326530612246,-1.3316326530612246,-1.3316326530612246,-1.3316326530612246,-1.3316326530612246,-1.3316326530612246,-1.3316326530612246,-1.3316326530612246,-1.3316326530612246,-1.3316326530612246,-1.3316326530612246,-1.3316326530612246,-1.3316326530612246,-1.3316326530612246,-1.3316326530612246,-1.3316326530612246,-1.3316326530612246,-1.3316326530612246,-1.3316326530612246,-1.3316326530612246,-1.3316326530612246,-1.3316326530612246,-1.3316326530612246,-1.3316326530612246,-1.3316326530612246,-1.3316326530612246,-1.3316326530612246,-1.3316326530612246,-1.3316326530612246,-1.3316326530612246,-1.3316326530612246,-1.3316326530612246,-1.3316326530612246,-1.3316326530612246,-1.3316326530612246,-1.3316326530612246,-1.3316326530612246,-1.3316326530612246,-1.3316326530612246,-1.3316326530612246,-1.3316326530612246,-1.3316326530612246,-1.3316326530612246,-1.3316326530612246,-1.3316326530612246,-1.3316326530612246,-1.3316326530612246,-1.3316326530612246,-1.3316326530612246,-1.3316326530612246,-1.3316326530612246,-1.3316326530612246,-1.3316326530612246,-1.3316326530612246,-1.3316326530612246,-1.3316326530612246,-1.3316326530612246,-1.3316326530612246,-1.3316326530612246,-1.3316326530612246,-1.3316326530612246,-1.3316326530612246,-1.3316326530612246,-1.3316326530612246,-1.3316326530612246,-1.3316326530612246,-1.3316326530612246,-1.3316326530612246,-1.3316326530612246,-1.3316326530612246,-1.3316326530612246,-1.3316326530612246,-1.3316326530612246,-1.3316326530612246,-1.3316326530612246,-1.3316326530612246,-1.3316326530612246,-1.3316326530612246,-1.3316326530612246,-1.3316326530612246,-1.3316326530612246,-1.3316326530612246,-1.3316326530612246,-1.3316326530612246,-1.3316326530612246,-1.3316326530612246,-1.3316326530612246,-1.3316326530612246,-1.3316326530612246,-1.3316326530612246,-1.3316326530612246,-1.3316326530612246,-1.3316326530612246,-1.3316326530612246,-1.3316326530612246,-1.3316326530612246,-1.3316326530612246,-1.3316326530612246,-1.3316326530612246,-1.3316326530612246,-1.3316326530612246,-1.3316326530612246,-1.3316326530612246,-1.3316326530612246,-1.3316326530612246,0.08163265306122448,0.08503401360544217,0.08843537414965986,0.09183673469387756,0.09523809523809523,0.09523809523809523,0.09863945578231292,0.09863945578231292,0.09863945578231292,0.09863945578231292,0.09863945578231292,0.08163265306122448,0.05782312925170068,0.030612244897959183,0.006802721088435374,-0.02040816326530612,-0.03741496598639456,-0.047619047619047616,-0.05442176870748299,-0.05782312925170068,-0.05782312925170068,-0.05782312925170068,-0.05782312925170068,-0.05782312925170068,-0.05782312925170068,-0.05782312925170068,-0.05782312925170068,-0.05782312925170068,-0.05442176870748299,-0.05102040816326531,-0.047619047619047616,-0.04421768707482993,-0.03741496598639456,-0.030612244897959183,-0.027210884353741496,-0.02040816326530612,-0.017006802721088437,-0.017006802721088437,-0.017006802721088437,-0.017006802721088437,-0.017006802721088437,-0.017006802721088437,-0.017006802721088437,-0.017006802721088437,-0.017006802721088437,-0.017006802721088437,-0.017006802721088437,-0.017006802721088437,-0.017006802721088437,-0.017006802721088437,-0.017006802721088437,-0.017006802721088437,-0.017006802721088437,-0.017006802721088437,-0.017006802721088437,-0.017006802721088437,-0.017006802721088437,-0.017006802721088437,-0.017006802721088437,-0.017006802721088437,-0.017006802721088437,-0.017006802721088437,-0.017006802721088437,-0.017006802721088437,-0.017006802721088437,-0.017006802721088437,-0.017006802721088437,-0.017006802721088437,-0.017006802721088437,-0.017006802721088437,-0.017006802721088437,-0.017006802721088437,-0.017006802721088437,-0.017006802721088437,-0.017006802721088437,-0.017006802721088437,-0.017006802721088437,-0.017006802721088437,-0.017006802721088437,-0.017006802721088437,-0.017006802721088437,-0.017006802721088437,-0.017006802721088437,-0.017006802721088437,-0.017006802721088437,-0.017006802721088437,-0.017006802721088437,-0.017006802721088437,-0.017006802721088437,-0.017006802721088437,-0.017006802721088437,-0.017006802721088437,-0.017006802721088437,-0.017006802721088437,-0.017006802721088437,-0.017006802721088437,-0.017006802721088437,-0.017006802721088437,-0.017006802721088437,-0.017006802721088437,-0.017006802721088437,-0.017006802721088437,-0.017006802721088437,-0.017006802721088437,-0.017006802721088437,-0.017006802721088437,-0.017006802721088437,-0.017006802721088437,-0.017006802721088437,-0.017006802721088437,-0.017006802721088437,-0.017006802721088437,-0.017006802721088437,-0.017006802721088437,-0.017006802721088437,-0.017006802721088437,-0.017006802721088437,-0.017006802721088437,-0.017006802721088437,-0.017006802721088437,-0.017006802721088437,-0.017006802721088437,-0.017006802721088437,-0.017006802721088437,-0.017006802721088437,-0.017006802721088437,-0.017006802721088437,-0.01020408163265306,-0.006802721088435374,-0.003401360544217687,-0.003401360544217687,0,0,0,0.003401360544217687,0.003401360544217687,0.003401360544217687,0.003401360544217687,0.003401360544217687,0.003401360544217687,0.003401360544217687,0.003401360544217687,0.006802721088435374,0.006802721088435374,0.006802721088435374,0.006802721088435374,0.006802721088435374,0.006802721088435374,0.006802721088435374,0.006802721088435374,0.006802721088435374,0.006802721088435374,0.006802721088435374,0.006802721088435374,0.006802721088435374,0.006802721088435374,0.006802721088435374,0.006802721088435374,0.006802721088435374,0.006802721088435374,0.006802721088435374,0.006802721088435374,0.006802721088435374,0.006802721088435374,0.006802721088435374,0.006802721088435374,0.006802721088435374,0.006802721088435374,0.006802721088435374,0.006802721088435374,0.006802721088435374,0.006802721088435374,0.023809523809523808,0.047619047619047616,0.0782312925170068,0.09863945578231292,0.11904761904761904,0.1292517006802721,0.1292517006802721,0.1292517006802721,0.1292517006802721,0.1292517006802721,0.1292517006802721,0.1292517006802721,0.1292517006802721,0.1292517006802721,0.1292517006802721,0.1292517006802721,0.1292517006802721,0.1292517006802721,0.1292517006802721,0.1292517006802721,0.1292517006802721,0.1292517006802721,0.1292517006802721,0.1292517006802721,0.1292517006802721,0.1292517006802721,0.1292517006802721,0.1292517006802721,0.1326530612244898,0.13945578231292516,0.14285714285714285,0.14625850340136054,0.14965986394557823,0.1564625850340136,0.16326530612244897,0.17006802721088435,0.1836734693877551,0.19727891156462585,0.23129251700680273,0.25510204081632654,0.2789115646258503,0.29591836734693877,0.30952380952380953,0.3197278911564626,0.3231292517006803,0.3231292517006803,0.3231292517006803,0.3231292517006803,0.3231292517006803,0.3231292517006803,0.3231292517006803,0.3231292517006803,0.3231292517006803,0.3231292517006803,0.3231292517006803,0.3231292517006803,0.3231292517006803,0.32653061224489793,0.35374149659863946,0.445578231292517,0.5204081632653061,0.5918367346938775,0.6530612244897959,0.7006802721088435,0.7244897959183674,0.7517006802721088,0.7653061224489796,0.7687074829931972,0.7687074829931972,0.7687074829931972,0.7619047619047619,0.7482993197278912,0.7142857142857143,0.6666666666666666,0.5918367346938775,0.5136054421768708,0.41836734693877553,0.3197278911564626,0.2585034013605442,0.1564625850340136,0.1054421768707483,0.0782312925170068,0.061224489795918366,0.05102040816326531,0.047619047619047616,0.047619047619047616,0.047619047619047616,0.047619047619047616,0.047619047619047616,0.05442176870748299,0.07142857142857142,0.09523809523809523,0.12244897959183673,0.1564625850340136,0.19387755102040816,0.21768707482993196,0.24149659863945577,0.25510204081632654,0.2619047619047619,0.2653061224489796,0.2653061224489796,0.2619047619047619,0.24489795918367346,0.23469387755102042,0.22448979591836735,0.22108843537414966,0.21768707482993196,0.21768707482993196,0.21768707482993196,0.23129251700680273,0.2687074829931973,0.2891156462585034,0.30612244897959184,0.3163265306122449,0.3231292517006803,0.3231292517006803,0.3231292517006803,0.3231292517006803,0.3231292517006803,0.3231292517006803,0.32653061224489793,0.3469387755102041,0.3707482993197279,0.3945578231292517,0.42517006802721086,0.445578231292517,0.46258503401360546,0.47619047619047616,0.47959183673469385,0.47959183673469385,0.47278911564625853,0.42517006802721086,0.3945578231292517,0.36394557823129253,0.35034013605442177,0.3469387755102041,0.3469387755102041,0.3469387755102041,0.36394557823129253,0.3843537414965986,0.40476190476190477,0.4523809523809524,0.48299319727891155,0.5068027210884354,0.5170068027210885,0.5238095238095238,0.5272108843537415,0.5272108843537415,0.5306122448979592,0.5306122448979592,0.5340136054421769,0.54421768707483,0.5510204081632653,0.5544217687074829,0.5578231292517006,0.5578231292517006,0.5578231292517006,0.5578231292517006,0.5578231292517006,0.5578231292517006,0.5578231292517006,0.564625850340136,0.5816326530612245,0.5918367346938775,0.6020408163265306,0.6122448979591837,0.6224489795918368,0.6326530612244898,0.6394557823129252,0.6394557823129252,0.6428571428571429,0.6428571428571429,0.6428571428571429,0.6224489795918368,0.5952380952380952,0.5782312925170068,0.5612244897959183,0.5510204081632653,0.5476190476190477,0.54421768707483,0.5408163265306123,0.5408163265306123,0.5408163265306123,0.5408163265306123,0.54421768707483,0.564625850340136,0.6054421768707483,0.6462585034013606,0.6802721088435374,0.717687074829932,0.7414965986394558,0.7585034013605442,0.7585034013605442,0.7653061224489796,0.7653061224489796,0.7653061224489796,0.7551020408163265,0.7414965986394558,0.7278911564625851,0.7210884353741497,0.717687074829932,0.717687074829932,0.717687074829932,0.717687074829932,0.717687074829932,0.717687074829932,0.7244897959183674,0.7312925170068028,0.7346938775510204,0.7380952380952381,0.7380952380952381,0.7380952380952381,0.7380952380952381,0.7380952380952381,0.7346938775510204,0.7346938775510204,0.7346938775510204,0.7346938775510204,0.7346938775510204,0.7448979591836735,0.7517006802721088,0.7585034013605442,0.7653061224489796,0.7687074829931972,0.7721088435374149,0.7721088435374149,0.7721088435374149,0.7721088435374149,0.7721088435374149,0.7721088435374149,0.7721088435374149,0.7721088435374149,0.7721088435374149,0.7721088435374149,0.7721088435374149,0.7721088435374149,0.7721088435374149,0.7721088435374149,0.7721088435374149,0.7721088435374149,0.7721088435374149,0.7721088435374149,0.7721088435374149,0.7721088435374149,0.7721088435374149,0.7789115646258503,0.782312925170068,0.782312925170068,0.7857142857142857,0.7857142857142857,0.7891156462585034,0.7925170068027211,0.8027210884353742,0.8095238095238095,0.8231292517006803,0.8333333333333334,0.8537414965986394,0.8979591836734694,0.9319727891156463,0.95578231292517,0.9761904761904762,0.9897959183673469,0.9965986394557823,0.9965986394557823,1,1.0034013605442176,1.0034013605442176,1.0034013605442176,1.0034013605442176,1,0.9897959183673469,0.9829931972789115,0.9761904761904762,0.9727891156462585,0.9693877551020408,0.9693877551020408,0.9659863945578231,0.9659863945578231,0.9659863945578231,0.9659863945578231,0.9659863945578231,0.9659863945578231,0.9659863945578231,0.9659863945578231,0.9659863945578231,0.9659863945578231,0.9659863945578231,0.9659863945578231,0.9659863945578231,0.9659863945578231,0.9659863945578231,0.9659863945578231,0.9659863945578231,0.9659863945578231,0.9659863945578231,0.9659863945578231,0.9659863945578231,0.9761904761904762,0.9863945578231292,0.9897959183673469,0.9931972789115646,0.9931972789115646,0.9931972789115646,0.9931972789115646,0.9931972789115646,0.9931972789115646,0.9931972789115646,0.9931972789115646,0.9931972789115646,0.9931972789115646,0.9931972789115646,0.9931972789115646,0.9931972789115646,0.9931972789115646,0.9931972789115646,0.9931972789115646,0.9931972789115646,0.9931972789115646,0.9931972789115646,0.9931972789115646,0.9931972789115646,0.9931972789115646,0.9931972789115646,0.9931972789115646,0.9931972789115646,0.9931972789115646,0.9931972789115646,0.9931972789115646,0.9931972789115646,0.9931972789115646,0.9931972789115646,0.9931972789115646,0.9931972789115646,0.9931972789115646,0.9931972789115646,0.9931972789115646,0.9931972789115646,0.9931972789115646,0.9931972789115646,0.9931972789115646,0.9931972789115646,0.9931972789115646,0.9931972789115646,0.9931972789115646,0.9931972789115646,0.9931972789115646,0.9931972789115646,0.9931972789115646,0.9931972789115646,0.9931972789115646,0.9931972789115646,0.9931972789115646,0.9931972789115646,0.9931972789115646,0.9931972789115646,0.9931972789115646,0.9931972789115646,0.9931972789115646,0.9931972789115646,0.9931972789115646,0.9931972789115646,0.9931972789115646,0.9931972789115646,0.9931972789115646,0.9931972789115646,0.9931972789115646,0.9897959183673469,0.9795918367346939,0.9693877551020408,0.9625850340136054,0.95578231292517,0.9489795918367347,0.9489795918367347,0.9489795918367347,0.9455782312925171,0.9421768707482994,0.9387755102040817,0.935374149659864,0.9319727891156463,0.9319727891156463,0.9319727891156463,0.9319727891156463,0.9319727891156463,0.9285714285714286,0.9285714285714286,0.9251700680272109,0.9251700680272109,0.9217687074829932,0.9217687074829932,0.9183673469387755,0.9149659863945578,0.9115646258503401,0.9081632653061225,0.9047619047619048,0.9013605442176871,0.8979591836734694,0.8945578231292517,0.891156462585034,0.8877551020408163,0.8809523809523809,0.8775510204081632,0.8741496598639455,0.8673469387755102,0.8639455782312925,0.8605442176870748,0.8571428571428571,0.8537414965986394,0.8537414965986394,0.8469387755102041,0.8401360544217688,0.8299319727891157,0.8095238095238095,0.7721088435374149,0.6938775510204082,0.6496598639455783,0.5986394557823129,0.5510204081632653,0.5170068027210885,0.48639455782312924,0.46258503401360546,0.4421768707482993,0.43197278911564624,0.4217687074829932,0.4217687074829932,0.4217687074829932,0.4217687074829932,0.4217687074829932,0.4217687074829932,0.4217687074829932,0.4217687074829932,0.4217687074829932,0.4217687074829932,0.4217687074829932,0.4217687074829932,0.4217687074829932,0.4217687074829932,0.4217687074829932,0.42517006802721086,0.43537414965986393,0.445578231292517,0.46938775510204084,0.4965986394557823,0.5136054421768708,0.5374149659863946,0.5476190476190477,0.5510204081632653,0.5544217687074829,0.5544217687074829,0.5544217687074829,0.5544217687074829,0.5544217687074829,0.5544217687074829,0.5544217687074829,0.5544217687074829,0.5510204081632653,0.5510204081632653,0.5510204081632653,0.5476190476190477,0.5476190476190477,0.5476190476190477,0.5476190476190477,0.5476190476190477,0.5476190476190477,0.5476190476190477,0.5476190476190477,0.5476190476190477,0.5476190476190477,0.5476190476190477,0.5476190476190477,0.5476190476190477,0.5476190476190477,0.5476190476190477,0.5476190476190477,0.5476190476190477,0.5476190476190477,0.5476190476190477,0.5476190476190477,0.5476190476190477,0.5476190476190477,0.5476190476190477,0.5476190476190477,0.5476190476190477,0.5476190476190477,0.5476190476190477,0.5476190476190477,0.5476190476190477,0.5476190476190477,0.5476190476190477,0.5476190476190477,0.5476190476190477,0.5476190476190477,0.5476190476190477,0.5476190476190477,0.5476190476190477,0.5476190476190477,0.5476190476190477,0.5476190476190477,0.5476190476190477,0.5476190476190477,0.5476190476190477,0.5476190476190477,0.5476190476190477,0.5476190476190477,0.5476190476190477,0.5476190476190477,0.5476190476190477,0.5476190476190477,0.5476190476190477,0.5476190476190477,0.5476190476190477,0.5476190476190477,0.5476190476190477,0.5476190476190477,0.5476190476190477,0.5476190476190477,0.5476190476190477,0.5476190476190477,0.5476190476190477,0.5476190476190477,0.5476190476190477,0.5476190476190477,0.5476190476190477,0.5476190476190477,0.5476190476190477,0.5476190476190477,0.5476190476190477,0.5476190476190477,0.5306122448979592,0.5136054421768708,0.5,0.48299319727891155,0.46938775510204084,0.4489795918367347,0.43537414965986393,0.41836734693877553,0.40476190476190477,0.3945578231292517,0.3877551020408163,0.3843537414965986,0.3843537414965986,0.3843537414965986,0.38095238095238093,0.37755102040816324,0.3741496598639456,0.3673469387755102,0.36054421768707484,0.35034013605442177,0.3435374149659864,0.3333333333333333,0.32653061224489793,0.3231292517006803,0.3197278911564626,0.3129251700680272,0.30272108843537415,0.2925170068027211,0.2789115646258503,0.2653061224489796,0.25170068027210885,0.22789115646258504,0.22108843537414966,0.20068027210884354,0.19387755102040816,0.1836734693877551,0.18027210884353742,0.17346938775510204,0.16666666666666666,0.16326530612244897,0.1598639455782313,0.1564625850340136,0.1564625850340136,0.15306122448979592,0.15306122448979592,0.15306122448979592,0.15306122448979592,0.15306122448979592,0.15306122448979592,0.15306122448979592,0.15306122448979592,0.15306122448979592,0.15306122448979592,0.15306122448979592,0.15306122448979592,0.15306122448979592,0.15306122448979592,0.15306122448979592,0.15306122448979592,0.15306122448979592,0.15306122448979592,0.15306122448979592,0.15306122448979592,0.15306122448979592,0.15306122448979592,0.15306122448979592,0.15306122448979592,0.15306122448979592,0.15306122448979592,0.15306122448979592,0.15306122448979592,0.15306122448979592,0.15306122448979592,0.15306122448979592,0.15306122448979592,0.15306122448979592,0.1564625850340136,0.1564625850340136,0.1598639455782313,0.1598639455782313,0.16666666666666666,0.17346938775510204,0.1836734693877551,0.19387755102040816,0.2108843537414966,0.22108843537414966,0.23129251700680273,0.24149659863945577,0.25170068027210885,0.2653061224489796,0.282312925170068,0.29931972789115646,0.3163265306122449,0.3435374149659864,0.35714285714285715,0.3741496598639456,0.3945578231292517,0.41836734693877553,0.4523809523809524,0.5034013605442177,0.564625850340136,0.6292517006802721,0.6870748299319728,0.7142857142857143,0.7517006802721088,0.7619047619047619,0.7653061224489796,0.7653061224489796,0.7653061224489796,0.7653061224489796,0.7653061224489796,0.7653061224489796,0.7653061224489796,0.7653061224489796,0.7653061224489796,0.7653061224489796,0.7653061224489796,0.7653061224489796,0.7653061224489796,0.7993197278911565,0.8435374149659864,0.9115646258503401,0.9795918367346939,1.0204081632653061,1.0612244897959184,1.064625850340136,1.0714285714285714,1.0714285714285714,1.0748299319727892,1.0748299319727892,1.0748299319727892,1.0782312925170068,1.0782312925170068,1.0816326530612246,1.0850340136054422,1.08843537414966,1.0952380952380953,1.1020408163265305,1.1054421768707483,1.1088435374149659,1.1122448979591837,1.1122448979591837,1.1122448979591837,1.1122448979591837,1.1122448979591837,1.1122448979591837,1.1122448979591837,1.1122448979591837,1.1122448979591837,1.1122448979591837,1.1122448979591837,1.1122448979591837,1.1122448979591837,1.1122448979591837,1.1122448979591837,1.1122448979591837,1.1122448979591837,1.1122448979591837,1.1122448979591837,1.1122448979591837,1.1088435374149659,1.1088435374149659,1.1088435374149659,1.1088435374149659,1.1088435374149659,1.1088435374149659,1.1088435374149659,1.1088435374149659,1.1088435374149659,1.1088435374149659,1.1088435374149659,1.1088435374149659,1.1088435374149659,1.1088435374149659,1.1088435374149659,1.1088435374149659,1.1088435374149659,1.1122448979591837,1.1122448979591837,1.1156462585034013,1.1156462585034013,1.119047619047619,1.119047619047619,1.119047619047619,1.119047619047619,1.1224489795918366,1.1224489795918366,1.1224489795918366,1.1224489795918366,1.1224489795918366,1.1224489795918366,1.119047619047619,1.1156462585034013,1.1088435374149659,1.098639455782313,1.08843537414966,1.0714285714285714,1.0476190476190477,1.010204081632653,0.9863945578231292,0.9693877551020408,0.9489795918367347,0.9285714285714286,0.9149659863945578,0.891156462585034,0.8809523809523809,0.8639455782312925,0.8503401360544217,0.8401360544217688,0.8333333333333334,0.8333333333333334,0.8299319727891157,0.826530612244898,0.8231292517006803,0.8197278911564626,0.8163265306122449,0.8129251700680272,0.8129251700680272,0.8095238095238095,0.8095238095238095,0.8061224489795918,0.8027210884353742,0.7993197278911565,0.7993197278911565,0.7959183673469388,0.7959183673469388,0.7925170068027211,0.7891156462585034,0.7891156462585034,0.7891156462585034,0.7891156462585034,0.7891156462585034,0.7891156462585034,0.7891156462585034,0.7891156462585034,0.7891156462585034,0.7891156462585034,0.7891156462585034,0.7891156462585034,0.7891156462585034,0.7891156462585034,0.7891156462585034,0.7891156462585034,0.7891156462585034,0.7891156462585034,0.7891156462585034,0.7891156462585034,0.7891156462585034,0.7891156462585034,0.7891156462585034,0.7891156462585034,0.7891156462585034,0.7891156462585034,0.7891156462585034,0.7891156462585034,0.7891156462585034,0.7891156462585034,0.7891156462585034,0.7891156462585034,0.7891156462585034,0.7891156462585034,0.7891156462585034,0.7891156462585034,0.7891156462585034,0.7891156462585034,0.7891156462585034,0.7891156462585034,0.7891156462585034,0.7891156462585034,0.7891156462585034,0.7891156462585034,0.7891156462585034,0.7891156462585034,0.7891156462585034,0.7891156462585034,0.7891156462585034,0.7891156462585034,0.7891156462585034,0.7891156462585034,0.7891156462585034,0.7891156462585034],"y":[-3.472222222222222,-3.472222222222222,-3.472222222222222,-3.472222222222222,-3.472222222222222,-3.472222222222222,-3.472222222222222,-3.472222222222222,-3.472222222222222,-3.472222222222222,-3.472222222222222,-3.472222222222222,-3.472222222222222,-3.472222222222222,-3.472222222222222,-3.472222222222222,-3.472222222222222,-3.472222222222222,-3.472222222222222,-3.472222222222222,-3.472222222222222,-3.472222222222222,-3.472222222222222,-3.472222222222222,-3.472222222222222,-3.472222222222222,-3.472222222222222,-3.472222222222222,-3.472222222222222,-3.472222222222222,-3.472222222222222,-3.472222222222222,-3.472222222222222,-3.472222222222222,-3.472222222222222,-3.472222222222222,-3.472222222222222,-3.472222222222222,-3.472222222222222,-3.472222222222222,-3.472222222222222,-3.472222222222222,-3.472222222222222,-3.472222222222222,-3.472222222222222,-3.472222222222222,-3.472222222222222,-3.472222222222222,-3.472222222222222,-3.472222222222222,-3.472222222222222,-3.472222222222222,-3.472222222222222,-3.472222222222222,-3.472222222222222,-3.472222222222222,-3.472222222222222,-3.472222222222222,-3.472222222222222,-3.472222222222222,-3.472222222222222,-3.472222222222222,-3.472222222222222,-3.472222222222222,-3.472222222222222,-3.472222222222222,-3.472222222222222,-3.472222222222222,-3.472222222222222,-3.472222222222222,-3.472222222222222,-3.472222222222222,-3.472222222222222,-3.472222222222222,-3.472222222222222,-3.472222222222222,-3.472222222222222,-3.472222222222222,-3.472222222222222,-3.472222222222222,-3.472222222222222,-3.472222222222222,-3.472222222222222,-3.472222222222222,-3.472222222222222,-3.472222222222222,-3.472222222222222,-3.472222222222222,-3.472222222222222,-3.472222222222222,-3.472222222222222,-3.472222222222222,-3.472222222222222,-3.472222222222222,-3.472222222222222,-3.472222222222222,-3.472222222222222,-3.472222222222222,-3.472222222222222,-3.472222222222222,-3.472222222222222,-3.472222222222222,-3.472222222222222,-3.472222222222222,-3.472222222222222,-3.472222222222222,-3.472222222222222,-3.472222222222222,-3.472222222222222,-3.472222222222222,-3.472222222222222,-3.472222222222222,-3.472222222222222,-3.472222222222222,-3.472222222222222,-3.472222222222222,-3.472222222222222,-3.472222222222222,-3.472222222222222,-3.472222222222222,-3.472222222222222,-3.472222222222222,-3.472222222222222,-3.472222222222222,-3.472222222222222,-3.472222222222222,-3.472222222222222,-3.472222222222222,-3.472222222222222,-3.472222222222222,-3.472222222222222,-3.472222222222222,-3.472222222222222,-3.472222222222222,-3.472222222222222,-3.472222222222222,-3.472222222222222,-3.472222222222222,-3.472222222222222,-3.472222222222222,-3.472222222222222,-3.472222222222222,-3.472222222222222,-3.472222222222222,-3.472222222222222,-3.472222222222222,-3.472222222222222,-3.472222222222222,-3.472222222222222,-3.472222222222222,-3.472222222222222,-3.472222222222222,-3.472222222222222,-3.472222222222222,-3.472222222222222,-3.472222222222222,-3.472222222222222,-3.472222222222222,-3.472222222222222,-3.472222222222222,-3.472222222222222,-3.472222222222222,-3.472222222222222,-3.472222222222222,-3.472222222222222,-3.472222222222222,-3.472222222222222,-3.472222222222222,-3.472222222222222,-3.472222222222222,-3.472222222222222,-3.472222222222222,-3.472222222222222,-3.472222222222222,-3.472222222222222,-3.472222222222222,-3.472222222222222,-3.472222222222222,-3.472222222222222,-3.472222222222222,-3.472222222222222,-3.472222222222222,-3.472222222222222,-3.472222222222222,-3.472222222222222,-3.472222222222222,-3.472222222222222,-3.472222222222222,-3.472222222222222,-3.472222222222222,-3.472222222222222,-3.472222222222222,-3.472222222222222,-3.472222222222222,-3.472222222222222,-3.472222222222222,-3.472222222222222,-3.472222222222222,-3.472222222222222,-3.472222222222222,-3.472222222222222,-3.472222222222222,-3.472222222222222,-3.472222222222222,-3.472222222222222,-3.472222222222222,-3.472222222222222,0.7468253968253971,0.7468253968253971,0.7468253968253971,0.7468253968253971,0.7468253968253971,0.7373015873015875,0.7373015873015875,0.7373015873015875,0.7373015873015875,0.727777777777778,0.7182539682539685,0.6706349206349208,0.6039682539682542,0.5087301587301589,0.4325396825396827,0.3373015873015875,0.27063492063492084,0.2325396825396827,0.21349206349206368,0.19444444444444461,0.19444444444444461,0.19444444444444461,0.1849206349206351,0.1849206349206351,0.1849206349206351,0.17539682539682558,0.16587301587301606,0.146825396825397,0.13730158730158748,0.12777777777777796,0.11825396825396843,0.11825396825396843,0.11825396825396843,0.10873015873015891,0.10873015873015891,0.09920634920634938,0.08968253968253986,0.08968253968253986,0.08968253968253986,0.08015873015873035,0.08015873015873035,0.08015873015873035,0.08015873015873035,0.08015873015873035,0.08015873015873035,0.08015873015873035,0.08015873015873035,0.08015873015873035,0.08015873015873035,0.08015873015873035,0.08015873015873035,0.08015873015873035,0.08015873015873035,0.08015873015873035,0.08015873015873035,0.08015873015873035,0.08015873015873035,0.08015873015873035,0.08015873015873035,0.08015873015873035,0.08015873015873035,0.08015873015873035,0.08015873015873035,0.08015873015873035,0.08015873015873035,0.08015873015873035,0.08015873015873035,0.08015873015873035,0.08015873015873035,0.08015873015873035,0.08015873015873035,0.08015873015873035,0.08015873015873035,0.08015873015873035,0.08015873015873035,0.08015873015873035,0.08015873015873035,0.08015873015873035,0.08015873015873035,0.08015873015873035,0.08015873015873035,0.08015873015873035,0.08015873015873035,0.08015873015873035,0.08015873015873035,0.08015873015873035,0.08015873015873035,0.08015873015873035,0.08015873015873035,0.08015873015873035,0.08015873015873035,0.08015873015873035,0.08015873015873035,0.08015873015873035,0.08015873015873035,0.08015873015873035,0.08015873015873035,0.08015873015873035,0.08015873015873035,0.08015873015873035,0.08015873015873035,0.08015873015873035,0.08015873015873035,0.08015873015873035,0.08015873015873035,0.08015873015873035,0.08015873015873035,0.08015873015873035,0.08015873015873035,0.08015873015873035,0.08015873015873035,0.08015873015873035,0.08015873015873035,0.08015873015873035,0.08015873015873035,0.08015873015873035,0.08015873015873035,0.08015873015873035,0.08015873015873035,0.08015873015873035,0.08015873015873035,0.08015873015873035,0.08015873015873035,0.08015873015873035,0.08015873015873035,0.08015873015873035,0.08015873015873035,0.08015873015873035,0.08968253968253986,0.08968253968253986,0.08968253968253986,0.08968253968253986,0.08968253968253986,0.08968253968253986,0.08968253968253986,0.09920634920634938,0.09920634920634938,0.09920634920634938,0.09920634920634938,0.09920634920634938,0.09920634920634938,0.09920634920634938,0.09920634920634938,0.10873015873015891,0.10873015873015891,0.10873015873015891,0.10873015873015891,0.10873015873015891,0.10873015873015891,0.10873015873015891,0.10873015873015891,0.10873015873015891,0.10873015873015891,0.10873015873015891,0.10873015873015891,0.10873015873015891,0.10873015873015891,0.10873015873015891,0.10873015873015891,0.10873015873015891,0.10873015873015891,0.10873015873015891,0.10873015873015891,0.11825396825396843,0.146825396825397,0.19444444444444461,0.2325396825396827,0.28015873015873033,0.346825396825397,0.3944444444444446,0.45158730158730176,0.5182539682539684,0.5944444444444447,0.6706349206349208,0.7468253968253971,0.7849206349206351,0.8325396825396827,0.8611111111111113,0.8611111111111113,0.8611111111111113,0.8611111111111113,0.8611111111111113,0.8611111111111113,0.8611111111111113,0.8611111111111113,0.8611111111111113,0.8611111111111113,0.8611111111111113,0.8611111111111113,0.8611111111111113,0.8611111111111113,0.8611111111111113,0.8611111111111113,0.8611111111111113,0.8611111111111113,0.8611111111111113,0.8611111111111113,0.8611111111111113,0.8611111111111113,0.8801587301587304,0.8992063492063493,0.9087301587301589,0.9182539682539684,0.9182539682539684,0.9277777777777779,0.9373015873015875,0.9373015873015875,0.946825396825397,0.946825396825397,0.9563492063492065,0.9563492063492065,0.9563492063492065,0.9658730158730161,0.9658730158730161,0.9658730158730161,0.9658730158730161,0.9658730158730161,0.9658730158730161,0.9658730158730161,0.9658730158730161,0.9658730158730161,0.9658730158730161,0.9658730158730161,0.9658730158730161,0.9658730158730161,0.9658730158730161,0.9658730158730161,0.9658730158730161,0.9658730158730161,0.9658730158730161,0.9658730158730161,0.9563492063492065,0.9373015873015875,0.9373015873015875,0.9277777777777779,0.9277777777777779,0.9182539682539684,0.9182539682539684,0.9087301587301589,0.8992063492063493,0.8992063492063493,0.8896825396825399,0.8706349206349208,0.8134920634920637,0.6706349206349208,0.44206349206349227,0.11825396825396843,-0.2150793650793649,-0.5674603174603173,-0.9103174603174602,-1.0912698412698412,-1.3865079365079362,-1.51031746031746,-1.5769841269841267,-1.6246031746031744,-1.653174603174603,-1.6626984126984126,-1.672222222222222,-1.672222222222222,-1.672222222222222,-1.672222222222222,-1.6817460317460315,-1.691269841269841,-1.7007936507936505,-1.7103174603174602,-1.7103174603174602,-1.7103174603174602,-1.7103174603174602,-1.7103174603174602,-1.7103174603174602,-1.7007936507936505,-1.6817460317460315,-1.6246031746031744,-1.5674603174603172,-1.472222222222222,-1.396031746031746,-1.3388888888888888,-1.3007936507936506,-1.2912698412698411,-1.2817460317460316,-1.2817460317460316,-1.2912698412698411,-1.3388888888888888,-1.3674603174603173,-1.396031746031746,-1.4055555555555554,-1.415079365079365,-1.4246031746031744,-1.4246031746031744,-1.4246031746031744,-1.4246031746031744,-1.434126984126984,-1.434126984126984,-1.434126984126984,-1.434126984126984,-1.4436507936507934,-1.4626984126984126,-1.491269841269841,-1.5198412698412698,-1.5484126984126982,-1.5579365079365077,-1.5674603174603172,-1.5674603174603172,-1.5388888888888888,-1.453174603174603,-1.3388888888888888,-1.253174603174603,-1.1769841269841268,-1.1198412698412696,-1.0912698412698412,-1.0817460317460315,-1.0817460317460315,-1.0912698412698412,-1.215079365079365,-1.3388888888888888,-1.4626984126984126,-1.5198412698412698,-1.5674603174603172,-1.5865079365079364,-1.5865079365079364,-1.5865079365079364,-1.5674603174603172,-1.5293650793650793,-1.4436507936507934,-1.3484126984126983,-1.3007936507936506,-1.2722222222222221,-1.253174603174603,-1.253174603174603,-1.253174603174603,-1.253174603174603,-1.2817460317460316,-1.3198412698412696,-1.3388888888888888,-1.3674603174603173,-1.3769841269841268,-1.3769841269841268,-1.3769841269841268,-1.3674603174603173,-1.3484126984126983,-1.329365079365079,-1.3198412698412696,-1.3007936507936506,-1.2912698412698411,-1.2817460317460316,-1.253174603174603,-1.215079365079365,-1.2055555555555553,-1.1960317460317458,-1.1960317460317458,-1.1960317460317458,-1.1960317460317458,-1.1960317460317458,-1.2055555555555553,-1.2055555555555553,-1.2246031746031745,-1.2436507936507935,-1.253174603174603,-1.2626984126984124,-1.2626984126984124,-1.2626984126984124,-1.2626984126984124,-1.2626984126984124,-1.2626984126984124,-1.2626984126984124,-1.253174603174603,-1.253174603174603,-1.253174603174603,-1.253174603174603,-1.253174603174603,-1.253174603174603,-1.253174603174603,-1.253174603174603,-1.253174603174603,-1.253174603174603,-1.253174603174603,-1.253174603174603,-1.253174603174603,-1.253174603174603,-1.253174603174603,-1.2436507936507935,-1.2436507936507935,-1.2436507936507935,-1.2436507936507935,-1.2436507936507935,-1.2436507936507935,-1.253174603174603,-1.2722222222222221,-1.2912698412698411,-1.31031746031746,-1.3198412698412696,-1.3388888888888888,-1.3484126984126983,-1.3484126984126983,-1.3484126984126983,-1.3579365079365078,-1.3674603174603173,-1.3674603174603173,-1.3674603174603173,-1.3674603174603173,-1.3674603174603173,-1.3674603174603173,-1.3674603174603173,-1.3674603174603173,-1.3674603174603173,-1.3674603174603173,-1.3674603174603173,-1.3674603174603173,-1.3674603174603173,-1.3579365079365078,-1.215079365079365,-1.034126984126984,-0.8150793650793648,-0.4150793650793649,0.0039682539682541484,0.27063492063492084,0.45158730158730176,0.6515873015873017,0.6896825396825399,0.7087301587301589,0.7087301587301589,0.7182539682539685,0.7182539682539685,0.7182539682539685,0.7182539682539685,0.7182539682539685,0.7182539682539685,0.7182539682539685,0.7182539682539685,0.7182539682539685,0.7182539682539685,0.7182539682539685,0.7182539682539685,0.727777777777778,0.7373015873015875,0.7563492063492065,0.7753968253968255,0.8039682539682541,0.8706349206349208,0.9277777777777779,0.9849206349206351,1.0325396825396826,1.0611111111111113,1.0801587301587303,1.0896825396825398,1.0992063492063493,1.0992063492063493,1.0992063492063493,1.0992063492063493,1.0992063492063493,1.0992063492063493,1.0992063492063493,1.0992063492063493,1.0992063492063493,1.0992063492063493,1.0992063492063493,1.0992063492063493,1.0992063492063493,1.0992063492063493,1.0992063492063493,1.0992063492063493,1.0992063492063493,1.0992063492063493,1.0992063492063493,1.0992063492063493,1.0992063492063493,1.0992063492063493,1.0992063492063493,1.0992063492063493,1.0801587301587303,1.0611111111111113,1.0515873015873018,1.0515873015873018,1.0515873015873018,1.0515873015873018,1.0515873015873018,1.0515873015873018,1.0515873015873018,1.0515873015873018,1.0515873015873018,1.0515873015873018,1.0515873015873018,1.0515873015873018,1.0515873015873018,1.0515873015873018,1.0515873015873018,1.0515873015873018,1.0515873015873018,1.0515873015873018,1.0515873015873018,1.0515873015873018,1.0515873015873018,1.0515873015873018,1.0515873015873018,1.0515873015873018,1.0515873015873018,1.0515873015873018,1.0515873015873018,1.0515873015873018,1.0515873015873018,1.0515873015873018,1.0515873015873018,1.0515873015873018,1.0515873015873018,1.0515873015873018,1.0515873015873018,1.0515873015873018,1.0515873015873018,1.0515873015873018,1.0515873015873018,1.0515873015873018,1.0515873015873018,1.0515873015873018,1.0515873015873018,1.0515873015873018,1.0515873015873018,1.0515873015873018,1.0515873015873018,1.0515873015873018,1.0515873015873018,1.0515873015873018,1.0515873015873018,1.0515873015873018,1.0515873015873018,1.0515873015873018,1.0515873015873018,1.0515873015873018,1.0515873015873018,1.0515873015873018,1.0515873015873018,1.0515873015873018,1.0515873015873018,1.0515873015873018,1.0515873015873018,1.0515873015873018,1.0515873015873018,1.0515873015873018,1.0611111111111113,1.0992063492063493,1.127777777777778,1.165873015873016,1.2039682539682541,1.2325396825396828,1.2515873015873018,1.2611111111111113,1.2706349206349208,1.2706349206349208,1.2992063492063495,1.3182539682539685,1.346825396825397,1.3563492063492066,1.3563492063492066,1.3658730158730161,1.3658730158730161,1.3658730158730161,1.3753968253968256,1.3944444444444446,1.403968253968254,1.4134920634920636,1.4230158730158733,1.4325396825396828,1.4420634920634923,1.4515873015873018,1.4706349206349207,1.4992063492063494,1.5182539682539684,1.527777777777778,1.546825396825397,1.565873015873016,1.584920634920635,1.603968253968254,1.6230158730158732,1.6420634920634922,1.670634920634921,1.6801587301587304,1.6992063492063494,1.7182539682539684,1.7277777777777779,1.7373015873015876,1.7373015873015876,1.746825396825397,1.746825396825397,1.746825396825397,1.7087301587301589,1.6230158730158732,1.3658730158730161,1.2039682539682541,0.9944444444444446,0.8039682539682541,0.6706349206349208,0.546825396825397,0.4134920634920637,0.2611111111111113,0.15634920634920654,0.07063492063492081,0.07063492063492081,0.07063492063492081,0.07063492063492081,0.07063492063492081,0.07063492063492081,0.07063492063492081,0.07063492063492081,0.07063492063492081,0.07063492063492081,0.07063492063492081,0.07063492063492081,0.07063492063492081,0.07063492063492081,0.07063492063492081,0.07063492063492081,0.07063492063492081,0.08015873015873035,0.08968253968253986,0.08968253968253986,0.08968253968253986,0.08968253968253986,0.09920634920634938,0.09920634920634938,0.09920634920634938,0.09920634920634938,0.09920634920634938,0.09920634920634938,0.09920634920634938,0.09920634920634938,0.08968253968253986,0.08968253968253986,0.08015873015873035,0.07063492063492081,0.07063492063492081,0.06111111111111129,0.06111111111111129,0.06111111111111129,0.06111111111111129,0.06111111111111129,0.06111111111111129,0.06111111111111129,0.06111111111111129,0.06111111111111129,0.06111111111111129,0.06111111111111129,0.06111111111111129,0.06111111111111129,0.06111111111111129,0.06111111111111129,0.06111111111111129,0.06111111111111129,0.06111111111111129,0.06111111111111129,0.06111111111111129,0.06111111111111129,0.06111111111111129,0.06111111111111129,0.06111111111111129,0.06111111111111129,0.06111111111111129,0.06111111111111129,0.06111111111111129,0.06111111111111129,0.06111111111111129,0.06111111111111129,0.06111111111111129,0.06111111111111129,0.06111111111111129,0.06111111111111129,0.06111111111111129,0.06111111111111129,0.06111111111111129,0.06111111111111129,0.06111111111111129,0.06111111111111129,0.06111111111111129,0.06111111111111129,0.06111111111111129,0.06111111111111129,0.06111111111111129,0.06111111111111129,0.06111111111111129,0.06111111111111129,0.06111111111111129,0.06111111111111129,0.06111111111111129,0.06111111111111129,0.06111111111111129,0.06111111111111129,0.06111111111111129,0.06111111111111129,0.06111111111111129,0.06111111111111129,0.06111111111111129,0.06111111111111129,0.06111111111111129,0.06111111111111129,0.06111111111111129,0.06111111111111129,0.06111111111111129,0.06111111111111129,0.06111111111111129,0.06111111111111129,0.06111111111111129,0.06111111111111129,0.07063492063492081,0.08015873015873035,0.08968253968253986,0.08968253968253986,0.08968253968253986,0.08968253968253986,0.08968253968253986,0.08968253968253986,0.08968253968253986,0.08968253968253986,0.08968253968253986,0.08968253968253986,0.08968253968253986,0.08968253968253986,0.08015873015873035,0.08015873015873035,0.08015873015873035,0.07063492063492081,0.07063492063492081,0.07063492063492081,0.06111111111111129,0.06111111111111129,0.051587301587301765,0.051587301587301765,0.051587301587301765,0.04206349206349225,0.03253968253968272,0.023015873015873198,0.023015873015873198,0.023015873015873198,0.023015873015873198,0.023015873015873198,0.023015873015873198,0.013492063492063673,0.0039682539682541484,-0.005555555555555375,-0.005555555555555375,-0.0150793650793649,-0.0150793650793649,-0.024603174603174422,-0.024603174603174422,-0.03412698412698394,-0.03412698412698394,-0.03412698412698394,-0.03412698412698394,-0.03412698412698394,-0.03412698412698394,-0.03412698412698394,-0.03412698412698394,-0.03412698412698394,-0.03412698412698394,-0.03412698412698394,-0.03412698412698394,-0.03412698412698394,-0.03412698412698394,-0.03412698412698394,-0.03412698412698394,-0.03412698412698394,-0.03412698412698394,-0.03412698412698394,-0.03412698412698394,-0.03412698412698394,-0.03412698412698394,-0.03412698412698394,-0.03412698412698394,-0.03412698412698394,-0.03412698412698394,-0.03412698412698394,-0.03412698412698394,-0.03412698412698394,-0.03412698412698394,-0.03412698412698394,-0.03412698412698394,-0.03412698412698394,-0.03412698412698394,-0.03412698412698394,-0.024603174603174422,-0.005555555555555375,0.0039682539682541484,0.04206349206349225,0.08015873015873035,0.13730158730158748,0.1849206349206351,0.2611111111111113,0.29920634920634936,0.346825396825397,0.3849206349206351,0.4230158730158732,0.4611111111111113,0.4992063492063494,0.527777777777778,0.5563492063492065,0.5849206349206351,0.5944444444444447,0.6134920634920636,0.6325396825396827,0.6420634920634922,0.6706349206349208,0.6992063492063494,0.7373015873015875,0.7753968253968255,0.7944444444444446,0.8134920634920637,0.8230158730158732,0.8230158730158732,0.8230158730158732,0.8230158730158732,0.8230158730158732,0.8230158730158732,0.8230158730158732,0.8230158730158732,0.8230158730158732,0.8230158730158732,0.8230158730158732,0.8230158730158732,0.8230158730158732,0.8230158730158732,0.8230158730158732,0.7944444444444446,0.7563492063492065,0.7087301587301589,0.6611111111111113,0.6611111111111113,0.6420634920634922,0.6420634920634922,0.6420634920634922,0.6325396825396827,0.6325396825396827,0.6325396825396827,0.6325396825396827,0.6325396825396827,0.6325396825396827,0.6325396825396827,0.6230158730158732,0.6230158730158732,0.6230158730158732,0.6230158730158732,0.6230158730158732,0.6230158730158732,0.6230158730158732,0.6230158730158732,0.6134920634920636,0.6134920634920636,0.6039682539682542,0.5944444444444447,0.5944444444444447,0.5944444444444447,0.5849206349206351,0.5849206349206351,0.5849206349206351,0.5849206349206351,0.5849206349206351,0.5849206349206351,0.5849206349206351,0.5849206349206351,0.5849206349206351,0.5849206349206351,0.5849206349206351,0.5849206349206351,0.5849206349206351,0.5849206349206351,0.5849206349206351,0.5849206349206351,0.5849206349206351,0.5849206349206351,0.5849206349206351,0.5849206349206351,0.5849206349206351,0.5849206349206351,0.5849206349206351,0.5849206349206351,0.5849206349206351,0.5849206349206351,0.5849206349206351,0.5849206349206351,0.5849206349206351,0.5849206349206351,0.5849206349206351,0.5944444444444447,0.5944444444444447,0.6039682539682542,0.6134920634920636,0.6230158730158732,0.6230158730158732,0.6420634920634922,0.6611111111111113,0.6706349206349208,0.6896825396825399,0.7182539682539685,0.7468253968253971,0.7849206349206351,0.8230158730158732,0.8801587301587304,0.9277777777777779,0.9944444444444446,1.0801587301587303,1.1753968253968257,1.3373015873015874,1.4325396825396828,1.4992063492063494,1.584920634920635,1.6515873015873017,1.7087301587301589,1.784920634920635,1.8230158730158732,1.8801587301587304,1.927777777777778,1.9563492063492065,1.9753968253968255,1.9753968253968255,1.9849206349206352,1.9849206349206352,1.9849206349206352,1.9944444444444447,1.9944444444444447,1.9944444444444447,1.9944444444444447,1.9944444444444447,1.9944444444444447,2.003968253968254,2.003968253968254,2.003968253968254,2.013492063492064,2.013492063492064,2.013492063492064,2.0230158730158734,2.0230158730158734,2.0230158730158734,2.0230158730158734,2.0230158730158734,2.0230158730158734,2.0230158730158734,2.0230158730158734,2.0230158730158734,2.0230158730158734,2.0230158730158734,2.0230158730158734,2.0230158730158734,2.0230158730158734,2.0230158730158734,2.0230158730158734,2.0230158730158734,2.0230158730158734,2.0230158730158734,2.0230158730158734,2.0230158730158734,2.0230158730158734,2.0230158730158734,2.0230158730158734,2.0230158730158734,2.0230158730158734,2.0230158730158734,2.0230158730158734,2.0230158730158734,2.0230158730158734,2.0230158730158734,2.0230158730158734,2.0230158730158734,2.0230158730158734,2.0230158730158734,2.0230158730158734,2.0230158730158734,2.0230158730158734,2.0230158730158734,2.0230158730158734,2.0230158730158734,2.0230158730158734,2.0230158730158734,2.0230158730158734,2.0230158730158734,2.0230158730158734,2.0230158730158734,2.0230158730158734,2.0230158730158734,2.0230158730158734,2.0230158730158734,2.0230158730158734,2.0230158730158734,2.0230158730158734,2.0230158730158734]},"final_keyboard_state":["A","Z","E","B","R"],"num_clicks":5,"points":15,"cheat":false,"trial_type":"Hangman","trial_index":5,"time_elapsed":225329,"internal_node_id":"0.0-4.0","protocol_sum":"","subject_identifier":109,"subject_sum":[47,202,52,109,182,86,24,113,2,206,128,106,199,50,224,106,98,223,13,187,40,41,229,17,167,112,85,109,57,142,26,110],"subject_pair":54,"STUDY_ID":"669a702db1122fc5150a13ce","PROLIFIC_PID":"6659ca3aede1cd81f25f5d46","SESSION_ID":"669ab1fa99a294475a154665","practice_instructions":1,"leaderboard_instructions":0,"bonus":1,"reveal_word":true,"self_rating":"1","confidence":"94"},{"view_history":"[{\"page_index\":0,\"viewing_time\":4236.4000000059605},{\"page_index\":1,\"viewing_time\":21579.40000000596}]","rt":25817.30000001192,"trial_type":"instructions","trial_index":6,"time_elapsed":251148,"internal_node_id":"0.0-5.0","protocol_sum":"","subject_identifier":109,"subject_sum":[47,202,52,109,182,86,24,113,2,206,128,106,199,50,224,106,98,223,13,187,40,41,229,17,167,112,85,109,57,142,26,110],"subject_pair":54,"STUDY_ID":"669a702db1122fc5150a13ce","PROLIFIC_PID":"6659ca3aede1cd81f25f5d46","SESSION_ID":"669ab1fa99a294475a154665","practice_instructions":1,"leaderboard_instructions":0,"bonus":1,"reveal_word":true,"self_rating":"1","confidence":"94"},{"rt":18650.5,"responses":"{\"Q0\":\"...from <b>a previous session</b> that is part of the upcoming tournament.\"}","question_order":"[0]","trial_type":"survey-multi-choice","trial_index":7,"time_elapsed":269801,"internal_node_id":"0.0-6.0","protocol_sum":"","subject_identifier":109,"subject_sum":[47,202,52,109,182,86,24,113,2,206,128,106,199,50,224,106,98,223,13,187,40,41,229,17,167,112,85,109,57,142,26,110],"subject_pair":54,"correct":false,"test_part":"multichoice_leaderboard","STUDY_ID":"669a702db1122fc5150a13ce","PROLIFIC_PID":"6659ca3aede1cd81f25f5d46","SESSION_ID":"669ab1fa99a294475a154665","practice_instructions":1,"leaderboard_instructions":0,"bonus":1,"reveal_word":true,"self_rating":"1","confidence":"94"},{"view_history":"[{\"page_index\":0,\"viewing_time\":1483.0999999940395}]","rt":1483.4000000059605,"trial_type":"instructions","trial_index":8,"time_elapsed":271285,"internal_node_id":"0.0-7.0-0.0","protocol_sum":"","subject_identifier":109,"subject_sum":[47,202,52,109,182,86,24,113,2,206,128,106,199,50,224,106,98,223,13,187,40,41,229,17,167,112,85,109,57,142,26,110],"subject_pair":54,"STUDY_ID":"669a702db1122fc5150a13ce","PROLIFIC_PID":"6659ca3aede1cd81f25f5d46","SESSION_ID":"669ab1fa99a294475a154665","practice_instructions":1,"leaderboard_instructions":0,"bonus":1,"reveal_word":true,"self_rating":"1","confidence":"94"},{"rt":2212.4000000059605,"responses":"{\"Q0\":\"...from <b>a previous session</b> that is not part of the upcoming tournament.\"}","question_order":"[0]","trial_type":"survey-multi-choice","trial_index":9,"time_elapsed":273499,"internal_node_id":"0.0-7.0-1.0","protocol_sum":"","subject_identifier":109,"subject_sum":[47,202,52,109,182,86,24,113,2,206,128,106,199,50,224,106,98,223,13,187,40,41,229,17,167,112,85,109,57,142,26,110],"subject_pair":54,"correct":true,"test_part":"multichoice_leaderboard","STUDY_ID":"669a702db1122fc5150a13ce","PROLIFIC_PID":"6659ca3aede1cd81f25f5d46","SESSION_ID":"669ab1fa99a294475a154665","practice_instructions":1,"leaderboard_instructions":0,"bonus":1,"reveal_word":true,"self_rating":"1","confidence":"94"},{"view_history":"[{\"page_index\":0,\"viewing_time\":12544.5}]","rt":12544.800000011921,"trial_type":"instructions","trial_index":10,"time_elapsed":286045,"internal_node_id":"0.0-8.0","protocol_sum":"","subject_identifier":109,"subject_sum":[47,202,52,109,182,86,24,113,2,206,128,106,199,50,224,106,98,223,13,187,40,41,229,17,167,112,85,109,57,142,26,110],"subject_pair":54,"STUDY_ID":"669a702db1122fc5150a13ce","PROLIFIC_PID":"6659ca3aede1cd81f25f5d46","SESSION_ID":"669ab1fa99a294475a154665","practice_instructions":1,"leaderboard_instructions":0,"bonus":1,"reveal_word":true,"self_rating":"1","confidence":"94"},{"rt":22651.399999976158,"responses":"{\"Q0\":\"...players' leaderboard position (in terms of <b>points</b>) in an <b>upcoming tournament.</b>\"}","question_order":"[0]","trial_type":"survey-multi-choice","trial_index":11,"time_elapsed":308698,"internal_node_id":"0.0-9.0","protocol_sum":"","subject_identifier":109,"subject_sum":[47,202,52,109,182,86,24,113,2,206,128,106,199,50,224,106,98,223,13,187,40,41,229,17,167,112,85,109,57,142,26,110],"subject_pair":54,"correct":true,"test_part":"multichoice_tournament","STUDY_ID":"669a702db1122fc5150a13ce","PROLIFIC_PID":"6659ca3aede1cd81f25f5d46","SESSION_ID":"669ab1fa99a294475a154665","practice_instructions":1,"leaderboard_instructions":0,"bonus":1,"reveal_word":true,"self_rating":"1","confidence":"94"},{"view_history":"[{\"page_index\":0,\"viewing_time\":14840.699999988079}]","rt":14840.90000000596,"trial_type":"instructions","trial_index":12,"time_elapsed":323539,"internal_node_id":"0.0-11.0","protocol_sum":"","subject_identifier":109,"subject_sum":[47,202,52,109,182,86,24,113,2,206,128,106,199,50,224,106,98,223,13,187,40,41,229,17,167,112,85,109,57,142,26,110],"subject_pair":54,"STUDY_ID":"669a702db1122fc5150a13ce","PROLIFIC_PID":"6659ca3aede1cd81f25f5d46","SESSION_ID":"669ab1fa99a294475a154665","practice_instructions":1,"leaderboard_instructions":0,"bonus":1,"reveal_word":true,"self_rating":"1","confidence":"94"},{"view_history":"[{\"page_index\":0,\"viewing_time\":24229.09999999404}]","rt":24229.19999998808,"trial_type":"instructions","trial_index":13,"time_elapsed":347769,"internal_node_id":"0.0-12.0-0.0","protocol_sum":"","subject_identifier":109,"subject_sum":[47,202,52,109,182,86,24,113,2,206,128,106,199,50,224,106,98,223,13,187,40,41,229,17,167,112,85,109,57,142,26,110],"subject_pair":54,"STUDY_ID":"669a702db1122fc5150a13ce","PROLIFIC_PID":"6659ca3aede1cd81f25f5d46","SESSION_ID":"669ab1fa99a294475a154665","practice_instructions":1,"leaderboard_instructions":0,"bonus":1,"reveal_word":true,"self_rating":"1","confidence":"94"},{"rt":4299.300000011921,"response":"FIG","responses":["FIG"],"trial_type":"type-this","trial_index":14,"time_elapsed":352574,"internal_node_id":"0.0-12.0-1.0","protocol_sum":"","subject_identifier":109,"subject_sum":[47,202,52,109,182,86,24,113,2,206,128,106,199,50,224,106,98,223,13,187,40,41,229,17,167,112,85,109,57,142,26,110],"subject_pair":54,"STUDY_ID":"669a702db1122fc5150a13ce","PROLIFIC_PID":"6659ca3aede1cd81f25f5d46","SESSION_ID":"669ab1fa99a294475a154665","practice_instructions":1,"leaderboard_instructions":0,"bonus":1,"reveal_word":true,"self_rating":"1","confidence":"94"},{"word":"FIG","click_log":{"letter":["","A","E","I","O","U","F","G"],"t":[0,12279.199999988079,13246.09999999404,14878.799999982119,20063,21028.5,33496.69999998808,35412.79999998212],"hit":[null,0,0,1,0,0,1,1],"asked":["","A","AE","AEI","AEIO","AEIOU","AEIOUF","AEIOUFG"],"word_state":["___","___","___","_I_","_I_","_I_","FI_","FIG"]},"hover_log":{"letter":["?","?","?","?","?","?","?","?","?","?","?","?","?","?","?","?","?","?","?","?","?","?","?","?","?","?","?","?","?","?","?","?","?","?","?","?","?","?","?","?","?","?","?","?","?","T","?","?","?","?","?","?","?","?","?","?","?","?","?","?","?","?","?","?","?","?","?","?","?","?","?","T","?","?","?","?","?","?","?","?","?","?","?","?","?","?","?","?","?","?","?","?","?","?","?","?","?","T","?","?","?","?","?","?","?","?","?","?","?","?","?","?","?","?","?","?","?","?","?","?","?","?","?","T","?","?","?","?","?","?","?","?","?","?","?","?","?","?","?","?","?","?","?","?","?","?","?","?","?","T","?","?","?","?","?","?","?","?","?","?","?","?","?","?","?","?","?","?","?","?","?","?","?","?","?","?","?","?","?","?","?","?","?","?","?","?","?","?","?","?","?","?","?","?","?","?","?","?","?","?","?","?","U","?","?","?","?","?","?","?","?","?","?","?","?","?","?","?","?","?","?","?","?","?","?","?","?","?","U","?","?","?","?","?","?","?","?","?","?","?","?","?","?","?","?","?","?","?","?","?","?","?","?","?","U","?","?","?","?","?","?","?","?","?","?","?","?","?","?","?","?","?","?","?","?","?","?","?","?","?","U","?","?","?","?","?","?","?","?","?","?","?","?","?","?","?","?","?","?","?","?","?","?","?","?","?","?","?","?","?","?","?","?","?","?","?","?","?","?","?","?","?","?","?","?","?","?","?","?","?","?","?","?","?","?","?","?","?","?","?","?","?","?","?","?","?","?","?","?","?","?","?","?","?","?","?","?","?","?","?","?","?","?","?","?","?","?","?","?","?","?","?","?","?","?","?","?","?","?","?","?","?","?","?","?","?","?","?","?","?","?","?","?","?","?","?","?","?","?","?","?","?","?","?","?","?","?","?","?","?","?","?","?","?","?","?","?","?","?","?","?","?","?","?","?","?","?","?","?","?","?","?","?","?","?","?","?","?","?","?","?","?","?","?","?","?","?","?","?","?","?","?","?","?","?","?","?","?","?","?","?","?","?","?","?","?","?","?","?","?","?","?","?","?","?","?","?","?","?","?","?","?","?","?","?","?","?","?","?","?","?","?","?","?","?","?","?","?","?","?","?","?","?","?","?","?","?","?","?","?","?","?","?","?","?","?","?","?","?","?","?","?","?","?","?","?","?","?","?","?","?","?","?","?","?","?","?","?","?","?","?","?","?","?","?","?","?","?","?","?","?","?","?","?","?","?","?","?","?","?","?","?","?","?","?","?","?","?","?","?","?","?","?","?","?","?","?","?","?","?","?","?","?","?","?","?","?","?","?","?","?","?","?","?","?","?","?","?","?","?","?","?","?","?","?","?","?","?","?","?","?","?","?","?","?","?","?","?","?","?","?","?","?","?","?","?","?","?","?","?","?","?","?","?","?","?","?","?","?","?","?","?","?","?","?","?","?","?","?","?","?","?","?","?","?","?","?","?","?","?","?","?","?","?","?","?","?","?","?","?","?","?","?","?","?","?","?","?","?","?","?","?","?","?","?","?","?","?","?","?","?","?","?","?","?","?","?","?","?","?","?","?","?","?","?","?","?","?","?","?","?","?","?","?","?","?","?","?","?","?","?","?","?","?","?","?","?","?","?","?","?","?","?","?","?","?","?","?","?","?","?","?","?","?","?","?","?","?","?","?","?","?","?","?","?","?","?","?","?","?","?","?","?","?","?","?","?","?","?","?","?","?","?","?","?","?","?","?","?","?","?","?","?","?","?","?","?","?","?","?","?","?","?","?","?","?","?","?","?","?","?","?","?","?","?","?","?","?","?","?","?","?","?","?","?","?","?","?","?","?","?","?","?","?","?","?","?","?","?","?","?","?","?","?","?","?","?","?","?","?","?","?","?","?","?","?","?","?","?","?","?","?","?","?","?","?","?","?","?","?","?","?","?","?","?","?","?","?","?","?","?","?","?","?","?","?","?","?","?","?","?","?","?","?","?","?","?","?","?","?","?","?","?","?","?","?","?","?","?","?","?","?","?","?","?","?","?","?","?","?","?","?","?","?","?","?","?","?","?","?","?","?","?","?","?","?","?","?","?","?","?","?","?","?","?","?","?","?","?","?","?","?","?","?","?","?","?","?","?","?","?","?","?","?","?","?","?","?","?","?","?","?","?","?","?","?","?","?","?","?","?","?","?","?","?","?","?","?","?","?","?","?","?","?","?","?","?","?","?","?","?","?","?","?","?","?","?","?","?","?","?","?","?","?","?","?","?","?","?","?","?","?","?","?","?","?","?","?","?","?","?","?","?","?","?","?","?","?","?","?","?","?","?","?","?","?","?","?","?","?","?","?","?","?","?","?","?","?","?","?","?","?","?","?","?","?","?","?","?","?","?","?","?","?","?","?","?","?","?","?","?","?","?","?","?","?","?","?","?","?","?","?","?","?","?","?","?","?","?","?","?","?","?","?","?","?","?","?","?","?","?","?","?","?","?","?","?","?","?","?","?","?","?","?","?","?","?","?","?","?","?","?","?","?","?","?","?","?","?","?","?","?","?","?","?","?","?","?","?","?","?","?","?","?","?","?","?","?","?","?","?","?","?","?","?","?","?","?","?","?","?","?","?","?","?","?","?","?","?","?","?","?","?","?","?","?","?","?","?","?","?","?","?","?","?","?","?","?","?","?","?","?","?","?","?","?","?","?","?","?","?","?","?","?","?","?","?","?","?","?","?","?","?","?","?","?","?","?","?","?","?","?","?","?","?","?","?","?","?","?","?","?","?","?","?","?","?","?","?","?","?","?","?","?","?","?","?","?","?","?","?","?","?","?","?","?","?","?","?","?","?","?","?","?","?","?","?","?","?","?","?","?","?","?","?","?","?","?","?","?","?","?","?","?","?","?","?","?","?","?","?","?","?","?","?","?","?","?","?","?","?","?","?","?","?","?","?","?","?","?","?","?","?","?","?","?","?","?","?","?","?","?","?","?","?","?","?","?","?","?","?","?","?","?","?","?","?","?","?","?","?","?","?","?","?","?","?","?","?","?","?","?","?","?","?","?","?","?","?","?","?","?","?","?","?","?","?","?","?","?","?","?","?","?","?","?","?","?","?","?","?","?","?","?","?","?","?","?","?","?","?","?","?","?","?","?","?","?","?","?","?","?","?","?","?","?","?","?","?","?","?","?","?","?","?","?","?","?","?","?","?","?","?","?","?","?","?","?","?","?","?","?","?","?","?","?","?","?","?","?","?","?","?","?","?","?","?","?","?","?","?","?","?","?","?","?","?","?","?","?","?","?","?","?","?","?","?","?","?","?","?","?","?","?","?","?","?","?","?","?","?","?","?","?","?","?","?","?","?","?","?","?","?","?","?","?","?","?","?","?","?","?","?","?","?","?","?","?","?","?","?","?","?","?","?","?","?","?","?","?","?","?","?","?","?","?","?","?","?","?","?","?","?","?","?","?","?","?","?","?","?","?","?","?","?","?","?","?","?","?","?","?","?","?","?","?","?","?","?","?","?","?","?","?","?","?","?","?","?","?","?","?","?","?","?","?","?","?","?","?","?","?","?","?","?","?","?","?","?","?","?","?","?","?","?","?","?","?","?","?","?","?","?","?","?","?","?","?","?","?","?","?","?","?","?","?","?","?","?","?","?","?","?","?","?","?","?","?","?","?","?","?","?","?","?","?","?","?","?","?","?","?","?","?","?","?","?","?","?","?","?","?","?","?","?","?","?","?","?","?","?","?","?","?","?","?","?","?","?","?","?","?","?","?","?","?","?","?","?","?","?","?","?","?","?","?","?","?","?","?","?","?","?","?","?","?","?","?","?","?","?","?","?","?","?","?","?","?","?","?","?","?","?","?","?","?","?","?","?","?","?","?","?","?","?","?","?","?","?","?","?","?","?","?","?","?","?","?","?","?","?","?","?","?","?","?","?","?","?","?","?","?","?","?","?","?","?","?","?","?","?","?","?","?","?","?","?","?","?","?","?","?","?","?","?","?","?","?","?","?","?","?","?","?","?","?","?","?","?","?","?","?","?","?","?","?","?","?","?","?","?","?","?","?","?","?","?","?","?","?","?","?","?","?","?","?","?","?","?","?","?","?","?","?","?","?","?","?","?","?","?","?","?","?","?","?","?","?","?","?","?","?","?","?","?","?","?","?","?","?","?","?","?","?","?","?","?","?","?","?","?","?","?","?","?","?","?","?","?","?","?","?","?","?","?","?","?","?","?","?","?","?","?","?","?","?","?","?","?","?","?","?","?","?","?","?","?","?","?","?","?","?","?","?","?","?","?","?","?","?","?","?","?","?","?","?","?","?","?","?","?","?","?","?","?","?","?","?","?","?","?","?","?","?","?","?","?","?","?","?","?","?","?","?","?","?","?","?","?","?","?","?","?","?","?","?","?","?","?","?","?","?","?","?","?","?","?","?","?","?","?","?","?","?","?","?","?","?","?","?","?","?","?","?","?","?","?","?","?","?","?","?","?","?","?","?","?","?","?","?","?","?","?","?","?","?","?","?","?","?","?","?","?","?","?","?","?","?","?","?","?","?","?","?","?","?","?","?","?","?","?","?","?","?","?","?","?","?","?","?","?","?","?","?","?","?","?","?","?","?","?","?","?","?","?","?","?","?","?","?","?","?","?","?","?","?","?","?","?","?","?","?","?","?","?","?","?","?","?","?","?","?","?","?","?","?","?","?","?","?","?","?","?","?","?","?","?","?","?","?","?","?","?","?","?","?","?","?","?","?","?","?","?","?","?","?","?","?","?","?","?","?","?","?","?","?","?","?","?","?","?","?","?","?","?","?","?","?","?","?","?","?","?","?","?","?","?","?","?","?","?","?","?","?","?","?","?","?","?","?","?","?","?","?","?","?","?","?","?","?","?","?","?","?","?","?","?","?","?","?","?","?","?","?","?","?","?","?","?","?","?","?","?","?","?","?","?","?","?","?","?","?","?","?","?","?","?","?","?","?","?","?","?","?","?","?","?","?","?","?","?","?","?","?","?","?","?","?","?","?","?","?","?","?","?","?","?","?","?","?","?","?","?","?","?","?","?","?","?","?","?","?","?","?","?","?","?","?","?","?","?","?","?","?","?","?","?","?","?","?","?","?","?","?","?","?","?","?","?","?","?","?","?","?","?","?","?","?","?","?","?","?","?","?","?","?","?","?","?","?","?","?","?","?","?","?","?","?","?","?","?","?","?","?","?","?","?","?","?","?","?","?","?","?","?","?","?","?","?","?","?","?","?","?","?","?","?","?","?","?","?","?","?","?","?","?","?","?","?","?","?","?","?","?","?","?","?","?","?","?","?","?","?","?","?","?","?","?","?","?","?","?","?","?","?","?","?","?","?","?","?","?","?","?","?","?","?","?","?","?","?","?","?","?","?","?","?","?","?","?","?","?","?","?","?","?","?","?","?","?","?","?","?","?","?","?","?","?","?","?","?","?","?","?","?","?","?","?","?","?","?","?","?","?","?","?","?","?","?","?","?","?","?","?","?","?","?","?","?","?","?","?","?","?","?","?","?","?","?","?","?","?","?","?","?","?","?","?","?","?","?","?","?","?","?","?","?","?","?","?","?","?","?","?","?","?","?","?","?","?","?","?","?","?","?","?","?","?","?","?","?","?","?","?","?","?","?","?","?","?","?","?","?","?","?","?","?","?","?","?","?","?","?","?","?","?","?","?","?","?","?","?","?","?","?","?","?","?","?","?","?","?","?","?","?","?","?","?","?","?","?","?","?","?","?","?","?","?","?","?","?","?","?","?","?","?","?","?","?","?","?","?","?","?","?","?","?","?","?","?","?","?","?","?","?","?","?","?","?","?","?","?","?","?","?","?","?","?","?","?","?","?","?","?","?","?","?","?","?","?","?","?","?","?","?","?","?","?","?","?","?","?","?","?","?","?","?","?","?","?","?","?","?","?","?","?","?","?","?","?","?","?","?","?","?","?","?","?","?","?","?","?","?","?","?","?","?","?","?","?","?","?","?","?","?","?","?","?","?","?","?","?","?","?","?","?","?","?","?","?","?","?","?","?","?","?","?","?","?","?","?","?","?","?","?","?","?","?","?","?","?","?","?","?","?","?","?","?","?","?","?","?","?","?","?","?","?","?","?","?","?","?","?","?","?","?","?","?","?","?","?","?","?","?","?","?","?","?","?","?","?","?","?","?","?","?","?","?","?","?","?","?","?","?","?","?","?","?","?","?","?","?","?","?","?","?","?","?","?","?","?","?","?","?","?","?","?","?","?","?","?","?","?","?","?","?","?","?","?","?","?","?","?","?","?","?","?","?","?","?","?","?","?","?","?","?","?","?","?","?","?","?","?","?","?","?","?","?","?","?","?","?","?","?","?","?","?","?","?","?","?","?","?","?","?","?","?","?","?","?","?","?","?","?","?","?","?","?","?","?","?","?","?","?","?","?","?","?","?","?","?","?","?","?","?","?","?","?","?","?","?","?","?","?","?","?","?","?","?","?","?","?","?","?","?","?","?","?","?","?","?","?","?","?","?","?","?","?","?","?","?","?","?","?","?","?","?","?","?","?","?","?","?","?","?","?","?","?","?","?","?","?","?","?","?","?","?","?","?","?","?","?","?","?","?","?","?","?","?","?","?","?","?","?","?","?","?","?","?","?","?","?","?","?","?","?","?","?","?","?","?","?","?","?","?","?","?","?","?","?","?","?","?","?","?","?","?","?","?","?","?","?","?","?","?","?","?","?","?","?","?","?","?","?","?","?","?","?","?","?","?","?","?","?","?","?","?","?","?","?","?","?","?","?","?","?","?","?","?","?","?","?","?","?","?","?","?","?","?","?","?","?","?","?","?","?","?","?","?","?","?","?","?","?","?","?","?","?","?","?","?","?","?","?","?","?","?","?","?","?","?","?","?","?","?","?","?","?","?","?","?","?","?","?","?","?","?","?","?","?","?","?","?","?","?","?","?","?","?","?","?","?","?","?","?","?","?","?","?","?","?","?","?","?","?","?","?","?","?","?","?","?","?","?","?","?","?","?","?","?","?","?","?","?","?","?","?","?","?","?","?","?","?","?","?","?","?","?","?","?","?","?","?","?","?","?","?","?","?","?","?","?","?","?","?","?","?","?","?","?","?","?","?","?","?","?","?","?","?","?","?","?","?","?","?","?","?","?","?","?","?","?","?","?","?","?","?","?","?","?","?","?","?","?","?","?","?","?","?","?","?","?","?","?","?","?","?","?","?","?","?","?","?","?","?","?","?","?","?","?","?","?","?","?","?","?","?","?","?","?","?","?","?","?","?","?","?","?","?","?","?","?","?","?","?","?","?","?","?","?","?","?","?","?","?","?","?","?","?","?","?","?","?","?","?","?","?","?","?","?","?","?","?","?","?","?","?","?","?","?","?","?","?","?","?","?","?","?","?","?","?","?","?","?","?","?","?","?","?","?","?","?","?","?","?","?","?","?","?","?","?","?","?","?","?","?","?","?","?","?","?","?","?","?","?","?","?","?","?","?","?","?","?","?","?","?","?","?","?","?","?","?","?","?","?","?","?","?","?","?","?","?","?","?","?","?","?","?","?","?","?","?","?","?","?","?","?","?","?","?","?","?","?","?","?","?","?","?","?","?","?","?","?","?","?","?","?","?","?","?","?","?","?","?","?","?","?","?","?","?","?","?","?","?","?","?","?","?","?","?","?","?","?","?","?","?","?","?","?","?","?","?","?","?","?","?","?","?","?","?","?","?","?","?","?","?","?","?","?","?","?","?","?","?","?","?","?","?","?","?","?","?","?","?","?","?","?","?","?","?","?","?","?","?","?","?","?","?","?","?","?","?","?","?","?","?","?","?","?","?","?","?","?","?","?","?","?","?","?","?","?","?","?","?","?","?","?","?","?","?","?","?","?","?","?","?","?","?","?","?","?","?","?","?","?","?","?","?","?","?","?","?","?","?","?","?","?","?","?","?","?","?","?","?","?","?","?","?","?","?","?","?","?","?","?","?","?","?","?","?","?","?","?","?","?","?","?","?","?","?","?","?","?","?","?","?","?","?","?","?","?","?","?","?","?","?","?","?","?","?","?","?","?","?","?","?","?","?","?","?","?","?","?","?","?","?","?","?","?","?","?","?","?","?","?","?","?","?","?","?","?","?","?","?","?","?","?","?","?","?","?","?","?","?","?","?","?","?","?","?","?","?","?","?","?","?","?","?","?","?","?","?","?","?","?","?","?","?","?","?","?","?","?","?","?","?","?","?","?","?","?","?","?","?","?","?","?","?","?","?","?","?","?","?","?","?","?","?","?","?","?","?","?","?","?","?","?","?","?","?","?","?","?","?","?","?","?","?","?","?","?","?","?","?","?","?","?","?","?","?","?","?","?","?","?","?","?","?","?","?","?","?","?","?","?","?","?","?","?","?","?","?","?","?","?","?","?","?","?","?","?","?","?","?","?","?","?","?","?","?","?","?","?","?","?","?","?","?","?","?","?","?","?","?","?","?","?","?","?","?","?","?","?","?","?","?","?","?","?","?","?","?","?","?","?","?","?","?","?","?","?","?","?","?","?","?","?","?","?","?","?","?","?","?","?","?","?","?","?","?","?","?","?","?","?","?","?","?","?","?","?","?","?","?","?","?","?","?","?","?","?","?","?","?","?","?","?","?","?","?","?","?","?","?","?","?","?","?","?","?","?","?","?","?","?","?","?","?","?","?","?","?","?","?","?","?","?","?","?","?","?","?","?","?","?","?","?","?","?","?","?","?","?","?","?","?","?","?","?","?","?","?","?","?","?","?","?","?","?","?","?","?","?","?","?","?","?","?","?","?","?","?","?","?","?","?","?","?","?","?","?","?","?","?","?","?","?","?","?","?","?","?","?","?","?","?","?","?","?","?","?","?","?","?","?","?","?","?","?","?","?","?","?","?","?","?","?","?","?","?","?","?","?","?","?","?","?","?","?","?","?","?","?","?","?","?","?","?","?","?","?","?","?","?","?","?","?","?","?","?","?","?","?","?","?","?","?","?","?","?","?","?","?","?","?","?","?","?","?","?","?","?","?","?","?","?","?","?","?","?","?","?","?","?","?","?","?","?","?","?","?","?","?","?","?","?","?","?","?","?","?","?","?","?","?","?","?","?","?","?","?","?","?","?","?","?","?","?","?","?","?","?","?","?","?","?","?","?","?","?","?","?","?","?","?","?","?","?","?","?","?","?","?","?","?","?","?","?","?","?","?","?","?","?","?","?","?","?","?","?","?","?","?","?","?","?","?","?","?","?","?","?","?","?","?","?","?","?","?","?","?","?","?","?","?","?","?","?","?","?","?","?","?","?","?","?","?","?","?","?","?","?","?","?","?","?","?","?","?","?","?","?","?","?","?","?","?","?","?","?","?","?","?","?","?","?","?","?","?","?","?","?","?","?","?","?","?","?","?","?","?","?","?","?","?","?","?","?","?","?","?","?","?","?","?","?","?","?","?","?","?","?","?","?","?","?","?","?","?","?","?","?","?","?","?","?","?","?","?","?","?","?","?","?","?","?","?","?","?","?","?","?","?","?","?","?","?","?","?","?","?","?","?","?","?","?","?","?","?","?","?","?","?","?","?","?","?","?","?","?","?","?","?","?","?","?","?","?","?","?","?","?","?","?","?","?","?","?","?","?","?","?","?","?","?","?","?","?","?","?","?","?","?","?","?","?","?","?","?","?","?","?","?","?","?","?","?","?","?","?","?","?","?","?","?","?","?","?","?","?","?","?","?","?","?","?","?","?","?","?","?","?","?","?","?","?","?","?","?","?","?","?","?","?","?","?","?","?","?","?","?","?","?","?","?","?","?","?","?","?","?","?","?","?","?","?","?","?","?","?","?","?","?","?","?","?","?","?","?","?","?","?","?","?","?","?","?","?","?","?","?","?","?","?","?","?","?","?","?","?","?","?","?","?","?","?","?","?","?","?","?","?","?","?","?","?","?","?","?","?","?","?","?","?","?","?","?","?","?","?","?","?","?","?","?","?","?","?","?","?","?","?","?","?","?","?","?","?","?","?","?","?","?","?","?","?","?","?","?","?","?","?","?","?","?","?","?","?","?","?","?","?","?","?","?","?","?","?","?","?","?","?","?","?","?","?","?","?","?","?","?","?","?","?","?","?","?","?","?","?","?","?","?","?","?","?","?","?","?","?","?","?","?","?","?","?","?","?","?","?","?","?","?","?","?","?","?","?","?","?","?","?","?","?","?","?","?","?","?","?","?","?","?","?","?","?","?","?","?","?","?","?","?","?","?","?","?","?","?","?","?","?","?","?","?","?","?","?","?","?","?","?","?","?","?","?","?","?","?","?","?","?","?","?","?","?","?","?","?","?","?","?","?","?","?","?","?","?","?","?","?","?","?","?","?","?","?","?","?","?","?","?","?","?","?","?","?","?","?","?","?","?","?","?","?","?","?","?","?","?","?","?","?","?","?","?","?","?","?","?","?","?","?","?","?","?","?","?","?","?","?","?","?","?","?","?","?","?","?","?","?","?","?","?","?","?","?","?","?","?","?","?","?","?","?","?","?","?","?","?","?","?","?","?","?","?","?","?","?","?","?","?","?","?","?","?","?","?","?","?","?","?","?","?","?","?","?","?","?","?","?","?","?","?","?","?","?","?","?","?","?","?","?","?","?","?","?","?","?","?","?","?","?","?","?","?","?","?","?","?","?","?","?","?","?","?","?","?","?","?","?","?","?","?","?","?","?","?","?","?","?","?","?","?","?","?","?","?","?","?","?","?","?","?","?","?","?","?","?","?","?","?","?","?","?","?","?","?","?","?","?","?","?","?","?","?","?","?","?","?","?","?","?","?","?","?","?","?","?","?","?","?","?","?","?","?","?","?","?","?","?","?","?","?","?","?","?","?","?","?","?","?","?","?","?","?","?","?","?","?","?","?","?","?","?","?","?","?","?","?","?","?","?","?","?","?","?","?","?","?","?","?","?","?","?","?","?","?","?","?","?","?","?","?","?","?","?","?","?","?","?","?","?","?","?","?","?","?","?","?","?","?","?","?","?","?","?","?","?","?","?","?","?","?","?","?","?","?","?","?","?","?","?","?","?","?","?","?","?","?","?","?","?","?","?","?","?","?","?","?","?","?","?","?","?","?","?","?","?","?","?","?","?","?","?","?","?","?","?","?","?","?","?","?","?","?","?","?","?","?","?","?","?","?","?","?","?","?","?","?","?","?","?","?","?","?","?","?","?","?","?","?","?","?","?","?","?","?","?","?","?","?","?","?","?","?","?","?","?","?","?","?","?","?","?","?","?","?","?","?","?","?","?","?","?","?","?","?","?","?","?","?","?","?","?","?","?","?","?","?","?","?","?","?","?","?","?","?","?","?","?","?","?","?","?","?","?","?","?","?","?","?","?","?","?","?","?","?","?","?","?","?","?","?","?","?","?","?","?","?","?","?","?","?","?","?","?","?","?","?","?","?","?","?","?","?","?","?","?","?","?","?","?","?","?","?","?","?","?","?","?","?","?","?","?","?","?","?","?","?","?","?","?","?","?","?","?","?","?","?","?","?","?","?","?","?","?","?","?","?","?","?","?","?","?","?","?","?","?","?","?","?","?","?","?","?","?","?","?","?","?","?","?","?","?","?","?","?","?","?","?","?","?","?","?","?","?","?","?","?","?","?","?","?","?","?","?","?","?","?","?","?","?","?","?","?","?","?","?","?","?","?","?","?","?","?","?","?","?","?","?","?","?","?","?","?","?","?","?","?","?","?","?","?","?","?","?","?","?","?","?","?","?","?","?","?","?","?","?","?","?","?","?","?","?","?","?","?","?","?","?","?","?","?","?","?","?","?","?","?","?","?","?","?","?","?","?","?","?","?","?","?","?","?","?","?","?","?","?","?","?","?","?","?","?","?","?","?","?","?","?","?","?","?","?","?","?","?","?","?","?","?","?","?","?","?","?","?","?","?","?","?","?","?","?","?","?","?","?","?","?","?","?","?","?","?","?","?","?","?","?","?","?","?","?","?","?","?","?","?","?","?","?","?","?","?","?","?","?","?","?","?","?","?","?","?","?","?","?","?","?","?","?","?","?","?","?","?","?","?","?","?","?","?","?","?","?","?","?","?","?","?","?","?","?","?","?","?","?","?","?","?","?","?","?","?","?","?","?","?","?","?","?","?","?","?","?","?","?","?","?","?","?","?","?","?","?","?","?","?","?","?","?","?","?","?","?","?","?","?","?","?","?","?","?","?","?","?","?","?","?","?","?","?","?","?","?","?","?","?","?","?","?","?","?","?","?","?","?","?","?","?","?","?","?","?","?","?","?","?","?","?","?","?","?","?","?","?","?","?","?","?","?","?","?","?","?","?","?","?","?","?","?","?","?","?","?","?","?","?","?","?","?","?","?","?","?","?","?","?","?","?","?","?","?","?","?","?","?","?","?","?","?","?","?","?","?","?","?","?","?","?","?","?","?","?","?","?","?","?","?","?","?","?","?","?","?","?","?","?","?","?","?","?","?","?","?","?","?","?","?","?","?","?","?","?","?","?","?","?","?","?","?","?","?","?","?","?","?","?","?","?","?","?","?","?","?","?","?","?","?","?","?","?","?","?","?","?","?","?","?","?","?","?","?","?","?","?","?","?","?","?","?","?","?","?","?","?","?","?","?","?","?","?","?","?","?","?","?","?","?","?","?","?","?","?","?","?","?","?","?","?","?","?","?","?","?","?","?","?","?","?","?","?","?","?","?","?","?","?","?","?","?","?","?","?","?","?","?","?","?","?","?","?","?","?","?","?","?","?","?","?","?","?","?","?","?","?","?","?","?","?","?","?","?","?","?","?","?","?","?","?","?","?","?","?","?","?","?","?","?","?","?","?","?","?","?","?","?","?","?","?","?","?","?","?","?","?","?","?","?","?","?","?","?","?","?","?","?","?","?","?","?","?","?","?","?","?","?","?","?","?","?","?","?","?","?","?","?","?","?","?","?","?","?","?","?","?","?","?","?","?","?","?","?","?","?","?","?","?","?","?","?","?","?","?","?","?","?","?","?","?","?","?","?","?","?","?","?","?","?","?","?","?","?","?","?","?","?","?","?","?","?","?","?","?","?","?","?","?","?","?","?","?","?","?","?","?","?","?","?","?","?","?","?","?","?","?","?","?","?","?","?","?","?","?","?","?","?","?","?","?","?","?","?","?","?","?","?","?","?","?","?","?","?","?","?","?","?","?","?","?","?","?","?","?","?","?","?","?","?","?","?","?","?","?","?","?","?","?","?","?","?","?","?","?","?","?","?","?","?","?","?","?","?","?","?","?","?","?","?","?","?","?","?","?","?","?","?","?","?","?","?","?","?","?","?","?","?","?","?","?","?","?","?","?","?","?","?","?","?","?","?","?","?","?","?","?","?","?","?","?","?","?","?","?","?","?","?","?","?","?","?","?","?","?","?","?","?","?","?","?","?","?","?","?","?","?","?","?","?","?","?","?","?","?","?","?","?","?","?","?","?","?","?","?","?","?","?","?","?","?","?","?","?","?","?","?","?","?","?","?","?","?","?","?","?","?","?","?","?","?","?","?","?","?","?","?","?","?","?","?","?","?","?","?","?","?","?","?","?","?","?","?","?","?","?","?","?","?","?","?","?","?","?","?","?","?","?","?","?","?","?","?","?","?","?","?","?","?","?","?","?","?","?","?","?","?","?","?","?","?","?","?","?","?","?","?","?","?","?","?","?","?","?","?","?","?","?","?","?","?","?","?","?","?","?","?","?","?","?","?","?","?","?","?","?","?","?","?","?","?","?","?","?","?","?","?","?","?","?","?","?","?","?","?","?","?","?","?","?","?","?","?","?","?","?","?","?","?","?","?","?","?","?","?","?","?","?","?","?","?","?","?","?","?","?","?","?","?","?","?","?","?","?","?","?","?","?","?","?","?","?","?","?","?","?","?","?","?","?","?","?","?","?","?","?","?","?","?","?","?","?","?","?","?","?","?","?","?","?","?","?","?","?","?","?","?","?","?","?","?","?","?","?","?","?","?","?","?","?","?","?","?","?","?","?","?","?","?","?","?","?","?","?","?","?","?","?","?","?","?","?","?","?","?","?","?","?","?","?","?","?","?","?","?","?","?","?","?","?","?","?","?","?","?","?","?","?","?","?","?","?","?","?","?","?","?","?","?","?","?","?","?","?","?","?","?","?","?","?","?","?","?","?","?","?","?","?","?","?","?","?","?","?","?","?","?","?","?","?","?","?","?","?","?","?","?","?","?","?","?","?","?","?","?","?","?","?","?","?","?","?","?","?","?","?","?","?","?","?","?","?","?","?","?","?","?","?","?","?","?","?","?","?","?","?","?","?","?","?","?","?","?","?","?","?","?","?","?","?","?","?","?","?","?","?","?","?","?","?","?","?","?","?","?","?","?","?","?","?","?","?","?","?","?","?","?","?","?","?","?","?","?","?","?","?","?","?","?","?","?","?","?","?","?","?","?","?","?","?","?","?","?","?","?","?","?","?","?","?","?","?","?","?","?","?","?","?","?","?","?","?","?","?","?","?","?","?","?","?","?","?","?","?","?","?","?","?","?","?","?","?","?","?","?","?","?","?","?","?","?","?","?","?","?","?","?","?","?","?","?","?","?","?","?","?","?","?","?","?","?","?","?","?","?","?","?","?","?","?","?","?","?","?","?","?","?","?","?","?","?","?","?","?","?","?","?","?","?","?","?","?","?","?","?","?","?","?","?","?","?","?","?","?","?","?","?","?","?","?","?","?","?","?","?","?","?","?","?","?","?","?","?","?","?","?","?","?","?","?","?","?","?","?","?","?","?","?","?","?","?","?","?","?","?","?","?","?","?","?","?","?","?","?","?","?","?","?","?","?","?","?","?","?","?","?","?","?","?","?","?","?","?","?","?","?","?","?","?","?","?","?","?","?","?","?","?","?","?","?","?","?","?","?","?","?","?","?","?","?","?","?","?","?","?","?","?","?","?","?","?","?","?","?","?","?","?","?","?","?","?","?","?","?","?","?","?","?","?","?","?","?","?","?","?","?","?","?","?","?","?","?","?","?","?","?","?","?","?","?","?","?","?","?","?","?","?","?","?","?","?","?","?","?","?","?","?","?","?","?","?","?","?","?","?","?","?","?","?","?","?","?","?","?","?","?","?","?","?","?","?","?","?","?","?","?","?","?","?","?","?","?","?","?","?","?","?","?","?","?","?","?","?","?","?","?","?","?","?","?","?","?","?","?","?","?","?","?","?","?","?","?","?","?","?","?","?","?","?","?","?","?","?","?","?","?","?","?","?","?","?","?","?","?","?","?","?","?","?","?","?","?","?","?","?","?","?","?","?","?","?","?","?","?","?","?","?","?","?","?","?","?","?","?","?","?","?","?","?","?","?","?","?","?","?","?","?","?","?","?","?","?","?","?","?","?","?","?","?","?","?","?","?","?","?","?","?","?","?","?","?","?","?","?","?","?","?","?","?","?","?","?","?","?","?","?","?","?","?","?","?","?","?","?","?","?","?","?","?","?","?","?","?","?","?","?","?","?","?","?","?","?","?","?","?","?","?","?","?","?","?","?","?","?","?","?","?","?","?","?","?","?","?","?","?","?","?","?","?","?","?","?","?","?","?","?","?","?","?","?","?","?","?","?","?","?","?","?","?","?","?","?","?","?","?","?","?","?","?","?","?","?","?","?","?","?","?","?","?","?","?","?","?","?","?","?","?","?","?","?","?","?","?","?","?","?","?","?","?","?","?","?","?","?","?","?","?","?","?","?","?","?","?","?","?","?","?","?","?","?","?","?","?","?","?","?","?","?","?","?","?","?","?","?","?","?","?","?","?","?","?","?","?","?","?","?","?","?","?","?","?","?","?","?","?","?","?","?","?","?","?","?","?","?","?","?","?","?","?","?","?","?","?","?","?","?","?","?","?","?","?","?","?","?","?","?","?","?","?","?","?","?","?","?","?","?","?","?","?","?","?","?","?","?","?","?","?","?","?","?","?","?","?","?","?","?","?","?","?","?","?","?","?","?","?","?","?","?","?","?","?","?","?","?","?","?","?","?","?","?","?","?","?","?","?","?","?","?","?","?","?","?","?","?","?","?","?","?","?","?","?","?","?","?","?","?","?","?","?","?","?","?","?","?","?","?","?","?","?","?","?","?","?","?","?","?","?","?","?","?","?","?","?","?","?","?","?","?","?","?","?","?","?","?","?","?","?","?","?","?","?","?","?","?","?","?","?","?","?","?","?","?","?","?","?","?","?","?","?","?","?","?","?","?","?","?","?","?","?","?","?","?","?","?","?","?","?","?","?","?","?","?","?","?","?","?","?","?","?","?","?","?","?","?","?","?","?","?","?","?","?","?","?","?","?","?","?","?","?","?","?","?","?","?","?","?","?","?","?","?","?","?","?","?","?","?","?","?","?","?","?","?","?","?","?","?","?","?","?","?","?","?","?","?","?","?","?","?","?","?","?","?","?","?","?","?","?","?","?","?","?","?","?","?","?","?","?","?","?","?","?","?","?","?","?","?","?","?","?","?","?","?","?","?","?","?","?","?","?","?","?","?","?","?","?","?","?","?","?","?","?","?","?","?","?","?","?","?","?","?","?","?","?","?","?","?","?","?","?","?","?","?","?","?","?","?","?","?","?","?","?","?","?","?","?","?","?","?","?","?","?","?","?","?","?","?","?","?","?","?","?","?","?","?","?","?","?","?","?","?","?","?","?","?","?","?","?","?","?","?","?","?","?","?","?","?","?","?","?","?","?","?","?","?","?","?","?","?","?","?","?","?","?","?","?","?","?","?","?","?","?","?","?","?","?","?","?","?","?","?","?","?","?","?","?","?","?","?","?","?","?","?","?","?","?","?","?","?","?","?","?","?","?","?","?","?","?","?","?","?","?","?","?","?","?","?","?","?","?","?","?","?","?","?","?","?","?","?","?","?","?","?","?","?","?","?","?","?","?","?","?","?","?","?","?","?","?","?","?","?","?","?","?","?","?","?","?","?","?","?","?","?","?","?","?","?","?","?","?","?","?","?","?","?","?","?","?","?","?","?","?","?","?","?","?","?","?","?","?","?","?","?","?","?","?","?","?","?","?","?","?","?","?","?","?","?","?","?","?","?","?","?","?","?","?","?","?","?","?","?","?","?","?","?","?","?","?","?","?","?","?","?","?","?","?","?","?","?","?","?","?","?","?","?","?","?","?","?","?","?","?","?","?","?","?","?","?","?","?","?","?","?","?","?","?","?","?","?","?","?","?","?","?","?","?","?","?","?","?","?","?","?","?","?","?","?","?","?","?","?","?","?","?","?","?","?","?","?","?","?","?","?","?","?","?","?","?","?","?","?","?","?","?","?","?","?","?","?","?","?","?","?","?","?","?","?","?","?","?","?","?","?","?","?","?","?","?","?","?","?","?","?","?","?","?","?","?","?","?","?","?","?","?","?","?","?","?","?","?","?","?","?","?","?","?","?","?","?","?","?","?","?","?","?","?","?","?","?","?","?","?","?","?","?","?","?","?","?","?","?","?","?","?","?","?","?","?","?","?","?","?","?","?","?","?","?","?","?","?","?","?","?","?","?","?","?","?","?","?","?","?","?","?","?","?","?","?","?","?","?","?","?","?","?","?","?","?","?","?","?","?","?","?","?","?","?","?","?","?","?","?","?","?","?","?","?","?","?","?","?","?","?","?","?","?","?","?","?","?","?","?","?","?","?","?","?","?","?","?","?","?","?","?","?","?","?","?","?","?","?","?","?","?","?","?","?","?","?","?","?","?","?","?","?","?","?","?","?","?","?","?","?","?","?","?","?","?","?","?","?","?","?","?","?","?","?","?","?","?","?","?","?","?","?","?","?","?","?","?","?","?","?","?","?","?","?","?","?","?","?","?","?","?","?","?","?","?","?","?","?","?","?","?","?","?","?","?","?","?","?","?","?","?","?","?","?","?","?","?","?","?","?","?","?","?","?","?","?","?","?","?","?","?","?","?","?","?","?","?","?","?","?","?","?","?","?","?","?","?","?","?","?","?","?","?","?","?","?","?","?","?","?","?","?","?","?","?","?","?","?","?","?","?","?","?","?","?","?","?","?","?","?","?","?","?","?","?","?","?","?","?","?","?","?",