[{"success":true,"trial_type":"fullscreen","trial_index":0,"time_elapsed":2398,"internal_node_id":"0.0-0.0","protocol_sum":"","subject_identifier":405,"subject_sum":[193,126,218,174,134,228,1,106,88,62,9,133,130,246,219,243,236,202,222,142,248,55,71,223,155,166,23,222,217,211,19,9],"subject_pair":202,"STUDY_ID":"66a22c0758a3d5c9d26873c6","PROLIFIC_PID":"66749596518f556e28f505d9","SESSION_ID":"66a2670ac3245bf4e6427e2b","practice_instructions":1,"leaderboard_instructions":0,"bonus":0,"reveal_word":true,"self_rating":"1","confidence":"69"},{"view_history":"[{\"page_index\":0,\"viewing_time\":2518.300000011921}]","rt":2518.5,"trial_type":"instructions","trial_index":1,"time_elapsed":4917,"internal_node_id":"0.0-1.0","protocol_sum":"","subject_identifier":405,"subject_sum":[193,126,218,174,134,228,1,106,88,62,9,133,130,246,219,243,236,202,222,142,248,55,71,223,155,166,23,222,217,211,19,9],"subject_pair":202,"STUDY_ID":"66a22c0758a3d5c9d26873c6","PROLIFIC_PID":"66749596518f556e28f505d9","SESSION_ID":"66a2670ac3245bf4e6427e2b","practice_instructions":1,"leaderboard_instructions":0,"bonus":0,"reveal_word":true,"self_rating":"1","confidence":"69"},{"view_history":"[{\"page_index\":0,\"viewing_time\":11330.59999999404}]","rt":11330.79999999702,"trial_type":"instructions","trial_index":2,"time_elapsed":16248,"internal_node_id":"0.0-2.0-0.0","protocol_sum":"","subject_identifier":405,"subject_sum":[193,126,218,174,134,228,1,106,88,62,9,133,130,246,219,243,236,202,222,142,248,55,71,223,155,166,23,222,217,211,19,9],"subject_pair":202,"STUDY_ID":"66a22c0758a3d5c9d26873c6","PROLIFIC_PID":"66749596518f556e28f505d9","SESSION_ID":"66a2670ac3245bf4e6427e2b","practice_instructions":1,"leaderboard_instructions":0,"bonus":0,"reveal_word":true,"self_rating":"1","confidence":"69"},{"rt":4475.29999999702,"responses":"{\"Q0\":\"... reveal the word with as <b>few letter guesses</b> as possible\"}","question_order":"[0]","trial_type":"survey-multi-choice","trial_index":3,"time_elapsed":20725,"internal_node_id":"0.0-2.0-1.0","protocol_sum":"","subject_identifier":405,"subject_sum":[193,126,218,174,134,228,1,106,88,62,9,133,130,246,219,243,236,202,222,142,248,55,71,223,155,166,23,222,217,211,19,9],"subject_pair":202,"correct":true,"test_part":"multichoice_nonpretend","STUDY_ID":"66a22c0758a3d5c9d26873c6","PROLIFIC_PID":"66749596518f556e28f505d9","SESSION_ID":"66a2670ac3245bf4e6427e2b","practice_instructions":1,"leaderboard_instructions":0,"bonus":0,"reveal_word":true,"self_rating":"1","confidence":"69"},{"view_history":"[{\"page_index\":0,\"viewing_time\":1041.7000000029802}]","rt":1041.9000000059605,"trial_type":"instructions","trial_index":4,"time_elapsed":21767,"internal_node_id":"0.0-3.0","protocol_sum":"","subject_identifier":405,"subject_sum":[193,126,218,174,134,228,1,106,88,62,9,133,130,246,219,243,236,202,222,142,248,55,71,223,155,166,23,222,217,211,19,9],"subject_pair":202,"STUDY_ID":"66a22c0758a3d5c9d26873c6","PROLIFIC_PID":"66749596518f556e28f505d9","SESSION_ID":"66a2670ac3245bf4e6427e2b","practice_instructions":1,"leaderboard_instructions":0,"bonus":0,"reveal_word":true,"self_rating":"1","confidence":"69"},{"word":"ZEBRA","click_log":{"letter":["","E","Z","B","R","A"],"t":[0,2965.5999999940395,7176.79999999702,8342.39999999106,9400.89999999106,10183.70000000298],"hit":[null,1,1,1,1,1],"asked":["","E","EZ","EZB","EZBR","EZBRA"],"word_state":["_____","_E___","ZE___","ZEB__","ZEBR_","ZEBRA"]},"hover_log":{"letter":["?","?","?","?","?","?","?","?","?","?","?","?","?","?","?","?","?","?","?","?","?","?","?","?","?","?","?","?","?","?","?","?","?","?","?","?","?","?","?","?","?","?","?","?","?","?","?","?","?","?","?","?","?","?","?","?","?","?","?","?","?","?","?","?","?","?","?","?","?","?","?","?","?","?","?","?","?","?","?","?","?","?","?","?","?","?","?","?","?","?","?","?","?","?","?","?","?","?","?","?","?","?","?","?","?","?","?","?","?","?","?","?","?","?","?","?","?","?","?","?","?","?","?","?","?","?","?","?","?","?","?","?","?","?","?","?","?","?","?","?","?","?","?","?","?","?","?","?","?","?","?","F","F","F","?","?","?","?","?","?","?","?","?","?","N","N","N","N","N","N","N","N","N","N","N","N","N","N","N","N","?","M","M","M","?","?","?","?","?","?","D","D","D","D","D","D","D","?","E","E","E","E","E","E","E","E","E","E","E","E","E","E","E","E","E","E","E","E","E","E","E","E","E","E","E","E","E","E","E","E","E","E","E","E","E","E","E","E","E","E","E","E","E","E","E","E","E","E","E","E","E","E","E","?","?","?","O","?","X","X","X","?","?","?","?","?","?","?","?","?","?","?","?","?","?","?","?","?","?","?","?","?","?","?","?","?","?","?","?","?","?","?","?","?","?","?","?","?","?","?","?","?","?","?","?","?","?","?","?","?","?","?","?","?","?","?","?","?","?","?","?","?","?","?","?","?","?","?","?","?","?","?","?","?","?","?","?","?","?","?","?","?","?","?","?","?","?","?","?","?","?","?","?","?","?","?","?","?","?","?","?","?","?","?","?","?","?","?","?","?","?","?","?","?","?","?","X","X","X","X","X","X","X","X","X","X","X","X","X","?","?","?","?","?","?","?","?","?","?","?","?","?","?","?","?","?","?","?","?","?","?","?","?","?","?","?","?","?","?","?","?","?","?","?","?","?","?","?","?","?","?","?","?","?","?","?","?","?","?","?","?","?","?","?","?","?","?","?","?","?","?","?","?","?","?","?","?","?","?","?","?","?","?","?","?","?","?","?","?","?","?","?","?","?","?","?","?","?","?","?","?","?","?","?","?","?","?","?","?","?","?","?","?","?","?","?","?","?","?","?","?","?","?","?","?","?","?","?","?","?","?","?","X","X","X","X","X","?","?","?","?","?","?","?","X","X","X","X","X","?","?","Y","Y","Y","Y","Y","Y","Y","?","?","Z","Z","Z","Z","Z","Z","Z","Z","Z","Z","Z","Z","Z","Z","Z","Z","Z","Z","Z","Z","Z","Z","Z","Z","Z","Z","Z","Z","Z","Z","Z","Z","Z","Z","Z","Z","Z","Z","Z","Z","Z","Z","Z","Z","Z","Z","Z","Z","Z","Z","Z","Z","Z","Z","Z","Z","Z","Z","Z","Z","Z","Z","Z","Z","?","Y","Y","?","?","O","O","?","?","?","?","D","D","D","D","D","D","D","D","D","?","?","?","?","C","?","?","?","?","?","?","?","?","B","B","B","B","B","B","B","B","B","B","B","B","B","B","B","B","B","B","B","B","B","B","B","B","B","B","B","B","B","B","B","B","B","B","B","B","B","B","B","?","?","?","?","?","?","M","M","M","N","N","N","N","N","?","O","O","O","O","O","O","?","P","P","P","P","P","P","P","P","P","P","P","P","P","?","?","Q","Q","Q","Q","Q","Q","?","R","R","R","R","R","R","R","R","R","R","R","R","R","R","R","R","R","R","R","R","R","R","R","R","R","R","R","R","R","R","R","?","?","?","?","?","?","E","D","D","C","C","C","?","?","?","?","?","?","?","?","B","B","B","B","B","?","?","?","?","?","?","?","?","A","A","A","A","A","A","A","A","A","A","A","A","A","A","A","A","A","A","A","A","A","A","A","A","A","A","A","A","A","A","A","A","A","?","?","K","K","?","?","?","?","?","?","?","?","?","?","?","?","?","?","?","?","?","?","?","?","?","?","?","?","?","?","?","?","?","?","?","?","?","?","?","?","?","?","?","?","?","?","?","?","?","?","?","?","?","?","?","?","?","?","?","?","?","?","?","?","?","?","?","?","?","?","?","?","?","?","?","?","?","?","?","?","?","?","?","?","?","?","?","?","?","?","?","?","?","?","?","?","?","?","?","?","?","?","?","?","?","?","?","?","?","?","?","?","?","?","?","?","?","?","?","?","?","?","?","?","?","?","?","?","?","?","?","?","?","?","?","?","?","?","?","?","?","?","?","?","?","?","?","?"],"t":[26,32,45,57,70,82,95,107,120,132,144,157,170,182,194,207,219,233,246,258,270,282,294,307,319,332,344,357,369,382,394,407,419,433,449,461,473,486,498,511,523,536,548,561,574,587,599,611,623,636,648,661,673,686,699,711,724,736,749,761,774,786,799,811,823,836,848,861,873,886,898,911,923,936,948,961,973,986,998,1011,1023,1036,1050,1065,1077,1090,1103,1115,1128,1140,1153,1165,1178,1190,1202,1215,1228,1240,1253,1265,1278,1290,1303,1315,1328,1340,1352,1365,1378,1391,1402,1415,1427,1440,1452,1465,1477,1490,1502,1515,1527,1540,1553,1565,1578,1590,1602,1615,1627,1640,1652,1665,1677,1690,1703,1715,1728,1740,1752,1765,1777,1790,1802,1815,1827,1840,1852,1865,1877,1890,1902,1916,1927,1940,1952,1965,1977,1990,2002,2015,2027,2040,2052,2065,2077,2090,2102,2115,2127,2140,2152,2165,2177,2190,2202,2215,2227,2240,2252,2265,2277,2290,2302,2315,2327,2341,2352,2365,2378,2390,2403,2415,2427,2440,2452,2465,2477,2490,2502,2515,2527,2540,2552,2565,2577,2590,2602,2615,2627,2640,2652,2665,2677,2690,2702,2715,2727,2740,2752,2765,2777,2790,2802,2815,2827,2840,2853,2865,2878,2892,2905,2919,2931,2944,2956,2969,2982,2994,3007,3019,3031,3044,3056,3069,3081,3094,3106,3119,3131,3145,3157,3169,3181,3194,3206,3219,3232,3244,3257,3269,3281,3294,3306,3319,3332,3344,3356,3369,3381,3394,3406,3419,3431,3444,3456,3469,3481,3494,3506,3519,3531,3544,3556,3569,3581,3594,3607,3619,3631,3644,3657,3669,3682,3694,3707,3719,3732,3745,3757,3769,3782,3794,3806,3819,3831,3844,3856,3869,3881,3894,3906,3919,3931,3944,3956,3970,3985,3998,4011,4023,4035,4048,4060,4073,4086,4098,4110,4123,4136,4148,4161,4173,4185,4198,4210,4225,4240,4252,4265,4277,4290,4302,4315,4327,4340,4352,4365,4377,4390,4402,4415,4427,4440,4452,4465,4477,4490,4502,4514,4527,4540,4552,4564,4577,4590,4602,4615,4627,4640,4653,4669,4682,4694,4707,4719,4731,4744,4756,4769,4781,4794,4806,4819,4831,4844,4856,4869,4881,4894,4906,4919,4931,4944,4956,4969,4981,4994,5006,5019,5031,5044,5056,5069,5081,5094,5106,5119,5131,5144,5156,5168,5181,5194,5206,5219,5231,5244,5256,5269,5281,5295,5312,5327,5340,5352,5365,5377,5389,5402,5414,5427,5439,5452,5464,5477,5490,5502,5515,5527,5539,5552,5564,5577,5589,5603,5614,5627,5640,5656,5669,5681,5694,5706,5718,5731,5743,5756,5768,5781,5794,5806,5818,5831,5843,5856,5868,5881,5894,5906,5918,5931,5943,5956,5968,5982,5998,6010,6023,6035,6048,6060,6073,6085,6098,6110,6122,6135,6148,6161,6175,6190,6202,6215,6227,6239,6252,6264,6277,6289,6302,6314,6327,6339,6352,6364,6377,6389,6402,6414,6427,6439,6452,6464,6477,6489,6502,6514,6527,6539,6552,6564,6577,6589,6602,6614,6627,6639,6652,6664,6677,6689,6702,6714,6727,6739,6753,6769,6781,6794,6806,6819,6831,6843,6856,6868,6881,6893,6906,6918,6931,6943,6956,6968,6981,6993,7008,7022,7035,7048,7060,7073,7085,7097,7110,7122,7135,7147,7160,7172,7185,7197,7210,7222,7235,7247,7260,7272,7285,7297,7310,7322,7335,7350,7364,7377,7389,7402,7414,7427,7439,7452,7464,7477,7489,7502,7514,7527,7539,7551,7564,7577,7589,7602,7614,7627,7639,7652,7664,7677,7689,7702,7714,7727,7739,7752,7764,7777,7789,7802,7814,7827,7839,7852,7864,7877,7889,7902,7914,7927,7939,7952,7964,7977,7989,8001,8014,8027,8040,8056,8069,8081,8094,8106,8118,8131,8143,8156,8168,8181,8193,8206,8218,8231,8243,8256,8268,8281,8294,8306,8318,8331,8343,8356,8368,8383,8398,8410,8422,8435,8447,8460,8474,8489,8502,8514,8527,8539,8552,8566,8581,8594,8606,8618,8631,8643,8656,8668,8681,8693,8706,8718,8731,8743,8756,8768,8781,8793,8806,8819,8831,8843,8855,8868,8881,8893,8906,8918,8931,8943,8956,8968,8981,8993,9006,9018,9031,9043,9056,9068,9081,9093,9105,9118,9131,9143,9156,9168,9181,9193,9206,9218,9230,9243,9256,9268,9281,9293,9306,9318,9331,9343,9355,9368,9381,9393,9406,9418,9431,9443,9456,9468,9481,9493,9506,9518,9532,9547,9560,9572,9585,9597,9610,9622,9635,9647,9660,9672,9685,9697,9710,9722,9735,9747,9760,9772,9785,9797,9810,9822,9836,9852,9864,9877,9889,9902,9914,9927,9939,9951,9964,9976,9989,10001,10014,10026,10039,10051,10064,10076,10089,10101,10114,10126,10139,10151,10164,10176,10189,10201,10214,10226,10241,10256,10268,10281,10293,10306,10318,10330,10343,10356,10368,10381,10393,10405,10418,10430,10443,10455,10468,10480,10493,10505,10518,10530,10545,10560,10572,10585,10597,10609,10622,10635,10647,10660,10672,10685,10697,10710,10723,10735,10747,10760,10774,10789,10802,10814,10826,10839,10851,10864,10876,10889,10901,10914,10926,10939,10951,10964,10976,10989,11001,11014,11026,11039,11051,11064,11076,11089,11105,11118,11131,11143,11155,11168,11180,11193,11205,11218,11230,11243,11257,11272,11284,11297,11309,11323,11339,11351,11364,11377,11389,11401,11414,11426,11439,11451,11464,11476,11489,11501,11514,11526,11539,11551,11564,11576,11588,11601,11614,11626,11638,11653,11668,11680,11693,11705,11718,11730,11743,11755,11768,11780,11793,11805,11818,11830,11843,11855,11868,11881,11895,11910,11922,11934,11947,11959,11972,11984,11997,12009,12022,12034,12047,12059,12072,12085,12097,12109,12123,12134,12147,12159,12172,12185],"hit":[null],"x":[-2.3316326530612246,-2.3316326530612246,-2.3316326530612246,-2.3316326530612246,-0.5107709923569037,-0.5107709923569037,-0.5039682712684683,-0.49376418963581525,-0.4835601080031622,-0.4597505841936384,-0.4325396998398969,-0.39172337330928464,-0.34070296514601933,-0.28287983589431864,-0.23526078827527105,-0.1944444617446588,-0.17063493793513498,-0.15362813521404656,-0.14682541412561118,-0.14002269303717582,-0.14002269303717582,-0.14002269303717582,-0.14002269303717582,-0.14002269303717582,-0.14002269303717582,-0.14342405358139348,-0.16043085630248194,-0.17743765902357037,-0.19784582228887648,-0.21145126446574725,-0.2216553460984003,-0.22845806718683567,-0.23526078827527105,-0.23526078827527105,-0.23526078827527105,-0.23526078827527105,-0.23526078827527105,-0.23526078827527105,-0.23526078827527105,-0.23526078827527105,-0.23526078827527105,-0.23526078827527105,-0.22845806718683567,-0.21485262500996494,-0.20124718283309417,-0.17743765902357037,-0.15362813521404656,-0.12641725086030506,-0.09580500596234588,-0.06519276106438669,-0.03798187671064519,-0.02097507398955676,-0.017573713445339072,-0.024376434533774447,-0.041383237254862884,-0.07539684269703975,-0.12301589031608737,-0.17403629847935267,-0.17403629847935267,-0.17403629847935267,-0.17403629847935267,-0.17403629847935267,-0.17403629847935267,-0.17403629847935267,-0.17403629847935267,-0.17403629847935267,-0.17403629847935267,-0.17403629847935267,-0.17403629847935267,-0.17403629847935267,-0.17403629847935267,-0.17403629847935267,-0.17403629847935267,-0.17403629847935267,-0.17403629847935267,-0.17743765902357037,-0.18083901956778806,-0.18764174065622344,-0.18764174065622344,-0.1910431012004411,-0.1910431012004411,-0.1910431012004411,-0.1910431012004411,-0.1910431012004411,-0.1910431012004411,-0.1944444617446588,-0.1944444617446588,-0.19784582228887648,-0.20124718283309417,-0.20464854337731186,-0.20464854337731186,-0.20464854337731186,-0.20464854337731186,-0.1944444617446588,-0.18424038011200575,-0.16043085630248194,-0.13321997194874044,-0.09580500596234588,-0.05158731888751594,0.006235810364184737,0.06405893961588542,0.13208615050023917,0.1967120008403752,0.26814057226894666,0.3259637015206473,0.3803854702281303,0.4212017967587426,0.45181404165670175,0.4688208443777902,0.4790249260104432,0.4892290076430963,0.5062358103641847,0.5266439736294909,0.5538548579832323,0.5776643817927561,0.6048752661464977,0.6286847899560215,0.6388888715886746,0.6422902321328923,0.6422902321328923,0.6422902321328923,0.6422902321328923,0.6422902321328923,0.6422902321328923,0.6422902321328923,0.6422902321328923,0.6422902321328923,0.6422902321328923,0.6422902321328923,0.6422902321328923,0.6422902321328923,0.6422902321328923,0.6422902321328923,0.6422902321328923,0.6422902321328923,0.6422902321328923,0.6422902321328923,0.6422902321328923,0.6422902321328923,0.6422902321328923,0.6422902321328923,0.6422902321328923,0.6422902321328923,0.6422902321328923,0.6422902321328923,0.6422902321328923,0.6422902321328923,0.6422902321328923,0.6422902321328923,0.6490929532213275,0.6592970348539806,0.6729024770308514,0.6763038375750691,0.6763038375750691,0.6763038375750691,0.6763038375750691,0.666099755942416,0.6558956743097629,0.6490929532213275,0.6388888715886746,0.6354875110444569,0.6286847899560215,0.6252834294118038,0.6218820688675861,0.6184807083233684,0.6150793477791507,0.6048752661464977,0.5912698239696269,0.5776643817927561,0.5640589396158854,0.5538548579832323,0.5436507763505793,0.5436507763505793,0.5436507763505793,0.5436507763505793,0.5436507763505793,0.5402494158063617,0.5334466947179263,0.5266439736294909,0.5130385314526201,0.49943308927574936,0.4824262865546609,0.4654194838335725,0.44501132056826637,0.4178004362145249,0.39739227294921875,0.383786830772348,0.3769841096839126,0.3769841096839126,0.3769841096839126,0.3769841096839126,0.383786830772348,0.39058955186078337,0.40419499403765413,0.4246031573029602,0.45181404165670175,0.4824262865546609,0.5130385314526201,0.5266439736294909,0.536848055262144,0.536848055262144,0.536848055262144,0.536848055262144,0.536848055262144,0.536848055262144,0.536848055262144,0.536848055262144,0.536848055262144,0.536848055262144,0.536848055262144,0.536848055262144,0.536848055262144,0.536848055262144,0.536848055262144,0.536848055262144,0.536848055262144,0.536848055262144,0.5402494158063617,0.547052136894797,0.55725621852745,0.5674603001601031,0.5810657423369738,0.5878684634254092,0.5912698239696269,0.5912698239696269,0.5912698239696269,0.5912698239696269,0.5912698239696269,0.5912698239696269,0.5912698239696269,0.5912698239696269,0.5912698239696269,0.5912698239696269,0.5912698239696269,0.5912698239696269,0.5912698239696269,0.5912698239696269,0.5912698239696269,0.5912698239696269,0.5946711845138446,0.5946711845138446,0.5946711845138446,0.5946711845138446,0.5946711845138446,0.5946711845138446,0.5946711845138446,0.5946711845138446,0.5946711845138446,0.5980725450580623,0.60147390560228,0.60147390560228,0.6082766266907154,0.611677987234933,0.6218820688675861,0.6354875110444569,0.6490929532213275,0.666099755942416,0.6899092797519398,0.7171201641056814,0.7375283273709875,0.7511337695478582,0.7647392117247289,0.7715419328131643,0.774943293357382,0.7783446539015997,0.7783446539015997,0.7783446539015997,0.7783446539015997,0.7783446539015997,0.7783446539015997,0.7783446539015997,0.7783446539015997,0.7783446539015997,0.7783446539015997,0.7783446539015997,0.7783446539015997,0.7783446539015997,0.7783446539015997,0.7783446539015997,0.7783446539015997,0.7783446539015997,0.774943293357382,0.7715419328131643,0.7715419328131643,0.7715419328131643,0.7715419328131643,0.7715419328131643,0.7715419328131643,0.7783446539015997,0.7919500960784704,0.8021541777111235,0.8123582593437766,0.819160980432212,0.829365062064865,0.8327664226090827,0.8395691436975181,0.8395691436975181,0.8429705042417358,0.8429705042417358,0.8429705042417358,0.8429705042417358,0.8429705042417358,0.8429705042417358,0.8429705042417358,0.8429705042417358,0.8429705042417358,0.8429705042417358,0.8395691436975181,0.8395691436975181,0.8395691436975181,0.8395691436975181,0.8395691436975181,0.8395691436975181,0.8395691436975181,0.8395691436975181,0.8395691436975181,0.8395691436975181,0.8395691436975181,0.8395691436975181,0.8395691436975181,0.8395691436975181,0.8395691436975181,0.8395691436975181,0.8395691436975181,0.8395691436975181,0.8395691436975181,0.8395691436975181,0.8395691436975181,0.8395691436975181,0.8395691436975181,0.8395691436975181,0.8395691436975181,0.8395691436975181,0.8395691436975181,0.8395691436975181,0.8395691436975181,0.8395691436975181,0.8395691436975181,0.8395691436975181,0.8395691436975181,0.8361677831533004,0.8327664226090827,0.829365062064865,0.8225623409764297,0.8123582593437766,0.7987528171669058,0.7817460144458174,0.7579364906362935,0.720521524649899,0.6763038375750691,0.6184807083233684,0.5538548579832323,0.49943308927574936,0.44501132056826637,0.39739227294921875,0.3701813885954773,0.34977322533017113,0.34637186478595344,0.34297050424173575,0.34297050424173575,0.34297050424173575,0.34977322533017113,0.3599773069628242,0.3735827491396949,0.39058955186078337,0.4178004362145249,0.44841268111248406,0.4824262865546609,0.5266439736294909,0.5708616607043208,0.6218820688675861,0.6490929532213275,0.666099755942416,0.6831065586635044,0.6899092797519398,0.7035147219288106,0.710317443017246,0.710317443017246,0.710317443017246,0.710317443017246,0.710317443017246,0.710317443017246,0.710317443017246,0.710317443017246,0.710317443017246,0.710317443017246,0.710317443017246,0.7035147219288106,0.6933106402961575,0.6831065586635044,0.6695011164866337,0.6626983953981983,0.6558956743097629,0.6524943137655452,0.6524943137655452,0.6524943137655452,0.6524943137655452,0.6524943137655452,0.6524943137655452,0.6524943137655452,0.6524943137655452,0.6524943137655452,0.6524943137655452,0.6524943137655452,0.6524943137655452,0.6524943137655452,0.6524943137655452,0.6524943137655452,0.6490929532213275,0.6490929532213275,0.6422902321328923,0.6422902321328923,0.6354875110444569,0.6354875110444569,0.6354875110444569,0.6354875110444569,0.6354875110444569,0.6354875110444569,0.6354875110444569,0.6354875110444569,0.6354875110444569,0.6354875110444569,0.6354875110444569,0.6354875110444569,0.6354875110444569,0.6354875110444569,0.6354875110444569,0.6354875110444569,0.6354875110444569,0.6354875110444569,0.6354875110444569,0.6354875110444569,0.6354875110444569,0.6354875110444569,0.6354875110444569,0.6354875110444569,0.6354875110444569,0.6354875110444569,0.6388888715886746,0.6422902321328923,0.6422902321328923,0.64569159267711,0.6490929532213275,0.6524943137655452,0.6558956743097629,0.6592970348539806,0.6626983953981983,0.6626983953981983,0.6626983953981983,0.6626983953981983,0.6626983953981983,0.6626983953981983,0.6626983953981983,0.6626983953981983,0.6626983953981983,0.6626983953981983,0.6626983953981983,0.6626983953981983,0.6626983953981983,0.6626983953981983,0.6626983953981983,0.6626983953981983,0.6626983953981983,0.6626983953981983,0.6626983953981983,0.6626983953981983,0.6626983953981983,0.6626983953981983,0.6626983953981983,0.6626983953981983,0.6626983953981983,0.6626983953981983,0.6626983953981983,0.6626983953981983,0.6626983953981983,0.6626983953981983,0.6626983953981983,0.6626983953981983,0.6626983953981983,0.6626983953981983,0.6626983953981983,0.6626983953981983,0.6626983953981983,0.6626983953981983,0.6626983953981983,0.6626983953981983,0.6626983953981983,0.6626983953981983,0.6626983953981983,0.6626983953981983,0.6626983953981983,0.6626983953981983,0.6626983953981983,0.6626983953981983,0.6626983953981983,0.6626983953981983,0.6626983953981983,0.6626983953981983,0.6626983953981983,0.6626983953981983,0.6626983953981983,0.6626983953981983,0.6626983953981983,0.6626983953981983,0.6626983953981983,0.6626983953981983,0.6626983953981983,0.6592970348539806,0.6592970348539806,0.6592970348539806,0.6626983953981983,0.6763038375750691,0.6899092797519398,0.7035147219288106,0.710317443017246,0.7171201641056814,0.720521524649899,0.7239228851941167,0.7239228851941167,0.7239228851941167,0.7239228851941167,0.7239228851941167,0.7239228851941167,0.7239228851941167,0.7273242457383344,0.7307256062825521,0.7409296879152052,0.7511337695478582,0.7647392117247289,0.7783446539015997,0.7953514566226881,0.8089568987995589,0.819160980432212,0.829365062064865,0.8429705042417358,0.8565759464186065,0.8803854702281303,0.9007936334934364,0.9212017967587426,0.938208599479831,0.948412681112484,0.9552154022009194,0.9552154022009194,0.9552154022009194,0.9552154022009194,0.9552154022009194,0.9552154022009194,0.9552154022009194,0.9552154022009194,0.9552154022009194,0.9552154022009194,0.9552154022009194,0.9552154022009194,0.9552154022009194,0.9552154022009194,0.9552154022009194,0.9552154022009194,0.9552154022009194,0.9552154022009194,0.9552154022009194,0.9552154022009194,0.9552154022009194,0.9552154022009194,0.9552154022009194,0.9552154022009194,0.9552154022009194,0.9552154022009194,0.9552154022009194,0.9552154022009194,0.9552154022009194,0.9552154022009194,0.9552154022009194,0.9552154022009194,0.9552154022009194,0.9552154022009194,0.9552154022009194,0.9552154022009194,0.9552154022009194,0.9552154022009194,0.9552154022009194,0.9552154022009194,0.9552154022009194,0.9552154022009194,0.9552154022009194,0.9552154022009194,0.9552154022009194,0.9552154022009194,0.9552154022009194,0.9552154022009194,0.9552154022009194,0.9552154022009194,0.9552154022009194,0.9552154022009194,0.9552154022009194,0.9552154022009194,0.9552154022009194,0.9552154022009194,0.9552154022009194,0.9552154022009194,0.9552154022009194,0.9552154022009194,0.9552154022009194,0.9552154022009194,0.948412681112484,0.9314058783913957,0.9075963545818718,0.8769841096839126,0.8395691436975181,0.7987528171669058,0.7511337695478582,0.6967120008403752,0.64569159267711,0.5844671028811915,0.5334466947179263,0.49943308927574936,0.4722222049220079,0.45861676274513713,0.44501132056826637,0.438208599479831,0.4280045178471779,0.4212017967587426,0.4109977151260895,0.40419499403765413,0.39399091240500106,0.3769841096839126,0.3565759464186065,0.329365062064865,0.3055555382553412,0.28174601444581737,0.2613378511805113,0.24433104845942283,0.23412696682676978,0.2273242457383344,0.2239228851941167,0.22052152464989902,0.21712016410568133,0.21031744301724595,0.2001133613845929,0.18650791920772214,0.1729024770308514,0.16269839539819833,0.1524943137655453,0.1456915926771099,0.1456915926771099,0.1456915926771099,0.1456915926771099,0.1422902321328922,0.1422902321328922,0.1422902321328922,0.1422902321328922,0.1422902321328922,0.1422902321328922,0.1422902321328922,0.1422902321328922,0.1422902321328922,0.1422902321328922,0.1422902321328922,0.1422902321328922,0.1422902321328922,0.1422902321328922,0.1422902321328922,0.1422902321328922,0.1422902321328922,0.1422902321328922,0.1422902321328922,0.1422902321328922,0.1422902321328922,0.1456915926771099,0.1456915926771099,0.1456915926771099,0.1524943137655453,0.1524943137655453,0.15589567430976298,0.15929703485398067,0.16609975594241602,0.1729024770308514,0.18650791920772214,0.2001133613845929,0.2307256062825521,0.26814057226894666,0.3089568987995589,0.3565759464186065,0.39739227294921875,0.44501132056826637,0.4790249260104432,0.5164398919968378,0.5504534974390146,0.5742630212485385,0.60147390560228,0.6218820688675861,0.6422902321328923,0.6626983953981983,0.6797051981192868,0.7001133613845929,0.7239228851941167,0.7443310484594229,0.7647392117247289,0.7851473749900351,0.8055555382553412,0.819160980432212,0.8327664226090827,0.8395691436975181,0.8429705042417358,0.8463718647859535,0.8463718647859535,0.8463718647859535,0.8463718647859535,0.8565759464186065,0.8667800280512595,0.8871881913165657,0.9007936334934364,0.9212017967587426,0.9348072389356133,0.9518140416567017,0.9654194838335725,0.9824262865546609,0.9960317287315317,1.0164398919968378,1.0436507763505793,1.0708616607043209,1.0980725450580622,1.1252834294118037,1.1456915926771098,1.1524943137655452,1.155895674309763,1.155895674309763,1.155895674309763,1.155895674309763,1.155895674309763,1.155895674309763,1.155895674309763,1.155895674309763,1.155895674309763,1.155895674309763,1.155895674309763,1.155895674309763,1.155895674309763,1.155895674309763,1.155895674309763,1.155895674309763,1.155895674309763,1.155895674309763,1.155895674309763,1.155895674309763,1.155895674309763,1.155895674309763,1.155895674309763,1.155895674309763,1.155895674309763,1.1524943137655452,1.132086150500239,1.0878684634254092,1.0300453341737086,0.9518140416567017,0.8701813885954772,0.7647392117247289,0.6422902321328923,0.536848055262144,0.45521540220091944,0.3803854702281303,0.3259637015206473,0.28514737499003506,0.2613378511805113,0.23412696682676978,0.22052152464989902,0.20691608247302828,0.2001133613845929,0.2001133613845929,0.1967120008403752,0.19331064029615752,0.18990927975193983,0.18310655866350448,0.1763038375750691,0.16269839539819833,0.1456915926771099,0.1252834294118038,0.10487526614649766,0.08786846342540923,0.07766438179275617,0.0674603001601031,0.05725621852745004,0.05045349743901467,0.04705213689479698,0.040249415806361606,0.03684805526214392,0.030045334173708547,0.023242613085273173,0.016439891996837798,0.009637170908402423,0.006235810364184737,0.006235810364184737,0.0028344498199670493,0.0028344498199670493,0.0028344498199670493,0.0028344498199670493,0.0028344498199670493,0.0028344498199670493,0.0028344498199670493,0.0028344498199670493,0.0028344498199670493,0.0028344498199670493,0.0028344498199670493,0.0028344498199670493,0.0028344498199670493,0.0028344498199670493,0.0028344498199670493,0.0028344498199670493,0.0028344498199670493,0.0028344498199670493,0.0028344498199670493,0.0028344498199670493,0.0028344498199670493,0.0028344498199670493,0.0028344498199670493,0.009637170908402423,0.016439891996837798,0.030045334173708547,0.05045349743901467,0.07426302124853848,0.11507934777915073,0.1524943137655453,0.18990927975193983,0.21371880356146364,0.23412696682676978,0.24773240900364052,0.2511337695478582,0.2545351300920759,0.2579364906362936,0.2613378511805113,0.2613378511805113,0.2613378511805113,0.2613378511805113,0.2613378511805113,0.2613378511805113,0.2613378511805113,0.2613378511805113,0.2545351300920759,0.2545351300920759,0.2511337695478582,0.24773240900364052,0.24773240900364052,0.24773240900364052,0.24773240900364052,0.24773240900364052,0.24773240900364052,0.2511337695478582,0.2579364906362936,0.2613378511805113,0.27154193281316436,0.28174601444581737,0.28854873553425275,0.29535145662268814,0.2987528171669058,0.3021541777111235,0.3021541777111235,0.3021541777111235,0.3021541777111235,0.3021541777111235,0.3021541777111235,0.3021541777111235,0.3021541777111235,0.3021541777111235,0.3021541777111235,0.3021541777111235,0.3021541777111235,0.3021541777111235,0.3021541777111235,0.3021541777111235,0.3021541777111235,0.3021541777111235,0.3021541777111235,0.3021541777111235,0.3021541777111235,0.3021541777111235,0.3021541777111235,0.3021541777111235,0.3021541777111235,0.3055555382553412,0.3055555382553412,0.3055555382553412,0.3055555382553412,0.3021541777111235,0.3021541777111235,0.3021541777111235,0.3021541777111235,0.3021541777111235,0.3021541777111235,0.3021541777111235,0.3021541777111235,0.3021541777111235,0.3021541777111235,0.3021541777111235,0.3021541777111235,0.3021541777111235,0.3021541777111235,0.3021541777111235,0.3021541777111235,0.3021541777111235,0.3021541777111235,0.3021541777111235,0.3021541777111235,0.3021541777111235,0.3021541777111235,0.3021541777111235,0.3021541777111235,0.3021541777111235,0.3021541777111235,0.3021541777111235,0.3021541777111235,0.3021541777111235,0.3021541777111235,0.3021541777111235,0.3021541777111235,0.3021541777111235,0.3021541777111235,0.3021541777111235,0.3021541777111235,0.3021541777111235,0.3021541777111235,0.3021541777111235,0.3021541777111235,0.3021541777111235,0.3021541777111235,0.3021541777111235,0.3021541777111235,0.3021541777111235,0.3021541777111235,0.3021541777111235,0.3021541777111235,0.3021541777111235,0.3021541777111235,0.3021541777111235,0.3021541777111235,0.3021541777111235,0.3021541777111235,0.3021541777111235,0.3021541777111235,0.3021541777111235,0.3021541777111235,0.3021541777111235,0.3021541777111235,0.3021541777111235,0.3021541777111235,0.3021541777111235,0.3021541777111235,0.3021541777111235,0.3021541777111235,0.3021541777111235,0.3021541777111235,0.3021541777111235,0.3021541777111235,0.3021541777111235,0.3021541777111235,0.3021541777111235,0.3021541777111235,0.3021541777111235,0.3021541777111235,0.3021541777111235,0.3021541777111235,0.3021541777111235,0.3021541777111235,0.3021541777111235,0.3021541777111235,0.3021541777111235,0.3021541777111235],"y":[-3.8095238095238093,-3.8095238095238093,-3.8095238095238093,-3.8095238095238093,0.45714285714285713,0.4857142857142857,0.5142857142857142,0.5904761904761905,0.6857142857142857,0.8285714285714286,1.0095238095238095,1.2571428571428571,1.5333333333333334,1.8285714285714285,2.085714285714286,2.3047619047619046,2.4571428571428573,2.5904761904761906,2.704761904761905,2.7904761904761903,2.8380952380952382,2.8666666666666667,2.876190476190476,2.876190476190476,2.876190476190476,2.876190476190476,2.8476190476190477,2.8190476190476192,2.7904761904761903,2.761904761904762,2.723809523809524,2.704761904761905,2.6857142857142855,2.676190476190476,2.676190476190476,2.676190476190476,2.676190476190476,2.676190476190476,2.676190476190476,2.676190476190476,2.676190476190476,2.6666666666666665,2.6666666666666665,2.6666666666666665,2.6666666666666665,2.6666666666666665,2.6666666666666665,2.676190476190476,2.6952380952380954,2.723809523809524,2.742857142857143,2.7714285714285714,2.780952380952381,2.780952380952381,2.780952380952381,2.780952380952381,2.761904761904762,2.742857142857143,2.7333333333333334,2.7333333333333334,2.7333333333333334,2.7333333333333334,2.7333333333333334,2.7333333333333334,2.7333333333333334,2.7333333333333334,2.7333333333333334,2.7333333333333334,2.7333333333333334,2.7333333333333334,2.7333333333333334,2.7333333333333334,2.7333333333333334,2.7333333333333334,2.7333333333333334,2.742857142857143,2.742857142857143,2.742857142857143,2.7523809523809524,2.7523809523809524,2.761904761904762,2.761904761904762,2.761904761904762,2.761904761904762,2.761904761904762,2.761904761904762,2.7523809523809524,2.7333333333333334,2.6857142857142855,2.6095238095238096,2.5142857142857142,2.4,2.2476190476190476,2.066666666666667,1.8666666666666667,1.5904761904761904,1.3142857142857143,0.9809523809523809,0.638095238095238,0.22857142857142856,-0.1523809523809524,-0.5523809523809524,-0.8952380952380953,-1.2190476190476192,-1.4476190476190476,-1.619047619047619,-1.7142857142857142,-1.7523809523809524,-1.7523809523809524,-1.723809523809524,-1.6571428571428573,-1.5047619047619047,-1.3428571428571427,-1.1047619047619048,-0.9142857142857143,-0.6857142857142857,-0.49523809523809526,-0.3619047619047619,-0.3047619047619048,-0.2857142857142857,-0.2857142857142857,-0.2857142857142857,-0.2857142857142857,-0.2857142857142857,-0.2857142857142857,-0.2857142857142857,-0.2857142857142857,-0.2857142857142857,-0.2857142857142857,-0.2857142857142857,-0.2857142857142857,-0.2857142857142857,-0.2857142857142857,-0.2857142857142857,-0.2857142857142857,-0.2857142857142857,-0.2857142857142857,-0.2857142857142857,-0.2857142857142857,-0.2857142857142857,-0.2857142857142857,-0.2857142857142857,-0.2857142857142857,-0.2857142857142857,-0.2857142857142857,-0.2857142857142857,-0.2857142857142857,-0.26666666666666666,-0.22857142857142856,-0.1619047619047619,-0.0761904761904762,0.0761904761904762,0.12380952380952381,0.12380952380952381,0.13333333333333333,0.18095238095238095,0.24761904761904763,0.34285714285714286,0.41904761904761906,0.47619047619047616,0.5142857142857142,0.5523809523809524,0.5714285714285714,0.5904761904761905,0.5904761904761905,0.5904761904761905,0.5904761904761905,0.580952380952381,0.5714285714285714,0.5523809523809524,0.5428571428571428,0.5333333333333333,0.5333333333333333,0.5333333333333333,0.5333333333333333,0.5333333333333333,0.5333333333333333,0.5333333333333333,0.5238095238095238,0.5142857142857142,0.49523809523809526,0.4666666666666667,0.41904761904761906,0.3523809523809524,0.2857142857142857,0.20952380952380953,0.17142857142857143,0.13333333333333333,0.11428571428571428,0.09523809523809523,0.0761904761904762,0.05714285714285714,0.0380952380952381,0.01904761904761905,0.01904761904761905,0,-0.01904761904761905,-0.0380952380952381,-0.047619047619047616,-0.05714285714285714,-0.05714285714285714,-0.05714285714285714,-0.05714285714285714,-0.05714285714285714,-0.05714285714285714,-0.05714285714285714,-0.05714285714285714,-0.05714285714285714,-0.05714285714285714,-0.05714285714285714,-0.05714285714285714,-0.05714285714285714,-0.05714285714285714,-0.05714285714285714,-0.05714285714285714,-0.05714285714285714,-0.05714285714285714,-0.05714285714285714,-0.05714285714285714,-0.06666666666666667,-0.0761904761904762,-0.08571428571428572,-0.08571428571428572,-0.08571428571428572,-0.08571428571428572,-0.08571428571428572,-0.08571428571428572,-0.08571428571428572,-0.08571428571428572,-0.08571428571428572,-0.08571428571428572,-0.08571428571428572,-0.08571428571428572,-0.08571428571428572,-0.08571428571428572,-0.08571428571428572,-0.08571428571428572,-0.08571428571428572,-0.08571428571428572,-0.08571428571428572,-0.08571428571428572,-0.0761904761904762,-0.0761904761904762,-0.0761904761904762,-0.0761904761904762,-0.0761904761904762,-0.0761904761904762,-0.06666666666666667,-0.05714285714285714,-0.0380952380952381,-0.009523809523809525,0.01904761904761905,0.0761904761904762,0.1523809523809524,0.24761904761904763,0.38095238095238093,0.5142857142857142,0.6857142857142857,0.8476190476190476,1.0095238095238095,1.1238095238095238,1.2190476190476192,1.2857142857142858,1.3428571428571427,1.380952380952381,1.4095238095238096,1.4285714285714286,1.438095238095238,1.438095238095238,1.438095238095238,1.438095238095238,1.438095238095238,1.438095238095238,1.438095238095238,1.438095238095238,1.438095238095238,1.4476190476190476,1.4476190476190476,1.457142857142857,1.4666666666666666,1.4761904761904763,1.4857142857142858,1.5047619047619047,1.5142857142857142,1.5238095238095237,1.561904761904762,1.6,1.6571428571428573,1.7333333333333334,1.819047619047619,1.9142857142857144,2.019047619047619,2.104761904761905,2.1904761904761907,2.2476190476190476,2.3047619047619046,2.342857142857143,2.3714285714285714,2.3904761904761904,2.3904761904761904,2.3904761904761904,2.3904761904761904,2.3904761904761904,2.3904761904761904,2.3904761904761904,2.3904761904761904,2.3904761904761904,2.3904761904761904,2.3904761904761904,2.3904761904761904,2.3904761904761904,2.3904761904761904,2.3904761904761904,2.3904761904761904,2.3904761904761904,2.3904761904761904,2.3904761904761904,2.3904761904761904,2.3904761904761904,2.3904761904761904,2.3904761904761904,2.3904761904761904,2.3904761904761904,2.3904761904761904,2.3904761904761904,2.3904761904761904,2.3904761904761904,2.3904761904761904,2.3904761904761904,2.3904761904761904,2.3904761904761904,2.3904761904761904,2.3904761904761904,2.3904761904761904,2.3904761904761904,2.3904761904761904,2.3904761904761904,2.3904761904761904,2.3904761904761904,2.3904761904761904,2.380952380952381,2.380952380952381,2.380952380952381,2.380952380952381,2.380952380952381,2.380952380952381,2.361904761904762,2.342857142857143,2.3142857142857145,2.2666666666666666,2.2095238095238097,2.142857142857143,2.085714285714286,2.019047619047619,1.9619047619047618,1.9142857142857144,1.8857142857142857,1.8476190476190477,1.8285714285714285,1.8095238095238095,1.7809523809523808,1.7428571428571429,1.7047619047619047,1.6571428571428573,1.619047619047619,1.5714285714285714,1.542857142857143,1.5142857142857142,1.4857142857142858,1.4476190476190476,1.3904761904761904,1.3523809523809525,1.3047619047619048,1.2571428571428571,1.2190476190476192,1.1904761904761905,1.161904761904762,1.1523809523809523,1.1523809523809523,1.1523809523809523,1.1523809523809523,1.1523809523809523,1.1523809523809523,1.1523809523809523,1.1523809523809523,1.1523809523809523,1.1523809523809523,1.1523809523809523,1.1523809523809523,1.1714285714285715,1.180952380952381,1.2,1.2,1.2,1.2,1.2,1.2,1.2,1.2,1.2,1.2,1.2,1.2,1.2,1.2,1.2,1.2,1.2,1.2,1.2095238095238094,1.2190476190476192,1.2190476190476192,1.2285714285714286,1.2285714285714286,1.2285714285714286,1.2285714285714286,1.2285714285714286,1.2285714285714286,1.2285714285714286,1.2285714285714286,1.2285714285714286,1.2285714285714286,1.2285714285714286,1.2285714285714286,1.2285714285714286,1.2285714285714286,1.2285714285714286,1.2285714285714286,1.2285714285714286,1.2285714285714286,1.2285714285714286,1.2285714285714286,1.2285714285714286,1.2285714285714286,1.2380952380952381,1.2571428571428571,1.276190476190476,1.2952380952380953,1.3333333333333333,1.380952380952381,1.4285714285714286,1.4761904761904763,1.5238095238095237,1.561904761904762,1.6,1.619047619047619,1.638095238095238,1.6476190476190475,1.6476190476190475,1.6476190476190475,1.6476190476190475,1.6476190476190475,1.6476190476190475,1.6476190476190475,1.6476190476190475,1.6476190476190475,1.6476190476190475,1.6476190476190475,1.6476190476190475,1.6476190476190475,1.6476190476190475,1.6476190476190475,1.6476190476190475,1.6476190476190475,1.6476190476190475,1.6476190476190475,1.6476190476190475,1.6476190476190475,1.6476190476190475,1.6476190476190475,1.6476190476190475,1.6476190476190475,1.6476190476190475,1.6476190476190475,1.6476190476190475,1.6476190476190475,1.6476190476190475,1.6476190476190475,1.6476190476190475,1.6476190476190475,1.6476190476190475,1.6476190476190475,1.6476190476190475,1.6476190476190475,1.6476190476190475,1.6476190476190475,1.6476190476190475,1.6476190476190475,1.6476190476190475,1.6476190476190475,1.6476190476190475,1.6476190476190475,1.6476190476190475,1.6476190476190475,1.6476190476190475,1.6476190476190475,1.6476190476190475,1.6476190476190475,1.6476190476190475,1.6476190476190475,1.6476190476190475,1.6476190476190475,1.6476190476190475,1.6476190476190475,1.6476190476190475,1.6476190476190475,1.619047619047619,1.561904761904762,1.4857142857142858,1.3714285714285714,1.276190476190476,1.161904761904762,1.0666666666666667,0.9809523809523809,0.9238095238095239,0.8761904761904762,0.8380952380952381,0.819047619047619,0.8095238095238095,0.8095238095238095,0.8095238095238095,0.8095238095238095,0.8095238095238095,0.819047619047619,0.8380952380952381,0.8761904761904762,0.8952380952380953,0.9047619047619048,0.9142857142857143,0.9142857142857143,0.9142857142857143,0.9142857142857143,0.9047619047619048,0.9047619047619048,0.9047619047619048,0.9142857142857143,0.9333333333333333,0.9523809523809523,0.9619047619047619,0.9714285714285714,0.9714285714285714,0.9714285714285714,0.9714285714285714,0.9714285714285714,0.9714285714285714,0.9714285714285714,0.9714285714285714,0.9714285714285714,0.9714285714285714,0.9714285714285714,0.9714285714285714,0.9714285714285714,0.9714285714285714,0.9714285714285714,0.9714285714285714,0.9714285714285714,0.9714285714285714,0.9714285714285714,0.9714285714285714,0.9714285714285714,0.9714285714285714,0.9714285714285714,0.9714285714285714,0.9714285714285714,0.9714285714285714,0.9714285714285714,0.9714285714285714,0.9714285714285714,0.9714285714285714,0.9714285714285714,0.9714285714285714,0.9714285714285714,0.9714285714285714,0.9714285714285714,0.9714285714285714,0.9714285714285714,0.9714285714285714,0.9714285714285714,0.9714285714285714,0.9714285714285714,0.9714285714285714,0.9714285714285714,0.9714285714285714,0.9714285714285714,0.9714285714285714,0.9714285714285714,0.9714285714285714,0.9714285714285714,0.9714285714285714,0.9714285714285714,0.9714285714285714,0.9714285714285714,0.9714285714285714,0.9714285714285714,0.9714285714285714,0.9714285714285714,0.9714285714285714,0.9714285714285714,0.9714285714285714,0.9714285714285714,0.9714285714285714,0.9714285714285714,0.9714285714285714,0.9714285714285714,0.9523809523809523,0.9238095238095239,0.8761904761904762,0.7904761904761904,0.6857142857142857,0.5714285714285714,0.4380952380952381,0.3333333333333333,0.23809523809523808,0.17142857142857143,0.11428571428571428,0.09523809523809523,0.08571428571428572,0.08571428571428572,0.08571428571428572,0.08571428571428572,0.09523809523809523,0.09523809523809523,0.11428571428571428,0.11428571428571428,0.13333333333333333,0.1523809523809524,0.1619047619047619,0.1619047619047619,0.1619047619047619,0.1523809523809524,0.13333333333333333,0.11428571428571428,0.10476190476190476,0.09523809523809523,0.0761904761904762,0.05714285714285714,0.047619047619047616,0.0380952380952381,0.01904761904761905,0.009523809523809525,0,-0.009523809523809525,-0.01904761904761905,-0.02857142857142857,-0.0380952380952381,-0.047619047619047616,-0.05714285714285714,-0.05714285714285714,-0.05714285714285714,-0.05714285714285714,-0.05714285714285714,-0.05714285714285714,-0.05714285714285714,-0.05714285714285714,-0.05714285714285714,-0.05714285714285714,-0.05714285714285714,-0.05714285714285714,-0.05714285714285714,-0.05714285714285714,-0.05714285714285714,-0.05714285714285714,-0.05714285714285714,-0.05714285714285714,-0.05714285714285714,-0.05714285714285714,-0.05714285714285714,-0.0380952380952381,-0.01904761904761905,0,0.009523809523809525,0.02857142857142857,0.047619047619047616,0.06666666666666667,0.0761904761904762,0.09523809523809523,0.12380952380952381,0.1523809523809524,0.19047619047619047,0.24761904761904763,0.3047619047619048,0.3619047619047619,0.41904761904761906,0.45714285714285713,0.47619047619047616,0.49523809523809526,0.49523809523809526,0.49523809523809526,0.49523809523809526,0.47619047619047616,0.45714285714285713,0.45714285714285713,0.4380952380952381,0.4380952380952381,0.4380952380952381,0.4380952380952381,0.4380952380952381,0.45714285714285713,0.4666666666666667,0.47619047619047616,0.4857142857142857,0.49523809523809526,0.49523809523809526,0.49523809523809526,0.49523809523809526,0.49523809523809526,0.49523809523809526,0.49523809523809526,0.49523809523809526,0.49523809523809526,0.49523809523809526,0.49523809523809526,0.49523809523809526,0.49523809523809526,0.49523809523809526,0.49523809523809526,0.49523809523809526,0.4857142857142857,0.4666666666666667,0.44761904761904764,0.42857142857142855,0.4095238095238095,0.4,0.4,0.4,0.4,0.4,0.4,0.4,0.4,0.4,0.4,0.4,0.4,0.4,0.4,0.4,0.4,0.4,0.4,0.4,0.4,0.4,0.4,0.4,0.4,0.4,0.4,0.4,0.38095238095238093,0.3619047619047619,0.3333333333333333,0.29523809523809524,0.24761904761904763,0.2,0.13333333333333333,0.0761904761904762,0.0380952380952381,0,-0.02857142857142857,-0.05714285714285714,-0.0761904761904762,-0.0761904761904762,-0.08571428571428572,-0.09523809523809523,-0.09523809523809523,-0.09523809523809523,-0.09523809523809523,-0.09523809523809523,-0.10476190476190476,-0.11428571428571428,-0.11428571428571428,-0.13333333333333333,-0.14285714285714285,-0.1523809523809524,-0.1523809523809524,-0.1523809523809524,-0.1523809523809524,-0.1523809523809524,-0.1523809523809524,-0.14285714285714285,-0.13333333333333333,-0.13333333333333333,-0.12380952380952381,-0.11428571428571428,-0.11428571428571428,-0.09523809523809523,-0.09523809523809523,-0.08571428571428572,-0.08571428571428572,-0.0761904761904762,-0.0761904761904762,-0.0761904761904762,-0.0761904761904762,-0.0761904761904762,-0.0761904761904762,-0.0761904761904762,-0.0761904761904762,-0.0761904761904762,-0.0761904761904762,-0.0761904761904762,-0.0761904761904762,-0.0761904761904762,-0.0761904761904762,-0.0761904761904762,-0.0761904761904762,-0.0761904761904762,-0.0761904761904762,-0.0761904761904762,-0.0761904761904762,-0.0761904761904762,-0.0761904761904762,-0.0761904761904762,-0.05714285714285714,-0.0380952380952381,0,0.047619047619047616,0.13333333333333333,0.22857142857142856,0.3904761904761905,0.5714285714285714,0.7714285714285715,0.9333333333333333,1.0857142857142856,1.2190476190476192,1.3047619047619048,1.3523809523809525,1.380952380952381,1.3904761904761904,1.4,1.4,1.4,1.4,1.4,1.4,1.4,1.4095238095238096,1.4190476190476191,1.4285714285714286,1.4285714285714286,1.438095238095238,1.438095238095238,1.438095238095238,1.4476190476190476,1.457142857142857,1.4761904761904763,1.5047619047619047,1.542857142857143,1.5714285714285714,1.6,1.619047619047619,1.6476190476190475,1.6571428571428573,1.6476190476190475,1.6,1.5523809523809524,1.5523809523809524,1.5523809523809524,1.5523809523809524,1.5523809523809524,1.5523809523809524,1.5523809523809524,1.5523809523809524,1.5523809523809524,1.5523809523809524,1.5523809523809524,1.5523809523809524,1.5523809523809524,1.5523809523809524,1.5523809523809524,1.5523809523809524,1.5523809523809524,1.5523809523809524,1.5523809523809524,1.5523809523809524,1.5523809523809524,1.6,1.6476190476190475,1.7142857142857142,1.7333333333333334,1.7333333333333334,1.7333333333333334,1.7333333333333334,1.7333333333333334,1.7333333333333334,1.7333333333333334,1.7333333333333334,1.7333333333333334,1.7333333333333334,1.7333333333333334,1.7333333333333334,1.7333333333333334,1.7333333333333334,1.7333333333333334,1.7333333333333334,1.7333333333333334,1.7333333333333334,1.7333333333333334,1.7333333333333334,1.7333333333333334,1.7333333333333334,1.7333333333333334,1.7333333333333334,1.7333333333333334,1.7333333333333334,1.7333333333333334,1.7333333333333334,1.7333333333333334,1.7333333333333334,1.7333333333333334,1.7333333333333334,1.7333333333333334,1.7333333333333334,1.7333333333333334,1.7333333333333334,1.7333333333333334,1.7333333333333334,1.7333333333333334,1.7333333333333334,1.7333333333333334,1.7333333333333334,1.7333333333333334,1.7333333333333334,1.7333333333333334,1.7333333333333334,1.7333333333333334,1.7333333333333334,1.7333333333333334,1.7333333333333334,1.7333333333333334,1.7333333333333334,1.7333333333333334,1.7333333333333334,1.7333333333333334,1.7333333333333334,1.7333333333333334,1.7333333333333334,1.7333333333333334,1.7333333333333334,1.7333333333333334,1.7333333333333334,1.7333333333333334,1.7333333333333334,1.7333333333333334,1.7333333333333334,1.7333333333333334,1.7333333333333334,1.7333333333333334,1.7333333333333334,1.7333333333333334,1.7333333333333334,1.7333333333333334,1.7333333333333334,1.7333333333333334,1.7333333333333334,1.7333333333333334,1.7333333333333334,1.7333333333333334,1.7333333333333334,1.7333333333333334,1.7333333333333334,1.7333333333333334,1.7333333333333334,1.7333333333333334,1.7333333333333334]},"final_keyboard_state":["E","Z","B","R","A"],"num_clicks":5,"points":15,"cheat":false,"trial_type":"Hangman","trial_index":5,"time_elapsed":33954,"internal_node_id":"0.0-4.0","protocol_sum":"","subject_identifier":405,"subject_sum":[193,126,218,174,134,228,1,106,88,62,9,133,130,246,219,243,236,202,222,142,248,55,71,223,155,166,23,222,217,211,19,9],"subject_pair":202,"STUDY_ID":"66a22c0758a3d5c9d26873c6","PROLIFIC_PID":"66749596518f556e28f505d9","SESSION_ID":"66a2670ac3245bf4e6427e2b","practice_instructions":1,"leaderboard_instructions":0,"bonus":0,"reveal_word":true,"self_rating":"1","confidence":"69"},{"view_history":"[{\"page_index\":0,\"viewing_time\":1903.2000000029802},{\"page_index\":1,\"viewing_time\":12421.5}]","rt":14325.20000000298,"trial_type":"instructions","trial_index":6,"time_elapsed":48279,"internal_node_id":"0.0-5.0","protocol_sum":"","subject_identifier":405,"subject_sum":[193,126,218,174,134,228,1,106,88,62,9,133,130,246,219,243,236,202,222,142,248,55,71,223,155,166,23,222,217,211,19,9],"subject_pair":202,"STUDY_ID":"66a22c0758a3d5c9d26873c6","PROLIFIC_PID":"66749596518f556e28f505d9","SESSION_ID":"66a2670ac3245bf4e6427e2b","practice_instructions":1,"leaderboard_instructions":0,"bonus":0,"reveal_word":true,"self_rating":"1","confidence":"69"},{"rt":4485.899999991059,"responses":"{\"Q0\":\"...from <b>a previous session</b> that is not part of the upcoming tournament.\"}","question_order":"[0]","trial_type":"survey-multi-choice","trial_index":7,"time_elapsed":52766,"internal_node_id":"0.0-6.0","protocol_sum":"","subject_identifier":405,"subject_sum":[193,126,218,174,134,228,1,106,88,62,9,133,130,246,219,243,236,202,222,142,248,55,71,223,155,166,23,222,217,211,19,9],"subject_pair":202,"correct":true,"test_part":"multichoice_leaderboard","STUDY_ID":"66a22c0758a3d5c9d26873c6","PROLIFIC_PID":"66749596518f556e28f505d9","SESSION_ID":"66a2670ac3245bf4e6427e2b","practice_instructions":1,"leaderboard_instructions":0,"bonus":0,"reveal_word":true,"self_rating":"1","confidence":"69"},{"view_history":"[{\"page_index\":0,\"viewing_time\":11957.29999999702}]","rt":11957.40000000596,"trial_type":"instructions","trial_index":8,"time_elapsed":64724,"internal_node_id":"0.0-8.0","protocol_sum":"","subject_identifier":405,"subject_sum":[193,126,218,174,134,228,1,106,88,62,9,133,130,246,219,243,236,202,222,142,248,55,71,223,155,166,23,222,217,211,19,9],"subject_pair":202,"STUDY_ID":"66a22c0758a3d5c9d26873c6","PROLIFIC_PID":"66749596518f556e28f505d9","SESSION_ID":"66a2670ac3245bf4e6427e2b","practice_instructions":1,"leaderboard_instructions":0,"bonus":0,"reveal_word":true,"self_rating":"1","confidence":"69"},{"rt":4418.5,"responses":"{\"Q0\":\"...players' leaderboard position (in terms of <b>points</b>) in an <b>upcoming tournament.</b>\"}","question_order":"[0]","trial_type":"survey-multi-choice","trial_index":9,"time_elapsed":69143,"internal_node_id":"0.0-9.0","protocol_sum":"","subject_identifier":405,"subject_sum":[193,126,218,174,134,228,1,106,88,62,9,133,130,246,219,243,236,202,222,142,248,55,71,223,155,166,23,222,217,211,19,9],"subject_pair":202,"correct":true,"test_part":"multichoice_tournament","STUDY_ID":"66a22c0758a3d5c9d26873c6","PROLIFIC_PID":"66749596518f556e28f505d9","SESSION_ID":"66a2670ac3245bf4e6427e2b","practice_instructions":1,"leaderboard_instructions":0,"bonus":0,"reveal_word":true,"self_rating":"1","confidence":"69"},{"view_history":"[{\"page_index\":0,\"viewing_time\":4695.199999988079}]","rt":4695.29999999702,"trial_type":"instructions","trial_index":10,"time_elapsed":73839,"internal_node_id":"0.0-11.0","protocol_sum":"","subject_identifier":405,"subject_sum":[193,126,218,174,134,228,1,106,88,62,9,133,130,246,219,243,236,202,222,142,248,55,71,223,155,166,23,222,217,211,19,9],"subject_pair":202,"STUDY_ID":"66a22c0758a3d5c9d26873c6","PROLIFIC_PID":"66749596518f556e28f505d9","SESSION_ID":"66a2670ac3245bf4e6427e2b","practice_instructions":1,"leaderboard_instructions":0,"bonus":0,"reveal_word":true,"self_rating":"1","confidence":"69"},{"view_history":"[{\"page_index\":0,\"viewing_time\":7955.0999999940395}]","rt":7955.29999999702,"trial_type":"instructions","trial_index":11,"time_elapsed":81795,"internal_node_id":"0.0-12.0-0.0","protocol_sum":"","subject_identifier":405,"subject_sum":[193,126,218,174,134,228,1,106,88,62,9,133,130,246,219,243,236,202,222,142,248,55,71,223,155,166,23,222,217,211,19,9],"subject_pair":202,"STUDY_ID":"66a22c0758a3d5c9d26873c6","PROLIFIC_PID":"66749596518f556e28f505d9","SESSION_ID":"66a2670ac3245bf4e6427e2b","practice_instructions":1,"leaderboard_instructions":0,"bonus":0,"reveal_word":true,"self_rating":"1","confidence":"69"},{"rt":5457.600000008941,"response":"kentucky","responses":["kentucky"],"trial_type":"type-this","trial_index":12,"time_elapsed":87755,"internal_node_id":"0.0-12.0-1.0","protocol_sum":"","subject_identifier":405,"subject_sum":[193,126,218,174,134,228,1,106,88,62,9,133,130,246,219,243,236,202,222,142,248,55,71,223,155,166,23,222,217,211,19,9],"subject_pair":202,"STUDY_ID":"66a22c0758a3d5c9d26873c6","PROLIFIC_PID":"66749596518f556e28f505d9","SESSION_ID":"66a2670ac3245bf4e6427e2b","practice_instructions":1,"leaderboard_instructions":0,"bonus":0,"reveal_word":true,"self_rating":"1","confidence":"69"},{"word":"KENTUCKY","click_log":{"letter":["","A","E","K","Y","N","T","U","C"],"t":[0,9012.20000000298,27497.10000000894,29584,33108.5,34062.60000000894,35699.80000001192,36662.30000001192,37349.80000001192],"hit":[null,0,1,2,1,1,1,1,1],"asked":["","A","AE","AEK","AEKY","AEKYN","AEKYNT","AEKYNTU","AEKYNTUC"],"word_state":["________","________","_E______","KE____K_","KE____KY","KEN___KY","KENT__KY","KENTU_KY","KENTUCKY"]},"hover_log":{"letter":["?","?","?","?","?","?","?","?","?","?","?","?","?","?","?","?","?","?","?","?","?","?","?","?","?","?","?","?","?","?","?","?","?","?","?","?","?","?","?","?","?","?","?","?","?","?","?","?","?","?","?","?","?","?","?","?","?","?","?","?","?","?","?","?","?","?","?","?","?","?","?","?","?","?","?","?","?","?","?","?","?","?","?","?","?","?","?","?","?","?","?","?","?","?","?","?","?","?","?","?","?","?","?","?","?","?","?","?","?","?","?","?","?","?","?","?","?","?","?","?","?","?","?","?","?","?","?","?","?","?","?","?","?","?","?","?","?","?","?","?","?","?","?","?","?","?","?","?","?","?","?","?","?","?","?","?","?","?","?","?","?","?","?","?","?","?","?","?","?","?","?","?","?","?","?","?","?","?","?","?","?","?","?","?","?","?","?","?","?","?","?","?","?","?","?","?","?","?","?","?","?","?","?","?","?","?","?","?","?","?","?","?","?","?","?","?","?","?","?","?","?","?","?","?","?","?","?","?","?","?","?","?","?","?","?","?","?","?","?","?","?","?","?","?","?","?","?","?","?","?","?","?","?","?","?","?","?","?","?","?","?","?","?","?","?","?","?","?","?","?","?","?","?","?","?","?","?","?","?","?","?","?","?","?","?","?","?","?","?","?","?","?","?","?","?","?","?","?","?","?","?","?","?","?","?","?","?","?","?","?","?","?","?","?","?","?","?","?","?","?","?","?","?","?","?","?","?","?","?","?","?","?","?","?","?","?","?","?","?","?","?","?","?","?","?","?","?","?","?","?","?","?","?","?","?","?","?","?","?","?","?","?","?","?","?","?","?","?","?","?","?","?","?","?","?","?","?","?","?","?","?","?","?","?","?","?","?","?","?","?","?","?","?","?","?","?","?","?","?","?","?","?","?","?","?","?","?","?","?","?","?","?","?","?","?","?","?","?","?","?","?","?","?","?","?","?","?","?","?","?","?","?","?","?","?","?","?","?","?","?","?","?","?","?","?","?","?","?","?","?","?","?","?","?","?","?","?","?","?","?","?","?","?","?","?","?","?","?","?","?","?","?","?","?","?","?","?","?","?","?","?","?","?","?","?","?","?","?","?","?","?","?","?","?","?","?","?","?","?","?","?","?","?","?","?","?","?","?","?","?","?","?","?","?","?","?","?","?","?","?","?","?","?","?","?","?","?","?","?","?","?","?","?","?","?","?","?","?","?","?","?","?","?","?","?","?","?","?","?","?","?","?","?","?","?","?","?","?","?","?","?","?","?","?","?","?","?","?","?","?","?","?","?","?","?","?","?","?","?","?","?","?","?","?","?","?","?","?","?","?","?","?","?","?","?","?","?","?","?","?","?","D","?","?","?","?","?","?","?","?","?","?","?","?","?","?","?","?","?","?","?","?","?","?","?","?","?","?","?","?","?","?","?","?","?","?","?","?","?","?","?","?","?","?","?","?","?","?","?","?","?","?","?","?","?","?","?","?","?","?","?","?","?","?","?","?","?","?","?","?","?","?","?","?","?","?","?","?","?","?","?","?","?","?","?","?","?","?","?","?","?","?","?","?","?","?","?","?","?","?","?","?","?","?","?","?","?","?","?","?","?","?","?","?","M","?","?","?","?","?","?","?","?","?","?","?","?","?","?","?","?","?","?","?","?","?","?","?","?","?","M","?","?","?","?","?","?","?","?","?","?","?","?","?","?","?","?","?","?","?","?","?","?","?","?","?","M","?","?","?","?","?","?","?","?","?","?","?","?","?","?","?","?","?","?","?","?","?","?","?","?","?","M","?","?","?","?","?","?","?","?","?","?","?","?","?","?","?","?","?","?","?","?","?","?","?","?","?","M","?","?","?","?","?","?","?","?","?","?","?","?","?","?","?","?","?","?","?","?","?","?","?","?","?","?","?","?","?","?","?","?","?","?","?","?","?","?","?","?","?","?","?","?","?","?","?","?","?","?","?","?","?","?","?","?","?","?","?","?","?","?","?","?","?","?","?","?","?","?","?","?","?","?","?","?","?","?","?","?","?","?","?","?","?","?","?","?","?","?","?","?","?","?","?","?","?","?","?","?","?","?","?","?","?","?","?","?","?","?","?","?","?","?","?","?","?","?","?","?","?","?","?","?","?","?","?","?","?","?","?","?","?","?","?","?","?","?","?","?","?","?","?","?","?","?","?","?","?","?","?","?","?","?","?","?","?","?","?","?","?","?","?","?","?","?","?","?","?","?","?","?","?","?","?","?","?","?","?","?","?","?","?","?","?","?","?","?","?","?","?","W","?","?","?","?","?","?","?","?","?","?","?","?","?","?","?","?","?","?","?","?","?","?","?","?","?","W","?","?","?","?","?","?","?","?","?","?","?","?","?","?","?","?","?","?","?","?","?","?","?","?","?","?","?","?","?","?","?","?","?","?","?","?","?","?","?","?","?","?","?","?","?","?","?","?","?","?","?","?","?","?","?","?","?","?","?","?","?","?","?","?","?","?","?","?","?","?","?","?","?","?","?","?","?","?","?","?","?","?","?","?","?","?","?","?","?","?","?","?","?","?","?","?","?","?","?","?","?","?","?","?","?","?","?","?","?","?","?","?","?","?","?","?","?","?","?","?","?","?","?","?","?","?","?","?","?","?","?","?","?","?","?","?","?","?","?","?","?","?","?","?","?","?","?","?","?","?","?","?","?","?","?","?","?","?","?","?","?","?","?","?","?","?","?","?","?","?","?","?","?","?","?","?","?","?","?","?","?","?","?","?","?","?","?","?","?","?","?","?","?","?","?","?","?","?","?","?","?","?","?","?","?","?","?","?","?","?","?","?","?","?","?","?","?","?","?","?","?","?","?","?","?","?","?","?","?","?","?","?","?","?","?","?","?","?","?","?","?","?","?","?","?","?","?","?","?","?","?","?","?","?","?","?","?","?","?","?","?","?","?","?","?","?","?","?","?","?","?","?","?","?","?","?","?","?","?","?","?","?","?","?","?","?","?","?","?","?","?","?","?","?","?","?","?","?","?","?","?","?","?","?","?","?","?","?","?","?","?","?","?","?","?","?","?","?","?","?","?","?","?","?","?","?","?","?","?","?","?","?","?","?","?","?","?","?","?","?","?","?","?","?","?","?","?","?","?","?","?","?","?","?","?","?","?","?","?","?","?","?","?","?","?","?","?","?","?","?","?","?","?","?","?","?","?","?","?","?","?","?","?","?","?","?","?","?","?","?","?","?","?","?","?","?","?","?","?","?","?","?","?","?","?","?","?","?","?","?","?","?","?","?","?","?","?","?","?","?","?","?","?","?","?","?","?","?","?","?","?","?","?","?","?","?","?","?","?","?","?","?","?","?","?","?","?","?","?","?","?","?","?","?","?","?","?","?","?","?","?","?","?","?","?","?","?","?","?","?","?","?","?","?","?","?","?","?","?","?","?","?","?","?","?","?","?","?","?","?","?","?","?","?","?","?","?","?","?","?","?","?","?","?","?","?","?","?","?","?","?","?","?","?","?","?","?","?","?","?","?","?","?","?","?","?","?","?","?","?","?","?","?","?","?","?","?","?","?","?","?","?","?","?","?","?","?","?","?","?","?","?","?","?","?","?","?","?","?","?","?","?","?","?","?","?","?","?","?","?","?","?","?","?","?","?","?","?","?","?","?","?","?","?","?","?","?","?","?","?","?","?","?","?","?","?","?","?","?","?","?","?","?","?","?","?","?","?","?","?","?","?","?","?","?","?","?","?","?","?","?","?","?","?","?","?","?","?","?","?","?","?","?","?","?","?","?","?","?","?","?","?","?","?","?","?","?","?","?","?","?","?","?","?","?","?","?","?","?","?","?","?","?","?","?","?","?","?","?","?","?","?","?","?","?","?","?","?","?","?","?","?","?","?","?","?","?","?","?","?","?","?","?","?","?","?","?","?","?","?","?","?","?","?","?","?","?","?","?","?","?","?","?","?","?","?","?","?","?","?","?","?","?","?","?","?","?","?","?","?","?","?","?","?","?","?","?","?","?","?","?","?","?","?","?","?","?","?","?","?","?","?","?","?","?","?","?","?","?","?","?","?","?","?","?","?","?","?","?","?","?","?","?","?","?","?","?","?","?","?","?","?","?","?","?","?","?","?","?","?","?","?","?","?","?","?","?","?","?","?","?","?","?","?","?","?","?","?","?","?","?","?","?","?","?","?","?","?","?","?","?","?","?","?","?","?","?","?","?","?","?","?","?","?","?","?","?","?","?","?","?","?","?","?","?","?","?","?","?","?","?","?","?","?","?","?","?","?","?","?","?","?","?","?","?","?","?","?","?","?","?","?","?","?","?","?","?","?","?","?","?","?","?","?","?","?","?","?","?","?","?","?","?","?","?","?","?","?","?","?","?","?","?","?","?","?","?","?","?","?","?","?","?","?","?","?","?","?","?","?","?","?","?","?","?","?","?","?","?","?","?","?","?","?","?","?","?","?","?","?","?","?","?","?","?","?","?","?","?","?","?","?","?","?","?","?","?","?","?","?","?","?","?","?","?","?","?","?","?","?","?","?","?","?","?","?","?","?","?","?","?","?","?","?","?","?","?","?","?","?","?","?","?","?","?","?","?","?","?","?","?","?","?","?","?","?","?","?","?","?","?","?","?","?","?","?","?","?","?","?","?","?","?","?","?","?","?","?","?","?","?","?","?","?","?","?","?","?","?","?","?","?","?","?","?","?","?","?","?","?","?","?","?","?","?","?","?","?","?","?","?","?","?","?","?","?","?","?","?","?","?","?","?","?","?","?","?","?","?","?","?","?","?","?","?","?","?","?","?","?","?","?","?","?","?","?","?","?","?","?","?","?","?","?","?","?","?","?","?","?","?","?","?","?","?","?","?","?","?","?","?","?","?","?","?","?","?","?","?","?","?","?","?","?","?","?","?","?","?","?","?","?","?","?","?","?","?","?","?","?","?","?","?","?","?","?","?","?","?","?","?","?","?","?","?","?","?","?","?","?","?","?","?","?","?","?","?","?","?","?","?","?","?","?","?","?","?","?","?","?","?","?","?","?","?","?","?","?","?","?","?","?","?","?","?","?","?","?","?","?","?","?","?","?","?","?","?","?","?","?","?","?","?","?","?","?","?","?","?","?","?","?","?","?","?","?","?","?","?","?","?","?","?","?","?","?","?","?","?","?","?","?","?","?","?","?","?","?","?","?","?","?","?","?","?","?","?","?","?","?","?","?","?","?","?","?","?","?","?","?","?","?","?","?","?","?","?","?","?","?","?","?","?","?","?","?","?","?","?","?","?","?","?","?","?","?","?","?","?","?","?","?","?","?","?","?","?","?","?","?","?","?","?","?","?","?","?","?","?","?","?","?","?","?","?","?","?","?","?","?","?","?","?","?","?","?","?","?","?","?","?","?","?","?","?","?","?","?","?","?","?","?","?","?","?","?","?","?","?","?","?","?","?","?","?","?","?","?","?","?","?","?","?","?","?","?","?","?","?","?","?","?","?","?","?","?","?","?","?","?","?","?","?","?","?","?","?","?","?","?","?","?","?","?","?","?","?","?","?","?","?","?","?","?","?","?","?","?","?","?","?","?","?","?","?","?","?","?","?","?","?","?","?","?","?","?","?","?","?","?","?","?","?","?","?","?","?","?","?","?","?","?","?","?","?","?","?","?","?","?","?","?","?","?","?","?","?","?","?","?","?","?","?","?","?","?","?","?","?","?","?","?","?","?","?","?","?","?","?","?","?","?","?","?","?","?","?","?","?","?","?","?","?","?","?","?","?","?","?","?","?","?","?","?","?","?","?","?","?","?","?","?","?","?","?","?","?","?","?","?","?","?","?","?","?","?","?","?","?","?","?","?","?","?","?","?","?","?","?","?","?","?","?","?","?","?","?","?","?","?","?","?","?","?","?","?","?","?","?","?","?","?","?","?","?","?","?","?","?","?","?","?","?","?","?","?","?","?","?","?","?","?","?","?","?","?","?","?","?","?","?","?","?","?","?","?","?","?","?","?","?","?","?","?","?","?","?","?","?","?","?","?","?","?","?","?","?","?","?","?","?","?","?","?","?","?","?","?","?","?","?","?","?","?","?","?","?","?","?","?","?","?","?","?","?","?","?","?","?","?","?","?","?","?","?","?","?","?","?","?","?","?","?","?","?","?","?","?","?","?","?","?","?","?","?","?","?","?","?","?","?","?","?","?","?","?","?","?","?","?","?","?","?","?","?","?","?","?","?","?","?","?","?","?","?","?","?","?","?","?","?","?","?","?","?","?","?","?","?","?","?","?","?","?","?","?","?","?","?","?","?","?","?","?","?","?","?","?","?","?","?","?","?","?","?","?","?","?","?","?","?","?","?","?","?","?","?","?","?","?","?","?","?","?","?","?","?","?","?","?","?","?","?","?","?","?","?","?","?","?","?","?","?","?","?","?","?","?","?","?","?","?","?","?","?","?","?","?","?","?","?","?","?","?","?","?","?","?","?","?","?","?","?","?","?","?","?","?","?","?","?","?","?","?","?","?","?","?","?","?","?","?","?","?","?","?","?","?","?","?","?","?","?","?","?","?","?","?","?","?","?","?","?","?","?","?","?","?","?","?","?","?","?","?","?","?","?","?","?","?","?","?","?","?","?","?","?","?","?","?","?","?","?","?","?","?","?","?","?","?","?","?","?","?","?","?","?","?","?","?","?","?","?","?","?","?","?","?","?","?","?","?","?","?","?","?","?","?","?","?","?","?","?","?","?","?","?","?","?","?","?","?","?","?","?","?","?","?","?","?","?","?","?","?","?","?","?","?","?","?","?","?","?","?","?","?","?","?","?","?","?","?","?","?","?","?","?","?","?","?","?","?","?","?","?","?","?","?","?","?","?","?","?","?","?","?","?","?","?","?","?","?","?","?","?","?","?","?","?","?","?","?","?","?","?","?","?","?","?","?","?","?","?","?","?","?","?","?","?","?","?","?","?","?","?","?","?","?","?","?","?","?","?","?","?","?","?","?","?","?","?","?","?","?","?","?","?","?","?","?","?","?","?","?","?","?","?","?","?","?","?","?","?","?","?","?","?","?","?","?","?","?","?","?","?","?","?","?","?","?","?","?","?","?","?","?","?","?","?","?","?","?","?","?","?","?","?","?","?","?","?","?","?","?","?","?","?","?","?","?","?","?","?","?","?","?","?","?","?","?","?","?","?","?","?","?","?","?","?","?","?","?","?","?","?","?","?","?","?","?","?","?","?","?","?","?","?","?","?","?","?","?","?","?","?","?","?","?","?","?","?","?","?","?","?","?","?","?","?","?","?","?","?","?","?","?","?","?","?","?","?","?","?","?","?","?","?","?","?","?","?","?","?","?","?","?","?","?","?","?","?","?","?","?","?","?","?","?","?","?","?","?","?","?","?","?","?","?","?","?","?","?","?","?","?","?","?","?","?","?","?","?","?","?","?","?","?","?","?","?","?","?","?","?","?","?","?","?","?","?","?","?","?","?","?","?","?","?","?","?","?","?","?","?","?","?","?","?","?","?","?","?","?","?","?","?","?","?","?","?","?","?","?","?","?","?","?","?","?","?","?","?","?","?","?","?","?","?","?","?","?","?","?","?","?","?","?","?","?","?","?","?","?","?","?","?","?","?","?","?","?","?","?","?","?","?","?","?","?","?","?","?","?","?","?","?","?","?","?","?","?","?","?","?","?","?","?","?","?","?","?","?","?","?","?","?","?","?","?","?","?","?","?","?","?","?","?","?","?","?","?","?","?","?","?","?","?","?","?","?","?","?","?","?","?","?","?","?","?","?","?","?","?","?","?","?","?","?","?","?","?","?","?","?","?","?","?","?","?","?","?","?","?","?","?","?","?","?","?","?","?","?","?","?","?","?","?","?","?","?","?","?","?","?","?","?","?","?","?","?","?","?","?","?","?","?","?","?","?","?","?","?","?","?","?","?","?","?","?","?","?","?","?","?","?","?","?","?","?","?","?","?","?","?","?","?","?","?","?","?","?","?","?","?","?","?","?","?","?","?","?","?","?","?","?","?","?","?","?","?","?","?","?","?","?","?","?","?","?","?","?","?","?","?","?","?","?","?","?","?","?","?","?","?","?","?","?","?","?","?","?","?","?","?","?","?","?","?","?","?","?","?","?","?","?","?","?","?","?","?","?","?","?","?","?","?","?","?","?","?","?","?","?","?","?","?","?","?","?","?","?","?","?","?","?","?","?","?","?","?","?","?","?","?","?","?","?","?","?","?","?","?","?","?","?","?","?","?","?","?","?","?","?","?","?","?","?","?","?","?","?","?","?","?","?","?","?","?","?","?","?","?","?","?","?","?","?","?","?","?","?","?","?","?","?","?","?","?","?","?","?","?","?","?","?","?","?","?","?","?","?","?","?","?","?","?","?","?","?","?","?","?","?","?","?","?","?","?","?","?","?","?","?","?","?","?","?","?","?","?","?","?","?","?","?","?","?","?","?","?","?","?","?","?","?","?","?","?","?","?","?","?","?","?","?","?","?","?","?","?","?","?","?","?","?","?","?","?","?","?","?","?","?","?","?","?","?","?","?","?","?","?","?","?","?","?","?","?","?","?","?","?","?","?","?","?","?","?","?","?","?","?","?","?","?","?","?","?","?","?","?","?","?","?","?","?","?","?","?","?","?","?","?","?","?","?","?","?","?","?","?","?","?","?","?","?","?","?","?","?","?","?","?","?","?","?","?","?","?","?","?","?","?","?","?","?","?","?","?","?","?","?","?","?","?","?","?","?","?","?","?","?","?","?","?","?","?","?","?","?","?","?","?","?","?","?","?","?","?","?","?","?","?","?","?","?","?","?","?","?","?","?","?","?","?","?","?","?","?","?","?","?","?","?","?","?","?","?","?","?","?","?","?","?","?","?","?","?","?","?","?","?","?","?","?","?","?","?","?","?","?","?","?","?","?","?","?","?","?","?","?","?","?","?","?","?","?","?","?","?","?","?","?","?","?","?","?","?","?","?","?","?","?","?","?","?","?","?","?","?","?","?","?","?","?","?","?","?","?","?","?","?","?","?","?","?","?","?","?","?","?","?","?","?","?","?","?","?","?","?","?","?","?","?","?","?","?","?","?","?","?","?","?","?","?","?","?","?","?","?","?","?","?","?","?","?","?","?","?","?","?","?","?","?","?","?","?","?","?","?","?","?","?","?","?","?","?","?","?","?","?","?","?","?","?","?","?","?","?","?","?","?","?","?","?","?","?","?","?","?","?","?","?","?","?","?","?","?","?","?","?","?","?","?","?","?","?","?","?","?","?","?","?","?","?","?","?","?","?","?","?","?","?","?","?","?","?","?","?","?","?","?","?","?","?","?","?","?","?","?","?","?","?","?","?","?","?","?","?","?","?","?","?","?","?","?","?","?","?","?","?","?","?","?","?","?","?","?","?","?","?","?","?","?","?","?","?","?","?","?","?","?","?","?","?","?","?","?","?","?","?","?","?","?","?","?","?","?","?","?","?","?","?","?","?","?","?","?","?","?","?","?","?","?","?","?","?","?","?","?","?","?","?","?","?","?","?","?","?","?","?","?","?","?","?","?","?","?","?","?","?","?","?","?","?","?","?","?","?","?","?","?","?","?","?","?","?","?","?","?","?","?","?","?","?","?","?","?","?","?","?","?","?","?","?","?","?","?","?","?","?","?","?","?","?","?","?","?","?","?","?","?","?","?","?","?","?","?","?","?","?","?","?","?","?","?","?","?","?","?","?","?","?","?","?","?","?","?","?","?","?","?","?","?","?","?","?","?","?","?","?","?","?","?","?","?","?","?","?","?","?","?","?","?","?","?","?","?","?","?","?","?","?","?","?","?","?","?","?","?","?","?","?","?","?","?","?","?","?","?","?","?","?","?","?","?","?","?","?","?","?","?","?","?","?","?","?","?","?","?","?","?","?","?","?","?","?","?","?","?","?","?","?","?","?","?","?","?","?","?","?","?","?","?","?","?","?","?","?","?","?","?","?","?","?","?","?","?","?","?","?","?","?","?","?","?","?","?","?","?","?","?","?","?","?","?","?","?","?","?","?","?","?","?","?","?","?","?","?","?","?","?","?","?","?","?","?","?","?","?","?","?","?","?","?","?","?","?","?","?","?","?","?","?","?","?","?","?","?","?","?","?","?","?","?","?","?","?","?","?","?","?","?","?","?","?","?","?","?","?","?","?","?","?","?","?","?","?","?","?","?","?","?","?","?","?","?","?","?","?","?","?","?","?","?","?","?","?","?","?","?","?","?","?","?","?","?","?","?","?","?","?","?","?","?","?","?","?","?","?","?","?","?","?","?","?","?","?","?","?","?","?","?","?","?","?","?","?","?","?","?","?","?","?","?","?","?","?","?","?","?","?","?","?","?","?","?","?","?","?","?","?","?","?","?","?","?","?","?","?","?","?","?","?","?","?","?","?","?","?","?","?","?","?","?","?","?","?","?","?","?","?","?","?","?","?","?","?","?","?","?","?","?","?","?","?","?","?","?","?","?","?","?","?","?","?","?","?","?","?","?","?","?","?","?","?","?","?","?","?","?","?","?","?","?","?","?","?","?","?","?","?","?","?","?","?","?","?","?","?","?","?","?","?","?","?","?","?","?","?","?","?","?","?","?","?","?","?","?","?","?","?","?","?","?","?","?","?","?","?","?","?","?","?","?","?","?","?","?","?","?","?","?","?","?","?","?","?","?","?","?","?","?","?","?","?","?","?","?","?","?","?","?","?","?","?","?","?","?","?","?","?","?","?","?","?","?","?","?","?","?","?","?","?","?","?","?","?","?","?","?","?","?","?","?","?","?","?","?","?","?","?","?","?","?","?","?","?","?","?","?","?","?","?","?","?","?","?","?","?","?","?","?","?","?","?","?","?","?","?","?","?","?","?","?","?","?","?","?","?","?","?","?","?","?","?","?","?","?","?","?","?","?","?","?","?","?","?","?","?","?","?","?","?","?","?","?","?","?","?","?","?","?","?","?","?","?","?","?","?","?","?","?","?","?","?","?","?","?","?","?","?","?","?","?","?","?","?","?","?","?","?","?","?","?","?","?","?","?","?","?","?","?","?","?","?","?","?","?","?","?","?","?","?","?","?","?","?","?","?","?","?","?","?","?","?","?","?","?","?","?","?","?","?","?","?","?","?","?","?","?","?","?","?","?","?","?","?","?","?","?","?","?","?","?","?","?","?","?","?","?","?","?","?","?","?","?","?","?","?","?","?","?","?","?","?","?","?","?","?","?","?","?","?","?","?","?","?","?","?","?","?","?","?","?","?","?","?","?","?","?","?","?","?","?","?","?","?","?","?","?","?","?","?","?","?","?","?","?","?","?","?","?","?","?","?","?","?","?","?","?","?","?","?","?","?","?","?","?","?","?","?","?","?","?","?","?","?","?","?","?","?","?","?","?","?","?","?","?","?","?","?","?","?","?","?","?","?","?","?","?","?","?","?","?","?","?","?","?","?","?","?","?","?","?","?","?","?","?","?","?","?","?","?","?","?","?","?","?","?","?","?","?","?","?","?","?","?","?","?","?","?","?","?","?","?","?","?","?","?","?","?","?","?","?","?","?","?","?","?","?","?","?","?","?","?","?","?","?","?","?","?","?","?","?","?","?","?","?","?","?","?","?","?","?","?","?","?","?","?","?","?","?","?","?","?","?","?","?","?","?","?","?","?","?","?","?","?","?","?","?","?","?","?","?","?","?","?","?","?","?","?","?","?","?","?","?","?","?","?","?","?","?","?","?","?","?","?","?","?","?","?","?","?","?","?","?","?","?","?","?","?","?","?","?","?","?","?","?","?","?","?","?","?","?","?","?","?","?","?","?","?","?","?","?","?","?","?","?","?","?","?","?","?","?","?","?","?","?","?","?","?","?","?","?","?","?","?","?","?","?","?","?","?","?","?","?","?","?","?","?","?","?","?","?","?","?","?","?","?","?","?","?","?","?","?","?","?","?","?","?","?","?","?","?","?","?","?","?","?","?","?","?","?","?","?","?","?","?","?","?","?","?","?","?","?","?","?","?","?","?","?","?","?","?","?","?","?","?","?","?","?","?","?","?","?","?","?","?","?","?","?","?","?","?","?","?","?","?","?","?","?","?","?","?","?","?","?","?","?","?","?","?","?","?","?","?","?","?","?","?","?","?","?","?","?","?","?","?","?","?","?","?","?","?","?","?","?","?","?","?","?","?","?","?","?","?","?","?","?","?","?","?","?","?","?","?","?","?","?","?","?","?","?","?","?","?","?","?","?","?","?","?","?","?","?","?","?","?","?","?","?","?","?","?","?","?","?","?","?","?","?","?","?","?","?","?","?","?","?","?","?","?","?","?","?","?","?","?","?","?","?","?","?","?","?","?","?","?","?","?","?","?","?","?","?","?","?","?","?","?","?","?","?","?","?","?","?","?","?","?","?","?","?","?","?","?","?","?","?","?","?","?","?","?","?","?","?","?","?","?","?","?","?","?","?","?","?","?","?","?","?","?","?","?","?","?","?","?","?","?","?","?","?","?","?","?","?","?","?","?","?","?","?","?","?","?","?","?","?","?","?","?","?","?","?","?","?","?","?","?","?","?","?","?","?","?","?","?","?","?","?","?","?","?","?","?","?","?","?","?","?","?","?","?","?","?","?","?","?","?","?","?","?","?","?","?","?","?","?","?","?","?","?","?","?","?","?","?","?","?","?","?","?","?","?","?","?","?","?","?","?","?","?","?","?","?","?","?","?","?","?","?","?","?","?","?","?","?","?","?","?","?","?","?","?","?","?","?","?","?","?","?","?","?","?","?","?","?","?","?","?","?","?","?","?","?","?","?","?","?","?","?","?","?","?","?","?","?","?","?","?","?","?","?","?","?","?","?","?","?","?","?","?","?","?","?","?","?","?","?","?","?","?","?","?","?","?","?","?","?","?","?","?","?","?","?","?","?","?","?","?","?","?","?","?","?","?","?","?","?","?","?","?","?","?","?","?","?","?","?","?","?","?","?","?","?","?","?","?","?","?","?","?","?","?","?","?","?","?","?","?","?","?","?","?","?","?","?","?","?","?","?","?","?","?","?","?","?","?","?","?","?","?","?","?","?","?","?","?","?","?","?","?","?","?","?","?","?","?","?","?","?","?","?","?","?","?","?","?","?","?","?","?","?","?","?","?","?","?","?","?","?","?","?","?","?","?","?","?","?","?","?","?","?","?","?","?","?","?","?","?","?","?","?","?","?","?","?","?","?","?","?","?","?","?","?","?","?","?","?","?","?","?","?","?","?","?","?","?","?","?","?","?","?","?","?","?","?","?","?","?","?","?","?","?","?","?","?","?","?","?","?","?","?","?","?","?","?","?","?","?","?","?","?","?","?","?","?","?","?","?","?","?","?","?","?","?","?","?","?","?","?","?","?","?","?","?","?","?","?","?","?","?","?","?","?","?","?","?","?","?","?","?","?","?","?","?","?","?","?","?","?","?","?","?","?","?","?","?","?","?","?","?","?","?","?","?","?","?","?","?","?","?","?","?","?","?","?","?","?","?","?","?","?","?","?","?","?","?","?","?","?","?","?","?","?","?","?","?","?","?","?","?","?","?","?","?","?","?","?","?","?","?","?","?","?","?","?","?","?","?","?","?","?","?","?","?","?","?","?","?","?","?","?","?","?","?","?","?","?","?","?","?","?","?","?","?","?","?","?","?","?","?","?","?","?","?","?","?","?","?","?","?","?","?","?","?","?","?","?","?","?","?","?","?","?","?","?","?","?","?","?","?","?","?","?","?","?","?","?","?","?","?","?","?","?","?","?","?","?","?","?","?","?","?","?","?","?","?","?","?","?","?","?","?","?","?","?","?","?","?","?","?","?","?","?","?","?","?","?","?","?","?","?","?","?","?","?","?","?","?","?","?","?","?","?","?","?","?","?","?","?","?","?","?","?","?","?","?","?","?","?","?","?","?","?","?","?","?","?","?","?","?","?","?","?","?","?","?","?","?","?","?","?","?","?","?","?","?","?","?","?","?","?","?","?","?","?","?","?","?","?","?","?","?","?","?","?","?","?","?","?","?","?","?","?","?","?","?","?","?","?","?","?","?","?","?","?","?","?","?","?","?","?","?","?","?","?","?","?","?","?","?","?","?","?","?","?","?","?","?","?","?","?","?","?","?","?","?","?","?","?","?","?","?","?","?","?","?","?","?","?","?","?","?","?","?","?","?","?","?","?","?","?","?","?","?","?","?","?","?","?","?","?","?","?","?","?","?","?","?","?","?","?","?","?","?","?","?","?","?","?","?","?","?","?","?","?","?","?","?","?","?","?","?","?","?","?","?","?","?","?","?","?","?","?","?","?","?","?","?","?","?","?","?","?","?","?","?","?","?","?","?","?","?","?","?","?","?","?","?","?","?","?","?","?","?","?","?","?","?","?","?","?","?","?","?","?","?","?","?","?","?","?","?","?","?","?","?","?","?","?","?","?","?","?","?","?","?","?","?","?","?","?","?","?","?","?","?","?","?","?","?","?","?","?","?","?","?","?","?","?","?","?","?","?","?","?","?","?","?","?","?","?","?","?","?","?","?","?","?","?","?","?","?","?","?","?","?","?","?","?","?","?","?","?","?","?","?","?","?","?","?","?","?","?","?","?","?","?","?","?","?","?","?","?","?","?","?","?","?","?","?","?","?","?","?","?","?","?","?","?","?","?","?","?","?","?","?","?","?","?","?","?","?","?","?","?","?","?","?","?","?","?","?","?","?","?","?","?","?","?","?","?","?","?","?","?","?","?","?","?","?","?","?","?","?","?","?","?","?","?","?","?","?","?","?","?","?","?","?","?","?","?","?","?","?","?","?","?","?","?","?","?","?","?","?","?","?","?","?","?","?","?","?","?","?","?","?","?","?","?","?","?","?","?","?","?","?","?","?","?","?","?","?","?","?","?","?","?","?","?","?","?","?","?","?","?","?","?","?","?","?","?","?","?","?","?","?","?","?","?","?","?","?","?","?","?","?","?","?","?","?","?","?","?","?","?","?","?","?","?","?","?","?","?","?","?","?","?","?","?","?","?","?","?","?","?","?","?","?","?","?","?","?","?","?","?","?","?","?","?","?","?","?","?","?","?","?","?","?","?","?","?","?","?","?","?","?","?","?","?","?","?","?","?","?","?","?","?","?","?","?","?","?","?","?","?","?","?","?","?","?","?","?","?","?","?","?","?","?","?","?","?","?","?","?","?","?","?","?","?","?","?","?","?","?","?","?","?","?","?","?","?","?","?","?","?","?","?","?","?","?","?","?","?","?","?","?","?","?","?","?","?","?","?","?","?","?","?","?","?","?","?","?","?","?","?","?","?","?","?","?","?","?","?","?","?","?","?","?","?","?","?","?","?","?","?","?","?","?","?","?","?","?","?","?","?","?","?","?","?","?","?","?","?","?","?","?","?","?","?","?","?","?","?","?","?","?","?","?","?","?","?","?","?","?","?","?","?","?","?","?","?","?","?","?","?","?","?","?","?","?","?","?","?","?","?","?","?","?","?","?","?","?","?","?","?","?","?","?","?","?","?","?","?","?","?","?","?","?","?","?","?","?","?","?","?","?","?","?","?","?","?","?","?","?","?","?","?","?","?","?","?","?","?","?","?","?","?","?","?","?","?","?","?","?","?","?","?","?","?","?","?","?","?","?","?","?","?","?","?","?","?","?","?","?","?","?","?","?","?","?","?","?","?","?","?","?","?","?","?","?","?","?","?","?","?","?","?","?","?","?","?","?","?","?","?","?","?","?","?","?","?","?","?","?","?","?","?","?","?","?","?","?","?","?","?","?","?","?","?","?","?","?","?","?","?","?","?","?","?","?","?","?","?","?","?","?","?","?","?","?","?","?","?","?","?","?","?","?","?","?","?","?","?","?","?","?","?","?","?","?","?","?","?","?","?","?","?","?","?","?","?","?","?","?","?","?","?","?","?","?","?","?","?","?","?","?","?","?","?","?","?","?","?","?","?","?","?","?","?","?","?","?","?","?","?","?","?","?","?","?","?","?","?","?","?","?","?","?","?","?","?","?","?","?","?","?","?","?","?","?","?","?","?","?","?","?","?","?","?","?","?","?","?","?","?","?","?","?","?","?","?","?","?","?","?","?","?","?","?","?","?","?","?","?","?","?","?","?","?","?","?","?","?","?","?","?","?","?","?","?","?","?","?","?","?","?","?","?","?","?","?","?","?","?","?","?","?","?","?","?","?","?","?","?","?","?","?","?","?","?","?","?","?","?","?","?","?","?","?","?","?","?","?","?","?","?","?","?","?","?","?","?","?","?","?","?","?","?","?","?","?","?","?","?","?","?","?","?","?","?","?","?","?","?","?","?","?","?","?","?","?","?","?","?","?","?","?","?","?","?","?","?","?","?","?","?","?","?","?","?","?","?","?","?","?","?","?","?","?","?","?","?","?","?","?","?","?","?","?","?","?","?","?","?","?","?","?","?","?","?","?","?","?","?","?","?","?","?","?","?","?","?","?","?","?","?","?","?","?","?","?","?","?","?","?","?","?","?","?","?","?","?","?","?","?","?","?","?","?","?","?","?","?","?","?","?","?","?","?","?","?","?","?","?","?","?","?","?","?","?","?","?","?","?","?","?","?","?","?","?","?","?","?","?","?","?","?","?","?","?","?","?","?","?","?","?","?","?","?","?","?","?","?","?","?","?","?","?","?","?","?","?","?","?","?","?","?","?","?","?","?","?","?","?","?","?","?","?","?","?","?","?","?","?","?","?","?","?","?","?","?","?","?","?","?","?","?","?","?","?","?","?","?","?","?","?","?","?","?","?","?","?","?","?","?","?","?","?","?","?","?","?","?","?","?","?","?","?","?","?","?","?","?","?","?","?","?","?","?","?","?","?","?","?","?","?","?","?","?","?","?","?","?","?","?","?","?","?","?","?","?","?","?","?","?","?","?","?","?","?","?","?","?","?","?","?","?","?","?","?","?","?","?","?","?","?","?","?","?","?","?","?","?","?","?","?","?","?","?","?","?","?","?","?","?","?","?","?","?","?","?","?","?","?","?","?","?","?","?","?","?","?","?","?","?","?","?","?","?","?","?","?","?","?","?","?","?","?","?","?","?","?","?","?","?","?","?","?","?","?","?","?","?","?","?","?","?","?","?","?","?","?","?","?","?","?","?","?","?","?","?","?","?","?","?","?","?","?","?","?","?","?","?","?","?","?","?","?","?","?","?","?","?","?","?","?","?","?","?","?","?","?","?","?","?","?","?","?","?","?","?","?","?","?","?","?","?","?","?","?","?","?","?","?","?","?","?","?","?","?","?","?","?","?","?","?","?","?","?","?","?","?","?","?","?","?","?","?","?","?","?","?","?","?","?","?","?","?","?","?","?","?","?","?","?","?","?","?","?","?","?","?","?","?","?","?","?","?","?","?","?","?","?","?","?","?","?","?","?","?","?","?","?","?","?","?","?","?","?","?","?","?","?","?","?","?","?","?","?","?","?","?","?","?","?","?","?","?","?","?","?","?","?","?","?","?","?","?","?","?","?","?","?","?","?","?","?","?","?","?","?","?","?","?","?","?","?","?","?","?","?","?","?","?","?","?","?","?","?","?","?","?","?","?","?","?","?","?","?","?","?","?","?","?","?","?","?","?","?","?","?","?","?","?","?","?","?","?","?","?","?","?","?","?","?","?","?","?","?","?","?","?","?","?","?","?","?","?","?","?","?","?","?","?","?","?","?","?","?","?","?","?","?","?","?","?","?","?","?","?","?","?","?","?","?","?","?","?","?","?","?","?","?","?","?","?","?","?","?","?","?","?","?","?","?","?","?","?","?","?","?","?","?","?","?","?","?","?","?","?","?","?","?","?","?","?","?","?","?","?","?","?","?","?","?","?","?","?","?","?","?","?","?","?","?","?","?","?","?","?","?","?","?","?","?","?","?","?","?","?","?","?","?","?","?","?","?","?","?","?","?","?","?","?","?","?","?","?","?","?","?","?","?","?","?","?","?","?","?","?","?","?","?","?","?","?","?","?","?","?","?","?","?","?","?","?","?","?","?","?","?","?","?","?","?","?","?","?","?","?","?","?","?","?","?","?","?","?","?","?","?","?","?","?","?","?","?","?","?","?","?","?","?","?","?","?","?","?","?","?","?","?","?","?","?","?","?","?","?","?","?","?","?","?","?","?","?","?","?","?","?","?","?","?","?","?","?","?","?","?","?","?","?","?","?","?","?","?","?","?","?","?","?","?","?","?","?","?","?","?","?","?","?","?","?","?","?","?","?","?","?","?","?","?","?","?","?","?","?","?","?","?","?","?","?","?","?","?","?","?","?","?","?","?","?","?","?","?","?","?","?","?","?","?","?","?","?","?","?","?","?","?","?","?","?","?","?","?","?","?","?","?","?","?","?","?","?","?","?","?","?","?","?","?","?","?","?","?","?","?","?","?","?","?","?","?","?","?","?","?","?","?","?","?","?","?","?","?","?","?","?","?","?","?","?","?","?","?","?","?","?","?","?","?","?","?","?","?","?","?","?","?","?","?","?","?","?","?","?","?","?","?","?","?","?","?","?","?","?","?","?","?","?","?","?","?","?","?","?","?","?","?","?","?","?","?","?","?","?","?","?","?","?","?","?","?","?","?","?","?","?","?","?","?","?","?","?","?","?","?","?","?","?","?","?","?","?","?","?","?","?","?","?","?","?","?","?","?","?","?","?","?","?","?","?","?","?","?","?","?","?","?","?","?","?","?","?","?","?","?","?","?","?","?","?","?","?","?","?","?","?","?","?","?","?","?","?","?","?","?","?","?","?","?","?","?","?","?","?","?","?","?","?","?","?","?","?","?","?","?","?","?","?","?","?","?","?","?","?","?","?","?","?","?","?","?","?","?","?","?","?","?","?","?","?","?","?","?","?","?","?","?","?","?","?","?","?","?","?","?","?","?","?","?","?","?","?","?","?","?","?","?","?","?","?","?","?","?","?","?","?","?","?","?","?","?","?","?","?","?","?","?","?","?","?","?","?","?","?","?","?","?","?","?","?","?","?","?","?","?","?","?","?","?","?","?","?","?","?","?","?","?","?","?","?","?","?","?","?","?","?","?","?","?","?","?","?","?","?","?","?","?","?","?","?","?","?","?","?","?","?","?","?","?","?","?","?","?","?","?","?","?","?","?","?","?","?","?","?","?","?","?","?","?","?","?","?","?","?","?","?","?","?","?","?","?","?","?","?","?","?","?","?","?","?","?","?","?","?","?","?","?","?","?","?","?","?","?","?","?","?","?","?","?","?","?","?","?","?","?","?","?","?","?","?","?","?","?","?","?","?","?","?","?","?","?","?","?","?","?","?","?","?","?","?","?","?","?","?","?","?","?","?","?","?","?","?","?","?","?","?","?","?","?","?","?","?","?","?","?","?","?","?","?","?","?","?","?","?","?","?","?","?","?","?","?","?","?","?","?","?","?","?","?","?","?","?","?","?","?","?","?","?","?","?","?","?","?","?","?","?","?","?","?","?","?","?","?","?","?","?","?","?","?","?","?","?","?","?","?","?","?","?","?","?","?","?","?","?","?","?","?","?","?","?","?","?","?","?","?","?","?","?","?","?","?","?","?","?","?","?","?","?","?","?","?","?","?","?","?","?","?","?","?","?","?","?","?","?","?","?","?","?","?","?","?","?","?","?","?","?","?","?","?","?","?","?","?","?","?","?","?","?","?","?","?","?","?","?","?","?","?","?","?","?","?","?","?","?","?","?","?","?","?","?","?","?","?","?","?","?","?","?","?","?","?","?","?","?","?","?","?","?","?","?","?","?","?","?","?","?","?","?","?","?","?","?","?","?","?","?","?","?","?","?","?","?","?","?","?","?","?","?","?","?","?","?","?","?","?","?","?","?","?","?","?","?","?","?","?","?","?","?","?","?","?","?","?","?","?","?","?","?","?","?","?","?","?","?","?","?","?","?","?","?","?","?","?","?","?","?","?","?","?","?","?","?","?","?","?","?","?","?","?","?","?","?","?","?","?","?","?","?","?","?","?","?","?","?","?","?","?","?","?","?","?","?","?","?","?","?","?","?","?","?","?","?","?","?","?","?","?","?","?","?","?","?","?","?","?","?","?","?","?","?","?","?","?","?","?","?","?","?","?","?","?","?","?","?","?","?","?","?","?","?","?","?","?","?","?","?","?","?","?","?","?","?","?","?","?","?","?","?","?","?","?","?","?","?","?","?","?","?","?","?","?","?","?","?","?","?","?","?","?","?","?","?","?","?","?","?","?","?","?","?","?","?","?","?","?","?","?","?","?","?","?","?","?","?","?","?","?","?","?","?","?","?","?","?","?","?","?","?","?","?","?","?","?","?","?","?","?","?","?","?","?","?","?","?","?","?","?","?","?","?","?","?","?","?","?","?","?","?","?","?","?","?","?","?","?","?","?","?","?","?","?","?","?","?","?","?","?","?","?","?","?","?","?","?","?","?","?","?","?","?","?","?","?","?","?","?","?","?","?","?","?","?","?","?","?","?","?","?","?","?","?","?","?","?","?","?","?","?","?","?","?","?","?","?","?","?","?","?","?","?","?","?","?","?","?","?","?","?","?","?","?","?","?","?","?","?","?","?","?","?","?","?","?","?","?","?","?","?","?","?","?","?","?","?","?","?","?","?","?","?","?","?","?","?","?","?","?","?","?","?","?","?","?","?","?","?","?","?","?","?","?","?","?","?","?","?","?","?","?","?","?","?","?","?","?","?","?","?","?","?","?","?","?","?","?","?","?","?","?","?","?","?","?","?","?","?","?","?","?","?","?","?","?","?","?","?","?","?","?","?","?","?","?","?","?","?","?","?","?","?","?","?","?","?","?","?","?","?","?","?","?","?","?","?","?","?","?","?","?","?","?","?","?","?","?","?","?","?","?","?","?","?","?","?","?","?","?","?","?","?","?","?","?","?","?","?","?","?","?","?","?","?","?","?","?","?","?","?","?","?","?","?","?","?","?","?","?","?","?","?","?","?","?","?","?","?","?","?","?","?","?","?","?","?","?","?","?","?","?","?","?","?","?","?","?","?","?","?","?","?","?","?","?","?","?","?","?","?","?","?","?","?","?","?","?","?","?","?","?","?","?","?","?","?","?","?","?","?","?","?","?","?","?","?","?","?","?","?","?","?","?","?","?","?","?","?","?","?","?","?","?","?","?","?","?","?","?","?","?","?","?","?","?","?","?","?","?","?","?","?","?","?","?","?","?","?","?","?","?","?","?","?","?","?","?","?","?","?","?","?","?","?","?","?","?","?","?","?","?","?","?","?","?","?","?","?","?","?","?","?","?","?","?","?","?","?","?","?","?","?","?","?","?","?","?","?","?","?","?","?","?","?","?","?","?","?","?","?","?","?","?","?","?","?","?","?","?","?","?","?","?","?","?","?","?","?","?","?","?","?","?","?","?","?","?","?","?","?","?","?","?","?","?","?","?","?","?","?","?","?","?","?","?","?","?","?","?","?","?","?","?","?","?","?","?","?","?","?","?","?","?","?","?","?","?","?","?","?","?","?","?","?","?","?","?","?","?","?","?","?","?","?","?","?","?","?","?","?","?","?","?","?","?","?","?","?","?","?","?","?","?","?","?","?","?","?","?","?","?","?","?","?","?","?","?","?","?","?","?","?","?","?","?","?","?","?","?","?","?","?","?","?","?","?","?","?","?","?","?","?","?","?","?","?","?","?","?","?","?","?","?","?","?","?","?","?","?","?","?","?","?","?","?","?","?","?","?","?","?","?","?","?","?","?","?","?","?","?","?","?","?","?","?","?","?","?","?","?","?","?","?","?","?","?","?","?","?","?","?","?","?","?","?","?","?","?","?","?","?","?","?","?","?","?","?","?","?","?","?","?","?","?","?","?","?","?","?","?","?","?","?","?","?","?","?","?","?","?","?","?","?","?","?","?","?","?","?","?","?","?","?","?","?","?","?","?","?","?","?","?","?","?","?","?","?","?","?","?","?","?","?","?","?","?","?","?","?","?","?","?","?","?","?","?","?","?","?","?","?","?","?","?","?","?","?","?","?","?","?","?","?","?","?","?","?","?","?","?","?","?","?","?","?","?","?","?","?","?","?","?","?","?","?","?","?","?","?","?","?","?","?","?","?","?","?","?","?","?","?","?","?","?","?","?","?","?","?","?","?","?","?","?","?","?","?","?","?","?","?","?","?","?","?","?","?","?","?","?","?","?","?","?","?","?","?","?","?","?","?","?","?","?","?","?","?","?","?","?","?","?","?","?","?","?","?","?","?","?","?","?","?","?","?","?","?","?","?","?","?","?","?","?","?","?","?","?","?","?","?","?","?","?","?","?","?","?","?","?","?","?","?","?","?","?","?","?","?","?","?","?","?","?","?","?","?","?","?","?","?","?","?","?","?","?","?","?","?","?","?","?","?","?","?","?","?","?","?","?","?","?","?","?","?","?","?","?","?","?","?","?","?","?","?","?","?","?","?","?","?","?","?","?","?","?","?","?","?","?","?","?","?","?","?","?","?","?","?","?","?","?","?","?","?","?","?","?","?","?","?","?","?","?","?","?","?","?","?","?","?","?","?","?","?","?","?","?","?","?","?","?","?","?","?","?","?","?","?","?","?","?","?","?","?","?","?","?","?","?","?","?","?","?","?","?","?","?","?","?","?","?","?","?","?","?","?","?","?","?","?","?","?","?","?","?","?","?","?","?","?","?","?","?","?","?","?","?","?","?","?","?","?","?","?","?","?","?","?","?","?","?","?","?","?","?","?","?","?","?","?","?","?","?","?","?","?","?","?","?","?","?","?","?","?","?","?","?","?","?","?","?","?","?","?","?","?","?","?","?","?","?","?","?","?","?","?","?","?","?","?","?","?","?","?","?","?","?","?","?","?","?","?","?","?","?","?","?","?","?","?","?","?","?","?","?","?","?","?","?","?","?","?","?","?","?","?","?","?","?","?","?","?","?","?","?","?","?","?","?","?","?","?","?","?","?","?","?","?","?","?","?","?","?","?","?","?","?","?","?","?","?","?","?","?","?","?","?","?","?","?","?","?","?","?","?","?","?","?","?","?","?","?","?","?","?","?","?","?","?","?","?","?","?","?","?","?","?","?","?","?","?","?","?","?","?","?","?","?","?","?","?","?","?","?","?","?","?","?","?","?","?","?","?","?","?","?","?","?","?","?","?","?","?","?","?","?","?","?","?","?","?","?","?","?","?","?","?","?","?","?","?","?","?","?","?","?","?","?","?","?","?","?","?","?","?","?","?","?","?","?","?","?","?","?","?","?","?","?","?","?","?","?","?","?","?","?","?","?","?","?","?","?","?","?","?","?","?","?","?","?","?","?","?","?","?","?","?","?","?","?","?","?","?","?","?","?","?","?","?","?","?","?","?","?","?","?","?","?","?","?","?","?","?","?","?","?","?","?","?","?","?","?","?","?","?","?","?","?","?","?","?","?","?","?","?","?","?","?","?","?","?","?","?","?","?","?","?","?","?","?","?","?","?","?","?","?","?","?","?","?","?","?","?","?","?","?","?","?","?","?","?","?","?","?","?","?","?","?","?","?","?","?","?","?","?","?","?","?","?","?","?","?","?","?","?","?","?","?","?","?","?","?","?","?","?","?","?","?","?","?","?","?","?","?","?","?","?","?","?","?","?","?","?","?","?","?","?","?","?","?","?","?","?","?","?","?","?","?","?","?","?","?","?","?","?","?","?","?","?","?","?","?","?","?","?","?","?","?","?","?","?","?","?","?","?","?","?","?","?","?","?","?","?","?","?","?","?","?","?","?","?","?","?","?","?","?","?","?","?","?","?","?","?","?","?","?","?","?","?","?","?","?","?","?","?","?","?","?","?","?","?","?","?","?","?","?","?","?","?","?","?","?","?","?","?","?","?","?","?","?","?","?","?","?","?","?","?","?","?","?","?","?","?","?","?","?","?","?","?","?","?","?","?","?","?","?","?","?","?","?","?","?","?","?","?","?","?","?","?","?","?","?","?","?","?","?","?","?","?","?","?","?","?","?","?","?","?","?","?","?","?","?","?","?","?","?","?","?","?","?","?","?","?","?","?","?","?","?","?","?","?","?","?","?","?","?","?","?","?","?","?","?","?","?","?","?","?","?","?","?","?","?","?","?","?","?","?","?","?","?","?","?","?","?","?","?","?","?","?","?","?","?","?","?","?","?","?","?","?","?","?","?","?","?","?","?","?","?","?","?","?","?","?","?","?","?","?","?","?","?","?","?","?","?","?","?","?","?","?","?","?","?","?","?","?","?","?","?","?","?","?","?","?","?","?","?","?","?","?","?","?","?","?","?","?","?","?","?","?","?","?","?","?","?","?","?","?","?","?","?","?","?","?","?","?","?","?","?","?","?","?","?","?","?","?","?","?","?","?","?","?","?","?","?","?","?","?","?","?","?","?","?","?","?","?","?","?","?","?","?","?","?","?","?","?","?","?","?","?","?","?","?","?","?","?","?","?","?","?","?","?","?","?","?","?","?","?","?","?","?","?","?","?","?","?","?","?","?","?","?","?","?","?","?","?","?","?","?","?","?","?","?","?","?","?","?","?","?","?","?","?","?","?","?","?","?","?","?","?","?","?","?","?","?","?","?","?","?","?","?","?","?","?","?","?","?","?","?","?","?","?","?","?","?","?","?","?","?","?","?","?","?","?","?","?","?","?","?","?","?","?","?","?","?","?","?","?","?","?","?","?","?","?","?","?","?","?","?","?","?","?","?","?","?","?","?","?","?","?","?","?","?","?","?","?","?","?","?","?","?","?","?","?","?","?","?","?","?","?","?","?","?","?","?","?","?","?","?","?","?","?","?","?","?","?","?","?","?","?","?","?","?","?","?","?","?","?","?","?","?","?","?","?","?","?","?","?","?","?","?","?","?","?","?","?","?","?","?","?","?","?","?","?","?","?","?","?","?","?","?","?","?","?","?","?","?","?","?","?","?","?","?","?","?","?","?","?","?","?","?","?","?","?","?","?","?","?","?","?","?","?","?","?","?","?","?","?","?","?","?","?","?","?","?","?","?","?","?","?","?","?","?","?","?","?","?","?","?","?","?","?","?","?","?","?","?","?","?","?","?","?","?","?","?","?","?","?","?","?","?","?","?","?","?","?","?","?","?","?","?","?","?","?","?","?","?","?","?","?","?","?","?","?","?","?","?","?","?","?","?","?","?","?","?","?","?","?","?","?","?","?","?","?","?","?","?","?","?","?","?","?","?","?","?","?","?","?","?","?","?","?","?","?","?","?","?","?","?","?","?","?","?","?","?","?","?","?","?","?","?","?","?","?","?","?","?","?","?","?","?","?","?","?","?","?","?","?","?","?","?","?","?","?","?","?","?","?","?","?","?","?","?","?","?","?","?","?","?","?","?","?","?","?","?","?","?","?","?","?","?","?","?","?","?","?","?","?","?","?","?","?","?","?","?","?","?","?","?","?","?","?","?","?","?","?","?","?","?","?","?","?","?","?","?","?","?","?","?","?","?","?","?","?","?","?","?","?","?","?","?","?","?","?","?","?","?","?","?","?","?","?","?","?","?","?","?","?","?","?","?","?","?","?","?","?","?","?","?","?","?","?","?","?","?","?","?","?","?","?","?","?","?","?","?","?","?","?","?","?","?","?","?","?","?","?","?","?","?","?","?","?","?","?","?","?","?","?","?","?","?","?","?","?","?","?","?","?","?","?","?","?","?","?","?","?","?","?","?","?","?","?","?","?","?","?","?","?","?","?","?","?","?","?","?","?","?","?","?","?","?","?","?","?","?","?","?","?","?","?","?","?","?","?","?","?","?","?","?","?","?","?","?","?","?","?","?","?","?","?","