[{"success":true,"trial_type":"fullscreen","trial_index":0,"time_elapsed":5295,"internal_node_id":"0.0-0.0","protocol_sum":"","subject_identifier":219,"subject_sum":[15,212,43,63,115,196,72,179,73,64,179,57,248,125,7,173,241,22,176,92,2,39,170,215,46,143,14,233,5,51,230,153],"subject_pair":109,"STUDY_ID":"669eec2e4270c76bc184a38e","PROLIFIC_PID":"6659cae93e038bcb391ca5cc","SESSION_ID":"66a0abc63d69e0253ca518e1","practice_instructions":2,"leaderboard_instructions":1,"bonus":0,"reveal_word":true,"self_rating":"1","confidence":"100"},{"view_history":"[{\"page_index\":0,\"viewing_time\":17694}]","rt":17696,"trial_type":"instructions","trial_index":1,"time_elapsed":22993,"internal_node_id":"0.0-1.0","protocol_sum":"","subject_identifier":219,"subject_sum":[15,212,43,63,115,196,72,179,73,64,179,57,248,125,7,173,241,22,176,92,2,39,170,215,46,143,14,233,5,51,230,153],"subject_pair":109,"STUDY_ID":"669eec2e4270c76bc184a38e","PROLIFIC_PID":"6659cae93e038bcb391ca5cc","SESSION_ID":"66a0abc63d69e0253ca518e1","practice_instructions":2,"leaderboard_instructions":1,"bonus":0,"reveal_word":true,"self_rating":"1","confidence":"100"},{"view_history":"[{\"page_index\":0,\"viewing_time\":54484}]","rt":54485,"trial_type":"instructions","trial_index":2,"time_elapsed":77479,"internal_node_id":"0.0-2.0-0.0","protocol_sum":"","subject_identifier":219,"subject_sum":[15,212,43,63,115,196,72,179,73,64,179,57,248,125,7,173,241,22,176,92,2,39,170,215,46,143,14,233,5,51,230,153],"subject_pair":109,"STUDY_ID":"669eec2e4270c76bc184a38e","PROLIFIC_PID":"6659cae93e038bcb391ca5cc","SESSION_ID":"66a0abc63d69e0253ca518e1","practice_instructions":2,"leaderboard_instructions":1,"bonus":0,"reveal_word":true,"self_rating":"1","confidence":"100"},{"rt":49229,"responses":"{\"Q0\":\"... go <b>really fast</b> and finish the game as quickly as possible\"}","question_order":"[0]","trial_type":"survey-multi-choice","trial_index":3,"time_elapsed":126712,"internal_node_id":"0.0-2.0-1.0","protocol_sum":"","subject_identifier":219,"subject_sum":[15,212,43,63,115,196,72,179,73,64,179,57,248,125,7,173,241,22,176,92,2,39,170,215,46,143,14,233,5,51,230,153],"subject_pair":109,"correct":false,"test_part":"multichoice_nonpretend","STUDY_ID":"669eec2e4270c76bc184a38e","PROLIFIC_PID":"6659cae93e038bcb391ca5cc","SESSION_ID":"66a0abc63d69e0253ca518e1","practice_instructions":2,"leaderboard_instructions":1,"bonus":0,"reveal_word":true,"self_rating":"1","confidence":"100"},{"view_history":"[{\"page_index\":0,\"viewing_time\":13147}]","rt":13148,"trial_type":"instructions","trial_index":4,"time_elapsed":139863,"internal_node_id":"0.0-2.1-0.1","protocol_sum":"","subject_identifier":219,"subject_sum":[15,212,43,63,115,196,72,179,73,64,179,57,248,125,7,173,241,22,176,92,2,39,170,215,46,143,14,233,5,51,230,153],"subject_pair":109,"STUDY_ID":"669eec2e4270c76bc184a38e","PROLIFIC_PID":"6659cae93e038bcb391ca5cc","SESSION_ID":"66a0abc63d69e0253ca518e1","practice_instructions":2,"leaderboard_instructions":1,"bonus":0,"reveal_word":true,"self_rating":"1","confidence":"100"},{"rt":11670,"responses":"{\"Q0\":\"... reveal the word with as <b>few letter guesses</b> as possible\"}","question_order":"[0]","trial_type":"survey-multi-choice","trial_index":5,"time_elapsed":151536,"internal_node_id":"0.0-2.1-1.1","protocol_sum":"","subject_identifier":219,"subject_sum":[15,212,43,63,115,196,72,179,73,64,179,57,248,125,7,173,241,22,176,92,2,39,170,215,46,143,14,233,5,51,230,153],"subject_pair":109,"correct":true,"test_part":"multichoice_nonpretend","STUDY_ID":"669eec2e4270c76bc184a38e","PROLIFIC_PID":"6659cae93e038bcb391ca5cc","SESSION_ID":"66a0abc63d69e0253ca518e1","practice_instructions":2,"leaderboard_instructions":1,"bonus":0,"reveal_word":true,"self_rating":"1","confidence":"100"},{"view_history":"[{\"page_index\":0,\"viewing_time\":3702}]","rt":3702,"trial_type":"instructions","trial_index":6,"time_elapsed":155239,"internal_node_id":"0.0-3.0","protocol_sum":"","subject_identifier":219,"subject_sum":[15,212,43,63,115,196,72,179,73,64,179,57,248,125,7,173,241,22,176,92,2,39,170,215,46,143,14,233,5,51,230,153],"subject_pair":109,"STUDY_ID":"669eec2e4270c76bc184a38e","PROLIFIC_PID":"6659cae93e038bcb391ca5cc","SESSION_ID":"66a0abc63d69e0253ca518e1","practice_instructions":2,"leaderboard_instructions":1,"bonus":0,"reveal_word":true,"self_rating":"1","confidence":"100"},{"word":"ZEBRA","click_log":{"letter":["","A","C","G","T","V","X","Z","E","B","R"],"t":[0,9293,21002,37207,39037,40074,40859,41681,46610,50963,53395],"hit":[null,1,0,0,0,0,0,1,1,1,1],"asked":["","A","AC","ACG","ACGT","ACGTV","ACGTVX","ACGTVXZ","ACGTVXZE","ACGTVXZEB","ACGTVXZEBR"],"word_state":["_____","____A","____A","____A","____A","____A","____A","Z___A","ZE__A","ZEB_A","ZEBRA"]},"hover_log":{"letter":["?","?","?","?","?","?","?","?","?","?","?","?","?","?","?","?","?","?","?","?","?","?","?","?","?","?","?","?","?","?","?","?","?","?","?","?","?","?","?","?","J","J","?","?","?","?","?","?","?","?","?","?","?","?","?","?","?","?","?","?","?","?","?","?","?","?","?","?","?","?","?","?","?","?","?","?","?","?","?","?","?","?","?","?","?","?","?","?","?","?","?","?","?","?","?","?","?","?","?","?","?","?","?","?","?","?","?","?","?","?","?","?","?","?","?","?","?","?","?","?","?","?","?","?","?","?","?","?","?","?","?","?","?","?","?","?","?","?","?","?","?","?","?","?","?","?","?","?","?","?","?","?","?","?","?","?","?","?","?","?","?","?","?","?","?","?","?","?","?","?","?","?","?","?","?","?","?","?","?","?","?","?","?","?","?","?","?","?","?","?","?","?","?","?","?","?","?","?","?","?","?","?","?","?","?","?","?","?","?","?","?","?","?","?","?","?","?","?","?","?","?","?","?","?","?","?","?","?","?","?","?","?","?","?","?","?","?","?","?","?","?","?","?","?","?","?","?","?","?","?","?","?","?","?","?","?","?","?","?","?","?","?","?","?","?","?","?","?","?","?","?","?","?","?","?","?","?","?","?","?","?","?","?","?","?","?","?","?","?","?","?","?","?","?","?","?","?","?","?","?","?","?","?","?","?","?","?","?","?","?","?","?","?","?","?","?","?","?","?","?","?","?","?","?","?","?","?","?","?","?","?","?","?","?","?","?","?","?","?","?","?","?","?","?","?","?","?","?","?","?","?","?","?","?","?","?","?","?","?","?","?","?","?","?","?","?","?","?","?","?","?","?","?","?","?","?","?","?","?","?","?","?","?","?","?","?","?","?","?","?","?","?","?","?","?","?","?","?","?","?","?","?","?","?","?","?","?","?","?","?","?","?","?","?","?","?","?","?","?","?","?","?","?","?","?","?","?","?","?","?","?","?","?","?","?","?","?","?","?","?","?","?","?","?","?","?","?","?","?","?","?","?","?","?","?","?","?","?","?","?","?","?","?","?","?","?","A","A","A","A","A","A","A","A","A","A","A","A","A","A","A","A","A","A","A","A","A","A","A","A","A","A","A","A","A","A","A","A","A","A","A","A","A","A","A","A","A","A","A","A","A","A","A","A","A","A","A","A","A","A","A","A","A","A","A","A","A","A","A","A","A","A","A","A","A","A","A","A","A","A","A","A","A","A","A","A","A","A","A","A","A","A","A","A","A","A","A","A","A","?","?","?","?","?","?","?","?","?","?","?","?","?","?","?","?","?","?","?","?","?","?","?","?","?","?","?","?","?","?","?","?","?","?","?","?","?","?","?","?","?","?","?","?","?","?","?","?","?","?","?","?","?","?","?","?","?","?","?","?","?","?","?","?","?","?","?","?","?","?","?","?","?","?","?","?","?","?","?","?","?","?","?","?","?","?","?","?","?","?","?","?","?","?","?","?","?","?","?","?","?","?","?","?","?","?","?","?","?","?","?","?","?","?","?","?","?","?","?","?","?","?","?","?","?","?","?","?","?","?","?","?","?","?","?","?","?","?","?","?","?","?","?","?","?","?","?","?","?","?","?","?","?","?","?","?","?","?","?","?","?","?","?","?","?","?","?","?","?","?","?","?","?","?","?","?","D","D","?","?","?","?","?","?","?","?","?","?","?","?","?","?","?","?","?","?","?","?","?","?","?","?","?","?","?","?","?","?","?","?","?","?","?","?","?","?","?","?","?","?","?","?","?","?","?","?","?","?","?","?","?","?","?","?","?","?","?","?","?","?","?","?","?","?","?","?","?","?","?","?","?","?","?","?","D","D","D","D","D","D","D","D","?","?","?","?","M","M","M","M","?","?","?","?","W","W","W","W","W","W","W","W","W","W","W","W","W","W","W","W","W","W","W","W","W","W","?","?","?","?","?","?","?","?","?","?","?","?","?","?","?","?","?","?","?","?","?","?","?","?","?","?","?","?","?","?","?","?","?","?","?","?","?","?","?","?","?","?","?","?","?","?","?","?","?","?","?","?","?","?","?","?","?","?","?","?","?","?","?","?","?","?","?","?","?","?","?","O","O","O","O","O","O","O","O","O","O","O","?","?","?","?","?","?","?","?","?","?","?","?","?","?","?","?","?","?","?","?","?","?","?","?","?","?","?","?","?","?","?","?","?","?","?","?","?","?","?","?","?","?","?","?","?","?","?","?","?","?","?","?","?","?","?","?","?","?","?","?","?","?","?","?","?","?","?","?","?","?","?","?","?","?","?","?","?","?","?","?","?","?","O","O","O","O","O","O","?","P","P","P","P","?","?","?","?","?","?","?","?","?","?","?","?","?","?","?","?","?","?","?","?","?","?","?","?","?","?","?","?","?","?","?","?","?","?","?","?","?","?","?","?","?","?","?","?","?","?","?","?","?","?","?","?","?","?","?","?","?","?","?","?","?","?","?","?","?","?","?","?","?","?","?","?","?","?","?","?","?","?","?","?","?","?","?","?","?","?","?","?","?","?","?","?","C","C","C","C","C","C","C","C","C","C","C","C","C","C","C","C","C","C","C","C","C","C","C","C","C","C","C","C","C","C","C","C","C","C","C","C","C","C","C","C","C","C","C","C","C","C","C","C","C","C","C","C","C","C","C","C","C","C","C","C","C","C","?","?","?","?","?","M","M","M","M","M","M","M","M","M","?","?","?","?","?","?","?","?","?","?","?","?","?","?","?","?","?","?","?","?","?","?","?","?","?","?","?","L","L","M","M","M","M","M","?","?","?","?","?","?","?","?","?","?","?","?","?","?","?","?","?","?","?","?","?","?","?","?","?","?","?","?","?","?","?","?","?","?","?","?","?","?","?","?","?","?","?","?","?","?","?","?","?","?","?","?","?","?","?","?","?","?","?","?","?","?","?","?","?","?","?","?","?","?","?","?","?","?","?","?","?","?","?","?","?","?","?","?","?","?","?","?","?","?","D","?","?","?","?","?","?","?","?","?","?","?","?","?","?","?","?","?","?","?","?","?","?","?","?","?","?","?","?","?","?","?","?","?","?","?","?","?","?","?","?","?","?","?","?","?","?","?","?","?","?","?","?","?","?","?","?","?","?","?","?","?","?","?","?","?","?","?","?","?","?","?","?","?","?","?","?","?","?","?","?","?","?","?","?","?","?","?","?","?","?","?","?","?","?","?","?","?","?","?","?","?","?","?","?","?","?","?","?","?","?","?","?","?","?","?","?","?","?","?","?","?","?","?","?","?","?","?","?","?","?","?","?","?","?","?","?","?","?","?","?","?","?","?","?","?","?","?","?","?","?","?","?","?","?","?","?","?","?","?","?","?","?","?","?","?","?","?","?","?","?","?","?","?","?","?","?","?","?","?","?","?","?","?","?","?","?","?","?","?","?","?","?","?","?","?","?","?","?","?","?","?","?","?","?","?","?","?","?","?","?","?","?","?","?","?","?","?","?","?","?","?","?","?","?","?","?","?","?","?","?","?","?","?","?","?","?","?","?","?","?","?","?","?","?","?","?","?","?","?","?","?","?","?","?","?","?","?","?","?","?","?","?","?","?","?","?","?","?","?","?","?","?","?","?","?","?","?","?","?","?","?","?","?","?","?","?","?","?","?","?","?","?","?","?","?","?","?","?","?","?","?","?","?","?","?","?","?","?","?","?","?","?","?","?","?","?","?","?","?","?","?","?","?","?","?","?","?","?","?","?","?","?","?","?","?","?","?","?","?","?","?","?","?","?","?","?","?","?","?","?","?","?","?","?","?","?","?","?","?","?","?","?","?","?","?","?","?","?","?","?","?","?","?","?","?","?","?","?","?","?","?","?","?","?","?","?","?","?","?","?","?","?","?","?","?","?","?","?","?","?","?","?","?","?","?","?","?","?","?","?","?","?","?","?","?","?","?","?","?","?","?","?","?","?","?","?","?","?","?","?","?","?","?","?","?","?","?","?","?","?","?","?","?","?","?","?","?","?","?","?","?","?","?","?","?","?","?","?","?","?","?","?","?","?","?","?","?","?","?","?","?","?","?","?","?","?","?","?","?","?","?","?","?","?","?","?","?","?","?","?","?","?","?","?","?","?","?","?","?","?","?","?","?","?","?","?","?","?","?","?","?","?","?","?","?","?","?","?","?","?","?","?","?","?","?","?","?","?","?","?","?","?","?","?","?","?","?","?","?","?","?","?","?","?","?","?","?","?","?","?","?","?","?","?","?","?","?","?","?","?","?","?","?","?","?","?","?","?","?","?","?","?","?","?","?","?","?","?","?","?","?","?","?","?","?","?","?","?","?","?","?","?","?","G","G","G","G","G","G","G","G","G","G","G","G","G","G","G","G","G","G","G","G","G","G","G","G","G","G","G","G","G","G","G","G","G","G","G","G","G","G","G","G","G","G","G","G","G","G","G","G","G","G","G","G","G","G","G","G","G","G","G","G","G","G","G","G","G","G","G","G","G","G","G","?","?","?","O","O","O","O","?","N","N","N","N","N","?","?","?","?","?","?","?","?","?","?","?","?","?","?","?","?","?","?","?","?","?","?","T","T","T","T","T","T","T","T","T","T","T","T","T","T","T","T","T","T","T","T","T","T","T","T","T","T","T","T","T","T","T","T","T","T","T","T","T","T","T","T","T","T","T","T","?","U","U","U","?","V","V","V","V","V","V","V","V","V","V","V","V","V","V","V","V","V","V","V","V","V","V","V","V","V","V","V","V","V","V","V","V","V","V","V","V","V","V","V","V","V","V","V","V","V","V","V","?","W","W","W","W","W","W","?","?","X","X","X","X","X","X","X","X","X","X","X","X","X","X","X","X","X","X","X","X","X","X","X","X","X","X","X","X","X","X","X","X","X","X","X","X","X","X","X","X","X","X","X","?","?","Y","Y","Y","Y","Y","Y","Y","Y","Y","Y","Y","Y","Y","Y","?","?","?","?","?","Z","Z","Z","Z","Z","Z","Z","Z","Z","Z","Z","Z","Z","Z","Z","Z","Z","Z","Z","Z","Z","Z","Z","Z","Z","Z","Z","Z","Z","Z","Z","Z","Z","Z","Z","Z","Z","Z","?","Y","Y","Y","Y","?","?","?","X","?","?","?","?","W","W","?","?","?","?","?","?","?","?","?","?","?","?","?","?","?","?","?","?","?","?","?","?","?","?","?","?","?","?","?","?","?","?","?","?","?","?","?","?","?","?","?","?","?","?","?","?","?","?","?","?","?","?","?","?","?","?","?","?","?","?","?","?","?","?","?","?","?","V","V","V","V","V","V","V","V","V","V","?","?","M","M","?","?","?","?","?","?","?","?","?","?","?","?","?","?","?","?","?","?","?","?","?","?","?","?","?","?","?","?","?","?","?","?","?","?","?","?","?","?","?","?","?","?","?","?","?","?","?","?","?","?","?","?","?","?","?","?","?","?","?","?","?","?","?","?","?","?","?","?","?","?","?","?","?","?","?","?","?","?","?","?","?","?","?","?","?","?","?","?","?","?","?","?","?","?","?","?","?","?","?","?","?","?","?","?","?","?","?","?","?","?","?","?","?","?","?","?","?","?","?","?","?","?","?","?","?","?","?","?","D","D","D","?","E","E","E","E","E","E","?","?","?","?","?","?","?","?","?","?","?","?","?","?","?","?","E","E","E","E","E","E","E","E","E","E","E","E","E","E","E","E","E","E","E","E","E","E","E","E","E","E","E","E","E","E","E","E","E","E","E","E","E","E","E","E","E","E","E","E","E","E","E","E","E","E","E","E","E","E","E","E","E","E","E","E","E","E","E","E","E","E","E","E","E","E","E","E","E","E","E","E","E","E","E","E","E","E","E","E","E","E","E","E","E","E","E","E","E","E","E","E","E","E","E","E","E","E","E","E","E","E","E","E","E","?","?","?","?","N","N","N","N","N","?","?","?","?","?","?","?","?","?","X","X","?","?","?","?","?","?","?","?","W","W","W","?","?","?","?","?","?","?","?","?","?","?","?","?","O","O","O","O","O","O","O","O","O","?","?","?","?","?","?","?","?","?","?","?","?","?","?","?","?","O","O","O","O","O","O","O","?","?","?","?","?","?","?","?","?","?","?","?","?","?","?","?","?","W","W","W","W","?","?","?","?","?","V","?","?","?","?","?","?","?","?","?","?","?","?","?","?","?","?","L","L","L","L","L","L","L","?","?","?","?","?","?","?","?","B","B","B","B","B","B","B","B","B","B","B","B","B","B","B","B","B","B","B","B","B","B","B","B","B","B","B","B","B","B","B","B","B","B","B","B","B","B","B","B","B","B","B","B","B","B","B","B","B","B","B","B","B","B","B","B","B","B","B","B","B","?","?","C","C","C","C","C","C","C","?","?","?","?","?","?","?","?","?","?","?","?","?","D","D","D","D","D","D","D","D","D","D","D","?","E","E","E","?","?","F","F","F","G","G","G","G","G","G","G","G","G","?","?","?","?","?","?","?","?","?","?","?","?","R","R","R","R","R","R","R","R","R","R","R","R","R","R","R","R","R","R","R","R","R","R","R","R","R","R","R","R","R","R","R","R","R","R","R","R","R","R","R","R","R","R","R","R","R","R","R","R","R","R","R","R","R","R","R","R","R","R","R","R","R","R","R","R","R","R","?","Q","Q","Q","Q","Q","?","P","P","P","P","P","P","P","P","P","P","P","P","P","P","P","P","P","P","P","P","P","?","Q","Q","?","?","?","?","?","?","?","?","?","?","?","?","?","?","?","?","?","?","?","?","?","?","?","?","?","?","?","?","?","?","?","?","?","?","?","?","?","?","?","?","?","?","?","?","?","?","?","?","?","?","?","?","?","?","?","?"],"t":[160,173,214,233,249,265,281,297,313,329,344,359,375,391,407,424,441,457,473,490,504,521,552,574,607,641,673,707,741,773,807,840,873,907,940,973,1007,1040,1075,1108,1144,1175,1210,1243,1276,1309,1341,1374,1411,1443,1475,1508,1541,1574,1610,1643,1675,1687,1703,1719,1737,1754,1771,1787,1803,1819,1834,1851,1867,1884,1901,1917,1934,1952,1967,1984,2001,2018,2034,2052,2068,2085,2103,2118,2135,2151,2167,2184,2201,2217,2234,2252,2267,2284,2300,2316,2334,2351,2366,2383,2400,2416,2434,2451,2467,2485,2502,2522,2539,2552,2567,2583,2600,2616,2634,2651,2666,2682,2701,2718,2734,2751,2768,2784,2800,2817,2833,2851,2867,2884,2902,2917,2934,2952,2967,2984,3001,3017,3034,3051,3068,3083,3100,3116,3136,3152,3167,3183,3200,3217,3233,3249,3265,3282,3300,3316,3334,3351,3367,3384,3401,3416,3433,3450,3466,3483,3499,3515,3532,3550,3566,3582,3600,3616,3633,3650,3666,3684,3701,3718,3735,3751,3767,3783,3801,3818,3834,3851,3867,3883,3900,3917,3934,3963,3976,3991,4002,4018,4034,4052,4068,4085,4103,4119,4136,4153,4169,4186,4202,4218,4235,4253,4269,4285,4302,4317,4335,4352,4368,4384,4402,4419,4434,4451,4467,4484,4502,4516,4534,4551,4568,4585,4601,4620,4635,4651,4667,4683,4700,4716,4733,4751,4767,4783,4801,4816,4834,4850,4867,4884,4901,4917,4935,4953,4969,4985,5003,5018,5035,5052,5068,5084,5101,5117,5134,5151,5167,5184,5202,5217,5234,5251,5267,5284,5301,5318,5335,5352,5368,5385,5403,5419,5440,5452,5468,5484,5502,5517,5534,5551,5568,5584,5601,5617,5634,5650,5667,5684,5700,5716,5733,5751,5770,5785,5802,5818,5835,5851,5868,5884,5902,5917,5934,5951,5968,5984,6001,6018,6034,6051,6068,6084,6102,6119,6136,6154,6169,6186,6202,6219,6236,6252,6269,6284,6301,6318,6334,6351,6369,6384,6401,6418,6434,6451,6469,6484,6501,6518,6534,6557,6570,6587,6604,6620,6637,6654,6670,6686,6702,6720,6736,6752,6769,6785,6802,6818,6833,6851,6870,6887,6904,6917,6933,6950,6969,6985,7002,7019,7036,7052,7069,7085,7101,7118,7134,7152,7169,7185,7202,7218,7234,7251,7268,7284,7301,7319,7334,7352,7371,7386,7403,7420,7435,7451,7469,7486,7502,7519,7535,7552,7569,7585,7602,7619,7635,7653,7667,7685,7701,7718,7734,7751,7770,7786,7802,7819,7836,7852,7868,7885,7902,7918,7934,7951,7968,7984,8000,8017,8034,8050,8067,8083,8100,8117,8134,8150,8170,8187,8205,8221,8237,8253,8269,8286,8302,8318,8335,8355,8368,8384,8402,8419,8434,8451,8469,8484,8502,8519,8535,8554,8570,8587,8603,8620,8636,8653,8669,8685,8702,8719,8735,8753,8769,8785,8802,8820,8834,8851,8868,8884,8901,8919,8934,8955,8970,8984,9003,9020,9036,9052,9069,9085,9105,9120,9134,9152,9168,9185,9202,9218,9235,9252,9268,9283,9302,9319,9334,9352,9369,9384,9402,9420,9436,9453,9470,9486,9503,9519,9535,9552,9569,9586,9602,9619,9635,9653,9668,9684,9701,9718,9734,9752,9785,9800,9809,9840,9874,9907,9941,9975,10007,10040,10075,10108,10140,10175,10209,10242,10275,10309,10342,10375,10407,10440,10475,10509,10541,10576,10607,10643,10676,10707,10720,10734,10752,10770,10785,10801,10818,10834,10850,10867,10884,10901,10919,10934,10952,10968,10984,11002,11020,11037,11052,11070,11087,11103,11120,11135,11151,11170,11187,11203,11220,11236,11252,11269,11284,11300,11318,11334,11352,11367,11383,11401,11420,11434,11451,11470,11484,11501,11519,11535,11551,11567,11582,11601,11618,11637,11652,11667,11682,11700,11717,11733,11751,11768,11784,11800,11817,11833,11850,11868,11884,11901,11918,11934,11951,11970,11984,12002,12018,12033,12051,12067,12083,12100,12118,12134,12150,12167,12183,12199,12216,12232,12249,12266,12283,12302,12318,12334,12351,12367,12384,12400,12417,12434,12451,12466,12482,12499,12516,12532,12550,12567,12582,12599,12616,12632,12649,12667,12683,12701,12718,12734,12751,12767,12783,12799,12817,12834,12850,12867,12884,12900,12917,12933,12950,12967,12983,13000,13018,13034,13052,13071,13098,13113,13124,13157,13190,13225,13259,13291,13324,13358,13390,13424,13458,13490,13524,13557,13590,13624,13658,13691,13725,13760,13792,13827,13859,13892,13924,13957,13990,14025,14057,14090,14124,14157,14191,14226,14257,14291,14326,14360,14393,14406,14422,14441,14454,14470,14486,14502,14521,14535,14552,14568,14585,14602,14618,14635,14651,14667,14683,14700,14717,14733,14751,14769,14785,14802,14819,14834,14851,14868,14884,14901,14918,14933,14951,14969,14984,15001,15017,15035,15051,15068,15085,15107,15130,15143,15155,15170,15187,15203,15222,15236,15253,15269,15285,15303,15319,15335,15353,15370,15386,15404,15420,15436,15453,15471,15486,15501,15522,15538,15556,15572,15587,15606,15621,15637,15653,15669,15685,15705,15721,15737,15755,15770,15785,15802,15817,15833,15850,15868,15884,15900,15918,15934,15954,15973,15988,16003,16019,16037,16053,16069,16085,16101,16118,16134,16152,16170,16184,16202,16217,16234,16251,16268,16284,16301,16319,16334,16354,16371,16387,16403,16421,16437,16454,16469,16485,16501,16519,16537,16555,16569,16584,16601,16619,16634,16651,16668,16684,16701,16718,16734,16751,16769,16785,16801,16819,16835,16851,16868,16884,16901,16919,16934,16951,16968,16984,17000,17017,17033,17051,17068,17083,17100,17117,17133,17154,17171,17185,17203,17222,17238,17255,17269,17285,17302,17318,17335,17353,17369,17386,17404,17420,17434,17453,17468,17485,17501,17518,17534,17551,17568,17588,17603,17620,17637,17653,17671,17686,17702,17721,17736,17753,17769,17786,17803,17821,17835,17851,17869,17885,17902,17920,17935,17951,17979,17990,18005,18019,18035,18052,18069,18085,18102,18118,18135,18151,18170,18186,18203,18220,18235,18252,18269,18284,18301,18318,18334,18350,18368,18384,18401,18419,18437,18454,18470,18487,18503,18519,18538,18556,18570,18586,18603,18620,18634,18652,18668,18684,18701,18718,18734,18751,18771,18787,18804,18822,18837,18854,18871,18888,18904,18922,18937,18955,18970,18985,19003,19020,19035,19052,19069,19084,19101,19119,19135,19151,19168,19186,19202,19218,19235,19251,19271,19286,19302,19319,19334,19354,19374,19390,19410,19420,19435,19452,19469,19484,19501,19517,19533,19551,19568,19584,19602,19621,19637,19655,19670,19689,19706,19721,19738,19754,19770,19785,19801,19820,19835,19851,19868,19884,19902,19918,19934,19951,19968,19984,20001,20020,20035,20051,20069,20085,20104,20119,20136,20153,20170,20186,20204,20220,20238,20253,20270,20286,20301,20318,20334,20351,20368,20385,20401,20419,20437,20454,20471,20487,20502,20521,20536,20552,20568,20584,20601,20617,20634,20652,20668,20684,20701,20718,20734,20751,20778,20807,20840,20875,20908,20940,20974,21008,21131,21158,21191,21224,21257,21290,21325,21357,21390,21425,21457,21490,21524,21558,21591,21624,21657,21690,21725,21759,21790,21825,21857,21890,21924,21957,21990,22024,22057,22090,22124,22157,22190,22224,22257,22290,22326,22357,22391,22424,22457,22491,22524,22557,22591,22626,22659,22691,22725,22759,22791,22826,22858,22892,22924,22957,22991,23025,23057,23091,23124,23158,23191,23228,23261,23293,23326,23359,23392,23426,23460,23493,23527,23560,23593,23626,23660,23693,23724,23757,23792,23826,23859,23892,23924,23958,23993,24026,24059,24091,24124,24157,24191,24224,24257,24291,24324,24357,24391,24426,24460,24493,24526,24559,24592,24625,24658,24692,24726,24761,24773,24784,24799,24816,24833,24849,24867,24883,24899,24916,24933,24949,24967,24987,25001,25019,25034,25050,25066,25083,25099,25117,25134,25149,25167,25185,25200,25217,25234,25251,25267,25284,25300,25318,25334,25351,25369,25386,25402,25418,25434,25451,25468,25485,25500,25518,25535,25551,25568,25584,25600,25628,25660,25692,25724,25757,25792,25824,25857,25891,25924,25958,25991,26024,26057,26091,26124,26158,26192,26225,26259,26292,26325,26357,26391,26425,26459,26492,26529,26559,26593,26626,26658,26692,26725,26758,26794,26825,26859,26892,26924,26957,26991,27024,27058,27092,27125,27157,27191,27226,27259,27292,27324,27357,27391,27426,27437,27453,27469,27485,27501,27517,27535,27550,27568,27585,27601,27618,27634,27650,27667,27684,27700,27717,27734,27750,27767,27784,27800,27819,27836,27852,27869,27885,27902,27918,27936,27954,27970,27984,28001,28017,28035,28052,28068,28084,28100,28117,28133,28150,28168,28186,28201,28218,28234,28251,28268,28285,28301,28317,28333,28349,28366,28383,28400,28416,28433,28449,28467,28484,28500,28516,28534,28551,28568,28587,28603,28619,28636,28652,28670,28686,28700,28719,28735,28751,28769,28786,28803,28820,28836,28850,28868,28884,28901,28917,28935,28951,28967,28985,29002,29019,29035,29052,29070,29085,29101,29118,29134,29151,29167,29187,29203,29218,29235,29251,29267,29283,29300,29318,29333,29351,29373,29386,29399,29418,29436,29451,29469,29486,29501,29519,29535,29550,29567,29586,29603,29618,29635,29650,29667,29684,29701,29717,29734,29750,29767,29785,29800,29817,29834,29849,29866,29883,29901,29917,29934,29950,29967,29984,30000,30017,30035,30051,30068,30084,30100,30119,30136,30151,30167,30184,30200,30217,30234,30250,30267,30285,30301,30318,30335,30351,30367,30383,30400,30416,30433,30449,30466,30483,30502,30517,30534,30550,30567,30584,30600,30617,30634,30650,30667,30685,30701,30717,30735,30751,30769,30786,30803,30818,30834,30852,30867,30884,30901,30917,30934,30950,30967,30984,31000,31017,31034,31050,31067,31083,31099,31116,31134,31150,31167,31184,31200,31217,31234,31250,31267,31284,31300,31317,31334,31350,31366,31384,31401,31416,31433,31449,31466,31484,31500,31518,31535,31551,31568,31584,31600,31617,31633,31649,31666,31683,31699,31716,31733,31750,31766,31784,31799,31817,31834,31850,31867,31884,31900,31917,31935,31952,31968,31985,32001,32017,32034,32050,32067,32084,32102,32121,32134,32150,32167,32184,32200,32217,32234,32250,32267,32284,32300,32318,32335,32352,32367,32384,32400,32417,32434,32450,32467,32483,32500,32517,32533,32550,32568,32585,32600,32617,32633,32649,32666,32683,32699,32717,32736,32749,32767,32784,32801,32817,32833,32849,32866,32883,32899,32917,32934,32950,32967,32984,33000,33017,33034,33051,33067,33084,33101,33117,33134,33150,33168,33185,33201,33218,33234,33250,33267,33284,33300,33317,33335,33350,33367,33384,33400,33417,33434,33450,33467,33484,33500,33517,33535,33557,33567,33584,33600,33618,33635,33650,33668,33684,33701,33719,33734,33749,33768,33786,33800,33816,33834,33850,33866,33883,33899,33916,33933,33950,33968,33985,34001,34019,34034,34050,34067,34084,34102,34118,34134,34151,34167,34184,34200,34217,34234,34250,34268,34284,34300,34317,34334,34350,34367,34385,34401,34418,34435,34450,34467,34484,34501,34518,34534,34550,34567,34584,34600,34617,34634,34650,34667,34684,34700,34716,34733,34749,34766,34784,34800,34818,34835,34851,34867,34884,34900,34916,34933,34949,34966,34983,35001,35019,35034,35049,35066,35083,35099,35116,35133,35149,35167,35184,35203,35220,35235,35253,35268,35286,35302,35318,35335,35351,35368,35386,35403,35419,35436,35452,35469,35485,35501,35517,35534,35550,35567,35584,35602,35618,35635,35650,35667,35685,35700,35718,35735,35751,35770,35787,35803,35819,35835,35851,35868,35884,35901,35917,35934,35950,35967,35984,36000,36016,36035,36050,36067,36084,36100,36116,36133,36150,36167,36185,36202,36219,36235,36249,36268,36285,36301,36317,36334,36351,36368,36388,36404,36419,36438,36453,36473,36489,36502,36518,36535,36551,36569,36585,36602,36619,36636,36652,36669,36686,36700,36734,36760,36791,36825,36836,36852,36870,36885,36901,36918,36935,36951,36967,36984,37001,37017,37034,37052,37067,37084,37100,37116,37134,37150,37166,37183,37199,37218,37235,37252,37268,37285,37301,37317,37333,37349,37366,37383,37399,37417,37434,37450,37467,37484,37500,37517,37534,37550,37567,37584,37600,37617,37634,37650,37668,37685,37701,37718,37734,37751,37768,37786,37801,37818,37835,37851,37868,37885,37902,37920,37936,37958,37971,37986,38002,38019,38037,38053,38070,38087,38102,38119,38135,38151,38170,38186,38203,38219,38235,38252,38267,38285,38301,38318,38334,38352,38367,38386,38402,38419,38436,38451,38468,38486,38502,38519,38534,38551,38567,38585,38602,38619,38635,38651,38667,38684,38700,38717,38733,38751,38767,38785,38800,38816,38833,38849,38868,38885,38901,38918,38935,38950,38967,38984,39000,39017,39035,39052,39067,39084,39100,39117,39134,39151,39169,39186,39203,39219,39236,39254,39269,39287,39303,39321,39338,39357,39370,39383,39401,39418,39435,39451,39466,39485,39504,39516,39533,39550,39566,39583,39600,39616,39633,39650,39667,39684,39702,39718,39735,39754,39768,39784,39801,39819,39836,39852,39868,39884,39901,39917,39933,39951,39967,39984,40001,40017,40034,40051,40067,40088,40103,40122,40138,40154,40169,40186,40204,40219,40236,40253,40269,40286,40301,40317,40334,40352,40367,40384,40401,40417,40434,40450,40466,40483,40500,40516,40534,40552,40568,40586,40601,40616,40635,40651,40667,40683,40702,40717,40735,40759,40772,40784,40800,40816,40833,40850,40867,40885,40903,40919,40937,40954,40970,40987,41004,41020,41036,41052,41069,41085,41102,41118,41135,41152,41168,41186,41202,41219,41235,41251,41268,41284,41302,41319,41336,41353,41369,41386,41402,41417,41435,41451,41467,41484,41502,41519,41534,41551,41567,41584,41601,41616,41633,41650,41667,41684,41701,41717,41735,41752,41768,41785,41801,41818,41835,41852,41868,41884,41901,41918,41936,41952,41968,41986,42002,42019,42036,42052,42068,42085,42102,42118,42146,42159,42192,42204,42220,42236,42253,42268,42285,42302,42317,42334,42351,42367,42384,42401,42417,42434,42451,42469,42484,42502,42517,42536,42552,42568,42585,42603,42619,42636,42652,42668,42684,42701,42717,42733,42753,42766,42783,42800,42817,42833,42851,42866,42883,42900,42916,42933,42950,42966,42984,43003,43019,43034,43050,43067,43084,43102,43117,43134,43154,43170,43185,43201,43217,43234,43251,43267,43284,43301,43317,43336,43351,43368,43386,43404,43419,43436,43453,43469,43485,43503,43518,43535,43555,43581,43595,43607,43621,43636,43653,43670,43686,43706,43722,43739,43755,43773,43788,43805,43819,43837,43853,43870,43885,43902,43918,43934,43952,43968,43984,44001,44017,44034,44052,44068,44084,44101,44117,44134,44151,44168,44186,44204,44220,44236,44253,44269,44286,44303,44319,44335,44354,44368,44385,44402,44418,44435,44453,44468,44485,44502,44518,44535,44552,44568,44586,44604,44620,44636,44653,44669,44685,44702,44719,44735,44753,44769,44785,44803,44819,44835,44852,44868,44885,44902,44918,44935,44955,44971,44987,45002,45018,45036,45053,45069,45086,45102,45119,45135,45152,45167,45185,45201,45217,45234,45252,45267,45284,45301,45317,45334,45352,45368,45388,45405,45421,45438,45454,45470,45487,45503,45521,45538,45554,45571,45586,45605,45619,45637,45653,45670,45686,45703,45720,45739,45757,45773,45789,45805,45821,45838,45854,45871,45887,45903,45919,45937,45952,45968,45985,46002,46018,46035,46051,46067,46085,46102,46117,46136,46153,46169,46188,46205,46220,46238,46253,46270,46286,46303,46321,46337,46352,46370,46390,46405,46418,46434,46451,46468,46485,46502,46518,46535,46552,46568,46585,46602,46620,46636,46653,46670,46686,46704,46719,46736,46754,46769,46786,46803,46819,46836,46852,46868,46885,46902,46918,46935,46952,46968,46985,47002,47019,47036,47054,47070,47087,47103,47119,47136,47153,47169,47184,47202,47218,47234,47252,47268,47285,47301,47317,47334,47351,47371,47384,47401,47417,47434,47453,47469,47487,47503,47519,47536,47552,47569,47586,47602,47619,47635,47652,47669,47685,47702,47718,47735,47759,47774,47789,47809,47841,47874,47908,47941,47974,48010,48043,48076,48109,48142,48175,48210,48243,48275,48286,48303,48320,48338,48354,48370,48385,48403,48419,48436,48452,48467,48485,48502,48518,48536,48554,48568,48584,48602,48619,48636,48654,48669,48686,48703,48719,48737,48754,48769,48785,48803,48820,48835,48852,48869,48885,48902,48919,48938,48955,48969,48986,49002,49019,49035,49054,49069,49087,49103,49118,49138,49153,49168,49186,49203,49218,49234,49251,49270,49285,49303,49319,49338,49355,49375,49387,49403,49419,49435,49453,49468,49487,49503,49519,49538,49554,49569,49588,49604,49618,49635,49652,49668,49685,49702,49718,49734,49753,49769,49785,49802,49818,49836,49852,49868,49885,49903,49919,49936,49953,49971,49986,50002,50019,50036,50052,50069,50085,50102,50118,50135,50152,50169,50186,50204,50219,50236,50253,50268,50287,50303,50319,50336,50354,50370,50387,50403,50420,50436,50453,50468,50486,50501,50517,50535,50551,50567,50584,50601,50619,50635,50650,50666,50684,50701,50720,50739,50756,50770,50785,50805,50822,50837,50853,50869,50885,50902,50918,50935,50952,50968,50985,51002,51018,51035,51052,51068,51085,51102,51118,51136,51154,51170,51187,51204,51219,51236,51253,51269,51286,51303,51319,51336,51353,51369,51386,51404,51420,51437,51454,51470,51487,51503,51519,51538,51556,51572,51588,51604,51621,51637,51654,51670,51688,51706,51718,51738,51762,51772,51787,51804,51820,51835,51852,51868,51885,51903,51923,51939,51956,51972,51989,52005,52021,52037,52053,52071,52100,52117,52143,52175,52211,52243,52276,52309,52341,52375,52411,52443,52453,52468,52487,52502,52518,52535,52553,52569,52586,52603,52619,52636,52653,52668,52685,52702,52719,52735,52754,52770,52786,52803,52821,52836,52852,52868,52884,52901,52918,52934,52951,52966,52984,53001,53017,53034,53052,53068,53085,53102,53117,53135,53151,53167,53185,53202,53218,53234,53251,53267,53284,53302,53318,53334,53351,53367,53384,53407,53419,53435,53452,53468,53485,53503,53518,53535,53554,53571,53593,53624,53659,53691,53725,53759,53791,53826,53860,53893,53925,53961,53993,54027,54037,54054,54070,54086,54103,54118,54135,54152,54168,54185,54201,54217,54234,54251,54267,54285,54301,54318,54334,54351,54368,54387,54404,54421,54438,54454,54470,54486,54503,54519,54537,54553,54571,54588,54603,54618,54635,54652,54668,54685,54703,54718,54735,54752,54770,54787,54803,54820,54836,54852,54868,54886,54901,54918,54936,54951,54969,54985,55002,55018,55035,55052,55069,55086,55105,55122,55140,55156,55168,55184,55200,55216,55234,55252,55268,55285,55302,55319,55334,55352,55368,55384,55405],"hit":[null],"x":[-1.751700680272109,-1.751700680272109,-1.751700680272109,-1.751700680272109,-1.751700680272109,-1.751700680272109,-1.751700680272109,-1.751700680272109,-1.751700680272109,-1.751700680272109,-1.751700680272109,-1.751700680272109,-1.751700680272109,-1.751700680272109,-1.751700680272109,-1.751700680272109,-1.751700680272109,-1.751700680272109,-1.751700680272109,-1.751700680272109,-1.751700680272109,-1.751700680272109,-1.751700680272109,-1.751700680272109,-1.751700680272109,-1.751700680272109,-1.751700680272109,-1.751700680272109,-1.751700680272109,-1.751700680272109,-1.751700680272109,-1.751700680272109,-1.751700680272109,-1.751700680272109,-1.751700680272109,-1.751700680272109,-1.751700680272109,-1.751700680272109,-1.751700680272109,-1.751700680272109,0.04081632653061224,0.006802721088435374,-0.07142857142857142,-0.20748299319727892,-0.3129251700680272,-0.35374149659863946,-0.40816326530612246,-0.45918367346938777,-0.5136054421768708,-0.5306122448979592,-0.5374149659863946,-0.5374149659863946,-0.5374149659863946,-0.5272108843537415,-0.4931972789115646,-0.45918367346938777,-0.4421768707482993,-0.42517006802721086,-0.40816326530612246,-0.391156462585034,-0.38095238095238093,-0.37755102040816324,-0.36054421768707484,-0.3469387755102041,-0.3231292517006803,-0.3129251700680272,-0.3129251700680272,-0.3129251700680272,-0.3129251700680272,-0.3129251700680272,-0.3129251700680272,-0.3129251700680272,-0.3129251700680272,-0.3129251700680272,-0.3129251700680272,-0.3129251700680272,-0.3129251700680272,-0.3129251700680272,-0.3129251700680272,-0.3129251700680272,-0.3129251700680272,-0.3129251700680272,-0.3129251700680272,-0.3129251700680272,-0.3129251700680272,-0.3129251700680272,-0.3129251700680272,-0.3129251700680272,-0.3129251700680272,-0.3129251700680272,-0.3129251700680272,-0.3129251700680272,-0.3129251700680272,-0.3129251700680272,-0.3129251700680272,-0.3129251700680272,-0.3129251700680272,-0.3129251700680272,-0.3129251700680272,-0.3129251700680272,-0.3129251700680272,-0.3129251700680272,-0.3129251700680272,-0.3129251700680272,-0.3129251700680272,-0.3129251700680272,-0.3129251700680272,-0.3129251700680272,-0.3129251700680272,-0.3129251700680272,-0.3129251700680272,-0.3129251700680272,-0.3129251700680272,-0.3129251700680272,-0.3129251700680272,-0.3129251700680272,-0.3129251700680272,-0.3129251700680272,-0.3129251700680272,-0.3129251700680272,-0.3129251700680272,-0.3129251700680272,-0.3129251700680272,-0.3129251700680272,-0.3129251700680272,-0.3129251700680272,-0.3129251700680272,-0.3129251700680272,-0.3129251700680272,-0.3129251700680272,-0.3129251700680272,-0.3129251700680272,-0.3129251700680272,-0.3129251700680272,-0.3129251700680272,-0.3129251700680272,-0.3129251700680272,-0.3129251700680272,-0.3129251700680272,-0.3129251700680272,-0.3129251700680272,-0.3129251700680272,-0.3129251700680272,-0.3129251700680272,-0.3129251700680272,-0.3129251700680272,-0.3129251700680272,-0.3129251700680272,-0.3129251700680272,-0.3129251700680272,-0.3129251700680272,-0.3129251700680272,-0.3129251700680272,-0.3129251700680272,-0.3129251700680272,-0.3129251700680272,-0.3129251700680272,-0.3129251700680272,-0.3129251700680272,-0.3129251700680272,-0.3129251700680272,-0.3129251700680272,-0.3129251700680272,-0.3129251700680272,-0.3129251700680272,-0.3129251700680272,-0.3129251700680272,-0.3129251700680272,-0.3129251700680272,-0.3129251700680272,-0.3129251700680272,-0.3129251700680272,-0.3129251700680272,-0.3129251700680272,-0.3129251700680272,-0.3129251700680272,-0.3129251700680272,-0.3129251700680272,-0.3129251700680272,-0.3129251700680272,-0.3129251700680272,-0.3129251700680272,-0.3129251700680272,-0.3129251700680272,-0.3129251700680272,-0.3129251700680272,-0.3129251700680272,-0.3129251700680272,-0.3129251700680272,-0.3129251700680272,-0.3129251700680272,-0.3129251700680272,-0.3129251700680272,-0.3129251700680272,-0.3129251700680272,-0.3129251700680272,-0.3129251700680272,-0.3129251700680272,-0.3129251700680272,-0.3129251700680272,-0.3129251700680272,-0.3129251700680272,-0.3129251700680272,-0.3129251700680272,-0.3129251700680272,-0.3129251700680272,-0.3129251700680272,-0.3129251700680272,-0.3129251700680272,-0.3129251700680272,-0.3129251700680272,-0.3129251700680272,-0.3129251700680272,-0.3129251700680272,-0.3129251700680272,-0.3129251700680272,-0.3129251700680272,-0.3129251700680272,-0.3129251700680272,-0.3129251700680272,-0.3129251700680272,-0.3129251700680272,-0.3129251700680272,-0.3129251700680272,-0.3129251700680272,-0.3129251700680272,-0.3129251700680272,-0.3129251700680272,-0.3129251700680272,-0.3129251700680272,-0.3129251700680272,-0.3129251700680272,-0.3129251700680272,-0.3129251700680272,-0.3129251700680272,-0.3129251700680272,-0.3129251700680272,-0.3129251700680272,-0.3129251700680272,-0.3129251700680272,-0.3129251700680272,-0.3129251700680272,-0.3129251700680272,-0.3129251700680272,-0.3129251700680272,-0.3129251700680272,-0.3129251700680272,-0.3129251700680272,-0.3129251700680272,-0.3129251700680272,-0.3129251700680272,-0.3129251700680272,-0.3129251700680272,-0.3129251700680272,-0.3129251700680272,-0.3129251700680272,-0.3129251700680272,-0.3129251700680272,-0.3129251700680272,-0.3129251700680272,-0.3129251700680272,-0.3129251700680272,-0.3129251700680272,-0.3129251700680272,-0.3129251700680272,-0.3129251700680272,-0.3129251700680272,-0.3129251700680272,-0.3129251700680272,-0.3129251700680272,-0.3129251700680272,-0.3129251700680272,-0.3129251700680272,-0.3129251700680272,-0.3129251700680272,-0.3129251700680272,-0.3129251700680272,-0.3129251700680272,-0.3129251700680272,-0.3129251700680272,-0.3129251700680272,-0.3129251700680272,-0.3129251700680272,-0.3129251700680272,-0.3129251700680272,-0.3129251700680272,-0.3129251700680272,-0.3129251700680272,-0.3129251700680272,-0.3129251700680272,-0.3129251700680272,-0.3129251700680272,-0.3129251700680272,-0.3129251700680272,-0.3129251700680272,-0.3129251700680272,-0.3129251700680272,-0.3129251700680272,-0.3129251700680272,-0.3129251700680272,-0.3129251700680272,-0.3129251700680272,-0.3129251700680272,-0.3129251700680272,-0.3129251700680272,-0.3129251700680272,-0.3129251700680272,-0.3129251700680272,-0.3129251700680272,-0.3129251700680272,-0.3129251700680272,-0.3129251700680272,-0.3129251700680272,-0.3129251700680272,-0.3129251700680272,-0.3129251700680272,-0.3129251700680272,-0.3129251700680272,-0.3129251700680272,-0.3129251700680272,-0.3129251700680272,-0.3129251700680272,-0.3129251700680272,-0.3129251700680272,-0.3129251700680272,-0.3129251700680272,-0.3129251700680272,-0.3129251700680272,-0.3129251700680272,-0.3129251700680272,-0.3129251700680272,-0.3129251700680272,-0.3129251700680272,-0.3129251700680272,-0.3129251700680272,-0.3129251700680272,-0.3129251700680272,-0.3129251700680272,-0.3129251700680272,-0.3129251700680272,-0.3129251700680272,-0.3129251700680272,-0.3129251700680272,-0.3129251700680272,-0.3129251700680272,-0.3129251700680272,-0.3129251700680272,-0.3129251700680272,-0.3129251700680272,-0.3129251700680272,-0.3129251700680272,-0.3129251700680272,-0.3129251700680272,-0.3129251700680272,-0.3129251700680272,-0.3129251700680272,-0.3129251700680272,-0.3129251700680272,-0.3129251700680272,-0.3129251700680272,-0.3129251700680272,-0.3129251700680272,-0.3129251700680272,-0.3129251700680272,-0.3129251700680272,-0.3129251700680272,-0.3129251700680272,-0.3129251700680272,-0.3129251700680272,-0.3129251700680272,-0.3129251700680272,-0.3129251700680272,-0.3129251700680272,-0.3129251700680272,-0.3129251700680272,-0.3129251700680272,-0.3129251700680272,-0.3129251700680272,-0.3129251700680272,-0.3129251700680272,-0.3129251700680272,-0.3129251700680272,-0.3129251700680272,-0.3129251700680272,-0.3129251700680272,-0.3129251700680272,-0.3129251700680272,-0.3129251700680272,-0.3129251700680272,-0.3129251700680272,-0.3129251700680272,-0.3129251700680272,-0.3129251700680272,-0.3129251700680272,-0.3129251700680272,-0.3129251700680272,-0.3129251700680272,-0.3129251700680272,-0.3129251700680272,-0.3129251700680272,-0.3129251700680272,-0.3129251700680272,-0.3129251700680272,-0.3129251700680272,-0.3129251700680272,-0.3129251700680272,-0.3129251700680272,-0.3129251700680272,-0.3129251700680272,-0.3129251700680272,-0.3129251700680272,-0.3129251700680272,-0.3129251700680272,-0.3129251700680272,-0.3129251700680272,-0.3129251700680272,-0.3129251700680272,-0.3129251700680272,-0.3129251700680272,-0.3129251700680272,-0.3129251700680272,-0.3129251700680272,-0.3129251700680272,-0.3129251700680272,-0.3129251700680272,-0.3129251700680272,-0.3129251700680272,-0.3129251700680272,-0.3129251700680272,-0.3129251700680272,-0.3129251700680272,-0.3129251700680272,-0.3129251700680272,-0.3129251700680272,-0.3129251700680272,-0.3129251700680272,-0.3129251700680272,-0.3129251700680272,-0.3129251700680272,-0.3129251700680272,-0.3129251700680272,-0.3129251700680272,-0.3129251700680272,-0.3129251700680272,-0.29591836734693877,-0.23129251700680273,-0.17006802721088435,-0.1326530612244898,-0.11564625850340136,-0.08843537414965986,-0.06462585034013606,-0.047619047619047616,-0.04421768707482993,-0.027210884353741496,-0.023809523809523808,-0.023809523809523808,-0.023809523809523808,-0.02040816326530612,-0.02040816326530612,-0.02040816326530612,-0.02040816326530612,-0.02040816326530612,-0.02040816326530612,-0.02040816326530612,-0.02040816326530612,-0.02040816326530612,-0.02040816326530612,-0.01020408163265306,0,0.003401360544217687,0.003401360544217687,0.003401360544217687,0.003401360544217687,0.003401360544217687,0.003401360544217687,0.003401360544217687,0.003401360544217687,0.003401360544217687,0.003401360544217687,0.003401360544217687,0.003401360544217687,0.003401360544217687,0.003401360544217687,0.003401360544217687,0.003401360544217687,0.003401360544217687,0.003401360544217687,0.003401360544217687,0.003401360544217687,0.003401360544217687,0.003401360544217687,0.003401360544217687,0.003401360544217687,0.003401360544217687,0.003401360544217687,0.003401360544217687,0.003401360544217687,0.003401360544217687,0.003401360544217687,0.003401360544217687,0.003401360544217687,0.003401360544217687,0.003401360544217687,0.003401360544217687,0.003401360544217687,0.003401360544217687,0.003401360544217687,0.003401360544217687,0.003401360544217687,0.003401360544217687,0.003401360544217687,0.003401360544217687,0.003401360544217687,0.003401360544217687,0.003401360544217687,0.003401360544217687,0.003401360544217687,0.003401360544217687,0.003401360544217687,0.003401360544217687,0.003401360544217687,0.003401360544217687,0.003401360544217687,0.003401360544217687,0.003401360544217687,0.003401360544217687,0.003401360544217687,0.003401360544217687,0.003401360544217687,0.003401360544217687,0.003401360544217687,0.003401360544217687,0.003401360544217687,0.003401360544217687,0.003401360544217687,0.003401360544217687,0.003401360544217687,0.003401360544217687,0.003401360544217687,0.003401360544217687,0.003401360544217687,0.003401360544217687,0.003401360544217687,0.003401360544217687,0.003401360544217687,0.003401360544217687,0.003401360544217687,0.003401360544217687,0.003401360544217687,0.003401360544217687,0.003401360544217687,0.003401360544217687,0.003401360544217687,0.003401360544217687,0.003401360544217687,0.006802721088435374,0.01020408163265306,0.017006802721088437,0.02040816326530612,0.023809523809523808,0.03741496598639456,0.04081632653061224,0.04081632653061224,0.04081632653061224,0.04081632653061224,0.05442176870748299,0.06462585034013606,0.07482993197278912,0.0782312925170068,0.08503401360544217,0.10204081632653061,0.1054421768707483,0.10884353741496598,0.10884353741496598,0.10884353741496598,0.10884353741496598,0.10884353741496598,0.10884353741496598,0.10884353741496598,0.10884353741496598,0.10884353741496598,0.10884353741496598,0.11904761904761904,0.1292517006802721,0.1360544217687075,0.14285714285714285,0.15306122448979592,0.1564625850340136,0.1564625850340136,0.1564625850340136,0.1598639455782313,0.16326530612244897,0.16326530612244897,0.17346938775510204,0.1836734693877551,0.19047619047619047,0.19727891156462585,0.2108843537414966,0.22448979591836735,0.23469387755102042,0.24829931972789115,0.2619047619047619,0.272108843537415,0.2857142857142857,0.2891156462585034,0.29591836734693877,0.29591836734693877,0.29591836734693877,0.29931972789115646,0.29931972789115646,0.29931972789115646,0.29931972789115646,0.29931972789115646,0.29931972789115646,0.29931972789115646,0.29931972789115646,0.29931972789115646,0.29931972789115646,0.29931972789115646,0.29931972789115646,0.29931972789115646,0.29591836734693877,0.29591836734693877,0.29591836734693877,0.29591836734693877,0.29591836734693877,0.29591836734693877,0.29591836734693877,0.29591836734693877,0.29591836734693877,0.29591836734693877,0.29591836734693877,0.29591836734693877,0.29591836734693877,0.29591836734693877,0.29591836734693877,0.29591836734693877,0.29591836734693877,0.29591836734693877,0.29591836734693877,0.29591836734693877,0.29591836734693877,0.29591836734693877,0.29591836734693877,0.29591836734693877,0.29591836734693877,0.29591836734693877,0.2925170068027211,0.2925170068027211,0.2925170068027211,0.2925170068027211,0.2925170068027211,0.2925170068027211,0.2925170068027211,0.2925170068027211,0.2925170068027211,0.2925170068027211,0.2925170068027211,0.2925170068027211,0.2925170068027211,0.2925170068027211,0.2925170068027211,0.2925170068027211,0.2925170068027211,0.2925170068027211,0.2925170068027211,0.2925170068027211,0.2925170068027211,0.2925170068027211,0.2925170068027211,0.2925170068027211,0.2925170068027211,0.2925170068027211,0.2925170068027211,0.2925170068027211,0.2925170068027211,0.2925170068027211,0.2925170068027211,0.2925170068027211,0.2925170068027211,0.2925170068027211,0.2925170068027211,0.2925170068027211,0.2925170068027211,0.2925170068027211,0.2925170068027211,0.2925170068027211,0.2925170068027211,0.2925170068027211,0.2925170068027211,0.2925170068027211,0.2925170068027211,0.2925170068027211,0.2925170068027211,0.2925170068027211,0.2925170068027211,0.2925170068027211,0.2925170068027211,0.2925170068027211,0.2925170068027211,0.2925170068027211,0.2925170068027211,0.2925170068027211,0.2925170068027211,0.2925170068027211,0.2925170068027211,0.2925170068027211,0.2925170068027211,0.2925170068027211,0.2925170068027211,0.2925170068027211,0.2925170068027211,0.2925170068027211,0.2925170068027211,0.29591836734693877,0.29931972789115646,0.30272108843537415,0.30952380952380953,0.3129251700680272,0.3163265306122449,0.3197278911564626,0.32653061224489793,0.3299319727891156,0.3333333333333333,0.336734693877551,0.3401360544217687,0.3435374149659864,0.35034013605442177,0.35374149659863946,0.35374149659863946,0.35374149659863946,0.35374149659863946,0.35374149659863946,0.35714285714285715,0.36394557823129253,0.3707482993197279,0.37755102040816324,0.38095238095238093,0.38095238095238093,0.38095238095238093,0.38095238095238093,0.38095238095238093,0.38095238095238093,0.37755102040816324,0.37755102040816324,0.37755102040816324,0.3741496598639456,0.3741496598639456,0.3741496598639456,0.3741496598639456,0.3741496598639456,0.3741496598639456,0.3741496598639456,0.3741496598639456,0.3673469387755102,0.35714285714285715,0.35034013605442177,0.336734693877551,0.3333333333333333,0.3333333333333333,0.3299319727891156,0.32653061224489793,0.32653061224489793,0.32653061224489793,0.32653061224489793,0.32653061224489793,0.32653061224489793,0.32653061224489793,0.32653061224489793,0.32653061224489793,0.32653061224489793,0.32653061224489793,0.32653061224489793,0.32653061224489793,0.32653061224489793,0.32653061224489793,0.32653061224489793,0.32653061224489793,0.32653061224489793,0.32653061224489793,0.32653061224489793,0.32653061224489793,0.32653061224489793,0.32653061224489793,0.32653061224489793,0.32653061224489793,0.32653061224489793,0.32653061224489793,0.32653061224489793,0.32653061224489793,0.32653061224489793,0.32653061224489793,0.32653061224489793,0.32653061224489793,0.3299319727891156,0.3299319727891156,0.3333333333333333,0.336734693877551,0.3401360544217687,0.3469387755102041,0.35034013605442177,0.35034013605442177,0.35034013605442177,0.35714285714285715,0.35714285714285715,0.35714285714285715,0.36394557823129253,0.36394557823129253,0.3673469387755102,0.3673469387755102,0.3673469387755102,0.3673469387755102,0.3673469387755102,0.3707482993197279,0.3707482993197279,0.3741496598639456,0.37755102040816324,0.3843537414965986,0.3945578231292517,0.40816326530612246,0.41156462585034015,0.41496598639455784,0.41496598639455784,0.42517006802721086,0.43197278911564624,0.4421768707482993,0.45918367346938777,0.46938775510204084,0.46938775510204084,0.47278911564625853,0.4897959183673469,0.5204081632653061,0.5272108843537415,0.5408163265306123,0.54421768707483,0.5544217687074829,0.5612244897959183,0.5714285714285714,0.5714285714285714,0.5714285714285714,0.5714285714285714,0.5714285714285714,0.5714285714285714,0.5714285714285714,0.5714285714285714,0.5714285714285714,0.5714285714285714,0.5714285714285714,0.5714285714285714,0.5680272108843537,0.5578231292517006,0.5544217687074829,0.5544217687074829,0.5544217687074829,0.5680272108843537,0.5748299319727891,0.5850340136054422,0.5952380952380952,0.5986394557823129,0.6054421768707483,0.6054421768707483,0.6054421768707483,0.608843537414966,0.608843537414966,0.608843537414966,0.608843537414966,0.608843537414966,0.608843537414966,0.608843537414966,0.608843537414966,0.6122448979591837,0.6122448979591837,0.6122448979591837,0.6122448979591837,0.6122448979591837,0.6122448979591837,0.6156462585034014,0.6190476190476191,0.6258503401360545,0.6258503401360545,0.6258503401360545,0.6258503401360545,0.6258503401360545,0.6258503401360545,0.6258503401360545,0.6258503401360545,0.6258503401360545,0.6258503401360545,0.6258503401360545,0.6258503401360545,0.6258503401360545,0.6258503401360545,0.6258503401360545,0.6258503401360545,0.6258503401360545,0.6258503401360545,0.6258503401360545,0.6258503401360545,0.6258503401360545,0.6258503401360545,0.6258503401360545,0.6258503401360545,0.6258503401360545,0.6258503401360545,0.6258503401360545,0.6258503401360545,0.6258503401360545,0.6258503401360545,0.6258503401360545,0.6258503401360545,0.6258503401360545,0.6258503401360545,0.6258503401360545,0.6258503401360545,0.6258503401360545,0.6258503401360545,0.6258503401360545,0.6258503401360545,0.6258503401360545,0.6258503401360545,0.6292517006802721,0.6360544217687075,0.6394557823129252,0.6394557823129252,0.6496598639455783,0.6666666666666666,0.6802721088435374,0.6836734693877551,0.6870748299319728,0.6938775510204082,0.7040816326530612,0.7244897959183674,0.7312925170068028,0.7448979591836735,0.7517006802721088,0.7551020408163265,0.7653061224489796,0.7755102040816326,0.7789115646258503,0.7789115646258503,0.7857142857142857,0.7857142857142857,0.7857142857142857,0.7857142857142857,0.7891156462585034,0.7891156462585034,0.7925170068027211,0.7959183673469388,0.7993197278911565,0.7993197278911565,0.7993197278911565,0.8027210884353742,0.8027210884353742,0.8061224489795918,0.8061224489795918,0.8095238095238095,0.8095238095238095,0.8095238095238095,0.8095238095238095,0.8095238095238095,0.8095238095238095,0.8095238095238095,0.8095238095238095,0.8095238095238095,0.8095238095238095,0.8095238095238095,0.8095238095238095,0.8095238095238095,0.8095238095238095,0.8095238095238095,0.8095238095238095,0.8095238095238095,0.8095238095238095,0.8095238095238095,0.8095238095238095,0.8095238095238095,0.8095238095238095,0.8095238095238095,0.8095238095238095,0.8061224489795918,0.8061224489795918,0.8027210884353742,0.7993197278911565,0.7891156462585034,0.7857142857142857,0.7789115646258503,0.7687074829931972,0.7619047619047619,0.7619047619047619,0.7585034013605442,0.7551020408163265,0.7517006802721088,0.7517006802721088,0.7517006802721088,0.7517006802721088,0.7517006802721088,0.7517006802721088,0.7482993197278912,0.7380952380952381,0.7278911564625851,0.7210884353741497,0.717687074829932,0.7108843537414966,0.7040816326530612,0.6938775510204082,0.673469387755102,0.6496598639455783,0.6360544217687075,0.6326530612244898,0.6326530612244898,0.6326530612244898,0.6326530612244898,0.6326530612244898,0.6326530612244898,0.6326530612244898,0.6326530612244898,0.6326530612244898,0.6394557823129252,0.6530612244897959,0.6836734693877551,0.7074829931972789,0.7244897959183674,0.7414965986394558,0.7517006802721088,0.7653061224489796,0.7993197278911565,0.826530612244898,0.8503401360544217,0.8639455782312925,0.8707482993197279,0.8775510204081632,0.8843537414965986,0.8877551020408163,0.8945578231292517,0.9047619047619048,0.9149659863945578,0.9217687074829932,0.9285714285714286,0.9319727891156463,0.9319727891156463,0.9319727891156463,0.935374149659864,0.935374149659864,0.9421768707482994,0.9421768707482994,0.9421768707482994,0.9455782312925171,0.9455782312925171,0.9489795918367347,0.9489795918367347,0.9489795918367347,0.9455782312925171,0.9251700680272109,0.8877551020408163,0.8537414965986394,0.8095238095238095,0.7925170068027211,0.7687074829931972,0.7551020408163265,0.7278911564625851,0.7040816326530612,0.673469387755102,0.6428571428571429,0.6156462585034014,0.5952380952380952,0.5918367346938775,0.5918367346938775,0.5918367346938775,0.5850340136054422,0.5816326530612245,0.5714285714285714,0.564625850340136,0.564625850340136,0.5612244897959183,0.5544217687074829,0.5544217687074829,0.5510204081632653,0.5510204081632653,0.5510204081632653,0.5510204081632653,0.5510204081632653,0.5510204081632653,0.5510204081632653,0.5510204081632653,0.5510204081632653,0.5510204081632653,0.54421768707483,0.54421768707483,0.54421768707483,0.54421768707483,0.54421768707483,0.5408163265306123,0.5408163265306123,0.5374149659863946,0.5374149659863946,0.5374149659863946,0.5374149659863946,0.5340136054421769,0.5340136054421769,0.5306122448979592,0.5272108843537415,0.5170068027210885,0.5102040816326531,0.4965986394557823,0.47278911564625853,0.4421768707482993,0.36394557823129253,0.3231292517006803,0.2857142857142857,0.2653061224489796,0.2619047619047619,0.25510204081632654,0.25510204081632654,0.25510204081632654,0.2585034013605442,0.2619047619047619,0.2687074829931973,0.2755102040816326,0.282312925170068,0.2857142857142857,0.29591836734693877,0.29591836734693877,0.30272108843537415,0.30272108843537415,0.30272108843537415,0.30272108843537415,0.30272108843537415,0.30272108843537415,0.30272108843537415,0.29931972789115646,0.29591836734693877,0.29591836734693877,0.29591836734693877,0.29591836734693877,0.29591836734693877,0.2891156462585034,0.2891156462585034,0.2891156462585034,0.2891156462585034,0.2891156462585034,0.2891156462585034,0.2891156462585034,0.2891156462585034,0.2891156462585034,0.2891156462585034,0.2891156462585034,0.2891156462585034,0.2891156462585034,0.2891156462585034,0.2891156462585034,0.2891156462585034,0.30272108843537415,0.30952380952380953,0.3163265306122449,0.3197278911564626,0.3231292517006803,0.32653061224489793,0.32653061224489793,0.32653061224489793,0.32653061224489793,0.32653061224489793,0.32653061224489793,0.32653061224489793,0.32653061224489793,0.32653061224489793,0.32653061224489793,0.32653061224489793,0.32653061224489793,0.32653061224489793,0.32653061224489793,0.32653061224489793,0.32653061224489793,0.32653061224489793,0.32653061224489793,0.32653061224489793,0.32653061224489793,0.32653061224489793,0.32653061224489793,0.32653061224489793,0.32653061224489793,0.32653061224489793,0.32653061224489793,0.32653061224489793,0.32653061224489793,0.3333333333333333,0.3401360544217687,0.3435374149659864,0.35714285714285715,0.37755102040816324,0.391156462585034,0.3979591836734694,0.40476190476190477,0.40476190476190477,0.40476190476190477,0.40476190476190477,0.40476190476190477,0.40476190476190477,0.4013605442176871,0.3945578231292517,0.3877551020408163,0.38095238095238093,0.3707482993197279,0.36394557823129253,0.36054421768707484,0.36054421768707484,0.3435374149659864,0.3435374149659864,0.3435374149659864,0.3401360544217687,0.336734693877551,0.3333333333333333,0.3299319727891156,0.32653061224489793,0.32653061224489793,0.3231292517006803,0.3231292517006803,0.3197278911564626,0.3163265306122449,0.3129251700680272,0.3129251700680272,0.3129251700680272,0.3129251700680272,0.3129251700680272,0.3129251700680272,0.3129251700680272,0.30952380952380953,0.336734693877551,0.37755102040816324,0.4013605442176871,0.43197278911564624,0.4489795918367347,0.46258503401360546,0.47278911564625853,0.48299319727891155,0.4931972789115646,0.5034013605442177,0.5136054421768708,0.5136054421768708,0.5136054421768708,0.5136054421768708,0.5136054421768708,0.5170068027210885,0.5170068027210885,0.5170068027210885,0.5170068027210885,0.5170068027210885,0.5204081632653061,0.5204081632653061,0.5204081632653061,0.5204081632653061,0.5204081632653061,0.5204081632653061,0.5204081632653061,0.5204081632653061,0.5204081632653061,0.5204081632653061,0.5204081632653061,0.5204081632653061,0.5204081632653061,0.5204081632653061,0.5204081632653061,0.5204081632653061,0.5204081632653061,0.5204081632653061,0.5204081632653061,0.5204081632653061,0.5204081632653061,0.5204081632653061,0.5238095238095238,0.5238095238095238,0.5238095238095238,0.5238095238095238,0.5238095238095238,0.5238095238095238,0.5238095238095238,0.5238095238095238,0.5238095238095238,0.5238095238095238,0.5238095238095238,0.5238095238095238,0.5238095238095238,0.5238095238095238,0.5238095238095238,0.5238095238095238,0.5272108843537415,0.5272108843537415,0.5272108843537415,0.5272108843537415,0.5306122448979592,0.5306122448979592,0.5306122448979592,0.5306122448979592,0.5306122448979592,0.5306122448979592,0.5306122448979592,0.5306122448979592,0.5306122448979592,0.5306122448979592,0.5306122448979592,0.5306122448979592,0.5306122448979592,0.5306122448979592,0.5306122448979592,0.5306122448979592,0.5306122448979592,0.5306122448979592,0.5306122448979592,0.5306122448979592,0.5306122448979592,0.5306122448979592,0.5306122448979592,0.5306122448979592,0.5306122448979592,0.5306122448979592,0.5306122448979592,0.5306122448979592,0.5306122448979592,0.5306122448979592,0.5306122448979592,0.5306122448979592,0.5306122448979592,0.5136054421768708,0.47278911564625853,0.445578231292517,0.40476190476190477,0.36394557823129253,0.3333333333333333,0.3163265306122449,0.3129251700680272,0.3129251700680272,0.30952380952380953,0.30612244897959184,0.29931972789115646,0.2891156462585034,0.282312925170068,0.2789115646258503,0.2789115646258503,0.2789115646258503,0.2789115646258503,0.2789115646258503,0.2789115646258503,0.2789115646258503,0.2789115646258503,0.2891156462585034,0.3197278911564626,0.3469387755102041,0.3469387755102041,0.3469387755102041,0.3469387755102041,0.3469387755102041,0.3469387755102041,0.3469387755102041,0.3469387755102041,0.3469387755102041,0.38095238095238093,0.42857142857142855,0.4897959183673469,0.5034013605442177,0.5034013605442177,0.5034013605442177,0.5170068027210885,0.5408163265306123,0.54421768707483,0.5476190476190477,0.5476190476190477,0.5476190476190477,0.5476190476190477,0.5476190476190477,0.5476190476190477,0.5510204081632653,0.5544217687074829,0.5578231292517006,0.5578231292517006,0.5578231292517006,0.5578231292517006,0.5578231292517006,0.5578231292517006,0.5578231292517006,0.5578231292517006,0.5578231292517006,0.5578231292517006,0.5578231292517006,0.5578231292517006,0.5578231292517006,0.5578231292517006,0.6054421768707483,0.6224489795918368,0.6870748299319728,0.717687074829932,0.7210884353741497,0.7278911564625851,0.7278911564625851,0.7278911564625851,0.7278911564625851,0.7278911564625851,0.7278911564625851,0.7278911564625851,0.7278911564625851,0.7278911564625851,0.7278911564625851,0.7278911564625851,0.7278911564625851,0.7278911564625851,0.7278911564625851,0.7482993197278912,0.7891156462585034,0.8095238095238095,0.8299319727891157,0.8299319727891157,0.8299319727891157,0.8333333333333334,0.8333333333333334,0.8333333333333334,0.8333333333333334,0.8333333333333334,0.8333333333333334,0.8333333333333334,0.8333333333333334,0.8333333333333334,0.8333333333333334,0.8333333333333334,0.8333333333333334,0.8333333333333334,0.8333333333333334,0.8333333333333334,0.8333333333333334,0.8333333333333334,0.8299319727891157,0.8197278911564626,0.8095238095238095,0.8027210884353742,0.7721088435374149,0.7312925170068028,0.6564625850340136,0.5714285714285714,0.48299319727891155,0.4557823129251701,0.4557823129251701,0.4523809523809524,0.4421768707482993,0.42517006802721086,0.3979591836734694,0.35714285714285715,0.30272108843537415,0.2755102040816326,0.272108843537415,0.272108843537415,0.2687074829931973,0.2687074829931973,0.2653061224489796,0.2619047619047619,0.2585034013605442,0.2585034013605442,0.2585034013605442,0.2585034013605442,0.25510204081632654,0.25510204081632654,0.25510204081632654,0.25510204081632654,0.25510204081632654,0.25510204081632654,0.25170068027210885,0.25170068027210885,0.25170068027210885,0.25170068027210885,0.25170068027210885,0.24489795918367346,0.23129251700680273,0.21428571428571427,0.20748299319727892,0.20408163265306123,0.19727891156462585,0.19727891156462585,0.19727891156462585,0.19047619047619047,0.19047619047619047,0.1870748299319728,0.1870748299319728,0.1870748299319728,0.1870748299319728,0.1836734693877551,0.1870748299319728,0.19387755102040816,0.20408163265306123,0.2108843537414966,0.2108843537414966,0.21428571428571427,0.21768707482993196,0.21768707482993196,0.22108843537414966,0.22448979591836735,0.22448979591836735,0.22789115646258504,0.22789115646258504,0.23469387755102042,0.23469387755102042,0.23469387755102042,0.23469387755102042,0.23469387755102042,0.23469387755102042,0.23469387755102042,0.23469387755102042,0.23469387755102042,0.23469387755102042,0.23469387755102042,0.23469387755102042,0.23469387755102042,0.23469387755102042,0.23469387755102042,0.23469387755102042,0.23469387755102042,0.23469387755102042,0.23469387755102042,0.23469387755102042,0.23469387755102042,0.23469387755102042,0.23469387755102042,0.24149659863945577,0.24149659863945577,0.24489795918367346,0.24829931972789115,0.24829931972789115,0.24829931972789115,0.25170068027210885,0.25170068027210885,0.25170068027210885,0.25170068027210885,0.25170068027210885,0.25170068027210885,0.25170068027210885,0.25170068027210885,0.25170068027210885,0.25170068027210885,0.25170068027210885,0.25170068027210885,0.25170068027210885,0.25170068027210885,0.25170068027210885,0.25170068027210885,0.25170068027210885,0.25170068027210885,0.25170068027210885,0.25170068027210885,0.25170068027210885,0.25170068027210885,0.25170068027210885,0.25170068027210885,0.25170068027210885,0.25170068027210885,0.25170068027210885,0.25170068027210885,0.25170068027210885,0.25170068027210885,0.25170068027210885,0.25170068027210885,0.25170068027210885,0.25170068027210885,0.25170068027210885,0.25170068027210885,0.25170068027210885,0.25170068027210885,0.25510204081632654,0.25510204081632654,0.25510204081632654,0.25510204081632654,0.25510204081632654,0.2585034013605442,0.2585034013605442,0.2585034013605442,0.2585034013605442,0.2585034013605442,0.2585034013605442,0.2585034013605442,0.2585034013605442,0.2585034013605442,0.2585034013605442,0.2585034013605442,0.2585034013605442,0.2585034013605442,0.2585034013605442,0.2585034013605442,0.2585034013605442,0.2585034013605442,0.2585034013605442,0.2585034013605442,0.2585034013605442,0.2585034013605442,0.2585034013605442,0.2585034013605442,0.2585034013605442,0.2585034013605442,0.2585034013605442,0.2585034013605442,0.2585034013605442,0.2585034013605442,0.2585034013605442,0.2585034013605442,0.2585034013605442,0.25510204081632654,0.25170068027210885,0.25170068027210885,0.25170068027210885,0.25170068027210885,0.25170068027210885,0.25170068027210885,0.25170068027210885,0.25170068027210885,0.25170068027210885,0.25170068027210885,0.25170068027210885,0.25170068027210885,0.25170068027210885,0.25170068027210885,0.25170068027210885,0.25170068027210885,0.25170068027210885,0.25170068027210885,0.25170068027210885,0.25170068027210885,0.25170068027210885,0.25170068027210885,0.25170068027210885,0.25170068027210885,0.25170068027210885,0.25170068027210885,0.25170068027210885,0.25170068027210885,0.25170068027210885,0.25170068027210885,0.25170068027210885,0.25170068027210885,0.25170068027210885,0.25170068027210885,0.25170068027210885,0.25170068027210885,0.25170068027210885,0.25170068027210885,0.25170068027210885,0.25170068027210885,0.25170068027210885,0.25170068027210885,0.25170068027210885,0.25170068027210885,0.25170068027210885,0.25170068027210885,0.25170068027210885,0.25170068027210885,0.25170068027210885,0.25170068027210885,0.25170068027210885,0.25170068027210885,0.25170068027210885,0.25170068027210885,0.25170068027210885,0.25170068027210885,0.25170068027210885,0.25170068027210885,0.25170068027210885,0.25170068027210885,0.25170068027210885,0.25170068027210885,0.25170068027210885,0.25170068027210885,0.25170068027210885,0.25170068027210885,0.25170068027210885,0.25170068027210885,0.25170068027210885,0.25170068027210885,0.25170068027210885,0.25170068027210885,0.25170068027210885,0.25170068027210885,0.25170068027210885,0.25170068027210885,0.25170068027210885,0.25170068027210885,0.25170068027210885,0.25170068027210885,0.25170068027210885,0.25170068027210885,0.25170068027210885,0.25170068027210885,0.25170068027210885,0.25170068027210885,0.25170068027210885,0.25170068027210885,0.25170068027210885,0.25170068027210885,0.25170068027210885,0.25170068027210885,0.25170068027210885,0.25170068027210885,0.25170068027210885,0.25170068027210885,0.25170068027210885,0.25170068027210885,0.25170068027210885,0.25170068027210885,0.25170068027210885,0.24829931972789115,0.24829931972789115,0.24829931972789115,0.24829931972789115,0.24829931972789115,0.24829931972789115,0.24829931972789115,0.24829931972789115,0.24829931972789115,0.24829931972789115,0.24829931972789115,0.24829931972789115,0.24829931972789115,0.24829931972789115,0.24829931972789115,0.24829931972789115,0.24829931972789115,0.24829931972789115,0.24829931972789115,0.24829931972789115,0.24829931972789115,0.24829931972789115,0.24829931972789115,0.24829931972789115,0.24829931972789115,0.25170068027210885,0.25170068027210885,0.25170068027210885,0.25510204081632654,0.25510204081632654,0.25510204081632654,0.25510204081632654,0.25510204081632654,0.25510204081632654,0.25510204081632654,0.25510204081632654,0.25510204081632654,0.25510204081632654,0.2585034013605442,0.2585034013605442,0.2585034013605442,0.2619047619047619,0.2687074829931973,0.2755102040816326,0.2755102040816326,0.2755102040816326,0.2789115646258503,0.2789115646258503,0.2789115646258503,0.2789115646258503,0.2789115646258503,0.2789115646258503,0.2789115646258503,0.282312925170068,0.282312925170068,0.282312925170068,0.282312925170068,0.282312925170068,0.282312925170068,0.2755102040816326,0.272108843537415,0.2687074829931973,0.2653061224489796,0.2619047619047619,0.2619047619047619,0.2619047619047619,0.2619047619047619,0.2619047619047619,0.2619047619047619,0.2619047619047619,0.2619047619047619,0.2619047619047619,0.2619047619047619,0.2619047619047619,0.2619047619047619,0.2619047619047619,0.2619047619047619,0.2619047619047619,0.2619047619047619,0.2619047619047619,0.2619047619047619,0.2619047619047619,0.2619047619047619,0.2619047619047619,0.2619047619047619,0.2619047619047619,0.2619047619047619,0.2619047619047619,0.2619047619047619,0.2619047619047619,0.2619047619047619,0.2619047619047619,0.2619047619047619,0.2619047619047619,0.2619047619047619,0.2619047619047619,0.2619047619047619,0.2619047619047619,0.2619047619047619,0.2619047619047619,0.2619047619047619,0.2619047619047619,0.2619047619047619,0.2619047619047619,0.2619047619047619,0.2619047619047619,0.2619047619047619,0.2619047619047619,0.2619047619047619,0.2619047619047619,0.2619047619047619,0.2619047619047619,0.2619047619047619,0.2619047619047619,0.2619047619047619,0.2619047619047619,0.2619047619047619,0.2619047619047619,0.2619047619047619,0.2619047619047619,0.2619047619047619,0.2619047619047619,0.2619047619047619,0.2619047619047619,0.2619047619047619,0.2619047619047619,0.2619047619047619,0.2653061224489796,0.2687074829931973,0.2687074829931973,0.272108843537415,0.2755102040816326,0.282312925170068,0.2925170068027211,0.3129251700680272,0.35034013605442177,0.3877551020408163,0.4387755102040816,0.4965986394557823,0.5680272108843537,0.6428571428571429,0.7108843537414966,0.7687074829931972,0.8401360544217688,0.8775510204081632,0.891156462585034,0.8979591836734694,0.8979591836734694,0.8979591836734694,0.8979591836734694,0.8979591836734694,0.8979591836734694,0.9013605442176871,0.9013605442176871,0.9013605442176871,0.9013605442176871,0.9047619047619048,0.9047619047619048,0.9081632653061225,0.9115646258503401,0.9115646258503401,0.9217687074829932,0.9319727891156463,0.9421768707482994,0.9523809523809523,0.9591836734693877,0.9625850340136054,0.9693877551020408,0.9693877551020408,0.9693877551020408,0.9693877551020408,0.9693877551020408,0.9693877551020408,0.9693877551020408,0.9693877551020408,0.9693877551020408,0.9693877551020408,0.9693877551020408,0.9693877551020408,0.9693877551020408,0.9693877551020408,0.9693877551020408,0.9693877551020408,0.9693877551020408,0.9659863945578231,0.9591836734693877,0.95578231292517,0.9523809523809523,0.9523809523809523,0.9523809523809523,0.9523809523809523,0.9523809523809523,0.9489795918367347,0.9455782312925171,0.9421768707482994,0.9319727891156463,0.9217687074829932,0.9149659863945578,0.9047619047619048,0.9013605442176871,0.9013605442176871,0.9183673469387755,0.9251700680272109,0.9387755102040817,0.9421768707482994,0.9421768707482994,0.9421768707482994,0.9421768707482994,0.9421768707482994,0.9421768707482994,0.9421768707482994,0.9387755102040817,0.935374149659864,0.9285714285714286,0.9217687074829932,0.8945578231292517,0.8775510204081632,0.8673469387755102,0.8605442176870748,0.8469387755102041,0.8469387755102041,0.8435374149659864,0.8435374149659864,0.8435374149659864,0.8435374149659864,0.8435374149659864,0.8435374149659864,0.8435374149659864,0.8435374149659864,0.8435374149659864,0.8435374149659864,0.8435374149659864,0.8435374149659864,0.8435374149659864,0.8435374149659864,0.8435374149659864,0.8435374149659864,0.8435374149659864,0.8435374149659864,0.8435374149659864,0.8435374149659864,0.8435374149659864,0.8435374149659864,0.8435374149659864,0.8435374149659864,0.8435374149659864,0.8435374149659864,0.8435374149659864,0.8435374149659864,0.8435374149659864,0.8435374149659864,0.8435374149659864,0.8435374149659864,0.8435374149659864,0.8435374149659864,0.8435374149659864,0.8435374149659864,0.8435374149659864,0.8435374149659864,0.8435374149659864,0.8435374149659864,0.8435374149659864,0.8435374149659864,0.8435374149659864,0.8435374149659864,0.8435374149659864,0.8435374149659864,0.8435374149659864,0.8435374149659864,0.8435374149659864,0.8435374149659864,0.8435374149659864,0.8435374149659864,0.8435374149659864,0.8435374149659864,0.8435374149659864,0.8435374149659864,0.8435374149659864,0.8469387755102041,0.8469387755102041,0.8469387755102041,0.8469387755102041,0.8469387755102041,0.8469387755102041,0.8469387755102041,0.8469387755102041,0.8333333333333334,0.8095238095238095,0.7857142857142857,0.7653061224489796,0.7380952380952381,0.717687074829932,0.6972789115646258,0.6700680272108843,0.6428571428571429,0.6156462585034014,0.5884353741496599,0.5782312925170068,0.5612244897959183,0.5476190476190477,0.5340136054421769,0.5204081632653061,0.5034013605442177,0.48299319727891155,0.45918367346938777,0.42857142857142855,0.41156462585034015,0.4013605442176871,0.391156462585034,0.3673469387755102,0.35374149659863946,0.3333333333333333,0.30612244897959184,0.2857142857142857,0.2687074829931973,0.24829931972789115,0.23129251700680273,0.21428571428571427,0.20408163265306123,0.19727891156462585,0.19727891156462585,0.19047619047619047,0.18027210884353742,0.17687074829931973,0.17346938775510204,0.17006802721088435,0.16666666666666666,0.16666666666666666,0.16666666666666666,0.16666666666666666,0.16666666666666666,0.16666666666666666,0.16666666666666666,0.16666666666666666,0.16666666666666666,0.16666666666666666,0.16666666666666666,0.16666666666666666,0.16666666666666666,0.16666666666666666,0.16666666666666666,0.16666666666666666,0.16666666666666666,0.16666666666666666,0.16666666666666666,0.16666666666666666,0.16666666666666666,0.16666666666666666,0.16666666666666666,0.16666666666666666,0.16666666666666666,0.16666666666666666,0.16666666666666666,0.16666666666666666,0.16666666666666666,0.16666666666666666,0.16666666666666666,0.16666666666666666,0.16666666666666666,0.17006802721088435,0.17006802721088435,0.17346938775510204,0.17687074829931973,0.17687074829931973,0.1870748299319728,0.20068027210884354,0.2108843537414966,0.24829931972789115,0.2891156462585034,0.3299319727891156,0.3673469387755102,0.3979591836734694,0.40476190476190477,0.40816326530612246,0.40816326530612246,0.40816326530612246,0.40816326530612246,0.40816326530612246,0.41496598639455784,0.41836734693877553,0.41836734693877553,0.41836734693877553,0.41836734693877553,0.41836734693877553,0.41836734693877553,0.41836734693877553,0.41836734693877553,0.41836734693877553,0.41836734693877553,0.41836734693877553,0.41836734693877553,0.41836734693877553,0.41836734693877553,0.41836734693877553,0.41836734693877553,0.41836734693877553,0.41836734693877553,0.41836734693877553,0.41836734693877553,0.41836734693877553,0.41836734693877553,0.41836734693877553,0.4421768707482993,0.4523809523809524,0.4557823129251701,0.4557823129251701,0.4557823129251701,0.4557823129251701,0.4557823129251701,0.4557823129251701,0.4557823129251701,0.4557823129251701,0.4557823129251701,0.4557823129251701,0.4557823129251701,0.4557823129251701,0.4557823129251701,0.46598639455782315,0.4965986394557823,0.5340136054421769,0.5680272108843537,0.5850340136054422,0.5918367346938775,0.5986394557823129,0.6122448979591837,0.6292517006802721,0.6394557823129252,0.6598639455782312,0.673469387755102,0.6836734693877551,0.6836734693877551,0.6836734693877551,0.6836734693877551,0.6836734693877551,0.6836734693877551,0.6836734693877551,0.6836734693877551,0.6836734693877551,0.6836734693877551,0.6836734693877551,0.6836734693877551,0.6836734693877551,0.6836734693877551,0.6836734693877551,0.6836734693877551,0.6836734693877551,0.6836734693877551,0.6836734693877551,0.6870748299319728,0.6870748299319728,0.6870748299319728,0.6904761904761905,0.6938775510204082,0.6938775510204082,0.6938775510204082,0.6938775510204082,0.6938775510204082,0.6938775510204082,0.6938775510204082,0.6938775510204082,0.6938775510204082,0.6938775510204082,0.6938775510204082,0.6938775510204082,0.6938775510204082,0.6972789115646258,0.7108843537414966,0.7312925170068028,0.7414965986394558,0.7585034013605442,0.7721088435374149,0.7891156462585034,0.7993197278911565,0.8197278911564626,0.8333333333333334,0.8435374149659864,0.8537414965986394,0.8537414965986394,0.8605442176870748,0.8639455782312925,0.8741496598639455,0.8809523809523809,0.8843537414965986,0.891156462585034,0.9047619047619048,0.9115646258503401,0.9183673469387755,0.9285714285714286,0.9319727891156463,0.9319727891156463,0.9387755102040817,0.9523809523809523,0.95578231292517,0.9625850340136054,0.9625850340136054,0.9693877551020408,0.9727891156462585,0.9727891156462585,0.9727891156462585,0.9727891156462585,0.9727891156462585,0.9727891156462585,0.9795918367346939,0.9795918367346939,0.9795918367346939,0.9795918367346939,0.9795918367346939,0.9795918367346939,0.9795918367346939,0.9795918367346939,0.9795918367346939,0.9795918367346939,0.9795918367346939,0.9795918367346939,0.9795918367346939,0.9795918367346939,0.9795918367346939,0.9795918367346939,0.9795918367346939,0.9795918367346939,0.9795918367346939,0.9795918367346939,0.9795918367346939,0.9795918367346939,0.9761904761904762,0.9693877551020408,0.9693877551020408,0.9591836734693877,0.9455782312925171,0.9251700680272109,0.9047619047619048,0.8605442176870748,0.8333333333333334,0.8163265306122449,0.8061224489795918,0.7925170068027211,0.7653061224489796,0.7074829931972789,0.6598639455782312,0.6190476190476191,0.608843537414966,0.6054421768707483,0.5680272108843537,0.5578231292517006,0.5374149659863946,0.5272108843537415,0.5102040816326531,0.5,0.4897959183673469,0.48639455782312924,0.48639455782312924,0.48639455782312924,0.48639455782312924,0.48639455782312924,0.48639455782312924,0.48639455782312924,0.48639455782312924,0.48639455782312924,0.48639455782312924,0.48299319727891155,0.48299319727891155,0.48299319727891155,0.48299319727891155,0.47959183673469385,0.47959183673469385,0.47959183673469385,0.47959183673469385,0.47959183673469385,0.47959183673469385,0.47959183673469385,0.47959183673469385,0.47959183673469385,0.47959183673469385,0.47959183673469385,0.47959183673469385,0.47959183673469385,0.47959183673469385,0.47959183673469385,0.47959183673469385,0.47959183673469385,0.47959183673469385,0.47959183673469385,0.47959183673469385,0.47959183673469385,0.47959183673469385,0.47959183673469385,0.47959183673469385,0.47959183673469385,0.47959183673469385,0.47959183673469385,0.47959183673469385,0.47959183673469385,0.47959183673469385,0.47959183673469385,0.47959183673469385,0.47959183673469385,0.47959183673469385,0.47619047619047616,0.47619047619047616,0.47619047619047616,0.47619047619047616,0.47619047619047616,0.47619047619047616,0.47619047619047616,0.47619047619047616,0.47619047619047616,0.47619047619047616,0.47619047619047616,0.47619047619047616,0.47619047619047616,0.47619047619047616,0.46938775510204084,0.46938775510204084,0.46938775510204084,0.46938775510204084,0.46598639455782315,0.46258503401360546,0.46258503401360546,0.45918367346938777,0.4523809523809524,0.4523809523809524,0.445578231292517,0.4421768707482993,0.42857142857142855,0.40476190476190477,0.3877551020408163,0.37755102040816324,0.36054421768707484,0.35374149659863946,0.3435374149659864,0.3435374149659864,0.3435374149659864,0.3435374149659864,0.3435374149659864,0.3435374149659864,0.3435374149659864,0.3435374149659864,0.3435374149659864,0.3435374149659864,0.3435374149659864,0.3435374149659864,0.3469387755102041,0.3469387755102041,0.3469387755102041,0.3469387755102041,0.35034013605442177,0.35034013605442177,0.35034013605442177,0.35034013605442177,0.35034013605442177,0.35034013605442177,0.35034013605442177,0.35034013605442177,0.35034013605442177,0.35034013605442177,0.35034013605442177,0.35034013605442177,0.35034013605442177,0.35034013605442177,0.35034013605442177,0.35034013605442177,0.35034013605442177,0.35034013605442177,0.35034013605442177,0.35034013605442177,0.35034013605442177,0.35034013605442177,0.35034013605442177,0.35034013605442177,0.35034013605442177,0.35034013605442177,0.35034013605442177,0.35034013605442177,0.35034013605442177,0.35034013605442177,0.35034013605442177,0.35034013605442177,0.35034013605442177,0.35034013605442177,0.35034013605442177,0.35034013605442177,0.35034013605442177,0.35034013605442177,0.35034013605442177,0.35034013605442177,0.35034013605442177,0.35034013605442177,0.35034013605442177,0.35034013605442177,0.35034013605442177,0.35034013605442177,0.35034013605442177,0.35034013605442177,0.35034013605442177,0.35034013605442177,0.35034013605442177,0.35034013605442177,0.35034013605442177,0.35034013605442177,0.35034013605442177,0.35034013605442177,0.35034013605442177,0.35034013605442177,0.35034013605442177,0.35034013605442177,0.35034013605442177,0.35034013605442177,0.35034013605442177,0.35034013605442177,0.35034013605442177,0.35034013605442177,0.35034013605442177,0.35034013605442177,0.35034013605442177,0.35034013605442177,0.35034013605442177,0.35034013605442177,0.35034013605442177,0.35034013605442177,0.35034013605442177,0.35034013605442177,0.35034013605442177,0.35034013605442177,0.35034013605442177,0.35034013605442177,0.35034013605442177,0.35034013605442177,0.35034013605442177,0.35034013605442177,0.35034013605442177,0.35034013605442177,0.35034013605442177,0.35034013605442177,0.3469387755102041,0.3469387755102041,0.3435374149659864,0.3333333333333333,0.32653061224489793,0.32653061224489793,0.3197278911564626,0.3163265306122449,0.3163265306122449,0.3163265306122449,0.3197278911564626,0.3299319727891156,0.336734693877551,0.3435374149659864,0.35374149659863946,0.35714285714285715,0.36394557823129253,0.3673469387755102,0.38095238095238093,0.3979591836734694,0.4217687074829932,0.445578231292517,0.46938775510204084,0.5,0.5272108843537415,0.5408163265306123,0.5544217687074829,0.5680272108843537,0.5850340136054422,0.6020408163265306,0.6156462585034014,0.6258503401360545,0.6258503401360545,0.6258503401360545,0.6258503401360545,0.6258503401360545,0.6258503401360545,0.6258503401360545,0.6258503401360545,0.6258503401360545,0.6258503401360545,0.6258503401360545,0.6190476190476191,0.6190476190476191,0.6190476190476191,0.6190476190476191,0.6156462585034014,0.608843537414966,0.6054421768707483,0.6020408163265306,0.5986394557823129,0.5952380952380952,0.5952380952380952,0.5952380952380952,0.5952380952380952,0.5952380952380952,0.5952380952380952,0.5884353741496599,0.5884353741496599,0.5850340136054422,0.5850340136054422,0.5850340136054422,0.5850340136054422,0.5850340136054422,0.5850340136054422,0.5850340136054422,0.5850340136054422,0.5850340136054422,0.5850340136054422,0.5850340136054422,0.5850340136054422,0.5850340136054422,0.5850340136054422,0.5850340136054422,0.5850340136054422,0.5850340136054422,0.5850340136054422,0.5850340136054422,0.5850340136054422,0.5850340136054422,0.5850340136054422,0.5850340136054422,0.5850340136054422,0.5850340136054422,0.5850340136054422,0.5850340136054422,0.5850340136054422,0.5850340136054422,0.5850340136054422,0.5850340136054422,0.5850340136054422,0.5850340136054422,0.5850340136054422,0.5850340136054422,0.5850340136054422,0.5850340136054422,0.5850340136054422,0.5850340136054422,0.5850340136054422,0.5850340136054422,0.5850340136054422,0.5850340136054422,0.5850340136054422,0.5850340136054422,0.5850340136054422,0.5850340136054422,0.5850340136054422,0.5850340136054422,0.5850340136054422,0.5850340136054422,0.5850340136054422,0.5850340136054422,0.5850340136054422,0.5850340136054422,0.5850340136054422,0.5850340136054422,0.5850340136054422,0.5850340136054422,0.5850340136054422,0.5850340136054422,0.5850340136054422,0.5850340136054422,0.5850340136054422,0.5850340136054422,0.5850340136054422,0.5850340136054422,0.5850340136054422,0.5850340136054422,0.5850340136054422,0.5850340136054422,0.5850340136054422,0.5850340136054422,0.5850340136054422,0.5850340136054422,0.5850340136054422,0.5850340136054422,0.5850340136054422,0.5850340136054422,0.5850340136054422,0.5850340136054422,0.5850340136054422,0.5816326530612245,0.5816326530612245,0.5816326530612245,0.5816326530612245,0.5816326530612245,0.5816326530612245,0.5816326530612245,0.5816326530612245,0.5816326530612245,0.5816326530612245,0.5816326530612245,0.5816326530612245,0.5816326530612245,0.5850340136054422,0.5918367346938775,0.5986394557823129,0.6020408163265306,0.6054421768707483,0.6122448979591837,0.6156462585034014,0.6190476190476191,0.6190476190476191,0.6224489795918368,0.6258503401360545,0.6292517006802721,0.6292517006802721,0.6360544217687075,0.6428571428571429,0.6564625850340136,0.6564625850340136,0.6598639455782312,0.6598639455782312,0.6598639455782312,0.6598639455782312,0.6530612244897959,0.6496598639455783,0.6496598639455783,0.6428571428571429,0.6428571428571429,0.6360544217687075,0.6360544217687075,0.6326530612244898,0.6258503401360545,0.6258503401360545,0.6224489795918368,0.6224489795918368,0.6224489795918368,0.6224489795918368,0.6224489795918368,0.6224489795918368,0.6224489795918368,0.6224489795918368,0.6224489795918368,0.6224489795918368,0.6224489795918368,0.6428571428571429,0.673469387755102,0.6836734693877551,0.7006802721088435,0.7142857142857143,0.7278911564625851,0.7380952380952381,0.7448979591836735,0.7517006802721088,0.7585034013605442,0.7585034013605442,0.7721088435374149,0.7755102040816326,0.7789115646258503,0.7789115646258503,0.782312925170068,0.782312925170068,0.7857142857142857,0.7857142857142857,0.7857142857142857,0.7891156462585034,0.7891156462585034,0.7891156462585034,0.7891156462585034,0.7891156462585034,0.7891156462585034,0.7789115646258503,0.7789115646258503,0.7721088435374149,0.7653061224489796,0.7551020408163265,0.7482993197278912,0.7346938775510204,0.7210884353741497,0.7108843537414966,0.6836734693877551,0.6768707482993197,0.673469387755102,0.6700680272108843,0.6666666666666666,0.6598639455782312,0.6598639455782312,0.6496598639455783,0.6462585034013606,0.6394557823129252,0.6292517006802721,0.6258503401360545,0.6224489795918368,0.6190476190476191,0.6054421768707483,0.5986394557823129,0.5918367346938775,0.5884353741496599,0.5782312925170068,0.564625850340136,0.54421768707483,0.5340136054421769,0.5170068027210885,0.5034013605442177,0.48639455782312924,0.46938775510204084,0.4421768707482993,0.42857142857142855,0.4217687074829932,0.41496598639455784,0.40816326530612246,0.3945578231292517,0.38095238095238093,0.3741496598639456,0.3741496598639456,0.3673469387755102,0.35714285714285715,0.35034013605442177,0.3299319727891156,0.32653061224489793,0.32653061224489793,0.3231292517006803,0.3231292517006803,0.3163265306122449,0.30952380952380953,0.30952380952380953,0.29931972789115646,0.29591836734693877,0.2891156462585034,0.2857142857142857,0.2687074829931973,0.25510204081632654,0.24489795918367346,0.23469387755102042,0.22108843537414966,0.21428571428571427,0.2108843537414966,0.20748299319727892,0.19727891156462585,0.1836734693877551,0.17346938775510204,0.17006802721088435,0.16666666666666666,0.16666666666666666,0.16666666666666666,0.16666666666666666,0.16666666666666666,0.16666666666666666,0.16666666666666666,0.16666666666666666,0.16326530612244897,0.15306122448979592,0.15306122448979592,0.15306122448979592,0.14965986394557823,0.14965986394557823,0.14965986394557823,0.14965986394557823,0.14965986394557823,0.14965986394557823,0.14965986394557823,0.14965986394557823,0.14965986394557823,0.14965986394557823,0.14965986394557823,0.14965986394557823,0.14965986394557823,0.14965986394557823,0.14965986394557823,0.14965986394557823,0.14965986394557823,0.14965986394557823,0.14965986394557823,0.14965986394557823,0.14965986394557823,0.14965986394557823,0.14965986394557823,0.14965986394557823,0.14965986394557823,0.14965986394557823,0.14965986394557823,0.14965986394557823,0.14965986394557823,0.14965986394557823,0.14965986394557823,0.14965986394557823,0.14965986394557823,0.14965986394557823,0.14965986394557823,0.14965986394557823,0.14965986394557823,0.14965986394557823,0.14965986394557823,0.14965986394557823,0.14965986394557823,0.14965986394557823,0.14965986394557823,0.1564625850340136,0.17006802721088435,0.20068027210884354,0.22789115646258504,0.24489795918367346,0.2653061224489796,0.272108843537415,0.2857142857142857,0.29591836734693877,0.30952380952380953,0.3231292517006803,0.3299319727891156,0.3333333333333333,0.336734693877551,0.3469387755102041,0.35374149659863946,0.35714285714285715,0.3673469387755102,0.3673469387755102,0.3707482993197279,0.3707482993197279,0.3707482993197279,0.37755102040816324,0.38095238095238093,0.3843537414965986,0.391156462585034,0.3979591836734694,0.40816326530612246,0.41496598639455784,0.4217687074829932,0.43197278911564624,0.4421768707482993,0.4557823129251701,0.47278911564625853,0.48299319727891155,0.5102040816326531,0.5510204081632653,0.5714285714285714,0.5986394557823129,0.6326530612244898,0.6564625850340136,0.6938775510204082,0.7244897959183674,0.7687074829931972,0.8027210884353742,0.8197278911564626,0.8503401360544217,0.8707482993197279,0.8775510204081632,0.8775510204081632,0.8843537414965986,0.8979591836734694,0.9115646258503401,0.9217687074829932,0.9319727891156463,0.9319727891156463,0.935374149659864,0.9489795918367347,0.9761904761904762,1.0170068027210883,1.0408163265306123,1.054421768707483,1.0612244897959184,1.0748299319727892,1.0918367346938775,1.129251700680272,1.1394557823129252,1.1428571428571428,1.1462585034013606,1.1496598639455782,1.1598639455782314,1.163265306122449,1.163265306122449,1.1666666666666667,1.1734693877551021,1.1734693877551021,1.1768707482993197,1.1768707482993197,1.1768707482993197,1.1768707482993197,1.1768707482993197,1.1768707482993197,1.1734693877551021,1.163265306122449,1.163265306122449,1.1564625850340136,1.1564625850340136,1.153061224489796,1.153061224489796,1.1462585034013606,1.1462585034013606,1.1462585034013606,1.1428571428571428,1.1428571428571428,1.1428571428571428,1.1428571428571428,1.1428571428571428,1.1428571428571428,1.1428571428571428,1.1428571428571428,1.1428571428571428,1.1428571428571428,1.1428571428571428,1.1428571428571428,1.1428571428571428,1.1428571428571428,1.1428571428571428,1.1428571428571428,1.1428571428571428,1.1428571428571428,1.1428571428571428,1.1428571428571428,1.1428571428571428,1.1428571428571428,1.1428571428571428,1.1428571428571428,1.1428571428571428,1.1428571428571428,1.1428571428571428,1.1428571428571428,1.1428571428571428,1.1428571428571428,1.1428571428571428,1.1428571428571428,1.1428571428571428,1.1428571428571428,1.1428571428571428,1.1428571428571428,1.1394557823129252,1.119047619047619,1.0952380952380953,1.0748299319727892,1.0442176870748299,1.0034013605442176,0.9829931972789115,0.9693877551020408,0.9659863945578231,0.9387755102040817,0.9149659863945578,0.9081632653061225,0.9047619047619048,0.9047619047619048,0.8979591836734694,0.891156462585034,0.8775510204081632,0.8707482993197279,0.8707482993197279,0.8707482993197279,0.8707482993197279,0.8707482993197279,0.8707482993197279,0.8707482993197279,0.8707482993197279,0.8707482993197279,0.8707482993197279,0.8707482993197279,0.8707482993197279,0.8843537414965986,0.9047619047619048,0.9251700680272109,0.9863945578231292,1.0238095238095237,1.0612244897959184,1.1020408163265305,1.1598639455782314,1.2040816326530612,1.227891156462585,1.2414965986394557,1.2789115646258504,1.3095238095238095,1.3197278911564625,1.3197278911564625,1.3231292517006803,1.3265306122448979,1.3299319727891157,1.336734693877551,1.3435374149659864,1.3503401360544218,1.3605442176870748,1.3639455782312926,1.3639455782312926,1.370748299319728,1.370748299319728,1.3741496598639455,1.3741496598639455,1.3741496598639455,1.3741496598639455,1.3741496598639455,1.3741496598639455,1.3741496598639455,1.3741496598639455,1.3741496598639455,1.3741496598639455,1.3741496598639455,1.3741496598639455,1.3741496598639455,1.3741496598639455,1.3741496598639455,1.3775510204081634,1.3843537414965987,1.3877551020408163,1.3877551020408163,1.3877551020408163,1.3911564625850341,1.3911564625850341,1.3911564625850341,1.3911564625850341,1.3911564625850341,1.3911564625850341,1.3911564625850341,1.3911564625850341,1.3911564625850341,1.3911564625850341,1.3911564625850341,1.3911564625850341,1.3911564625850341,1.3911564625850341,1.3911564625850341],"y":[-3.0476190476190474,-3.0476190476190474,-3.0476190476190474,-3.0476190476190474,-3.0476190476190474,-3.0476190476190474,-3.0476190476190474,-3.0476190476190474,-3.0476190476190474,-3.0476190476190474,-3.0476190476190474,-3.0476190476190474,-3.0476190476190474,-3.0476190476190474,-3.0476190476190474,-3.0476190476190474,-3.0476190476190474,-3.0476190476190474,-3.0476190476190474,-3.0476190476190474,-3.0476190476190474,-3.0476190476190474,-3.0476190476190474,-3.0476190476190474,-3.0476190476190474,-3.0476190476190474,-3.0476190476190474,-3.0476190476190474,-3.0476190476190474,-3.0476190476190474,-3.0476190476190474,-3.0476190476190474,-3.0476190476190474,-3.0476190476190474,-3.0476190476190474,-3.0476190476190474,-3.0476190476190474,-3.0476190476190474,-3.0476190476190474,-3.0476190476190474,0.5285714285714286,0.5,0.4714285714285714,0.46190476190476193,0.46190476190476193,0.46190476190476193,0.46190476190476193,0.46190476190476193,0.46190476190476193,0.46190476190476193,0.46190476190476193,0.46190476190476193,0.46190476190476193,0.46190476190476193,0.48095238095238096,0.5095238095238095,0.5190476190476191,0.5285714285714286,0.5380952380952381,0.5571428571428572,0.5666666666666667,0.5761904761904761,0.5857142857142857,0.5857142857142857,0.6047619047619047,0.6047619047619047,0.6047619047619047,0.6047619047619047,0.6047619047619047,0.6047619047619047,0.6047619047619047,0.6047619047619047,0.6047619047619047,0.6047619047619047,0.6047619047619047,0.6047619047619047,0.6047619047619047,0.6047619047619047,0.6047619047619047,0.6047619047619047,0.6047619047619047,0.6047619047619047,0.6047619047619047,0.6047619047619047,0.6047619047619047,0.6047619047619047,0.6047619047619047,0.6047619047619047,0.6047619047619047,0.6047619047619047,0.6047619047619047,0.6047619047619047,0.6047619047619047,0.6047619047619047,0.6047619047619047,0.6047619047619047,0.6047619047619047,0.6047619047619047,0.6047619047619047,0.6047619047619047,0.6047619047619047,0.6047619047619047,0.6047619047619047,0.6047619047619047,0.6047619047619047,0.6047619047619047,0.6047619047619047,0.6047619047619047,0.6047619047619047,0.6047619047619047,0.6047619047619047,0.6047619047619047,0.6047619047619047,0.6047619047619047,0.6047619047619047,0.6047619047619047,0.6047619047619047,0.6047619047619047,0.6047619047619047,0.6047619047619047,0.6047619047619047,0.6047619047619047,0.6047619047619047,0.6047619047619047,0.6047619047619047,0.6047619047619047,0.6047619047619047,0.6047619047619047,0.6047619047619047,0.6047619047619047,0.6047619047619047,0.6047619047619047,0.6047619047619047,0.6047619047619047,0.6047619047619047,0.6047619047619047,0.6047619047619047,0.6047619047619047,0.6047619047619047,0.6047619047619047,0.6047619047619047,0.6047619047619047,0.6047619047619047,0.6047619047619047,0.6047619047619047,0.6047619047619047,0.6047619047619047,0.6047619047619047,0.6047619047619047,0.6047619047619047,0.6047619047619047,0.6047619047619047,0.6047619047619047,0.6047619047619047,0.6047619047619047,0.6047619047619047,0.6047619047619047,0.6047619047619047,0.6047619047619047,0.6047619047619047,0.6047619047619047,0.6047619047619047,0.6047619047619047,0.6047619047619047,0.6047619047619047,0.6047619047619047,0.6047619047619047,0.6047619047619047,0.6047619047619047,0.6047619047619047,0.6047619047619047,0.6047619047619047,0.6047619047619047,0.6047619047619047,0.6047619047619047,0.6047619047619047,0.6047619047619047,0.6047619047619047,0.6047619047619047,0.6047619047619047,0.6047619047619047,0.6047619047619047,0.6047619047619047,0.6047619047619047,0.6047619047619047,0.6047619047619047,0.6047619047619047,0.6047619047619047,0.6047619047619047,0.6047619047619047,0.6047619047619047,0.6047619047619047,0.6047619047619047,0.6047619047619047,0.6047619047619047,0.6047619047619047,0.6047619047619047,0.6047619047619047,0.6047619047619047,0.6047619047619047,0.6047619047619047,0.6047619047619047,0.6047619047619047,0.6047619047619047,0.6047619047619047,0.6047619047619047,0.6047619047619047,0.6047619047619047,0.6047619047619047,0.6047619047619047,0.6047619047619047,0.6047619047619047,0.6047619047619047,0.6047619047619047,0.6047619047619047,0.6047619047619047,0.6047619047619047,0.6047619047619047,0.6047619047619047,0.6047619047619047,0.6047619047619047,0.6047619047619047,0.6047619047619047,0.6047619047619047,0.6047619047619047,0.6047619047619047,0.6047619047619047,0.6047619047619047,0.6047619047619047,0.6047619047619047,0.6047619047619047,0.6047619047619047,0.6047619047619047,0.6047619047619047,0.6047619047619047,0.6047619047619047,0.6047619047619047,0.6047619047619047,0.6047619047619047,0.6047619047619047,0.6047619047619047,0.6047619047619047,0.6047619047619047,0.6047619047619047,0.6047619047619047,0.6047619047619047,0.6047619047619047,0.6047619047619047,0.6047619047619047,0.6047619047619047,0.6047619047619047,0.6047619047619047,0.6047619047619047,0.6047619047619047,0.6047619047619047,0.6047619047619047,0.6047619047619047,0.6047619047619047,0.6047619047619047,0.6047619047619047,0.6047619047619047,0.6047619047619047,0.6047619047619047,0.6047619047619047,0.6047619047619047,0.6047619047619047,0.6047619047619047,0.6047619047619047,0.6047619047619047,0.6047619047619047,0.6047619047619047,0.6047619047619047,0.6047619047619047,0.6047619047619047,0.6047619047619047,0.6047619047619047,0.6047619047619047,0.6047619047619047,0.6047619047619047,0.6047619047619047,0.6047619047619047,0.6047619047619047,0.6047619047619047,0.6047619047619047,0.6047619047619047,0.6047619047619047,0.6047619047619047,0.6047619047619047,0.6047619047619047,0.6047619047619047,0.6047619047619047,0.6047619047619047,0.6047619047619047,0.6047619047619047,0.6047619047619047,0.6047619047619047,0.6047619047619047,0.6047619047619047,0.6047619047619047,0.6047619047619047,0.6047619047619047,0.6047619047619047,0.6047619047619047,0.6047619047619047,0.6047619047619047,0.6047619047619047,0.6047619047619047,0.6047619047619047,0.6047619047619047,0.6047619047619047,0.6047619047619047,0.6047619047619047,0.6047619047619047,0.6047619047619047,0.6047619047619047,0.6047619047619047,0.6047619047619047,0.6047619047619047,0.6047619047619047,0.6047619047619047,0.6047619047619047,0.6047619047619047,0.6047619047619047,0.6047619047619047,0.6047619047619047,0.6047619047619047,0.6047619047619047,0.6047619047619047,0.6047619047619047,0.6047619047619047,0.6047619047619047,0.6047619047619047,0.6047619047619047,0.6047619047619047,0.6047619047619047,0.6047619047619047,0.6047619047619047,0.6047619047619047,0.6047619047619047,0.6047619047619047,0.6047619047619047,0.6047619047619047,0.6047619047619047,0.6047619047619047,0.6047619047619047,0.6047619047619047,0.6047619047619047,0.6047619047619047,0.6047619047619047,0.6047619047619047,0.6047619047619047,0.6047619047619047,0.6047619047619047,0.6047619047619047,0.6047619047619047,0.6047619047619047,0.6047619047619047,0.6047619047619047,0.6047619047619047,0.6047619047619047,0.6047619047619047,0.6047619047619047,0.6047619047619047,0.6047619047619047,0.6047619047619047,0.6047619047619047,0.6047619047619047,0.6047619047619047,0.6047619047619047,0.6047619047619047,0.6047619047619047,0.6047619047619047,0.6047619047619047,0.6047619047619047,0.6047619047619047,0.6047619047619047,0.6047619047619047,0.6047619047619047,0.6047619047619047,0.6047619047619047,0.6047619047619047,0.6047619047619047,0.6047619047619047,0.6047619047619047,0.6047619047619047,0.6047619047619047,0.6047619047619047,0.6047619047619047,0.6047619047619047,0.6047619047619047,0.6047619047619047,0.6047619047