[{"success":true,"trial_type":"fullscreen","trial_index":0,"time_elapsed":3603,"internal_node_id":"0.0-0.0","protocol_sum":"","subject_identifier":402,"subject_sum":[67,151,78,215,64,102,178,7,195,15,253,15,237,81,70,118,46,108,96,116,90,201,119,0,75,193,69,7,199,196,43,80],"subject_pair":201,"STUDY_ID":"66a22c0758a3d5c9d26873c6","PROLIFIC_PID":"65eb6ffd3cd8843ed98975a5","SESSION_ID":"66a235d63a8a52dc827bc928","practice_instructions":1,"leaderboard_instructions":0,"bonus":0,"reveal_word":false,"self_rating":"3","confidence":"82"},{"view_history":"[{\"page_index\":0,\"viewing_time\":2614.5}]","rt":2614.7999999523163,"trial_type":"instructions","trial_index":1,"time_elapsed":6218,"internal_node_id":"0.0-1.0","protocol_sum":"","subject_identifier":402,"subject_sum":[67,151,78,215,64,102,178,7,195,15,253,15,237,81,70,118,46,108,96,116,90,201,119,0,75,193,69,7,199,196,43,80],"subject_pair":201,"STUDY_ID":"66a22c0758a3d5c9d26873c6","PROLIFIC_PID":"65eb6ffd3cd8843ed98975a5","SESSION_ID":"66a235d63a8a52dc827bc928","practice_instructions":1,"leaderboard_instructions":0,"bonus":0,"reveal_word":false,"self_rating":"3","confidence":"82"},{"view_history":"[{\"page_index\":0,\"viewing_time\":5861.100000023842}]","rt":5861.5,"trial_type":"instructions","trial_index":2,"time_elapsed":12080,"internal_node_id":"0.0-2.0-0.0","protocol_sum":"","subject_identifier":402,"subject_sum":[67,151,78,215,64,102,178,7,195,15,253,15,237,81,70,118,46,108,96,116,90,201,119,0,75,193,69,7,199,196,43,80],"subject_pair":201,"STUDY_ID":"66a22c0758a3d5c9d26873c6","PROLIFIC_PID":"65eb6ffd3cd8843ed98975a5","SESSION_ID":"66a235d63a8a52dc827bc928","practice_instructions":1,"leaderboard_instructions":0,"bonus":0,"reveal_word":false,"self_rating":"3","confidence":"82"},{"rt":6369.699999928474,"responses":"{\"Q0\":\"... reveal the word with as <b>few letter guesses</b> as possible\"}","question_order":"[0]","trial_type":"survey-multi-choice","trial_index":3,"time_elapsed":18453,"internal_node_id":"0.0-2.0-1.0","protocol_sum":"","subject_identifier":402,"subject_sum":[67,151,78,215,64,102,178,7,195,15,253,15,237,81,70,118,46,108,96,116,90,201,119,0,75,193,69,7,199,196,43,80],"subject_pair":201,"correct":true,"test_part":"multichoice_nonpretend","STUDY_ID":"66a22c0758a3d5c9d26873c6","PROLIFIC_PID":"65eb6ffd3cd8843ed98975a5","SESSION_ID":"66a235d63a8a52dc827bc928","practice_instructions":1,"leaderboard_instructions":0,"bonus":0,"reveal_word":false,"self_rating":"3","confidence":"82"},{"view_history":"[{\"page_index\":0,\"viewing_time\":1216.7999999523163}]","rt":1217.1000000238419,"trial_type":"instructions","trial_index":4,"time_elapsed":19670,"internal_node_id":"0.0-3.0","protocol_sum":"","subject_identifier":402,"subject_sum":[67,151,78,215,64,102,178,7,195,15,253,15,237,81,70,118,46,108,96,116,90,201,119,0,75,193,69,7,199,196,43,80],"subject_pair":201,"STUDY_ID":"66a22c0758a3d5c9d26873c6","PROLIFIC_PID":"65eb6ffd3cd8843ed98975a5","SESSION_ID":"66a235d63a8a52dc827bc928","practice_instructions":1,"leaderboard_instructions":0,"bonus":0,"reveal_word":false,"self_rating":"3","confidence":"82"},{"word":"ZEBRA","click_log":{"letter":["","A","E","S","R","Z","B"],"t":[0,5853.399999976158,9419.899999976158,12790.100000023842,14648.399999976158,17686.5,18494.799999952316],"hit":[null,1,1,0,1,1,1],"asked":["","A","AE","AES","AESR","AESRZ","AESRZB"],"word_state":["_____","____A","_E__A","_E__A","_E_RA","ZE_RA","ZEBRA"]},"hover_log":{"letter":["?","?","?","?","?","?","?","?","?","?","?","?","?","?","?","?","?","?","?","?","?","?","?","?","?","?","?","?","?","?","?","?","?","?","?","?","?","?","?","?","?","?","?","?","?","?","?","?","?","?","?","?","?","?","?","?","?","?","?","?","?","?","?","?","?","?","?","?","?","?","?","?","S","T","?","L","L","M","M","?","N","N","?","?","?","?","?","?","?","?","?","?","?","?","?","?","?","?","?","?","?","?","?","?","?","?","?","?","?","?","?","?","?","?","?","?","?","?","?","?","?","?","?","?","?","?","?","?","?","?","?","?","?","?","?","?","?","?","?","?","?","?","?","?","?","D","D","D","D","D","D","D","D","D","D","D","D","D","D","D","D","D","D","D","D","D","D","D","D","D","D","D","D","D","D","D","D","D","D","D","D","D","D","D","D","D","D","D","D","D","D","D","D","D","D","D","D","D","D","D","D","D","D","D","D","D","D","D","D","D","D","D","D","D","D","D","D","D","D","D","D","D","D","D","D","D","D","D","D","D","D","D","D","D","D","D","D","D","D","D","D","D","D","D","D","D","D","D","D","D","D","D","D","D","D","D","D","D","D","D","D","D","D","D","D","D","D","D","D","D","D","D","D","D","D","D","D","D","D","D","D","D","D","D","D","D","D","D","D","D","D","D","D","D","D","D","D","D","D","?","C","C","C","C","C","C","C","C","C","C","C","C","C","C","C","C","C","C","C","C","C","C","C","C","?","B","B","?","A","A","A","A","A","A","A","A","A","A","A","A","A","A","A","A","A","A","A","A","A","A","A","A","A","A","A","A","A","A","A","A","A","A","A","A","A","A","A","?","C","E","?","?","?","?","?","?","?","?","?","?","?","?","?","?","?","?","?","?","?","?","?","?","?","?","?","?","?","?","?","?","?","?","?","?","?","?","?","?","?","?","?","?","?","?","?","?","?","?","?","?","?","?","?","?","?","?","?","?","?","?","?","?","?","?","?","?","?","?","?","?","?","?","?","?","?","?","?","?","?","?","?","?","?","?","?","?","?","?","?","?","?","?","?","?","?","?","?","?","?","?","?","?","?","?","?","?","?","?","?","C","C","C","C","C","C","C","C","C","C","C","C","C","C","C","C","C","C","C","C","C","C","C","C","C","C","C","C","C","C","C","C","C","C","C","C","C","C","C","C","C","C","C","C","C","C","C","C","C","C","C","C","D","?","?","?","?","?","?","?","?","?","?","?","?","?","?","?","?","?","?","?","E","E","E","E","E","E","E","E","E","E","E","E","E","E","E","E","E","E","E","E","E","E","E","E","E","E","E","E","E","E","E","E","E","E","E","E","E","E","E","E","E","E","E","E","E","E","E","E","E","E","E","E","E","E","E","E","E","E","E","E","E","E","E","E","E","E","E","E","E","E","E","E","E","E","E","E","E","E","E","E","E","E","E","E","E","E","E","E","E","E","E","E","E","E","E","E","E","E","E","E","E","E","E","E","E","E","E","E","?","D","D","D","D","D","D","D","D","D","D","D","D","D","D","D","D","D","D","D","D","D","D","D","D","D","D","D","D","D","D","D","?","?","?","?","?","?","?","?","N","N","?","?","?","O","O","O","O","?","?","P","P","P","P","P","P","P","P","P","P","?","Q","Q","Q","Q","Q","Q","Q","Q","Q","Q","O","?","?","?","?","T","T","T","T","T","T","T","T","T","T","T","T","T","T","T","?","?","?","S","S","S","S","S","S","S","S","S","S","S","S","S","S","S","S","S","S","S","S","S","S","S","S","S","S","S","S","S","S","S","S","S","S","S","S","S","S","S","S","S","S","S","S","S","S","S","S","?","?","T","T","T","T","T","T","T","T","T","T","T","T","T","T","T","T","T","T","T","T","T","T","T","T","T","T","T","T","T","?","?","F","?","?","?","?","?","?","?","?","?","?","?","?","?","?","?","?","?","?","?","?","?","?","?","R","R","R","R","R","R","R","R","R","R","R","R","R","R","R","R","R","R","R","R","R","R","R","R","R","R","R","R","R","R","R","R","R","R","R","R","R","R","R","R","R","R","R","R","R","R","R","R","R","R","R","R","R","R","R","R","R","R","R","R","R","R","R","R","R","R","R","R","R","R","R","R","R","R","R","R","R","R","R","R","R","R","R","R","R","R","R","R","R","R","R","R","R","R","R","R","R","R","R","R","R","R","R","R","R","R","R","R","R","R","R","R","R","R","R","R","R","R","R","R","R","R","R","R","R","R","R","R","R","R","R","R","R","R","R","R","R","R","R","R","R","R","R","R","R","R","R","R","R","R","R","R","Q","?","?","?","?","?","?","?","?","?","?","?","Y","Y","Y","Y","Y","Y","Y","Y","Y","Y","Y","Y","?","?","Z","Z","Z","Z","Z","Z","Z","Z","Z","Z","Z","Z","Z","Z","Z","Z","Z","Z","Z","Z","Z","Z","Z","Z","Z","Z","Z","Z","Z","Z","Z","Z","?","?","?","?","?","?","?","?","C","C","C","?","B","B","B","B","B","B","B","B","B","B","B","B","B","B","B","B","B","B","B","B","B","B","B","B","B","B","B","B","B","B","B","B","B","B","B","B","B","B","B","B","B","B","B","?","?","?","?","?","?","?","?","?","?","?","?","?","?","?","?","?","?","?","?","?","?","?","?","?","?","?","?","?","?","?","?","?","?","?","?","?","?","?","?","?","?","?","?","?","?","?","?","?","?","?","?","?","?","?","?","?","?","?","?","?","?","?","?","?","?","?","?","?","?","?","?","?","?","?","?","?","?","?","?","?","?","?","?","?","?","?","?","?","?","?","?","?","?","?","?","?","?","?","?","?","?","?","?","?","?","?"],"t":[26,35,51,68,85,102,119,136,152,168,185,202,218,234,250,268,285,302,318,335,351,368,385,401,418,434,452,468,485,501,518,534,552,568,584,601,618,635,652,668,685,701,718,735,751,767,784,801,818,835,851,868,885,901,917,934,951,968,985,1001,1018,1035,1051,1068,1084,1100,1117,1134,1150,1167,1185,1200,1220,1234,1252,1267,1283,1300,1316,1333,1349,1366,1382,1399,1417,1434,1450,1467,1484,1500,1518,1535,1550,1568,1585,1600,1618,1635,1651,1668,1684,1703,1715,1733,1750,1767,1783,1801,1817,1833,1850,1867,1884,1900,1917,1932,1950,1966,1986,1999,2016,2033,2050,2067,2083,2099,2116,2133,2150,2167,2183,2200,2216,2233,2251,2266,2283,2301,2315,2333,2349,2366,2384,2399,2417,2433,2449,2467,2483,2498,2514,2531,2548,2564,2581,2598,2614,2632,2649,2667,2683,2700,2717,2732,2749,2765,2783,2799,2816,2833,2850,2866,2883,2899,2916,2932,2949,2966,2983,2999,3017,3033,3049,3066,3083,3098,3116,3133,3149,3166,3183,3200,3216,3232,3248,3264,3280,3297,3314,3331,3348,3365,3382,3398,3416,3432,3449,3466,3482,3498,3515,3533,3549,3565,3583,3598,3615,3631,3649,3665,3682,3698,3714,3731,3749,3765,3781,3798,3815,3832,3849,3865,3882,3899,3915,3932,3948,3965,3982,3998,4015,4032,4047,4063,4081,4098,4114,4131,4148,4165,4181,4198,4214,4231,4248,4264,4282,4298,4315,4331,4348,4364,4381,4396,4412,4429,4446,4464,4481,4497,4515,4531,4547,4564,4581,4598,4613,4631,4647,4665,4680,4698,4714,4730,4747,4764,4780,4797,4814,4830,4847,4863,4880,4897,4913,4930,4947,4964,4981,4996,5013,5031,5048,5063,5080,5096,5114,5130,5146,5163,5180,5197,5213,5230,5246,5264,5280,5296,5313,5330,5346,5363,5378,5395,5413,5431,5446,5463,5479,5496,5513,5529,5546,5562,5580,5596,5613,5628,5645,5661,5678,5694,5711,5728,5744,5761,5778,5796,5812,5829,5846,5863,5881,5896,5913,5930,5946,5962,5978,5996,6012,6029,6046,6063,6080,6095,6113,6129,6146,6162,6178,6195,6212,6230,6245,6262,6278,6296,6311,6327,6344,6361,6377,6394,6411,6429,6445,6462,6480,6495,6512,6528,6545,6562,6579,6596,6612,6629,6646,6662,6678,6696,6712,6730,6745,6761,6778,6795,6812,6828,6845,6862,6878,6895,6912,6928,6946,6962,6979,6995,7012,7029,7045,7061,7078,7095,7112,7128,7145,7161,7178,7195,7212,7228,7244,7261,7278,7295,7312,7328,7345,7363,7378,7394,7413,7427,7443,7459,7477,7495,7510,7527,7544,7561,7579,7594,7611,7629,7644,7661,7677,7694,7711,7727,7745,7762,7777,7794,7811,7828,7844,7861,7876,7893,7911,7927,7944,7960,7976,7994,8011,8028,8044,8061,8077,8093,8110,8127,8144,8160,8176,8194,8210,8227,8243,8261,8277,8294,8310,8327,8344,8360,8377,8393,8409,8426,8444,8460,8476,8493,8510,8527,8543,8560,8577,8593,8610,8626,8643,8661,8677,8693,8710,8726,8743,8761,8776,8792,8808,8826,8844,8860,8876,8894,8909,8927,8943,8960,8978,8993,9009,9026,9043,9060,9076,9093,9110,9126,9144,9159,9176,9194,9209,9227,9242,9259,9275,9292,9310,9325,9342,9360,9376,9393,9409,9425,9441,9458,9474,9491,9507,9524,9541,9558,9574,9591,9608,9624,9641,9659,9676,9692,9709,9726,9743,9759,9775,9792,9809,9826,9843,9860,9875,9892,9909,9926,9943,9958,9975,9992,10009,10026,10042,10059,10076,10092,10109,10125,10142,10157,10175,10191,10208,10225,10242,10259,10276,10292,10309,10325,10342,10359,10375,10392,10408,10425,10442,10458,10474,10491,10509,10526,10541,10558,10575,10592,10608,10625,10642,10658,10675,10692,10709,10725,10742,10758,10774,10791,10808,10824,10841,10858,10875,10891,10908,10924,10941,10959,10973,10990,11007,11024,11041,11057,11075,11091,11108,11126,11140,11158,11174,11191,11209,11224,11241,11257,11274,11290,11307,11325,11341,11358,11374,11391,11408,11423,11440,11457,11474,11490,11508,11524,11541,11557,11574,11590,11607,11625,11639,11657,11673,11690,11708,11723,11741,11757,11773,11791,11806,11822,11839,11855,11872,11889,11907,11924,11940,11957,11973,11990,12008,12023,12040,12058,12073,12090,12106,12123,12139,12156,12175,12189,12207,12223,12239,12257,12273,12290,12306,12323,12339,12356,12373,12390,12406,12423,12440,12456,12473,12489,12506,12522,12540,12557,12572,12589,12605,12623,12638,12656,12673,12690,12705,12722,12740,12756,12772,12790,12807,12822,12839,12856,12872,12889,12905,12922,12939,12958,12972,12989,13006,13022,13039,13056,13072,13090,13106,13122,13140,13156,13172,13189,13207,13222,13239,13256,13272,13289,13306,13322,13339,13357,13374,13389,13406,13422,13439,13455,13471,13487,13504,13521,13538,13555,13572,13590,13605,13622,13638,13655,13672,13689,13705,13722,13738,13755,13771,13788,13806,13821,13839,13855,13871,13889,13906,13921,13938,13954,13971,13989,14004,14021,14040,14054,14072,14088,14104,14122,14137,14154,14174,14187,14206,14220,14238,14254,14271,14289,14304,14321,14339,14354,14371,14388,14404,14421,14437,14453,14470,14488,14504,14521,14539,14554,14571,14588,14604,14621,14638,14654,14671,14687,14704,14720,14737,14754,14771,14787,14804,14821,14837,14854,14871,14886,14902,14919,14936,14954,14970,14987,15004,15021,15037,15054,15071,15087,15104,15120,15137,15154,15170,15187,15204,15220,15237,15254,15270,15287,15304,15321,15338,15354,15369,15387,15403,15420,15437,15454,15471,15487,15504,15520,15536,15554,15570,15588,15604,15621,15636,15652,15669,15685,15702,15718,15735,15752,15769,15786,15803,15820,15837,15853,15870,15887,15904,15920,15937,15954,15970,15986,16003,16019,16036,16054,16069,16085,16103,16120,16137,16153,16170,16187,16203,16220,16236,16254,16270,16286,16303,16319,16336,16353,16370,16386,16403,16419,16437,16453,16469,16486,16503,16519,16535,16551,16568,16584,16601,16617,16634,16652,16669,16686,16702,16720,16736,16753,16768,16786,16803,16819,16838,16852,16868,16885,16902,16920,16937,16953,16968,16986,17001,17018,17034,17052,17070,17085,17101,17118,17135,17152,17168,17185,17203,17218,17236,17251,17268,17285,17302,17319,17335,17351,17368,17384,17401,17418,17435,17452,17467,17483,17500,17518,17535,17551,17568,17584,17601,17618,17635,17651,17668,17685,17701,17719,17734,17751,17767,17784,17800,17818,17835,17850,17868,17884,17901,17919,17933,17950,17966,17983,18003,18017,18034,18050,18067,18084,18100,18117,18134,18152,18167,18184,18201,18218,18234,18250,18267,18285,18300,18317,18334,18350,18367,18384,18400,18418,18435,18450,18466,18485,18501,18516,18534,18550,18567,18584,18600,18618,18633,18651,18667,18684,18701,18719,18735,18750,18767,18782,18801,18816,18833,18850,18867,18883,18900,18917,18933,18950,18967,18983,19001,19017,19034,19051,19067,19083,19100,19117,19133,19151,19167,19184,19200,19217,19233,19250,19266,19284,19301,19316,19334,19350,19367,19384,19401,19417,19433,19450,19467,19483,19500,19517,19533,19550,19566,19583,19600,19615,19632,19650,19665,19682,19698,19714,19732,19750,19765,19782,19799,19817,19833,19850,19866,19884,19899,19916,19933,19950,19966,19983,19999,20015,20033,20050,20066,20083,20100,20116,20133,20150,20166,20182,20199,20216,20232,20249,20266,20282,20300,20316,20333,20350,20365,20382,20398,20415,20432,20449,20466,20482,20500],"hit":[null],"x":[-1.751700680272109,-1.751700680272109,-1.751700680272109,-1.751700680272109,-1.751700680272109,-1.751700680272109,-1.751700680272109,-1.751700680272109,-1.751700680272109,-1.751700680272109,-1.751700680272109,-1.751700680272109,-1.751700680272109,-1.751700680272109,-1.751700680272109,-1.751700680272109,-1.751700680272109,-1.751700680272109,-1.751700680272109,-1.751700680272109,-1.751700680272109,-1.751700680272109,-1.751700680272109,-1.751700680272109,-1.751700680272109,-1.751700680272109,-1.751700680272109,-1.751700680272109,-1.751700680272109,-1.751700680272109,-1.751700680272109,-1.751700680272109,-1.751700680272109,-1.751700680272109,-1.751700680272109,-1.751700680272109,-1.751700680272109,-1.751700680272109,-1.751700680272109,-1.751700680272109,-1.751700680272109,-1.751700680272109,-1.751700680272109,-1.751700680272109,-1.751700680272109,-1.751700680272109,-1.751700680272109,-1.751700680272109,-1.751700680272109,-1.751700680272109,-1.751700680272109,-1.751700680272109,-1.751700680272109,-1.751700680272109,-1.751700680272109,-1.751700680272109,-1.751700680272109,-1.751700680272109,-1.751700680272109,-1.751700680272109,-1.751700680272109,-1.751700680272109,-1.751700680272109,-1.751700680272109,-1.751700680272109,-1.751700680272109,-1.751700680272109,-1.751700680272109,-1.751700680272109,-1.751700680272109,-1.751700680272109,-1.751700680272109,0.030612244897959183,0.10884353741496598,0.16666666666666666,0.2619047619047619,0.3333333333333333,0.40816326530612246,0.45918367346938777,0.5204081632653061,0.5510204081632653,0.5952380952380952,0.608843537414966,0.6190476190476191,0.6224489795918368,0.6224489795918368,0.6224489795918368,0.6224489795918368,0.6224489795918368,0.6224489795918368,0.6224489795918368,0.6224489795918368,0.6224489795918368,0.6224489795918368,0.6224489795918368,0.6224489795918368,0.6224489795918368,0.6224489795918368,0.6224489795918368,0.6224489795918368,0.6224489795918368,0.6224489795918368,0.6224489795918368,0.6224489795918368,0.6224489795918368,0.6224489795918368,0.6224489795918368,0.6224489795918368,0.6224489795918368,0.6224489795918368,0.6224489795918368,0.6224489795918368,0.6224489795918368,0.6224489795918368,0.6224489795918368,0.6224489795918368,0.6224489795918368,0.6224489795918368,0.6122448979591837,0.6020408163265306,0.5986394557823129,0.5952380952380952,0.5918367346938775,0.5884353741496599,0.5748299319727891,0.5612244897959183,0.5476190476190477,0.5408163265306123,0.5374149659863946,0.5340136054421769,0.5306122448979592,0.5272108843537415,0.5238095238095238,0.5204081632653061,0.5102040816326531,0.4931972789115646,0.48299319727891155,0.47619047619047616,0.46598639455782315,0.46258503401360546,0.4557823129251701,0.4557823129251701,0.4523809523809524,0.4489795918367347,0.4489795918367347,0.445578231292517,0.445578231292517,0.445578231292517,0.4421768707482993,0.4421768707482993,0.4421768707482993,0.4421768707482993,0.4421768707482993,0.4387755102040816,0.4387755102040816,0.4387755102040816,0.4387755102040816,0.4387755102040816,0.4387755102040816,0.4387755102040816,0.4387755102040816,0.4387755102040816,0.4387755102040816,0.4387755102040816,0.4387755102040816,0.4387755102040816,0.4387755102040816,0.4387755102040816,0.4387755102040816,0.4387755102040816,0.4387755102040816,0.4387755102040816,0.4387755102040816,0.4387755102040816,0.4387755102040816,0.4387755102040816,0.4387755102040816,0.4387755102040816,0.4387755102040816,0.4387755102040816,0.4387755102040816,0.4387755102040816,0.4387755102040816,0.4387755102040816,0.4387755102040816,0.4387755102040816,0.4387755102040816,0.4387755102040816,0.4387755102040816,0.4387755102040816,0.4387755102040816,0.4387755102040816,0.4387755102040816,0.4387755102040816,0.4387755102040816,0.4387755102040816,0.4387755102040816,0.4387755102040816,0.4387755102040816,0.4387755102040816,0.4387755102040816,0.4387755102040816,0.4387755102040816,0.4387755102040816,0.4387755102040816,0.4387755102040816,0.4387755102040816,0.4387755102040816,0.4387755102040816,0.4387755102040816,0.4387755102040816,0.4387755102040816,0.4387755102040816,0.4387755102040816,0.4387755102040816,0.4387755102040816,0.4387755102040816,0.4387755102040816,0.4387755102040816,0.4387755102040816,0.4387755102040816,0.4387755102040816,0.4387755102040816,0.4387755102040816,0.4387755102040816,0.4387755102040816,0.4387755102040816,0.4387755102040816,0.4387755102040816,0.4387755102040816,0.4387755102040816,0.4387755102040816,0.4387755102040816,0.4387755102040816,0.4387755102040816,0.4387755102040816,0.4387755102040816,0.4387755102040816,0.4387755102040816,0.4387755102040816,0.4387755102040816,0.4387755102040816,0.4387755102040816,0.4387755102040816,0.4387755102040816,0.4387755102040816,0.4387755102040816,0.4387755102040816,0.4387755102040816,0.4387755102040816,0.4387755102040816,0.4387755102040816,0.4387755102040816,0.4387755102040816,0.4387755102040816,0.4387755102040816,0.4387755102040816,0.4387755102040816,0.4387755102040816,0.4387755102040816,0.4387755102040816,0.4387755102040816,0.4387755102040816,0.4387755102040816,0.4387755102040816,0.4387755102040816,0.4387755102040816,0.4387755102040816,0.4387755102040816,0.4387755102040816,0.4387755102040816,0.4387755102040816,0.4387755102040816,0.4387755102040816,0.4387755102040816,0.4387755102040816,0.4387755102040816,0.4387755102040816,0.4387755102040816,0.4387755102040816,0.4387755102040816,0.4387755102040816,0.4387755102040816,0.4387755102040816,0.4387755102040816,0.4387755102040816,0.4387755102040816,0.4387755102040816,0.4387755102040816,0.4387755102040816,0.4387755102040816,0.4387755102040816,0.4387755102040816,0.4387755102040816,0.4387755102040816,0.4387755102040816,0.4387755102040816,0.4387755102040816,0.40476190476190477,0.3741496598639456,0.336734693877551,0.29931972789115646,0.272108843537415,0.2585034013605442,0.25170068027210885,0.24829931972789115,0.24829931972789115,0.24489795918367346,0.24149659863945577,0.24149659863945577,0.24149659863945577,0.23809523809523808,0.23809523809523808,0.23809523809523808,0.23809523809523808,0.23809523809523808,0.23809523809523808,0.24149659863945577,0.24149659863945577,0.24489795918367346,0.24829931972789115,0.25170068027210885,0.25170068027210885,0.25170068027210885,0.22448979591836735,0.17346938775510204,0.09523809523809523,0.06802721088435375,0.047619047619047616,0.04081632653061224,0.03741496598639456,0.03741496598639456,0.034013605442176874,0.034013605442176874,0.030612244897959183,0.030612244897959183,0.030612244897959183,0.030612244897959183,0.030612244897959183,0.030612244897959183,0.030612244897959183,0.030612244897959183,0.030612244897959183,0.027210884353741496,0.027210884353741496,0.027210884353741496,0.027210884353741496,0.027210884353741496,0.027210884353741496,0.027210884353741496,0.027210884353741496,0.027210884353741496,0.027210884353741496,0.027210884353741496,0.027210884353741496,0.027210884353741496,0.027210884353741496,0.027210884353741496,0.027210884353741496,0.027210884353741496,0.027210884353741496,0.027210884353741496,0.027210884353741496,0.027210884353741496,0.027210884353741496,0.027210884353741496,0.034013605442176874,0.061224489795918366,0.2585034013605442,0.5544217687074829,0.6870748299319728,0.8469387755102041,0.9115646258503401,0.9455782312925171,0.9523809523809523,0.95578231292517,0.95578231292517,0.95578231292517,0.95578231292517,0.95578231292517,0.95578231292517,0.95578231292517,0.95578231292517,0.95578231292517,0.95578231292517,0.95578231292517,0.95578231292517,0.95578231292517,0.95578231292517,0.95578231292517,0.95578231292517,0.95578231292517,0.95578231292517,0.95578231292517,0.95578231292517,0.95578231292517,0.95578231292517,0.95578231292517,0.95578231292517,0.95578231292517,0.95578231292517,0.95578231292517,0.95578231292517,0.95578231292517,0.95578231292517,0.95578231292517,0.95578231292517,0.95578231292517,0.95578231292517,0.95578231292517,0.95578231292517,0.95578231292517,0.95578231292517,0.95578231292517,0.95578231292517,0.95578231292517,0.95578231292517,0.95578231292517,0.95578231292517,0.95578231292517,0.95578231292517,0.95578231292517,0.95578231292517,0.95578231292517,0.95578231292517,0.95578231292517,0.95578231292517,0.95578231292517,0.95578231292517,0.95578231292517,0.95578231292517,0.95578231292517,0.95578231292517,0.95578231292517,0.95578231292517,0.95578231292517,0.95578231292517,0.95578231292517,0.95578231292517,0.9523809523809523,0.9489795918367347,0.9387755102040817,0.8061224489795918,0.6870748299319728,0.6394557823129252,0.5748299319727891,0.5544217687074829,0.5340136054421769,0.5238095238095238,0.5136054421768708,0.4897959183673469,0.47278911564625853,0.4557823129251701,0.4489795918367347,0.4387755102040816,0.41496598639455784,0.3707482993197279,0.3333333333333333,0.30272108843537415,0.2891156462585034,0.2789115646258503,0.2755102040816326,0.272108843537415,0.2687074829931973,0.2653061224489796,0.2653061224489796,0.2619047619047619,0.2585034013605442,0.2585034013605442,0.25510204081632654,0.25510204081632654,0.25170068027210885,0.25170068027210885,0.25170068027210885,0.25170068027210885,0.25170068027210885,0.25170068027210885,0.25170068027210885,0.25170068027210885,0.25170068027210885,0.25170068027210885,0.25510204081632654,0.2585034013605442,0.2585034013605442,0.2585034013605442,0.2585034013605442,0.2619047619047619,0.2619047619047619,0.2619047619047619,0.2653061224489796,0.2653061224489796,0.2687074829931973,0.2687074829931973,0.272108843537415,0.272108843537415,0.272108843537415,0.2755102040816326,0.2755102040816326,0.2789115646258503,0.2789115646258503,0.2789115646258503,0.2789115646258503,0.2789115646258503,0.2789115646258503,0.2789115646258503,0.2789115646258503,0.2789115646258503,0.2789115646258503,0.2789115646258503,0.2789115646258503,0.2789115646258503,0.2789115646258503,0.2789115646258503,0.2789115646258503,0.2789115646258503,0.2789115646258503,0.2789115646258503,0.2789115646258503,0.2789115646258503,0.2789115646258503,0.2789115646258503,0.2789115646258503,0.2789115646258503,0.2789115646258503,0.2789115646258503,0.2789115646258503,0.2789115646258503,0.2789115646258503,0.2789115646258503,0.2789115646258503,0.2789115646258503,0.4217687074829932,0.5102040816326531,0.5510204081632653,0.5952380952380952,0.6054421768707483,0.6224489795918368,0.6326530612244898,0.6394557823129252,0.6462585034013606,0.6496598639455783,0.6530612244897959,0.6530612244897959,0.6530612244897959,0.6530612244897959,0.6530612244897959,0.6530612244897959,0.6530612244897959,0.6496598639455783,0.6428571428571429,0.6326530612244898,0.6224489795918368,0.608843537414966,0.6020408163265306,0.5986394557823129,0.5918367346938775,0.5884353741496599,0.5884353741496599,0.5884353741496599,0.5884353741496599,0.5884353741496599,0.5884353741496599,0.5884353741496599,0.5884353741496599,0.5884353741496599,0.5884353741496599,0.5884353741496599,0.5884353741496599,0.5884353741496599,0.5884353741496599,0.5884353741496599,0.5884353741496599,0.5884353741496599,0.5884353741496599,0.5884353741496599,0.5884353741496599,0.5884353741496599,0.5884353741496599,0.5884353741496599,0.5884353741496599,0.5884353741496599,0.5884353741496599,0.5884353741496599,0.5884353741496599,0.5884353741496599,0.5884353741496599,0.5884353741496599,0.5884353741496599,0.5884353741496599,0.5884353741496599,0.5884353741496599,0.5884353741496599,0.5884353741496599,0.5884353741496599,0.5884353741496599,0.5884353741496599,0.5884353741496599,0.5884353741496599,0.5884353741496599,0.5884353741496599,0.5884353741496599,0.5884353741496599,0.5884353741496599,0.5884353741496599,0.5884353741496599,0.5884353741496599,0.5884353741496599,0.5884353741496599,0.5884353741496599,0.5884353741496599,0.5884353741496599,0.5884353741496599,0.5884353741496599,0.5884353741496599,0.5884353741496599,0.5884353741496599,0.5884353741496599,0.5884353741496599,0.5884353741496599,0.5884353741496599,0.5884353741496599,0.5884353741496599,0.5884353741496599,0.5884353741496599,0.5884353741496599,0.5884353741496599,0.5884353741496599,0.5884353741496599,0.5884353741496599,0.5884353741496599,0.5884353741496599,0.5884353741496599,0.5884353741496599,0.5884353741496599,0.5884353741496599,0.5884353741496599,0.5884353741496599,0.5884353741496599,0.5884353741496599,0.5884353741496599,0.5884353741496599,0.5884353741496599,0.5884353741496599,0.5884353741496599,0.5884353741496599,0.5884353741496599,0.5884353741496599,0.5884353741496599,0.5884353741496599,0.5884353741496599,0.5884353741496599,0.5884353741496599,0.5884353741496599,0.5884353741496599,0.5884353741496599,0.5884353741496599,0.5884353741496599,0.5714285714285714,0.5340136054421769,0.5068027210884354,0.47959183673469385,0.46938775510204084,0.46258503401360546,0.4557823129251701,0.4523809523809524,0.4489795918367347,0.445578231292517,0.4421768707482993,0.43197278911564624,0.42857142857142855,0.4217687074829932,0.41836734693877553,0.41496598639455784,0.41156462585034015,0.41156462585034015,0.40816326530612246,0.40476190476190477,0.4013605442176871,0.4013605442176871,0.3979591836734694,0.3979591836734694,0.3979591836734694,0.3979591836734694,0.3979591836734694,0.3979591836734694,0.3979591836734694,0.4013605442176871,0.40476190476190477,0.40816326530612246,0.41156462585034015,0.41156462585034015,0.41496598639455784,0.41496598639455784,0.41836734693877553,0.41836734693877553,0.42517006802721086,0.43197278911564624,0.445578231292517,0.4931972789115646,0.5408163265306123,0.5782312925170068,0.6224489795918368,0.6394557823129252,0.6598639455782312,0.673469387755102,0.7142857142857143,0.7380952380952381,0.7551020408163265,0.7721088435374149,0.7857142857142857,0.7993197278911565,0.8095238095238095,0.8197278911564626,0.8401360544217688,0.8571428571428571,0.8707482993197279,0.8809523809523809,0.8877551020408163,0.8979591836734694,0.9149659863945578,0.9285714285714286,0.9659863945578231,0.9863945578231292,0.9931972789115646,1.0034013605442176,1.0068027210884354,1.010204081632653,1.010204081632653,1.0136054421768708,1.0136054421768708,0.9931972789115646,0.7312925170068028,0.5748299319727891,0.35034013605442177,0.2687074829931973,0.18027210884353742,0.1292517006802721,0.11564625850340136,0.10884353741496598,0.1054421768707483,0.1054421768707483,0.1054421768707483,0.1054421768707483,0.1054421768707483,0.1054421768707483,0.1054421768707483,0.1054421768707483,0.10204081632653061,0.10204081632653061,0.09863945578231292,0.09523809523809523,0.08503401360544217,0.07482993197278912,0.06802721088435375,0.05442176870748299,0.04421768707482993,0.027210884353741496,0.02040816326530612,0.013605442176870748,0.006802721088435374,0.003401360544217687,0,0,0,0,0,0,0,0,0,0,0,0,0,0,0,0,0,0,0,0,0,0,0,0,0,0,0,0,0,0,0,0,0,0,0,0,0,0,0,0,0,0.05442176870748299,0.10884353741496598,0.12585034013605442,0.14965986394557823,0.1564625850340136,0.16326530612244897,0.16666666666666666,0.17006802721088435,0.17346938775510204,0.17687074829931973,0.17687074829931973,0.18027210884353742,0.18027210884353742,0.18027210884353742,0.18027210884353742,0.18027210884353742,0.18027210884353742,0.18027210884353742,0.18027210884353742,0.18027210884353742,0.18027210884353742,0.18027210884353742,0.18027210884353742,0.18027210884353742,0.18027210884353742,0.18027210884353742,0.18027210884353742,0.18027210884353742,0.18027210884353742,0.18027210884353742,0.18027210884353742,0.2585034013605442,0.4931972789115646,0.7312925170068028,0.8809523809523809,1.0136054421768708,1.0816326530612246,1.1224489795918366,1.1700680272108843,1.1802721088435375,1.1870748299319729,1.1938775510204083,1.2006802721088434,1.2040816326530612,1.2074829931972788,1.2108843537414966,1.217687074829932,1.2244897959183674,1.227891156462585,1.227891156462585,1.227891156462585,1.227891156462585,1.2244897959183674,1.2108843537414966,1.2040816326530612,1.1938775510204083,1.183673469387755,1.1768707482993197,1.1734693877551021,1.1666666666666667,1.1666666666666667,1.1598639455782314,1.1598639455782314,1.1564625850340136,1.153061224489796,1.153061224489796,1.1496598639455782,1.1496598639455782,1.1462585034013606,1.1462585034013606,1.1462585034013606,1.1462585034013606,1.1462585034013606,1.1462585034013606,1.1462585034013606,1.1462585034013606,1.1462585034013606,1.1462585034013606,1.1462585034013606,1.1462585034013606,1.1462585034013606,1.1462585034013606,1.1462585034013606,1.1462585034013606,1.1462585034013606,1.1462585034013606,1.1462585034013606,1.1462585034013606,1.1462585034013606,1.1462585034013606,1.1462585034013606,1.1462585034013606,1.1462585034013606,1.1462585034013606,1.1462585034013606,1.1462585034013606,1.1462585034013606,1.1462585034013606,1.1462585034013606,1.1462585034013606,1.1462585034013606,1.1462585034013606,1.1462585034013606,1.1462585034013606,1.1462585034013606,1.1462585034013606,1.1462585034013606,1.1462585034013606,1.1462585034013606,1.1462585034013606,1.1462585034013606,1.1462585034013606,1.1462585034013606,1.1462585034013606,1.1462585034013606,1.1462585034013606,1.1462585034013606,1.1462585034013606,1.1462585034013606,1.1462585034013606,1.1462585034013606,1.1462585034013606,1.1462585034013606,1.1462585034013606,1.1462585034013606,1.1462585034013606,1.1462585034013606,1.1462585034013606,1.1462585034013606,1.1462585034013606,1.1462585034013606,1.1462585034013606,1.1462585034013606,1.1462585034013606,1.1462585034013606,1.1462585034013606,1.1462585034013606,1.1462585034013606,1.1462585034013606,1.1462585034013606,1.1462585034013606,1.1462585034013606,1.1462585034013606,1.1462585034013606,1.1462585034013606,1.1462585034013606,1.1462585034013606,1.1462585034013606,1.1462585034013606,1.1462585034013606,1.1462585034013606,1.1462585034013606,1.1462585034013606,1.1462585034013606,1.1462585034013606,1.1462585034013606,1.1462585034013606,1.1462585034013606,1.1462585034013606,1.1462585034013606,1.1462585034013606,1.1462585034013606,1.1462585034013606,1.1462585034013606,1.1462585034013606,1.1462585034013606,1.1462585034013606,1.1462585034013606,1.1462585034013606,1.1462585034013606,1.1462585034013606,1.1462585034013606,1.1462585034013606,1.1462585034013606,1.1462585034013606,1.1462585034013606,1.1462585034013606,1.1462585034013606,1.1462585034013606,1.1462585034013606,1.1462585034013606,1.1462585034013606,1.1462585034013606,1.1462585034013606,1.1462585034013606,1.1462585034013606,1.1462585034013606,1.1462585034013606,1.1462585034013606,1.1462585034013606,1.1462585034013606,1.1462585034013606,1.1462585034013606,1.1462585034013606,1.1462585034013606,1.1462585034013606,1.1462585034013606,1.1462585034013606,1.1462585034013606,1.1462585034013606,1.1462585034013606,1.1462585034013606,1.1462585034013606,1.1462585034013606,1.1462585034013606,1.1462585034013606,1.1462585034013606,1.1462585034013606,1.119047619047619,1.0034013605442176,0.95578231292517,0.9319727891156463,0.9149659863945578,0.9047619047619048,0.891156462585034,0.8843537414965986,0.8775510204081632,0.8741496598639455,0.8673469387755102,0.8639455782312925,0.8605442176870748,0.8571428571428571,0.8537414965986394,0.8537414965986394,0.8503401360544217,0.8503401360544217,0.8503401360544217,0.8503401360544217,0.8537414965986394,0.8605442176870748,0.8707482993197279,0.891156462585034,0.9081632653061225,0.9251700680272109,0.935374149659864,0.9421768707482994,0.9455782312925171,0.9489795918367347,0.9523809523809523,0.95578231292517,0.95578231292517,0.9591836734693877,0.9591836734693877,0.9591836734693877,0.9591836734693877,0.9591836734693877,0.9591836734693877,0.9625850340136054,0.9625850340136054,0.9625850340136054,0.9625850340136054,0.9659863945578231,0.9659863945578231,0.9659863945578231,0.9659863945578231,0.9659863945578231,0.9659863945578231,0.9659863945578231,0.9659863945578231,0.9659863945578231,0.9659863945578231,0.9659863945578231,0.9659863945578231,0.9659863945578231,0.9659863945578231,0.9659863945578231,0.9659863945578231,0.7789115646258503,0.6530612244897959,0.5102040816326531,0.46258503401360546,0.43197278911564624,0.4217687074829932,0.40476190476190477,0.35714285714285715,0.2925170068027211,0.25510204081632654,0.23129251700680273,0.2108843537414966,0.17687074829931973,0.15306122448979592,0.1326530612244898,0.12244897959183673,0.11904761904761904,0.11564625850340136,0.11224489795918367,0.11224489795918367,0.11224489795918367,0.11224489795918367,0.11224489795918367,0.11224489795918367,0.11224489795918367,0.11564625850340136,0.11564625850340136,0.11904761904761904,0.12244897959183673,0.12585034013605442,0.1292517006802721,0.1292517006802721,0.1326530612244898,0.1326530612244898,0.1326530612244898,0.1326530612244898,0.1326530612244898,0.1326530612244898,0.1326530612244898,0.1326530612244898,0.1326530612244898,0.1326530612244898,0.1326530612244898,0.1326530612244898,0.1326530612244898,0.1326530612244898,0.1326530612244898,0.1326530612244898,0.1326530612244898,0.1326530612244898,0.1326530612244898,0.1326530612244898,0.1326530612244898,0.1326530612244898,0.1836734693877551,0.40816326530612246,0.7414965986394558,1.1224489795918366,1.469387755102041,1.7040816326530612,1.9829931972789117,2.074829931972789,2.1020408163265305,2.1020408163265305,2.1020408163265305,2.1020408163265305,2.1020408163265305,2.1020408163265305,2.1020408163265305,2.1020408163265305,2.1020408163265305,2.1020408163265305,2.1020408163265305,2.1020408163265305,2.1020408163265305,2.1020408163265305,2.1020408163265305,2.1020408163265305,2.1020408163265305,2.1020408163265305,2.1020408163265305,2.1020408163265305,2.1020408163265305,2.1020408163265305,2.1020408163265305,2.1020408163265305,2.1020408163265305,2.1020408163265305,2.1020408163265305,2.1020408163265305,2.1020408163265305,2.1020408163265305,2.1020408163265305,2.1020408163265305,2.1020408163265305,2.1020408163265305,2.1020408163265305,2.1020408163265305,2.1020408163265305,2.1020408163265305,2.1020408163265305,2.1020408163265305,2.1020408163265305,2.1020408163265305,2.1020408163265305,2.1020408163265305,2.1020408163265305,2.1020408163265305,2.1020408163265305,2.1020408163265305,2.1020408163265305,2.1020408163265305,2.1020408163265305,2.1020408163265305,2.1020408163265305,2.1020408163265305,2.1020408163265305,2.1020408163265305,2.1020408163265305,2.1020408163265305,2.1020408163265305,2.1020408163265305,2.1020408163265305,2.1020408163265305,2.1020408163265305,2.1020408163265305,2.1020408163265305,2.1020408163265305,2.1020408163265305,2.1020408163265305,2.1020408163265305,2.1020408163265305,2.1020408163265305,2.1020408163265305,2.1020408163265305,2.1020408163265305,2.1020408163265305,2.1020408163265305,2.1020408163265305,2.1020408163265305,2.1020408163265305,2.1020408163265305,2.1020408163265305,2.1020408163265305,2.1020408163265305,2.1020408163265305,2.1020408163265305,2.1020408163265305,2.1020408163265305,2.1020408163265305,2.1020408163265305,2.1020408163265305,2.1020408163265305,2.1020408163265305,2.1020408163265305,2.1020408163265305,2.1020408163265305,2.1020408163265305,2.1020408163265305,2.1020408163265305,2.1020408163265305,2.1020408163265305],"y":[-2.4523809523809526,-2.4523809523809526,-2.4523809523809526,-2.4523809523809526,-2.4523809523809526,-2.4523809523809526,-2.4523809523809526,-2.4523809523809526,-2.4523809523809526,-2.4523809523809526,-2.4523809523809526,-2.4523809523809526,-2.4523809523809526,-2.4523809523809526,-2.4523809523809526,-2.4523809523809526,-2.4523809523809526,-2.4523809523809526,-2.4523809523809526,-2.4523809523809526,-2.4523809523809526,-2.4523809523809526,-2.4523809523809526,-2.4523809523809526,-2.4523809523809526,-2.4523809523809526,-2.4523809523809526,-2.4523809523809526,-2.4523809523809526,-2.4523809523809526,-2.4523809523809526,-2.4523809523809526,-2.4523809523809526,-2.4523809523809526,-2.4523809523809526,-2.4523809523809526,-2.4523809523809526,-2.4523809523809526,-2.4523809523809526,-2.4523809523809526,-2.4523809523809526,-2.4523809523809526,-2.4523809523809526,-2.4523809523809526,-2.4523809523809526,-2.4523809523809526,-2.4523809523809526,-2.4523809523809526,-2.4523809523809526,-2.4523809523809526,-2.4523809523809526,-2.4523809523809526,-2.4523809523809526,-2.4523809523809526,-2.4523809523809526,-2.4523809523809526,-2.4523809523809526,-2.4523809523809526,-2.4523809523809526,-2.4523809523809526,-2.4523809523809526,-2.4523809523809526,-2.4523809523809526,-2.4523809523809526,-2.4523809523809526,-2.4523809523809526,-2.4523809523809526,-2.4523809523809526,-2.4523809523809526,-2.4523809523809526,-2.4523809523809526,-2.4523809523809526,0.9857142857142858,0.9,0.8142857142857143,0.6523809523809524,0.5761904761904761,0.48095238095238096,0.44285714285714284,0.38571428571428573,0.3761904761904762,0.35714285714285715,0.35714285714285715,0.35714285714285715,0.35714285714285715,0.35714285714285715,0.35714285714285715,0.35714285714285715,0.35714285714285715,0.35714285714285715,0.35714285714285715,0.35714285714285715,0.35714285714285715,0.35714285714285715,0.35714285714285715,0.35714285714285715,0.35714285714285715,0.35714285714285715,0.35714285714285715,0.35714285714285715,0.35714285714285715,0.35714285714285715,0.35714285714285715,0.35714285714285715,0.35714285714285715,0.35714285714285715,0.35714285714285715,0.35714285714285715,0.35714285714285715,0.35714285714285715,0.35714285714285715,0.35714285714285715,0.35714285714285715,0.35714285714285715,0.35714285714285715,0.35714285714285715,0.35714285714285715,0.35714285714285715,0.3476190476190476,0.3380952380952381,0.3380952380952381,0.32857142857142857,0.32857142857142857,0.32857142857142857,0.319047619047619,0.3,0.2904761904761905,0.2904761904761905,0.28095238095238095,0.28095238095238095,0.2714285714285714,0.2714285714285714,0.2714285714285714,0.2619047619047619,0.2523809523809524,0.23333333333333334,0.22380952380952382,0.20476190476190476,0.19523809523809524,0.18571428571428572,0.1761904761904762,0.1761904761904762,0.1761904761904762,0.16666666666666666,0.16666666666666666,0.15714285714285714,0.15714285714285714,0.15714285714285714,0.15714285714285714,0.15714285714285714,0.15714285714285714,0.15714285714285714,0.15714285714285714,0.15714285714285714,0.15714285714285714,0.15714285714285714,0.15714285714285714,0.15714285714285714,0.15714285714285714,0.15714285714285714,0.15714285714285714,0.15714285714285714,0.15714285714285714,0.15714285714285714,0.15714285714285714,0.15714285714285714,0.15714285714285714,0.15714285714285714,0.15714285714285714,0.15714285714285714,0.15714285714285714,0.15714285714285714,0.15714285714285714,0.15714285714285714,0.15714285714285714,0.15714285714285714,0.15714285714285714,0.15714285714285714,0.15714285714285714,0.15714285714285714,0.15714285714285714,0.15714285714285714,0.15714285714285714,0.15714285714285714,0.15714285714285714,0.15714285714285714,0.15714285714285714,0.15714285714285714,0.15714285714285714,0.15714285714285714,0.15714285714285714,0.15714285714285714,0.15714285714285714,0.15714285714285714,0.15714285714285714,0.15714285714285714,0.15714285714285714,0.15714285714285714,0.15714285714285714,0.15714285714285714,0.15714285714285714,0.15714285714285714,0.15714285714285714,0.15714285714285714,0.15714285714285714,0.15714285714285714,0.15714285714285714,0.15714285714285714,0.15714285714285714,0.15714285714285714,0.15714285714285714,0.15714285714285714,0.15714285714285714,0.15714285714285714,0.15714285714285714,0.15714285714285714,0.15714285714285714,0.15714285714285714,0.15714285714285714,0.15714285714285714,0.15714285714285714,0.15714285714285714,0.15714285714285714,0.15714285714285714,0.15714285714285714,0.15714285714285714,0.15714285714285714,0.15714285714285714,0.15714285714285714,0.15714285714285714,0.15714285714285714,0.15714285714285714,0.15714285714285714,0.15714285714285714,0.15714285714285714,0.15714285714285714,0.15714285714285714,0.15714285714285714,0.15714285714285714,0.15714285714285714,0.15714285714285714,0.15714285714285714,0.15714285714285714,0.15714285714285714,0.15714285714285714,0.15714285714285714,0.15714285714285714,0.15714285714285714,0.15714285714285714,0.15714285714285714,0.15714285714285714,0.15714285714285714,0.15714285714285714,0.15714285714285714,0.15714285714285714,0.15714285714285714,0.15714285714285714,0.15714285714285714,0.15714285714285714,0.15714285714285714,0.15714285714285714,0.15714285714285714,0.15714285714285714,0.15714285714285714,0.15714285714285714,0.15714285714285714,0.15714285714285714,0.15714285714285714,0.15714285714285714,0.15714285714285714,0.15714285714285714,0.15714285714285714,0.15714285714285714,0.15714285714285714,0.15714285714285714,0.15714285714285714,0.15714285714285714,0.15714285714285714,0.15714285714285714,0.15714285714285714,0.15714285714285714,0.15714285714285714,0.15714285714285714,0.15714285714285714,0.15714285714285714,0.15714285714285714,0.15714285714285714,0.15714285714285714,0.15714285714285714,0.15714285714285714,0.15714285714285714,0.15714285714285714,0.15714285714285714,0.15714285714285714,0.15714285714285714,0.15714285714285714,0.15714285714285714,0.15714285714285714,0.12857142857142856,0.1,0.08095238095238096,0.05238095238095238,0.03333333333333333,0.023809523809523808,0.023809523809523808,0.023809523809523808,0.023809523809523808,0.023809523809523808,0.023809523809523808,0.023809523809523808,0.023809523809523808,0.023809523809523808,0.023809523809523808,0.023809523809523808,0.023809523809523808,0.023809523809523808,0.023809523809523808,0.023809523809523808,0.023809523809523808,0.023809523809523808,0.023809523809523808,0.023809523809523808,0.023809523809523808,0.023809523809523808,0.023809523809523808,0.004761904761904762,-0.004761904761904762,-0.004761904761904762,-0.004761904761904762,0.004761904761904762,0.004761904761904762,0.004761904761904762,0.004761904761904762,0.004761904761904762,0.004761904761904762,0.014285714285714285,0.014285714285714285,0.014285714285714285,0.014285714285714285,0.014285714285714285,0.014285714285714285,0.014285714285714285,0.014285714285714285,0.014285714285714285,0.014285714285714285,0.014285714285714285,0.014285714285714285,0.014285714285714285,0.014285714285714285,0.014285714285714285,0.014285714285714285,0.014285714285714285,0.014285714285714285,0.014285714285714285,0.014285714285714285,0.014285714285714285,0.014285714285714285,0.014285714285714285,0.014285714285714285,0.014285714285714285,0.014285714285714285,0.014285714285714285,0.014285714285714285,0.014285714285714285,0.014285714285714285,0.014285714285714285,0.023809523809523808,0.023809523809523808,0.07142857142857142,0.14761904761904762,0.18571428571428572,0.23333333333333334,0.24285714285714285,0.2523809523809524,0.2619047619047619,0.2619047619047619,0.2619047619047619,0.2619047619047619,0.2619047619047619,0.2619047619047619,0.2619047619047619,0.2619047619047619,0.2619047619047619,0.2619047619047619,0.2619047619047619,0.2619047619047619,0.2619047619047619,0.2619047619047619,0.2619047619047619,0.2619047619047619,0.2619047619047619,0.2619047619047619,0.2619047619047619,0.2619047619047619,0.2619047619047619,0.2619047619047619,0.2619047619047619,0.2619047619047619,0.2619047619047619,0.2619047619047619,0.2619047619047619,0.2619047619047619,0.2619047619047619,0.2619047619047619,0.2619047619047619,0.2619047619047619,0.2619047619047619,0.2619047619047619,0.2619047619047619,0.2619047619047619,0.2619047619047619,0.2619047619047619,0.2619047619047619,0.2619047619047619,0.2619047619047619,0.2619047619047619,0.2619047619047619,0.2619047619047619,0.2619047619047619,0.2619047619047619,0.2619047619047619,0.2619047619047619,0.2619047619047619,0.2619047619047619,0.2619047619047619,0.2619047619047619,0.2619047619047619,0.2619047619047619,0.2619047619047619,0.2619047619047619,0.2619047619047619,0.2619047619047619,0.2619047619047619,0.2619047619047619,0.2714285714285714,0.2714285714285714,0.2714285714285714,0.2714285714285714,0.2714285714285714,0.2714285714285714,0.2714285714285714,0.2714285714285714,0.24285714285714285,0.21428571428571427,0.20476190476190476,0.19523809523809524,0.19523809523809524,0.19523809523809524,0.19523809523809524,0.19523809523809524,0.19523809523809524,0.19523809523809524,0.19523809523809524,0.19523809523809524,0.19523809523809524,0.19523809523809524,0.19523809523809524,0.19523809523809524,0.20476190476190476,0.20476190476190476,0.20476190476190476,0.20476190476190476,0.20476190476190476,0.20476190476190476,0.20476190476190476,0.20476190476190476,0.20476190476190476,0.19523809523809524,0.19523809523809524,0.19523809523809524,0.18571428571428572,0.18571428571428572,0.18571428571428572,0.1761904761904762,0.1761904761904762,0.16666666666666666,0.15714285714285714,0.14761904761904762,0.1380952380952381,0.12857142857142856,0.12857142857142856,0.12857142857142856,0.12857142857142856,0.11904761904761904,0.11904761904761904,0.11904761904761904,0.11904761904761904,0.10952380952380952,0.10952380952380952,0.10952380952380952,0.1,0.09047619047619047,0.08095238095238096,0.08095238095238096,0.08095238095238096,0.08095238095238096,0.07142857142857142,0.07142857142857142,0.07142857142857142,0.07142857142857142,0.07142857142857142,0.07142857142857142,0.07142857142857142,0.07142857142857142,0.07142857142857142,0.07142857142857142,0.07142857142857142,0.07142857142857142,0.07142857142857142,0.07142857142857142,0.07142857142857142,0.07142857142857142,0.07142857142857142,0.07142857142857142,0.07142857142857142,0.07142857142857142,0.07142857142857142,0.07142857142857142,0.07142857142857142,0.07142857142857142,0.07142857142857142,0.07142857142857142,0.07142857142857142,0.07142857142857142,0.07142857142857142,0.07142857142857142,0.07142857142857142,0.07142857142857142,0.07142857142857142,0.07142857142857142,0.07142857142857142,-0.10952380952380952,-0.15714285714285714,-0.16666666666666666,-0.16666666666666666,-0.16666666666666666,-0.15714285714285714,-0.14761904761904762,-0.14761904761904762,-0.1380952380952381,-0.12857142857142856,-0.11904761904761904,-0.10952380952380952,-0.10952380952380952,-0.1,-0.1,-0.09047619047619047,-0.09047619047619047,-0.09047619047619047,-0.08095238095238096,-0.07142857142857142,-0.07142857142857142,-0.06190476190476191,-0.06190476190476191,-0.06190476190476191,-0.05238095238095238,-0.05238095238095238,-0.05238095238095238,-0.04285714285714286,-0.04285714285714286,-0.04285714285714286,-0.04285714285714286,-0.04285714285714286,-0.04285714285714286,-0.04285714285714286,-0.04285714285714286,-0.04285714285714286,-0.04285714285714286,-0.04285714285714286,-0.04285714285714286,-0.04285714285714286,-0.04285714285714286,-0.04285714285714286,-0.04285714285714286,-0.04285714285714286,-0.04285714285714286,-0.04285714285714286,-0.04285714285714286,-0.04285714285714286,-0.04285714285714286,-0.04285714285714286,-0.04285714285714286,-0.04285714285714286,-0.04285714285714286,-0.04285714285714286,-0.04285714285714286,-0.04285714285714286,-0.04285714285714286,-0.04285714285714286,-0.04285714285714286,-0.04285714285714286,-0.04285714285714286,-0.04285714285714286,-0.04285714285714286,-0.04285714285714286,-0.04285714285714286,-0.04285714285714286,-0.04285714285714286,-0.04285714285714286,-0.04285714285714286,-0.04285714285714286,-0.04285714285714286,-0.04285714285714286,-0.04285714285714286,-0.04285714285714286,-0.04285714285714286,-0.04285714285714286,-0.04285714285714286,-0.04285714285714286,-0.04285714285714286,-0.04285714285714286,-0.04285714285714286,-0.04285714285714286,-0.04285714285714286,-0.04285714285714286,-0.04285714285714286,-0.04285714285714286,-0.04285714285714286,-0.04285714285714286,-0.04285714285714286,-0.04285714285714286,-0.04285714285714286,-0.04285714285714286,-0.04285714285714286,-0.04285714285714286,-0.04285714285714286,-0.04285714285714286,-0.04285714285714286,-0.04285714285714286,-0.04285714285714286,-0.04285714285714286,-0.04285714285714286,-0.04285714285714286,-0.04285714285714286,-0.04285714285714286,-0.04285714285714286,-0.04285714285714286,-0.04285714285714286,-0.04285714285714286,-0.04285714285714286,-0.04285714285714286,-0.04285714285714286,-0.04285714285714286,-0.04285714285714286,-0.04285714285714286,-0.04285714285714286,-0.04285714285714286,-0.04285714285714286,-0.04285714285714286,-0.04285714285714286,-0.04285714285714286,-0.04285714285714286,-0.04285714285714286,-0.04285714285714286,-0.04285714285714286,-0.04285714285714286,-0.04285714285714286,-0.03333333333333333,-0.014285714285714285,-0.004761904761904762,0.004761904761904762,0.014285714285714285,0.014285714285714285,0.023809523809523808,0.023809523809523808,0.023809523809523808,0.023809523809523808,0.023809523809523808,0.023809523809523808,0.023809523809523808,0.023809523809523808,0.023809523809523808,0.023809523809523808,0.023809523809523808,0.023809523809523808,0.023809523809523808,0.023809523809523808,0.023809523809523808,0.023809523809523808,0.023809523809523808,0.023809523809523808,0.023809523809523808,0.023809523809523808,0.03333333333333333,0.03333333333333333,0.03333333333333333,0.04285714285714286,0.04285714285714286,0.06190476190476191,0.09047619047619047,0.14761904761904762,0.19523809523809524,0.22380952380952382,0.2523809523809524,0.2714285714285714,0.2904761904761905,0.319047619047619,0.3380952380952381,0.36666666666666664,0.3952380952380952,0.3952380952380952,0.40476190476190477,0.4142857142857143,0.4142857142857143,0.4238095238095238,0.43333333333333335,0.43333333333333335,0.4523809523809524,0.4523809523809524,0.46190476190476193,0.46190476190476193,0.4714285714285714,0.4714285714285714,0.4714285714285714,0.4714285714285714,0.4714285714285714,0.4714285714285714,0.4714285714285714,0.4714285714285714,0.4714285714285714,0.4714285714285714,0.4523809523809524,0.44285714285714284,0.43333333333333335,0.43333333333333335,0.43333333333333335,0.43333333333333335,0.43333333333333335,0.43333333333333335,0.43333333333333335,0.44285714285714284,0.6428571428571429,0.719047619047619,0.7761904761904762,0.8047619047619048,0.8428571428571429,0.8904761904761904,0.9095238095238095,0.9285714285714286,0.9380952380952381,0.9380952380952381,0.9476190476190476,0.9476190476190476,0.9476190476190476,0.9476190476190476,0.9476190476190476,0.9476190476190476,0.9476190476190476,0.9476190476190476,0.9476190476190476,0.9571428571428572,0.9571428571428572,0.9571428571428572,0.9666666666666667,0.9666666666666667,0.9666666666666667,0.9666666666666667,0.9571428571428572,0.9571428571428572,0.9571428571428572,0.9571428571428572,0.9571428571428572,0.9571428571428572,0.9571428571428572,0.9571428571428572,0.9571428571428572,0.9571428571428572,0.9571428571428572,0.9571428571428572,0.9571428571428572,0.9571428571428572,0.9571428571428572,0.9571428571428572,0.9571428571428572,0.9571428571428572,0.9571428571428572,0.9571428571428572,0.9571428571428572,0.9571428571428572,0.9571428571428572,0.9571428571428572,0.9571428571428572,0.9571428571428572,0.9571428571428572,0.9571428571428572,0.9571428571428572,0.9571428571428572,0.9571428571428572,0.9571428571428572,0.9571428571428572,0.9571428571428572,0.9571428571428572,0.9571428571428572,0.9571428571428572,0.9571428571428572,0.9571428571428572,0.9571428571428572,0.9571428571428572,0.9571428571428572,0.9571428571428572,0.9571428571428572,0.9571428571428572,0.9095238095238095,0.861904761904762,0.861904761904762,0.861904761904762,0.861904761904762,0.8714285714285714,0.8714285714285714,0.8809523809523809,0.8809523809523809,0.8809523809523809,0.8809523809523809,0.8809523809523809,0.8809523809523809,0.8809523809523809,0.8809523809523809,0.8904761904761904,0.8904761904761904,0.8904761904761904,0.8904761904761904,0.8904761904761904,0.8904761904761904,0.8904761904761904,0.8904761904761904,0.8904761904761904,0.8904761904761904,0.8904761904761904,0.8904761904761904,0.8904761904761904,0.8904761904761904,0.8904761904761904,0.8904761904761904,0.7095238095238096,0.2523809523809524,-0.04285714285714286,-0.1761904761904762,-0.24285714285714285,-0.2523809523809524,-0.23333333333333334,-0.1761904761904762,-0.15714285714285714,-0.14761904761904762,-0.11904761904761904,-0.10952380952380952,-0.09047619047619047,-0.08095238095238096,-0.05238095238095238,-0.004761904761904762,0.023809523809523808,0.05238095238095238,0.09047619047619047,0.1380952380952381,0.16666666666666666,0.19523809523809524,0.2619047619047619,0.28095238095238095,0.32857142857142857,0.36666666666666664,0.38571428571428573,0.3952380952380952,0.4238095238095238,0.43333333333333335,0.4523809523809524,0.46190476190476193,0.48095238095238096,0.48095238095238096,0.49047619047619045,0.5,0.5,0.5095238095238095,0.5095238095238095,0.5190476190476191,0.5190476190476191,0.5190476190476191,0.5190476190476191,0.5190476190476191,0.5190476190476191,0.5190476190476191,0.5190476190476191,0.5190476190476191,0.5190476190476191,0.5190476190476191,0.5190476190476191,0.5190476190476191,0.5190476190476191,0.5190476190476191,0.5190476190476191,0.5190476190476191,0.5190476190476191,0.5190476190476191,0.5190476190476191,0.5190476190476191,0.5190476190476191,0.5190476190476191,0.5190476190476191,0.5190476190476191,0.5190476190476191,0.5190476190476191,0.5190476190476191,0.5190476190476191,0.5190476190476191,0.5190476190476191,0.5190476190476191,0.5190476190476191,0.5190476190476191,0.5190476190476191,0.5190476190476191,0.5190476190476191,0.5190476190476191,0.5190476190476191,0.5190476190476191,0.5190476190476191,0.5190476190476191,0.5190476190476191,0.5190476190476191,0.5190476190476191,0.5190476190476191,0.5190476190476191,0.5190476190476191,0.5190476190476191,0.5190476190476191,0.5190476190476191,0.5190476190476191,0.5190476190476191,0.5190476190476191,0.5190476190476191,0.5190476190476191,0.5190476190476191,0.5190476190476191,0.5190476190476191,0.5190476190476191,0.5190476190476191,0.5190476190476191,0.5190476190476191,0.5190476190476191,0.5190476190476191,0.5190476190476191,0.5190476190476191,0.5190476190476191,0.5190476190476191,0.5190476190476191,0.5190476190476191,0.5190476190476191,0.5190476190476191,0.5190476190476191,0.5190476190476191,0.5190476190476191,0.5190476190476191,0.5190476190476191,0.5190476190476191,0.5190476190476191,0.5190476190476191,0.5190476190476191,0.5190476190476191,0.5190476190476191,0.5190476190476191,0.5190476190476191,0.5190476190476191,0.5190476190476191,0.5190476190476191,0.5190476190476191,0.5190476190476191,0.5190476190476191,0.5190476190476191,0.5190476190476191,0.5190476190476191,0.5190476190476191,0.5190476190476191,0.5190476190476191,0.5190476190476191,0.5190476190476191,0.5190476190476191,0.5190476190476191,0.5190476190476191,0.5190476190476191,0.5190476190476191,0.5190476190476191,0.5190476190476191,0.5190476190476191,0.5190476190476191,0.5190476190476191,0.5190476190476191,0.5190476190476191,0.5190476190476191,0.5190476190476191,0.5190476190476191,0.5190476190476191,0.5190476190476191,0.5190476190476191,0.5190476190476191,0.5190476190476191,0.5190476190476191,0.5190476190476191,0.5190476190476191,0.5190476190476191,0.5190476190476191,0.5190476190476191,0.5190476190476191,0.5190476190476191,0.5190476190476191,0.5190476190476191,0.5190476190476191,0.5190476190476191,0.5190476190476191,0.5190476190476191,0.5190476190476191,0.5190476190476191,0.5190476190476191,0.5190476190476191,0.5380952380952381,0.6333333333333333,0.6714285714285714,0.7,0.719047619047619,0.7380952380952381,0.7476190476190476,0.7571428571428571,0.7666666666666667,0.7857142857142857,0.8047619047619048,0.8238095238095238,0.8333333333333334,0.8523809523809524,0.861904761904762,0.8809523809523809,0.8809523809523809,0.8904761904761904,0.9095238095238095,0.9095238095238095,0.919047619047619,0.9285714285714286,0.9380952380952381,0.9380952380952381,0.9380952380952381,0.9571428571428572,0.9666666666666667,0.9666666666666667,0.9666666666666667,0.9761904761904762,0.9761904761904762,0.9761904761904762,0.9761904761904762,0.9857142857142858,0.9857142857142858,0.9857142857142858,0.9857142857142858,0.9857142857142858,0.9857142857142858,0.9857142857142858,0.9857142857142858,0.9857142857142858,0.9857142857142858,0.9857142857142858,0.9857142857142858,0.9857142857142858,0.9857142857142858,0.9857142857142858,0.9857142857142858,0.9857142857142858,0.9857142857142858,0.9857142857142858,0.9857142857142858,0.9857142857142858,0.9857142857142858,0.9857142857142858,0.9857142857142858,0.9857142857142858,0.9857142857142858,0.7285714285714285,0.5476190476190477,0.30952380952380953,0.24285714285714285,0.19523809523809524,0.18571428571428572,0.1761904761904762,0.12857142857142856,0.08095238095238096,0.04285714285714286,0.023809523809523808,0.004761904761904762,-0.03333333333333333,-0.06190476190476191,-0.08095238095238096,-0.1,-0.1,-0.1,-0.10952380952380952,-0.10952380952380952,-0.10952380952380952,-0.10952380952380952,-0.10952380952380952,-0.10952380952380952,-0.10952380952380952,-0.10952380952380952,-0.10952380952380952,-0.1,-0.1,-0.09047619047619047,-0.08095238095238096,-0.08095238095238096,-0.08095238095238096,-0.08095238095238096,-0.08095238095238096,-0.08095238095238096,-0.08095238095238096,-0.08095238095238096,-0.08095238095238096,-0.08095238095238096,-0.08095238095238096,-0.08095238095238096,-0.08095238095238096,-0.08095238095238096,-0.08095238095238096,-0.08095238095238096,-0.08095238095238096,-0.08095238095238096,-0.08095238095238096,-0.08095238095238096,-0.08095238095238096,-0.08095238095238096,-0.08095238095238096,-0.08095238095238096,-0.1,-0.2714285714285714,-0.43333333333333335,-0.46190476190476193,-0.319047619047619,-0.1380952380952381,0.1761904761904762,0.2714285714285714,0.3,0.3,0.3,0.3,0.3,0.3,0.3,0.3,0.3,0.3,0.3,0.3,0.3,0.3,0.3,0.3,0.3,0.3,0.3,0.3,0.3,0.3,0.3,0.3,0.3,0.3,0.3,0.3,0.3,0.3,0.3,0.3,0.3,0.3,0.3,0.3,0.3,0.3,0.3,0.3,0.3,0.3,0.3,0.3,0.3,0.3,0.3,0.3,0.3,0.3,0.3,0.3,0.3,0.3,0.3,0.3,0.3,0.3,0.3,0.3,0.3,0.3,0.3,0.3,0.3,0.3,0.3,0.3,0.3,0.3,0.3,0.3,0.3,0.3,0.3,0.3,0.3,0.3,0.3,0.3,0.3,0.3,0.3,0.3,0.3,0.3,0.3,0.3,0.3,0.3,0.3,0.3,0.3,0.3,0.3,0.3,0.3,0.3,0.3,0.3]},"final_keyboard_state":["A","E","S","R","Z","B"],"num_clicks":6,"points":14,"cheat":false,"trial_type":"Hangman","trial_index":5,"time_elapsed":40175,"internal_node_id":"0.0-4.0","protocol_sum":"","subject_identifier":402,"subject_sum":[67,151,78,215,64,102,178,7,195,15,253,15,237,81,70,118,46,108,96,116,90,201,119,0,75,193,69,7,199,196,43,80],"subject_pair":201,"STUDY_ID":"66a22c0758a3d5c9d26873c6","PROLIFIC_PID":"65eb6ffd3cd8843ed98975a5","SESSION_ID":"66a235d63a8a52dc827bc928","practice_instructions":1,"leaderboard_instructions":0,"bonus":0,"reveal_word":false,"self_rating":"3","confidence":"82"},{"view_history":"[{\"page_index\":0,\"viewing_time\":1753.7999999523163},{\"page_index\":1,\"viewing_time\":13577}]","rt":15331.699999928474,"trial_type":"instructions","trial_index":6,"time_elapsed":55508,"internal_node_id":"0.0-5.0","protocol_sum":"","subject_identifier":402,"subject_sum":[67,151,78,215,64,102,178,7,195,15,253,15,237,81,70,118,46,108,96,116,90,201,119,0,75,193,69,7,199,196,43,80],"subject_pair":201,"STUDY_ID":"66a22c0758a3d5c9d26873c6","PROLIFIC_PID":"65eb6ffd3cd8843ed98975a5","SESSION_ID":"66a235d63a8a52dc827bc928","practice_instructions":1,"leaderboard_instructions":0,"bonus":0,"reveal_word":false,"self_rating":"3","confidence":"82"},{"rt":4287.800000071526,"responses":"{\"Q0\":\"...from <b>a previous session</b> that is not part of the upcoming tournament.\"}","question_order":"[0]","trial_type":"survey-multi-choice","trial_index":7,"time_elapsed":59797,"internal_node_id":"0.0-6.0","protocol_sum":"","subject_identifier":402,"subject_sum":[67,151,78,215,64,102,178,7,195,15,253,15,237,81,70,118,46,108,96,116,90,201,119,0,75,193,69,7,199,196,43,80],"subject_pair":201,"correct":true,"test_part":"multichoice_leaderboard","STUDY_ID":"66a22c0758a3d5c9d26873c6","PROLIFIC_PID":"65eb6ffd3cd8843ed98975a5","SESSION_ID":"66a235d63a8a52dc827bc928","practice_instructions":1,"leaderboard_instructions":0,"bonus":0,"reveal_word":false,"self_rating":"3","confidence":"82"},{"view_history":"[{\"page_index\":0,\"viewing_time\":8224.5}]","rt":8224.799999952316,"trial_type":"instructions","trial_index":8,"time_elapsed":68022,"internal_node_id":"0.0-8.0","protocol_sum":"","subject_identifier":402,"subject_sum":[67,151,78,215,64,102,178,7,195,15,253,15,237,81,70,118,46,108,96,116,90,201,119,0,75,193,69,7,199,196,43,80],"subject_pair":201,"STUDY_ID":"66a22c0758a3d5c9d26873c6","PROLIFIC_PID":"65eb6ffd3cd8843ed98975a5","SESSION_ID":"66a235d63a8a52dc827bc928","practice_instructions":1,"leaderboard_instructions":0,"bonus":0,"reveal_word":false,"self_rating":"3","confidence":"82"},{"rt":4329.600000023842,"responses":"{\"Q0\":\"...players' leaderboard position (in terms of <b>points</b>) in an <b>upcoming tournament.</b>\"}","question_order":"[0]","trial_type":"survey-multi-choice","trial_index":9,"time_elapsed":72353,"internal_node_id":"0.0-9.0","protocol_sum":"","subject_identifier":402,"subject_sum":[67,151,78,215,64,102,178,7,195,15,253,15,237,81,70,118,46,108,96,116,90,201,119,0,75,193,69,7,199,196,43,80],"subject_pair":201,"correct":true,"test_part":"multichoice_tournament","STUDY_ID":"66a22c0758a3d5c9d26873c6","PROLIFIC_PID":"65eb6ffd3cd8843ed98975a5","SESSION_ID":"66a235d63a8a52dc827bc928","practice_instructions":1,"leaderboard_instructions":0,"bonus":0,"reveal_word":false,"self_rating":"3","confidence":"82"},{"view_history":"[{\"page_index\":0,\"viewing_time\":6241}]","rt":6241.300000071526,"trial_type":"instructions","trial_index":10,"time_elapsed":78596,"internal_node_id":"0.0-11.0","protocol_sum":"","subject_identifier":402,"subject_sum":[67,151,78,215,64,102,178,7,195,15,253,15,237,81,70,118,46,108,96,116,90,201,119,0,75,193,69,7,199,196,43,80],"subject_pair":201,"STUDY_ID":"66a22c0758a3d5c9d26873c6","PROLIFIC_PID":"65eb6ffd3cd8843ed98975a5","SESSION_ID":"66a235d63a8a52dc827bc928","practice_instructions":1,"leaderboard_instructions":0,"bonus":0,"reveal_word":false,"self_rating":"3","confidence":"82"},{"view_history":"[{\"page_index\":0,\"viewing_time\":5097.300000071526}]","rt":5097.600000023842,"trial_type":"instructions","trial_index":11,"time_elapsed":83695,"internal_node_id":"0.0-12.0-0.0","protocol_sum":"","subject_identifier":402,"subject_sum":[67,151,78,215,64,102,178,7,195,15,253,15,237,81,70,118,46,108,96,116,90,201,119,0,75,193,69,7,199,196,43,80],"subject_pair":201,"STUDY_ID":"66a22c0758a3d5c9d26873c6","PROLIFIC_PID":"65eb6ffd3cd8843ed98975a5","SESSION_ID":"66a235d63a8a52dc827bc928","practice_instructions":1,"leaderboard_instructions":0,"bonus":0,"reveal_word":false,"self_rating":"3","confidence":"82"},{"word":"NECTARINE","click_log":{"letter":["","A","E","B","C","D","F","G","H","P","S","T","N","R","I"],"t":[0,4110.699999928474,6224.600000023842,25956,27985.299999952316,30168,32282.100000023842,33464.799999952316,34979.60000002384,37061.299999952316,41589,43304.5,52762.699999928474,58556.39999997616,59904.299999952316],"hit":[null,1,2,0,1,0,0,0,0,0,0,1,2,1,1],"asked":["","A","AE","AEB","AEBC","AEBCD","AEBCDF","AEBCDFG","AEBCDFGH","AEBCDFGHP","AEBCDFGHPS","AEBCDFGHPST","AEBCDFGHPSTN","AEBCDFGHPSTNR","AEBCDFGHPSTNRI"],"word_state":["_________","____A____","_E__A___E","_E__A___E","_EC_A___E","_EC_A___E","_EC_A___E","_EC_A___E","_EC_A___E","_EC_A___E","_EC_A___E","_ECTA___E","NECTA__NE","NECTAR_NE","NECTARINE"]},"hover_log":{"letter":["?","?","?","?","?","?","?","?","?","?","?","?","?","?","?","?","?","?","?","?","?","?","?","?","?","?","?","?","?","?","?","?","?","?","?","?","?","?","?","?","?","?","?","?","?","?","?","?","?","?","?","?","?","?","?","?","?","?","?","?","?","?","?","?","?","?","?","?","?","?","?","?","?","?","?","?","?","?","?","?","?","?","?","?","?","?","?","?","?","?","?","?","?","?","?","?","?","?","?","?","?","?","?","?","?","?","?","?","?","?","?","?","?","?","?","?","?","?","?","?","?","?","?","?","?","?","?","?","?","?","?","?","?","?","?","?","?","?","?","?","?","?","?","?","?","?","?","?","?","?","?","?","?","?","?","?","?","?","?","?","?","?","?","?","?","?","?","?","?","?","?","?","?","?","?","?","?","?","?","?","?","?","?","?","?","?","?","?","?","?","?","?","?","?","?","?","?","?","?","?","?","?","?","?","?","?","?","?","?","?","?","?","?","?","?","?","?","?","?","?","?","?","?","?","?","?","?","?","?","?","?","?","?","?","?","?","?","?","?","?","?","?","?","?","?","?","?","?","?","?","?","?","?","?","?","?","?","?","?","?","?","?","?","?","?","?","?","?","?","?","?","?","?","?","?","?","?","?","?","?","?","?","?","?","?","?","?","?","?","?","?","?","?","?","?","?","?","?","?","?","?","?","?","?","?","?","?","?","?","?","?","?","?","?","?","?","?","?","?","?","?","?","?","?","?","?","?","?","?","?","?","?","?","?","?","?","?","?","?","?","?","?","?","?","?","H","?","?","?","?","?","?","?","?","?","?","?","?","?","?","?","?","?","?","?","?","?","?","?","?","?","?","?","?","?","?","?","?","?","?","?","?","?","?","?","?","?","?","?","?","?","?","?","?","?","?","?","?","?","?","?","?","?","?","?","?","?","?","?","?","?","?","?","?","?","?","?","?","?","?","?","?","?","?","?","?","?","?","?","?","?","?","?","?","?","?","?","?","?","?","?","?","?","?","?","?","?","?","?","?","?","?","?","?","?","?","?","?","?","?","?","?","?","?","?","?","?","?","?","?","?","?","?","?","?","?","?","?","?","?","?","?","?","?","?","?","?","?","?","?","?","?","?","?","?","?","?","?","?","?","?","?","?","?","?","?","?","?","?","?","?","?","?","?","?","?","?","?","?","?","?","?","?","?","?","?","?","?","?","?","?","?","?","?","?","?","?","?","?","?","?","?","?","?","?","?","?","?","?","?","?","?","?","?","?","?","?","?","?","?","?","?","?","?","?","?","?","?","?","?","?","?","?","?","?","?","?","?","?","?","?","?","?","?","?","?","?","?","?","?","?","?","?","?","?","?","?","?","?","?","?","?","?","?","?","?","?","?","?","?","?","?","?","?","?","?","?","?","?","?","?","?","?","?","?","?","?","?","?","?","?","?","?","?","?","?","?","?","?","?","?","?","?","?","?","?","?","?","?","?","?","?","?","?","?","?","?","?","?","?","?","?","?","?","?","?","?","?","?","?","?","?","?","?","?","?","?","?","?","?","?","?","?","?","?","?","?","?","?","?","?","?","?","?","?","?","?","?","?","?","?","?","?","?","?","?","?","?","?","?","?","?","?","?","?","?","?","?","?","?","?","?","?","?","?","?","?","?","?","?","?","?","?","?","?","?","?","?","?","?","?","?","?","?","?","?","?","?","?","?","?","?","?","?","?","?","?","?","?","?","?","?","?","?","?","?","?","?","?","?","?","?","?","?","?","?","?","?","?","?","?","?","?","?","?","?","?","?","?","?","?","?","?","?","?","?","?","?","?","?","?","?","?","?","?","?","?","?","?","?","?","?","?","?","?","?","?","?","?","?","?","?","?","?","?","?","?","?","?","?","?","?","?","?","?","?","?","?","?","?","?","?","?","?","?","?","?","?","?","?","?","?","?","?","?","?","?","?","?","?","?","?","?","?","?","?","?","?","?","?","?","?","?","?","?","?","?","?","?","?","?","?","?","?","?","?","?","?","?","?","?","?","?","?","?","?","?","?","?","?","?","?","?","?","?","?","?","?","?","?","?","?","?","?","?","?","?","?","?","?","?","?","?","?","?","?","?","?","?","?","?","?","?","?","?","?","?","?","?","?","?","?","?","?","?","?","?","?","?","?","?","?","?","?","?","?","?","?","?","?","?","?","?","?","?","?","?","?","?","?","?","?","?","?","?","?","?","?","?","?","?","?","?","?","?","?","?","?","?","?","?","?","?","?","?","?","?","?","?","?","?","?","?","?","?","?","?","?","?","?","?","?","?","?","?","?","?","?","?","?","?","?","?","?","?","?","?","?","?","?","?","?","?","?","?","?","?","?","?","?","?","?","?","?","?","?","?","?","?","?","?","?","?","?","?","?","?","?","?","?","?","?","?","?","?","?","?","?","?","?","?","?","?","?","?","?","?","?","?","?","?","?","?","?","?","?","?","?","?","?","?","?","?","?","?","?","?","?","?","?","?","?","?","?","?","?","?","?","?","?","?","?","?","?","?","?","?","?","?","?","?","?","?","?","?","?","?","?","?","?","?","?","?","?","?","?","?","?","?","?","?","?","?","?","?","?","?","?","?","?","?","?","?","?","?","?","?","?","?","?","?","?","?","?","?","?","?","?","?","?","?","?","?","?","?","?","?","?","?","?","?","?","?","?","?","?","?","?","?","?","?","?","?","?","?","?","?","?","?","?","?","?","?","?","?","?","?","?","?","?","?","?","?","?","?","?","?","?","?","?","?","?","?","?","?","?","?","?","?","?","?","?","?","?","?","?","?","?","?","?","?","?","?","?","?","?","?","?","?","?","?","?","?","?","?","?","?","?","?","?","?","?","?","?","?","?","?","?","?","?","?","?","?","?","?","?","?","?","?","?","?","?","?","?","?","?","?","?","?","?","?","?","?","?","?","?","?","?","?","?","?","?","?","?","?","?","?","?","?","?","?","?","?","?","?","?","?","?","?","?","?","?","?","?","?","?","?","?","?","?","?","?","?","?","?","?","?","?","?","?","?","?","?","?","?","?","?","?","?","?","?","?","?","?","?","?","?","?","?","?","?","?","?","?","?","?","?","?","?","?","?","?","?","?","?","?","?","?","?","?","?","?","?","?","?","?","?","?","?","?","?","?","?","?","?","?","?","?","?","?","?","?","?","?","?","?","?","?","?","?","?","?","?","?","?","?","?","?","?","?","?","?","?","?","?","?","?","?","?","?","?","?","?","?","?","?","?","?","?","?","?","?","?","?","?","?","?","?","?","?","?","?","?","?","?","?","?","?","?","?","?","?","?","?","?","?","?","?","?","?","?","?","?","?","?","?","?","?","?","?","?","?","?","?","?","?","?","?","?","?","?","?","?","?","?","?","?","?","?","?","?","?","?","?","?","?","?","?","?","?","?","?","?","?","?","?","?","?","?","?","?","?","?","?","?","?","?","?","?","?","?","?","?","?","?","?","?","?","?","?","?","?","?","?","?","?","?","?","?","?","?","?","?","?","?","?","?","?","?","?","?","?","?","?","?","?","?","?","?","?","?","?","?","?","?","?","?","?","?","?","?","?","?","?","?","?","?","?","?","?","?","?","?","?","?","?","?","?","?","?","?","?","?","?","?","?","?","?","?","?","?","?","?","?","?","?","?","?","?","?","?","?","?","?","?","?","?","?","?","?","?","?","?","?","?","?","?","?","?","?","?","?","?","?","?","?","?","?","?","?","?","?","?","?","?","?","?","?","?","?","?","?","?","?","?","?","?","?","?","?","?","?","?","?","?","?","?","?","?","?","?","?","?","?","?","?","?","?","?","?","?","?","?","?","?","?","?","?","?","?","?","?","?","?","?","?","?","?","?","?","?","?","?","?","?","?","?","?","?","?","?","?","?","?","?","?","?","?","?","?","?","?","?","?","?","?","?","?","?","?","?","?","?","?","?","?","?","?","?","?","?","?","?","?","?","?","?","?","?","?","?","?","?","?","?","?","?","?","?","?","?","?","?","?","?","?","?","?","?","?","?","?","?","?","?","?","?","?","?","?","?","?","?","?","?","?","?","?","?","?","?","?","?","?","?","?","?","?","?","?","?","?","?","?","?","?","?","?","?","?","?","?","?","?","?","?","?","?","?","?","?","?","?","?","?","?","?","?","?","?","?","?","?","?","?","?","?","?","?","?","?","?","?","?","?","?","?","?","?","?","?","?","?","?","?","?","?","?","?","?","?","?","?","?","?","?","?","?","?","?","?","?","?","?","?","?","?","?","?","?","?","?","?","?","?","?","?","?","?","?","?","?","?","?","?","?","?","?","?","?","?","?","?","?","?","?","?","?","?","?","?","?","?","?","?","?","?","?","?","?","?","?","?","?","?","?","?","?","?","?","?","?","?","?","?","?","?","?","?","?","?","?","?","?","?","?","?","?","?","?","?","?","?","?","?","?","?","?","?","?","?","?","?","?","?","?","?","?","?","?","?","?","?","?","?","?","?","?","?","?","?","?","?","?","?","?","?","?","?","?","?","?","?","?","?","?","?","?","?","?","?","?","?","?","?","?","?","?","?","?","?","?","?","?","?","?","?","?","?","?","?","?","?","?","?","?","?","?","?","?","?","?","?","?","?","?","?","?","?","?","?","?","?","?","?","?","?","?","?","?","?","?","?","?","?","?","?","?","?","?","?","?","?","?","?","?","?","?","?","?","?","?","?","?","?","?","?","?","?","?","?","?","?","?","?","?","?","?","?","?","?","?","?","?","?","?","?","?","?","?","?","?","?","?","?","?","?","?","?","?","?","?","?","?","?","?","?","?","?","?","?","?","?","?","?","?","?","?","?","?","?","?","?","?","?","?","?","?","?","?","?","?","?","?","?","?","?","?","?","?","?","?","?","?","?","?","?","?","?","?","?","?","?","?","?","?","?","?","?","?","?","?","?","?","?","?","?","?","?","?","?","?","?","?","?","?","?","?","?","?","?","?","?","?","?","?","?","?","?","?","?","?","?","?","?","?","?","?","?","?","?","?","?","?","?","?","?","?","?","?","?","?","?","?","?","?","?","?","?","?","?","?","?","?","?","?","?","?","?","?","?","?","?","?","?","?","?","?","?","?","?","?","?","?","?","?","?","?","?","?","?","?","?","?","?","?","?","?","?","?","?","?","?","?","?","?","?","?","?","?","?","?","?","?","?","?","?","?","?","?","?","?","?","?","?","?","?","?","?","?","?","?","?","?","?","?","?","?","?","?","?","?","?","?","?","?","?","?","?","?","?","?","?","?","?","?","?","?","?","?","?","?","?","?","?","?","?","?","?","?","?","?","?","?","?","?","?","?","?","?","?","?","?","?","?","?","?","?","?","?","?","?","?","?","?","?","?","?","?","?","?","?","?","?","?","?","?","?","?","?","?","?","?","?","?","?","?","?","?","?","?","?","?","?","?","?","?","?","?","?","?","?","?","?","?","?","?","?","?","?","?","?","?","?","?","?","?","?","?","?","?","?","?","?","?","?","?","?","?","?","?","?","?","?","?","?","?","?","?","?","?","?","?","?","?","?","?","?","?","?","?","?","?","?","?","?","?","?","?","?","?","?","?","?","?","?","?","?","?","?","?","?","?","?","?","?","?","?","?","?","?","?","?","?","?","?","?","?","?","?","?","?","?","?","?","?","?","?","?","?","?","?","?","?","?","?","?","?","?","?","?","?","?","?","?","?","?","?","?","?","?","?","?","?","?","?","?","?","?","?","?","?","?","?","?","?","?","?","?","?","?","?","?","?","?","?","?","?","?","?","?","?","?","?","?","?","?","?","?","?","?","?","?","?","?","?","?","?","?","?","?","?","?","?","?","?","?","?","?","?","?","?","?","?","?","?","?","?","?","?","?","?","?","?","?","?","?","?","?","?","?","?","?","?","?","?","?","?","?","?","?","?","?","?","?","?","?","?","?","?","?","?","?","?","?","?","?","?","?","?","?","?","?","?","?","?","?","?","?","?","?","?","?","?","?","?","?","?","?","?","?","?","?","?","?","?","?","?","?","?","?","?","?","?","?","?","?","?","?","?","?","?","?","?","?","?","?","?","?","?","?","?","?","?","?","?","?","?","?","?","?","?","?","?","?","?","?","?","?","?","?","?","?","?","?","?","?","?","?","?","?","?","?","?","?","?","?","?","?","?","?","?","?","?","?","?","?","?","?","?","?","?","?","?","?","?","?","?","?","?","?","?","?","?","?","?","?","?","?","?","?","?","?","?","?","?","?","?","?","?","?","?","?","?","?","?","?","?","?","?","?","?","?","?","?","?","?","?","?","?","?","?","?","?","?","?","?","?","?","?","?","?","?","?","?","?","?","?","?","?","?","?","?","?","?","?","?","?","?","?","?","?","?","?","?","?","?","?","?","?","?","?","?","?","?","?","?","?","?","?","?","?","?","?","?","?","?","?","?","?","?","?","?","?","?","?","?","?","?","?","?","?","?","?","?","?","?","?","?","?","?","?","?","?","?","?","?","?","?","?","?","?","?","?","?","?","?","?","?","?","?","?","?","?","?","?","?","?","?","?","?","?","?","?","?","?","?","?","?","?","?","?","?","?","?","?","?","?","?","?","?","?","?","?","?","?","?","?","?","?","?","?","?","?","?","?","?","?","?","?","?","?","?","?","?","?","?","?","?","?","?","?","?","?","?","?","?","?","?","?","?","?","?","?","?","?","?","?","?","?","?","?","?","?","?","?","?","?","?","?","?","?","?","?","?","?","?","?","?","?","?","?","?","?","?","?","?","?","?","?","?","?","?","?","?","?","?","?","?","?","?","?","?","?","?","?","?","?","?","?","?","?","?","?","?","?","?","?","?","?","?","?","?","?","?","?","?","?","?","?","?","?","?","?","?","?","?","?","?","?","?","?","?","?","?","?","?","?","?","?","?","?","?","?","?","?","?","?","?","?","?","?","?","?","?","?","?","?","?","?","?","?","?","?","?","?","?","?","?","?","?","?","?","?","?","?","?","?","?","?","?","?","?","?","?","?","?","?","?","?","?","?","?","?","?","?","?","?","?","?","?","?","?","?","?","?","?","?","?","?","?","?","?","?","?","?","?","?","?","?","?","?","?","?","?","?","?","?","?","?","?","?","?","?","?","?","?","?","?","?","?","?","?","?","?","?","?","?","?","?","?","?","?","?","?","?","?","?","?","?","?","?","?","?","?","?","?","?","?","?","?","?","?","?","?","?","?","?","?","?","?","?","?","?","?","?","?","?","?","?","?","?","?","?","?","?","?","?","?","?","?","?","?","?","?","?","?","?","?","?","?","?","?","?","?","?","?","?","?","?","?","?","?","?","?","?","?","?","?","?","?","?","?","?","?","?","?","?","?","?","?","?","?","?","?","?","?","?","?","?","?","?","?","?","?","?","?","?","?","?","?","?","?","?","?","?","?","?","?","?","?","?","?","?","?","?","?","?","?","?","?","?","?","?","?","?","?","?","?","?","?","?","?","?","?","?","?","?","?","?","?","?","?","?","?","?","?","?","?","?","?","?","?","?","?","?","?","?","?","?","?","?","?","?","?","?","?","?","?","?","?","?","?","?","?","?","?","?","?","?","?","?","?","?","?","?","?","?","?","?","?","?","?","?","?","?","?","?","?","?","?","?","?","?","?","?","?","?","?","?","?","?","?","?","?","?","?","?","?","?","?","?","?","?","?","?","?","?","?","?","?","?","?","?","?","?","?","?","?","?","?","?","?","?","?","?","?","?","?","?","?","?","?","?","?","?","?","?","?","?","?","?","?","?","?","?","?","?","?","?","?","?","?","?","?","?","?","?","?","?","?","?","?","?","?","?","?","?","?","?","?","?","?","?","?","?","?","?","?","?","?","?","?","?","?","?","?","?","?","?","?","?","?","?","?","?","?","?","?","?","?","?","?","?","?","?","?","?","?","?","?","?","?","?","?","?","?","?","?","?","?","?","?","?","?","?","?","?","?","?","?","?","?","?","?","?","?","?","?","?","?","?","?","?","?","?","?","?","?","?","?","?","?","?","?","?","?","?","?","?","?","?","?","?","?","?","?","?","?","?","?","?","?","?","?","?","?","?","?","?","?","?","?","?","?","?","?","?","?","?","?","?","?","?","?","?","?","?","?","?","?","?","?","?","?","?","?","?","?","?","?","?","?","?","?","?","?","?","?","?","?","?","?","?","?","?","?","?","?","?","?","?","?","?","?","?","?","?","?","?","?","?","?","?","?","?","?","?","?","?","?","?","?","?","?","?","?","?","?","?","?","?","?","?","?","?","?","?","?","?","?","?","?","?","?","?","?","?","?","?","?","?","?","?","?","?","?","?","?","?","?","?","?","?","?","?","?","?","?","?","?","?","?","?","?","?","?","?","?","?","?","?","?","?","?","?","?","?","?","?","?","?","?","?","?","?","?","?","?","?","?","?","?","?","?","?","?","?","?","?","?","?","?","?","?","?","?","?","?","?","?","?","?","?","?","?","?","?","?","?","?","?","?","?","?","?","?","?","?","?","?","?","?","?","?","?","?","?","?","?","?","?","?","?","?","?","?","?","?","?","?","?","?","?","?","?","?","?","?","?","?","?","?","?","?","?","?","?","?","?","?","?","?","?","?","?","?","?","?","?","?","?","?","?","?","?","?","?","?","?","?","?","?","?","?","?","?","?","?","?","?","?","?","?","?","?","?","?","?","?","?","?","?","?","?","?","?","?","?","?","?","?","?","?","?","?","?","?","?","?","?","?","?","?","?","?","?","?","?","?","?","?","?","?","?","?","?","?","?","?","?","?","?","?","?","?","?","?","?","?","?","?","?","?","?","?","?","?","?","?","?","?","?","?","?","?","?","?","?","?","?","?","?","?","?","?","?","?","?","?","?","?","?","?","?","?","?","?","?","?","?","?","?","?","?","?","?","?","?","?","?","?","?","?","?","?","?","?","?","?","?","?","?","?","?","?","?","?","?","?","?","?","?","?","?","?","?","?","?","?","?","?","?","?","?","?","?","?","?","?","?","?","?","?","?","?","?","?","?","?","?","?","?","?","?","?","?","?","?","?","?","?","?","?","?","?","?","?","?","?","?","?","?","?","?","?","?","?","?","?","?","?","?","?","?","?","?","?","?","?","?","?","?","?","?","?","?","?","?","?","?","?","?","?","?","?","?","?","?","?","?","?","?","?","?","?","?","?","?","?","?","?","?","?","?","?","?","?","?","?","?","?","?","?","?","?","?","?","?","?","?","?","?","?","?","?","?","?","?","?","?","?","?","?","?","?","?","?","?","?","?","?","?","?","?","?","?","?","?","?","?","?","?","?","?","?","?","?","?","?","?","?","?","?","?","?","?","?","?","?","?","?","?","?","?","?","?","?","?","?","?","?","?","?","?","?","?","?","?","?","?","?","?","?","?","?","?","?","?","?","?","?","?","?","?","?","?","?","?","?","?","?","?","?","?","?","?","?","?","?","?","?","?","?","?","?","?","?","?","?","?","?","?","?","?","?","?","?","?","?","?","?","?","?","?","?","?","?","?","?","?","?","?","?","?","?","?","?","?","?","?","?","?","?","?","?","?","?","?","?","?","?","?","?","?","?","?","?","?","?","?","?","?","?","?","?","?","?","?","?","?","?","?","?","?","?","?","?","?","?","?","?","?","?","?","?","?","?","?","?","?","?","?","?","?","?","?","?","?","?","?","?","?","?","?","?","?","?","?","?","?","?","?","?","?","?","?","?","?","?","?","?","?","?","?","?","?","?","?","?","?","?","?","?","?","?","?","?","?","?","?","?","?","?","?","?","?","?","?","?","?","?","?","?","?","?","?","?","?","?","?","?","?","?","?","?","?","?","?","?","?","?","?","?","?","?","?","?","?","?","?","?","?","?","?","?","?","?","?","?","?","?","?","?","?","?","?","?","?","?","?","?","?","?","?","?","?","?","?","?","?","?","?","?","?","?","?","?","?","?","?","?","?","?","?","?","?","?","?","?","?","?","?","?","?","?","?","?","?","?","?","?","?","?","?","?","?","?","?","?","?","?","?","?","?","?","?","?","?","?","?","?","?","?","?","?","?","?","?","?","?","?","?","?","?","?","?","?","?","?","?","?","?","?","?","?","?","?","?","?","?","?","?","?","?","?","?","?","?","?","?","?","?","?","?","?","?","?","?","?","?","?","?","?","?","?","?","?","?","?","?","?","?","?","?","?","?","?","?","?","?","?","?","?","?","?","?","?","?","?","?","?","?","?","?","?","?","?","?","?","?","?","?","?","?","?","?","?","?","?","?","?","?","?","?","?","?","?","?","?","?","?","?","?","?","?","?","?","?","?","?","?","?","?","?","?","?","?","?","?","?","?","?","?","?","?","?","?","?","?","?","?","?","?","?","?","?","?","?","?","?","?","?","?","?","?","?","?","?","?","?","?","?","?","?","?","?","?","?","?","?","?","?","?","?","?","?","?","?","?","?","?","?","?","?","?","?","?","?","?","?","?","?","?","?","?","?","?","?","?","?","?","?","?","?","?","?","?","?","?","?","?","?","?","?","?","?","?","?","?","?","?","?","?","?","?","?","?","?","?","?","?","?","?","?","?","?","?","?","?","?","?","?","?","?","?","?","?","?","?","?","?","?","?","?","?","?","?","?","?","?","?","?","?","?","?","?","?","?","?","?","?","?","?","?","?","?","?","?","?","?","?","?","?","?","?","?","?","?","?","?","?","?","?","?","?","?","?","?","?","?","?","?","?","?","?","?","?","?","?","?","?","?","?","?","?","?","?","?","?","?","?","?","?","?","?","?","?","?","?","?","?","?","?","?","?","?","?","?","?","?","?","?","?","?","?","?","?","?","?","?","?","?","?","?","?","?","?","?","?","?","?","?","?","?","?","?","?","?","?","?","?","?","?","?","?","?","?","?","?","?","?","?","?","?","?","?","?","?","?","?","?","?","?","?","?","?","?","?","?","?","?","?","?","?","?","?","?","?","?","?","?","?","?","?","?","?","?","?","?","?","?","?","?","?","?","?","?","?","?","?","?","?","?","?","?","?","?","?","?","?","?","?","?","?","?","?","?","?","?","?","?","?","?","?","?","?","?","?","?","?","?","?","?","?","?","?","?","?","?","?","?","?","?","?","?","?","?","?","?","?","?","?","?","?","?","?","?","?","?","?","?","?","?","?","?","?","?","?","?","?","?","?","?","?","?","?","?","?","?","?","?","?","?","?","?","?","?","?","?","?","?","?","?","?","?","?","?","?","?","?","?","?","?","?","?","?","?","?","?","?","?","?","?","?","?","?","?","?","?","?","?","?","?","?","?","?","?","?","?","?","?","?","?","?","?","?","?","?","?","?","?","?","?","?","?","?","?","?","?","?","?","?","?","?","?","?","?","?","?","?","?","?","?","?","?","?","?","?","?","?","?","?","?","?","?","?","?","?","?","?","?","?","?","?","?","?","?","?","?","?","?","?","?","?","?","?","?","?","?","?","?","?","?","?","?","?","?","?","?","?","?","?","?","?","?","?","?","?","?","?","?","?","?","?","?","?","?","?","?","?","?","?","?","?","?","?","?","?","?","?","?","?","?","?","?","?","?","?","?","?","?","?","?","?","?","?","?","?","?","?","?","?","?","?","?","?","?","?","?","?","?","?","?","?","?","?","?","?","?","?","?","?","?","?","?","?","?","?","?","?","?","?","?","?","?","?","?","?","?","?","?","?","?","?","?","?","?","?","?","?","?","?","?","?","?","?","?","?","?","?","?","?","?","?","?","?","?","?","?","?","?","?","?","?","?","?","?","?","?","?","?","?","?","?","?","?","?","?","?","?","?","?","?","?","?","?","?","?","?","?","?","?","?","?","?","?","?","?","?","?","?","?","?","?","?","?","?","?","?","?","?","?","?","?","?","?","?","?","?","?","?","?","?","?","?","?","?","?","?","?","?","?","?","?","?","?","?","?","?","?","?","?","?","?","?","?","?","?","?","?","?","?","?","?","?","?","?","?","?","?","?","?","?","?","?","?","?","?","?","?","?","?","?","?","?","?","?","?","?","?","?","?","?","?","?","?","?","?","?","?","?","?","?","?","?","?","?","?","?","?","?","?","?","?","?","?","?","?","?","?","?","?","?","?","?","?","?","?","?","?","?","?","?","?","?","?","?","?","?","?","?","?","?","?","?","?","?","?","?","?","?","?","?","?","?","?","?","?","?","?","?","?","?","?","?","?","?","?","?","?","?","?","?","?","?","?","?","?","?","?","?","?","?","?","?","?","?","?","?","?","?","?","?","?","?","?","?","?","?","?","?","?","?","?","?","?","?","?","?","?","?","?","?","?","?","?","?","?","?","?","?","?","?","?","?","?","?","?","?","?","?","?","?","?","?","?","?","?","?","?","?","?","?","?","?","?","?","?","?","?","?","?","?","?","?","?","?","?","?","?","?","?","?","?","?","?","?","?","?","?","?","?","?","?","?","?","?","?","?","?","?","?","?","?","?","?","?","?","?","?","?","?","?","?","?","?","?","?","?","?","?","?","?","?","?","?","?","?","?","?","?","?","?","?","?","?","?","?","?","?","?","?","?","?","?","?","?","?","?","?","?","?","?","?","?","?","?","?","?","?","?","?","?","?","?","?","?","?","?","?","?","?","?","?","?","?","?","?","?","?","?","?","?","?","?","?","?","?","?","?","?","?","?","?","?","?","?","?","?","?","?","?","?","?","?","?","?","?","?","?","?","?","?","?","?","?","?","?","?","?","?","?","?","?","?","?","?","?","?","?","?","?","?","?","?","?","?","?","?","?","?","?","?","?","?","?","?","?","?","?","?","?","?","?","?","?","?","?","?","?","?","?","?","?","?","?","?","?","?","?","?","?","?","?","?","?","?","?","?","?","?","?","?","?","?","?","?","?","?","?","?","?","?","?","?","?","?","?","?","?","?","?","?","?","?","?","?","?","?","?","?","?","?","?","?","?","?","?","?","?","?","?","?","?","?","?","?","?","?","?","?","?","?","?","?","?","?","?","?","?","?","?","?","?","?","?","?","?","?","?","?","?","?","?","?","?","?","?","?","?","?","?","?","?","?","?","?","?","?","?","?","?","?","?","?","?","?","?","?","?","?","?","?","?","?","?","?","?","?","?","?","?","?","?","?","?","?","?","?","?","?","?","?","?","?","?","?","?","?","?","?","?","?","?","?","?","?","?","?","?","?","?","?","?","?","?","?","?","?","?","?","?","?","?","?","?","?","?","?","?","?","?","?","?","?","?","?","?","?","?","?","?","?","?","?","?","?","?","?","?","?","?","?","?","?","?","?","?","?","?","?","?","?","?","?","?","?","?","?","?","?","?","?","?","?","?","?","?","?","?","?","?","?","?","?","?","?","?","?","?","?","?","?","?","?","?","?","?","?","?","?","?","?","?","?","?","?","?","?","?","?","?","?","?","?","?","?","?","?","?","?","?","?","?","?","?","?","?","?","?","?","?","?","?","?","?","?","?","?","?","?","?","?","?","?","?","?","?","?","?","?","?","?","?","?","?","?","?","?","?","?","?","?","?","?","?","?","?","?","?","?","?","?","?","?","?","?","?","?","?","?","?","?","?","?","?","?","?","?","?","?","?","?","?","?","?","?","?","?","?","?","?","?","?","?","?","?","?","?","?","?","?","?","?","?","?","?","?","?","?","?","?","?","?","?","?","?","?","?","?","?","?","?","?","?","?","?","?","?","?","?","?","?","?","?","?","?","?","?","?","?","?","?","?","?","?","?","?","?","?","?","?","?","?","?","?","?","?","?","?","?","?","?","?","?","?","?","?","?","?","?","?","?","?","?","?","?","?","?","?","?","?","?","?","?","?","?","?","?","?","?","?","?","?","?","?","?","?","?","?","?","?","?","?","?","?","?","?","?","?","?","?","?","?","?","?","?","?","?","?","?","?","?","?","?","?","?","?","?","?","?","?","?","?","?","?","?","?","?","?","?","?","?","?","?","?","?","?","?","?","?","?","?","?","?","?","?","?","?","?","?","?","?","?","?","?","?","?","?","?","?","?","?","?","?","?","?","?","?","?","?","?","?","?","?","?","?","?","?","?","?","?","?","?","?","?","?","?","?","?","?","?","?","?","?","?","?","?","?","?","?","?","?","?","?","?","?","?","?","?","?","?","?","?","?","?","?","?","?","?","?","?","?","?","?","?","?","?","?","?","?","?","?","?","?","?","?","?","?","?","?","?","?","?","?","?","?","?","?","?","?","?","?","?","?","?","?","?","?","?","?","?","?","?","?","?","?","?","?","?","?","?","?","?","?","?","?","?","?","?","?","?","?","?","?","?","?","?","?","?","?","?","?","?","?","?","?","?","?","?","?","?","?","?","?","?","?","?","?","?","?","?","?","?","?","?","?","?","?","?","?","?","?","?","?","?","?","?","?","?","?","?","?","?","?","?","?","?","?","?","?","?","?","?","?","?","?","?","?","?","?","?","?","?","?","?","?","?","?","?","?","?","?","?","?","?","?","?","?","?","?","?","?","?","?","?","?","?","?","?","?","?","?","?","?","?","?","?","?","?","?","?","?","?","?","?","?","?","?","?","?","?","?","?","?","?","?","?","?","?","?","?","?","?","?","?","?","?","?","?","?","?","?","?","?","?","?","?","?","?","?","?","?","?","?","?","?","?","?","?","?","?","?","?","?","?","?","?","?","?","?","?","?","?","?","?","?","?","?","?","?","?","?","?","?","?","?","?","?","?","?","?","?","?","?","?","?","?","?","?","?","?","?","?","?","?","?","?","?","?","?","?","?","?","?","?","?","?","?","?","?","?","?","?","?","?","?","?","?","?","?","?","?","?","?","?","?","?","?","?","?","?","?","?","?","?","?","?","?","?","?","?","?","?","?","?","?","?","?","?","?","?","?","?","?","?","?","?","?","?","?","?","?","?","?","?","?","?","?","?","?","?","?","?","?","?","?","?","?","?","?","?","?","?","?","?","?","?","?","?","?","?","?","?","?","?","?","?","?","?","?","?","?","?","?","?","?","?","?","?","?","?","?","?","?","?","?","?","?","?","?","?","?","?","?","?","?","?","?","?","?","?","?","?","?","?","?","?","?","?","?","?","?","?","?","?","?","?","?","?","?","?","?","?","?","?","?","?","?","?","?","?","?","?","?","?","?","?","?","?","?","?","?","?","?","?","?","?","?","?","?","?","?","?","?","?","?","?","?","?","?","?","?","?","?","?","?","?","?","?","?","?","?","?","?","?","?","?","?","?","?","?","?","?","?","?","?","?","?","?","?","?","?","?","?","?","?","?","?","?","?","?","?","?","?","?","?","?","?","?","?","?","?","?","?","?","?","?","?","?","?","?","?","?","?","?","?","?","?","?","?","?","?","?","?","?","?","?","?","?","?","?","?","?","?","?","?","?","?","?","?","?","?","?","?","?","?","?","?","?","?","?","?","?","?","?","?","?","?","?","?","?","?","?","?","?","?","?","?","?","?","?","?","?","?","?","?","?","?","?","?","?","?","?","?","?","?","?","?","?","?","?","?","?","?","?","?","?","?","?","?","?","?","?","?","?","?","?","?","?","?","?","?","?","?","?","?","?","?","?","?","?","?","?","?","?","?","?","?","?","?","?","?","?","?","?","?","?","?","?","?","?","?","?","?","?","?","?","?","?","?","?","?","?","?","?","?","?","?","?","?","?","?","?","?","?","?","?","?","?","?","?","?","?","?","?","?","?","?","?","?","?","?","?","?","?","?","?","?","?","?","?","?","?","?","?","?","?","?","?","?","?","?","?","?","?","?","?","?","?","?","?","?","?","?","?","?","?","?","?","?","?","?","?","?","?","?","?","?","?","?","?","?","?","?","?","?","?","?","?","?","?","?","?","?","?","?","?","?","?","?","?","?","?","?","?","?","?","?","?","?","?","?","?","?","?","?","?","?","?","?","?","?","?","?","?","?","?","?","?","?","?","?","?","?","?","?","?","?","?","?","?","?","?","?","?","?","?","?","?","?","?","?","?","?","?","?","?","?","?","?","?","?","?","?","?","?","?","?","?","?","?","?","?","?","?","?","?","?","?","?","?","?","?","?","?","?","?","?","?","?","?","?","?","?","?","?","?","?","?","?","?","?","?","?","?","?","?","?","?","?","?","?","?","?","?","?","?","?","?","?","?","?","?","?","?","?","?","?","?","?","?","?","?","?","?","?","?","?","?","?","?","?","?","?","?","?","?","?","?","?","?","?","?","?","?","?","?","?","?","?","?","?","?","?","?","?","?","?","?","?","?","?","?","?","?","?","?","?","?","?","?","?","?","?","?","?","?","?","?","?","?","?","?","?","?","?","?","?","?","?","?","?","?","?","?","?","?","?","?","?","?","?","?","?","?","?","?","?","?","?","?","?","?","?","?","?","?","?","?","?","?","?","?","?","?","?","?","?","?","?","?","?","?","?","?","?","?","?","?","?","?","?","?","?","?","?","?","?","?","?","?","?","?","?","?","?","?","?","?","?","?","?","?","?","?","?","?","?","?","?","?","?","?","?","?","?","?","?","?","?","?","?","?","?","?","?","?","?","?","?","?","?","?","?","?","?","?","?","?","?","?","?","?","?","?","?","?","?","?","?","?","?","?","?","?","?","?","?","?","?","?","?","?","?","?","?","?","?","?","?","?","?","?","?","?","?","?","?","?","?","?","?","?","?","?","?","?","?","?","?","?","?","?","?","?","?","?","?","?","?","?","?","?","?","?","?","?","?","?","?","?","?","?","?","?","?","?","?","?","?","?","?","?","?","?","?","?","?","?","?","?","?","?","?","?","?","?","?","?","?","?","?","?","?","?","?","?","?","?","?","?","?","?","?","?","?","?","?","?","?","?","?","?","?","?","?","?","?","?","?","?","?","?","?","?","?","?","?","?","?","?","?","?","?","?","?","?","?","?","?","?","?","?","?","?","?","?","?","?","?","?","?","?","?","?","?","?","?","?","?","?","?","?","?","?","?","?","?","?","?","?","?","?","?","?","?","?","?","?","?","?","?","?","?","?","?","?","?","?","?","?","?","?","?","?","?","?","?","?","?","?","?","?","?","?","?","?","?","?","?","?","?","?","?","?","?","?","?","?","?","?","?","?","?","?","?","?","?","?","?","?","?","?","?","?","?","?","?","?","?","?","?","?","?","?","?","?","?","?","?","?","?","?","?","?","?","?","?","?","?","?","?","?","?","?","?","?","?","?","?","?","?","?","?","?","?","?","?","?","?","?","?","?","?","?","?","?","?","?","?","?","?","?","?","?","?","?","?","?","?","?","?","?","?","?","?","?","?","?","?","?","?","?","?","?","?","?","?","?","?","?","?","?","?","?","?","?","?","?","?","?","?","?","?","?","?","?","?","?","?","?","?","?","?","?","?","?","?","?","?","?","?","?","?","?","?","?","?","?","?","?","?","?","?","?","?","?","?","?","?","?","?","?","?","?","?","?","?","?","?","?","?","?","?","?","?","?","?","?","?","?","?","?","?","?","?","?","?","?","?","?","?","?","?","?","?","?","?","?","?","?","?","?","?","?","?","?","?","?","?","?","?","?","?","?","?","?","?","?","?","?","?","?","?","?","?","?","?","?","?","?","?","?","?","?","?","?","?","?","?","?","?","?","?","?","?","?","?","?","?","?","?","?","?","?","?","?","?","?","?","?","?","?","?","?","?","?","?","?","?","?","?","?","?","?","?","?","?","?","?","?","?","?","?","?","?","?","?","?","?","?","?","?","?","?","?","?","?","?","?","?","?","?","?","?","?","?","?","?","?","?","?","?","?","?","?","?","?","?","?","?","?","?","?","?","?","?","?","?","?","?","?","?","?","?","?","?","?","?","?","?","?","?","?","?","?","?","?","?","?","?","?","?","?","?","?","?","?","?","?","?","?","?","?","?","?","?","?","?","?","?","?","?","?","?","?","?","?","?","?","?","?","?","?","?","?","?","?","?","?","?","?","?","?","?","?","?","?","?","?","?","?","?","?","?","?","?","?","?","?","?","?","?","?","?","?","?","?","?","?","?","?","?","?","?","?","?","?","?","?","?","?","?","?","?","?","?","?","?","?","?","?","?","?","?","?","?","?","?","?","?","?","?","?","?","?","?","?","?","?","?","?","?","?","?","?","?","?","?","?","?","?","?","?","?","?","?","?","?","?","?","?","?","?","?","?","?","?","?","?","?","?","?","?","?","?","?","?","?","?","?","?","?","?","?","?","?","?","?","?","?","?","?","?","?","?","?","?","?","?","?","?","?","?","?","?","?","?","?","?","?","?","?","?","?","?","?","?","?","?","?","?","?","?","?","?","?","?","?","?","?","?","?","?","?","?","?","?","?","?","?","?","?","?","?","?","?","?","?","?","?","?","?","?","?","?","?","?","?","?","?","?","?","?","?","?","?","?","?","?","?","?","?","?","?","?","?","?","?","?","?","?","?","?","?","?","?","?","?","?","?","?","?","?","?","?","?","?","?","?","?","?","?","?","?","?","?","?","?","?","?","?","?","?","?","?","?","?","?","?","?","?","?","?","?","?","?","?","?","?","?","?","?","?","?","?","?","?","?","?","?","?","?","?","?","?","?","?","?","?","?","?","?","?","?","?","?","?","?","?","?","?","?","?","?","?","?","?","?","?","?","?","?","?","?","?","?","?","?","?","?","?","?","?","?","?","?","?","?","?","?","?","?","?","?","?","?","?","?","?","?","?","?","?","?","?","?","?","?","?","?","?","?","?","?","?","?","?","?","?","?","?","?","?","?","?","?","?","?","?","?","?","?","?","?","?","?","?","?","?","?","?","?","?","?","?","?","?","?","?","?","?","?","?","?","?","?","?","?","?","?","?","?","?","?","?","?","?","?","?","?","?","?","?","?","?","?","?","?","?","?","?","?","?","?","?","?","?","?","?","?","?","?","?","?","?","?","?","?","?","?","?","?","?","?","?","?","?","?","?","?","?","?","?","?","?","?","?","?","?","?","?","?","?","?","?","?","?","?","?","?","?","?","?","?","?","?","?","?","?","?","?","?","?","?","?","?","?","?","?","?","?","?","?","?","?","?","?","?","?","?","?","?","?","?","?","?","?","?","?","?","?","?","?","?","?","?","?","?","?","?","?","?","?","?","?","?","?","?","?","?","?","?","?","?","?","?","?","?","?","?","?","?","?","?","?","?","?","?","?","?","?","?","?","?","?","?","?","?","?","?","?","?","?","?","?","?","?","?","?","?","?","?","?","?","?","?","?","?","?","?","?","?","?","?","?","?","?","?","?","?","?","?","?","?","?","?