[{"success":true,"trial_type":"fullscreen","trial_index":0,"time_elapsed":2577,"internal_node_id":"0.0-0.0","protocol_sum":"","subject_identifier":309,"subject_sum":[29,14,190,165,82,235,67,208,177,225,86,31,109,232,174,146,227,222,127,26,190,197,35,153,36,77,28,174,215,219,223,166],"subject_pair":154,"STUDY_ID":"66a0b3911f23dfc7665bb169","PROLIFIC_PID":"62a96f8f6ab7e0c3ce90095f","SESSION_ID":"66a1189a0a0eaad223e64da0","practice_instructions":1,"leaderboard_instructions":0,"bonus":1,"reveal_word":true,"self_rating":"5","confidence":"70"},{"view_history":"[{\"page_index\":0,\"viewing_time\":3448.899999976158}]","rt":3449,"trial_type":"instructions","trial_index":1,"time_elapsed":6027,"internal_node_id":"0.0-1.0","protocol_sum":"","subject_identifier":309,"subject_sum":[29,14,190,165,82,235,67,208,177,225,86,31,109,232,174,146,227,222,127,26,190,197,35,153,36,77,28,174,215,219,223,166],"subject_pair":154,"STUDY_ID":"66a0b3911f23dfc7665bb169","PROLIFIC_PID":"62a96f8f6ab7e0c3ce90095f","SESSION_ID":"66a1189a0a0eaad223e64da0","practice_instructions":1,"leaderboard_instructions":0,"bonus":1,"reveal_word":true,"self_rating":"5","confidence":"70"},{"view_history":"[{\"page_index\":0,\"viewing_time\":14374.300000071526}]","rt":14374.300000071526,"trial_type":"instructions","trial_index":2,"time_elapsed":20401,"internal_node_id":"0.0-2.0-0.0","protocol_sum":"","subject_identifier":309,"subject_sum":[29,14,190,165,82,235,67,208,177,225,86,31,109,232,174,146,227,222,127,26,190,197,35,153,36,77,28,174,215,219,223,166],"subject_pair":154,"STUDY_ID":"66a0b3911f23dfc7665bb169","PROLIFIC_PID":"62a96f8f6ab7e0c3ce90095f","SESSION_ID":"66a1189a0a0eaad223e64da0","practice_instructions":1,"leaderboard_instructions":0,"bonus":1,"reveal_word":true,"self_rating":"5","confidence":"70"},{"rt":6968.399999976158,"responses":"{\"Q0\":\"... reveal the word with as <b>few letter guesses</b> as possible\"}","question_order":"[0]","trial_type":"survey-multi-choice","trial_index":3,"time_elapsed":27371,"internal_node_id":"0.0-2.0-1.0","protocol_sum":"","subject_identifier":309,"subject_sum":[29,14,190,165,82,235,67,208,177,225,86,31,109,232,174,146,227,222,127,26,190,197,35,153,36,77,28,174,215,219,223,166],"subject_pair":154,"correct":true,"test_part":"multichoice_nonpretend","STUDY_ID":"66a0b3911f23dfc7665bb169","PROLIFIC_PID":"62a96f8f6ab7e0c3ce90095f","SESSION_ID":"66a1189a0a0eaad223e64da0","practice_instructions":1,"leaderboard_instructions":0,"bonus":1,"reveal_word":true,"self_rating":"5","confidence":"70"},{"view_history":"[{\"page_index\":0,\"viewing_time\":1580}]","rt":1580.1000000238419,"trial_type":"instructions","trial_index":4,"time_elapsed":28951,"internal_node_id":"0.0-3.0","protocol_sum":"","subject_identifier":309,"subject_sum":[29,14,190,165,82,235,67,208,177,225,86,31,109,232,174,146,227,222,127,26,190,197,35,153,36,77,28,174,215,219,223,166],"subject_pair":154,"STUDY_ID":"66a0b3911f23dfc7665bb169","PROLIFIC_PID":"62a96f8f6ab7e0c3ce90095f","SESSION_ID":"66a1189a0a0eaad223e64da0","practice_instructions":1,"leaderboard_instructions":0,"bonus":1,"reveal_word":true,"self_rating":"5","confidence":"70"},{"word":"ZEBRA","click_log":{"letter":["","C","D","O","L","S","I","G","E","R","Z","B","A"],"t":[0,7164.700000047684,9560.200000047684,29633.100000023842,32517.300000071526,36640.10000002384,39257.10000002384,43154,46826.5,77998,91747.80000007153,93465.5,94839.5],"hit":[null,0,0,0,0,0,0,0,1,1,1,1,1],"asked":["","C","CD","CDO","CDOL","CDOLS","CDOLSI","CDOLSIG","CDOLSIGE","CDOLSIGER","CDOLSIGERZ","CDOLSIGERZB","CDOLSIGERZBA"],"word_state":["_____","_____","_____","_____","_____","_____","_____","_____","_E___","_E_R_","ZE_R_","ZEBR_","ZEBRA"]},"hover_log":{"letter":["?","?","?","?","?","?","?","?","?","?","?","?","?","?","?","?","?","?","?","?","?","?","?","?","?","?","?","?","?","?","?","?","?","?","?","?","?","?","?","?","?","?","?","?","?","?","?","?","?","?","?","?","?","?","?","?","?","?","?","?","?","?","?","?","?","?","?","?","?","?","?","?","?","?","?","?","?","?","?","?","?","?","?","?","?","?","?","?","?","?","?","?","?","?","?","?","?","?","?","?","?","?","?","?","?","?","?","?","?","?","?","?","?","?","?","?","?","?","?","?","?","?","?","?","?","?","?","?","?","?","?","?","?","?","?","?","?","?","?","?","?","?","?","?","?","?","?","?","?","?","?","?","?","?","?","?","?","?","?","?","?","?","?","?","?","?","?","?","?","?","?","?","?","?","?","?","?","?","?","?","?","?","?","?","?","?","?","?","?","?","?","?","?","?","?","?","?","?","?","?","?","?","?","?","?","?","?","?","?","?","?","?","?","?","?","?","?","?","?","?","?","?","?","?","?","?","?","?","?","?","?","?","?","?","?","?","?","?","?","?","?","?","?","?","?","?","?","?","?","?","?","?","?","?","?","?","?","?","?","?","?","?","?","?","?","?","?","?","?","?","?","?","?","?","?","?","?","?","?","?","?","?","?","?","?","?","?","?","?","?","?","?","?","?","?","?","?","?","?","?","?","?","?","?","?","?","?","?","?","?","?","?","?","?","?","?","?","?","?","?","?","?","?","?","?","?","?","?","?","?","?","?","?","?","?","?","?","?","?","?","?","?","?","?","?","?","?","?","?","?","?","?","?","?","?","?","?","?","?","?","?","?","?","?","?","?","?","?","?","?","?","?","?","?","?","?","?","?","?","?","?","?","?","?","?","?","?","?","?","?","?","?","?","?","?","?","?","?","?","?","?","?","?","?","C","?","?","?","?","?","?","?","?","C","C","C","C","C","C","C","C","C","C","C","C","C","C","C","C","C","C","C","C","C","C","C","C","C","C","C","C","C","C","C","C","C","C","C","?","L","?","?","?","?","V","V","V","V","V","V","V","V","V","V","V","V","V","V","V","V","?","?","?","?","?","?","?","?","?","?","?","?","?","?","?","?","?","?","?","?","?","?","?","?","?","?","?","?","?","?","?","?","?","?","?","?","?","?","?","?","?","?","?","?","?","?","?","?","?","?","?","?","?","?","?","?","?","?","?","L","L","L","L","L","L","L","L","L","L","L","L","?","?","?","?","?","?","D","D","D","D","D","D","D","D","D","D","D","D","D","D","D","D","D","D","D","D","D","D","D","D","D","D","D","D","D","D","D","D","?","M","?","?","?","W","W","?","?","?","?","?","?","?","?","?","?","?","?","?","?","?","?","?","?","?","?","?","?","?","?","?","?","?","?","?","?","?","?","?","?","?","?","?","?","?","?","?","?","?","?","?","?","?","?","?","?","?","?","?","?","?","?","?","?","?","?","?","?","?","?","?","?","?","?","?","?","?","?","?","?","?","?","?","?","?","?","?","?","?","?","?","?","?","?","?","?","?","?","?","?","?","?","?","?","?","?","?","?","?","?","?","?","?","?","?","?","?","?","?","?","?","?","?","?","?","?","?","?","?","?","?","?","?","?","?","?","?","?","?","?","?","?","?","?","?","?","?","?","?","?","?","Y","O","?","?","?","?","?","?","?","?","?","?","?","?","?","?","?","?","?","?","?","?","?","?","?","?","?","?","?","?","?","?","?","?","?","?","?","?","?","?","?","?","?","?","?","?","?","?","?","?","?","?","?","?","?","?","?","?","?","?","?","?","?","?","?","?","?","?","?","?","?","?","?","?","?","?","?","?","?","?","?","?","?","?","?","?","?","?","?","?","?","?","?","?","?","?","?","?","?","?","?","?","?","?","?","?","?","?","?","?","?","?","?","?","?","?","?","?","?","?","?","?","?","?","?","?","?","?","?","?","?","?","?","?","?","?","?","?","?","?","?","?","?","?","?","?","?","?","?","?","?","?","?","?","?","?","?","?","?","?","?","?","?","?","?","?","?","?","?","?","?","?","?","?","?","?","?","?","?","?","?","?","?","?","?","?","?","?","?","?","?","?","?","?","?","?","?","?","?","?","?","?","?","?","?","?","?","?","?","?","?","?","?","?","?","?","?","?","?","?","?","?","?","?","?","?","?","?","?","?","?","?","?","?","?","?","?","?","?","?","?","?","?","?","?","?","?","?","?","?","?","?","?","?","?","?","?","?","?","?","?","?","?","?","?","?","?","?","?","?","?","?","?","?","?","?","?","?","?","?","?","?","?","?","?","?","?","?","?","?","?","?","?","?","?","?","?","?","?","?","?","?","?","?","?","?","?","?","?","?","?","?","?","?","?","?","?","?","?","?","?","?","?","?","?","?","?","?","?","?","?","?","?","?","?","?","?","?","?","?","?","?","?","?","?","?","?","?","?","?","?","?","?","?","?","?","?","?","?","?","?","?","?","?","?","?","?","?","?","?","?","?","?","?","?","?","?","?","?","?","?","?","?","?","?","?","?","?","?","?","?","?","?","?","?","?","?","?","?","?","?","?","?","?","?","?","?","?","?","?","?","?","?","?","?","?","?","?","?","?","?","?","?","?","?","?","?","?","?","?","?","?","?","?","?","?","?","?","?","?","?","?","?","?","?","?","?","?","?","?","?","?","?","?","?","?","?","?","?","?","?","?","?","?","?","?","?","?","?","?","?","?","?","?","?","?","?","?","?","?","?","?","?","?","?","?","?","?","?","?","?","?","?","?","?","?","?","?","?","?","?","?","?","?","?","?","?","?","?","?","?","?","?","?","?","?","?","?","?","?","?","?","?","?","?","?","?","?","?","?","?","?","?","?","?","?","?","?","?","?","?","?","?","?","?","?","?","?","?","?","?","?","?","?","?","?","?","?","?","?","?","?","?","?","?","?","?","?","?","?","?","?","?","?","?","?","?","?","?","?","?","?","?","?","?","?","?","?","?","?","?","?","?","?","?","?","?","?","?","?","?","?","?","?","?","?","?","?","?","?","?","?","?","?","?","?","?","?","?","?","?","?","?","?","?","?","?","?","?","?","?","?","?","?","?","?","?","?","?","?","?","?","?","?","?","?","?","?","?","?","?","?","?","?","?","?","?","?","?","?","?","?","?","?","?","?","?","?","?","?","?","?","?","?","?","?","?","?","?","?","?","?","?","?","?","?","?","?","?","?","?","?","?","?","?","?","?","?","?","?","?","?","?","?","?","?","?","?","?","?","?","?","?","?","?","?","?","?","?","?","?","?","?","?","?","?","?","?","?","?","?","?","?","?","?","?","?","?","?","?","?","?","?","?","?","?","?","?","?","?","?","?","?","?","?","?","?","?","?","?","?","?","?","?","?","?","?","?","?","?","?","?","?","?","?","?","?","?","?","?","?","?","?","?","?","?","?","?","?","?","?","?","?","?","?","?","?","?","?","?","?","?","?","?","?","?","?","?","?","?","?","?","?","?","?","?","?","?","?","?","?","?","?","?","?","?","?","?","?","?","?","?","?","?","?","?","?","?","?","?","?","?","?","?","?","?","?","?","?","?","?","?","?","?","?","?","?","?","?","?","?","?","?","?","?","?","?","?","?","?","?","?","?","?","?","?","?","?","?","?","?","?","?","?","?","?","?","?","?","?","?","?","?","?","?","?","?","?","?","?","?","?","?","?","?","?","?","?","?","?","?","?","?","?","?","?","?","?","?","?","?","?","?","?","?","?","?","?","?","?","?","A","?","?","L","?","?","?","?","V","V","?","?","?","?","?","?","?","?","?","X","?","Y","?","?","?","?","?","?","Q","Q","Q","Q","Q","Q","Q","Q","Q","Q","Q","Q","Q","Q","Q","Q","Q","Q","Q","Q","Q","Q","Q","Q","?","?","?","R","R","R","R","R","R","?","?","Q","Q","Q","P","P","P","P","P","P","P","P","P","P","P","P","P","P","P","P","P","P","P","P","P","P","P","P","?","?","O","O","O","O","O","O","O","O","O","O","O","O","O","O","O","O","O","O","O","O","O","O","O","O","O","O","O","O","O","O","O","?","?","X","X","X","X","X","?","?","?","?","?","?","?","?","?","?","?","?","?","?","?","?","?","?","?","?","?","?","?","?","?","?","?","W","W","W","W","W","W","W","W","W","W","W","W","W","W","?","?","?","?","?","?","V","V","V","V","V","V","V","V","V","V","V","V","V","V","V","V","V","V","V","V","V","V","V","V","V","V","V","V","V","V","V","V","V","V","V","V","V","V","V","V","V","V","?","?","U","U","U","U","U","U","U","U","U","U","U","U","U","U","U","U","U","U","U","U","U","U","U","U","U","U","?","?","L","L","L","L","L","L","L","L","L","L","L","L","L","L","L","L","L","L","L","L","L","L","L","L","L","L","L","L","L","L","L","L","L","L","L","L","L","L","L","L","L","L","L","L","L","L","L","L","L","L","L","L","L","L","L","L","L","L","L","L","L","?","?","?","?","?","?","?","?","?","?","?","?","?","?","?","?","?","?","?","?","?","?","?","?","?","?","?","?","?","?","?","?","?","?","?","?","?","?","?","?","?","?","?","?","?","?","?","?","?","?","?","?","?","?","?","?","?","?","?","?","?","?","?","?","?","?","?","?","?","?","?","?","?","?","?","?","?","?","?","?","?","?","?","?","?","?","?","?","?","?","?","?","?","?","?","?","?","?","?","?","?","?","?","?","?","?","?","?","?","?","?","?","?","?","?","?","?","?","?","?","?","?","?","?","?","?","?","?","?","?","?","K","?","?","T","T","T","T","T","T","T","T","T","T","T","T","T","T","T","T","T","T","T","T","T","T","T","T","T","T","T","T","T","T","T","T","T","T","T","T","T","T","T","T","T","T","T","T","T","T","T","T","T","T","T","T","T","T","T","T","T","T","T","T","T","T","T","T","T","T","T","T","?","?","?","S","S","S","S","S","S","S","S","S","S","S","S","S","S","S","S","S","S","S","S","S","S","S","S","S","S","S","S","S","S","S","S","?","?","?","?","?","?","?","?","?","?","?","?","?","?","?","?","?","?","?","?","?","?","?","?","?","?","?","?","?","?","?","?","?","?","?","?","?","?","?","?","?","?","?","?","?","?","?","?","?","?","?","?","?","?","?","?","?","?","?","?","?","?","?","?","?","?","?","?","?","?","?","?","?","?","?","?","?","?","?","?","?","?","?","?","?","?","X","X","X","X","X","X","X","X","X","X","X","X","X","X","?","?","Y","Y","Y","?","?","?","?","?","Q","Q","?","?","?","?","?","?","?","I","I","I","I","I","I","I","I","I","I","I","I","I","I","I","I","I","I","I","I","I","I","I","I","I","I","I","I","I","I","I","I","?","?","R","?","?","?","Z","Z","Z","Z","Z","Z","Z","Z","Z","Z","Z","Z","Z","Z","Z","Z","Z","Z","Z","Z","Z","Z","Z","Z","Z","Z","Z","Z","Z","Z","Z","Z","Z","Z","Z","Z","Z","Z","Z","Z","Z","Z","Z","Z","Z","Z","Z","Z","Z","Z","Z","Z","Z","Z","Z","Z","Z","Z","Z","Z","Z","Z","?","?","?","?","?","?","?","?","?","?","?","?","?","?","P","P","P","P","P","P","P","P","P","P","?","?","?","?","?","?","?","?","?","?","?","?","?","?","?","?","?","?","?","?","?","?","?","?","?","?","?","F","F","F","F","F","F","F","F","F","F","F","F","F","F","F","F","F","F","F","F","F","F","F","F","F","F","F","F","F","F","F","F","F","F","F","F","F","F","F","F","F","F","F","F","F","?","?","?","G","G","G","G","G","G","G","G","G","G","G","G","G","G","G","G","G","G","G","G","G","G","G","G","G","G","G","G","G","G","G","G","G","G","G","G","G","G","G","G","G","G","G","G","G","G","G","G","G","G","G","G","G","G","G","G","G","G","G","G","G","G","G","G","G","G","G","G","G","G","G","G","G","G","?","?","P","P","P","P","P","?","?","?","?","?","?","?","?","?","?","?","?","?","?","?","?","?","?","?","?","?","?","?","?","?","?","?","?","?","?","?","?","?","?","?","?","?","?","?","?","?","?","?","?","?","?","?","?","?","?","?","?","?","?","?","?","?","?","?","?","Y","Y","Y","Y","Y","Y","Y","Y","Y","Y","Y","Y","Y","Y","Y","Y","Y","Y","Y","Y","Y","Y","Y","Y","Y","Y","Y","Y","Y","Y","Y","Y","Y","?","X","X","X","X","X","X","?","?","W","W","W","W","W","W","W","W","W","W","W","W","W","W","W","W","W","W","W","W","W","W","W","W","W","W","W","W","W","W","W","W","W","W","W","W","W","W","W","W","W","W","W","W","W","W","W","W","W","W","W","W","W","W","W","W","W","W","W","W","W","W","W","W","W","W","?","?","?","?","?","N","N","N","?","?","?","E","E","E","E","E","E","E","E","E","E","E","E","E","E","E","E","E","E","E","E","E","E","E","E","E","E","E","E","E","E","E","E","E","?","?","?","?","?","?","?","O","O","O","O","O","O","O","O","O","O","O","O","O","O","O","O","O","O","O","O","O","O","O","O","O","O","O","O","O","O","O","O","O","O","O","O","O","O","O","O","O","O","O","O","O","O","O","O","O","O","O","O","O","O","O","O","O","O","O","O","O","O","O","O","O","O","O","O","O","O","O","O","O","O","O","O","O","O","O","O","O","O","O","O","O","O","O","O","O","O","O","O","O","O","O","O","O","O","O","O","O","O","O","O","O","O","O","O","O","O","O","O","O","O","O","O","O","O","O","O","O","O","O","O","O","O","O","O","O","O","O","O","O","O","O","O","O","O","O","O","O","O","O","O","O","O","O","O","O","O","O","O","O","O","O","O","O","O","O","O","O","O","O","O","O","O","O","O","O","O","O","O","O","O","O","O","O","O","O","O","O","O","O","O","O","O","O","O","O","O","O","O","O","O","O","O","O","O","O","O","O","O","O","O","O","O","O","O","O","O","O","O","O","O","O","O","O","O","O","O","O","O","O","O","O","O","O","O","O","O","O","O","O","O","O","O","O","O","O","O","O","O","O","O","O","O","O","O","O","O","O","O","O","O","O","O","O","O","O","O","O","O","O","O","O","O","O","O","O","O","O","O","O","O","O","O","O","O","O","O","O","O","O","O","O","O","O","O","O","O","O","O","O","O","O","O","O","O","O","O","O","O","O","O","O","O","O","O","O","O","O","O","O","O","O","O","O","O","O","O","O","O","O","O","O","O","O","O","O","O","O","O","O","O","O","O","O","O","O","O","O","O","O","O","O","O","O","O","O","O","O","O","O","O","O","O","O","O","O","O","O","O","O","O","O","O","O","O","O","O","O","O","O","O","O","O","O","O","O","O","O","O","O","O","O","O","O","O","O","O","O","O","O","O","O","O","O","O","O","O","O","O","O","O","O","O","O","O","O","O","O","O","O","O","O","O","O","O","O","O","O","O","O","O","O","O","O","O","O","O","O","O","O","O","O","O","O","O","O","O","O","O","O","O","O","O","O","O","O","O","O","O","O","O","O","O","O","O","O","O","O","O","O","O","O","O","O","O","O","O","O","O","O","O","O","O","O","O","O","O","O","O","O","O","O","O","O","O","O","O","O","O","O","O","O","O","O","O","O","O","O","O","O","O","O","O","O","O","O","O","O","O","O","O","O","O","O","O","O","O","O","O","O","O","O","O","O","O","O","O","O","O","O","O","O","O","O","O","O","O","O","O","O","O","O","O","O","O","O","O","O","O","O","O","O","O","O","O","O","O","O","O","O","O","O","O","O","O","O","O","O","O","O","O","O","O","O","O","O","O","O","O","O","O","O","O","O","O","O","O","O","O","O","O","O","O","O","O","O","O","O","O","O","O","O","O","O","O","O","O","O","O","O","O","O","O","O","O","O","O","O","O","O","O","O","O","O","O","O","O","O","O","O","O","O","O","O","O","O","O","O","O","O","O","O","O","O","O","O","O","O","O","O","O","O","O","O","O","O","O","O","O","O","O","O","O","O","O","O","O","O","O","O","O","O","O","O","O","O","O","O","O","O","O","O","O","O","O","O","O","O","O","O","O","O","O","O","O","O","O","O","O","O","O","O","O","O","O","O","O","O","O","O","O","O","O","O","O","O","O","O","O","O","O","O","O","O","O","O","O","O","O","O","O","O","O","O","O","O","O","O","O","O","O","O","O","O","O","O","O","O","O","O","O","O","O","O","O","O","O","O","O","O","O","O","O","O","O","O","O","O","O","O","O","O","O","O","O","O","O","O","O","O","O","O","O","O","O","O","O","O","O","O","O","O","O","O","O","O","O","O","O","O","O","O","O","O","O","O","O","O","O","O","O","O","O","O","O","O","O","O","O","O","O","O","O","O","O","O","O","O","O","O","O","O","O","O","O","O","O","O","O","O","O","O","O","O","O","O","O","O","O","O","O","O","O","O","O","O","O","O","O","O","O","O","O","O","O","O","O","O","O","O","O","O","O","O","O","O","O","O","O","O","O","O","O","O","O","O","O","O","O","O","O","O","O","O","O","O","O","O","O","O","O","O","O","O","O","O","O","O","O","O","O","O","O","O","O","O","O","O","O","O","O","O","O","O","O","O","O","O","O","O","O","O","O","O","O","O","O","O","O","O","O","O","O","O","O","O","O","O","O","O","O","O","O","O","O","O","O","O","O","O","O","O","O","O","O","O","O","O","O","O","O","O","O","O","O","O","O","O","O","O","O","O","O","O","O","O","O","O","O","O","O","O","O","O","O","O","O","O","O","O","O","O","O","O","O","O","O","O","O","O","O","O","O","O","O","O","O","O","O","O","O","O","O","O","O","O","O","O","O","O","O","O","O","O","O","O","O","O","O","O","O","O","O","O","O","O","O","O","O","O","O","O","O","O","O","O","O","O","O","O","O","O","O","O","O","O","O","O","O","O","O","O","O","O","O","O","O","O","O","O","O","O","O","O","O","O","O","O","O","O","O","O","O","O","O","O","O","O","O","O","O","O","O","O","O","O","O","O","O","O","O","O","O","O","O","O","O","O","O","O","O","O","O","O","O","O","O","O","O","O","O","O","O","O","O","O","O","O","O","O","O","O","O","O","O","O","O","O","O","O","O","O","O","O","O","O","O","O","O","O","O","O","O","O","O","O","O","O","O","O","O","O","O","O","O","O","O","O","O","O","O","O","O","O","O","O","O","O","O","O","O","O","O","O","O","O","O","O","O","O","O","O","O","O","O","O","O","O","O","O","O","O","O","O","O","O","O","O","O","O","O","O","O","O","O","O","O","O","O","O","O","O","O","O","O","O","O","O","O","O","O","O","O","O","O","O","O","O","O","O","O","O","O","O","O","O","O","O","O","O","O","O","O","O","O","O","O","O","O","O","O","O","O","O","O","O","O","O","O","O","O","O","O","O","O","O","O","O","O","O","O","O","O","O","O","O","O","O","O","O","O","O","O","O","O","O","O","O","O","O","O","O","O","O","O","O","O","O","O","O","O","O","O","O","O","O","O","O","O","O","O","O","O","O","O","O","O","O","O","O","O","O","O","O","O","O","O","O","O","O","O","O","O","O","O","O","O","O","O","O","O","O","O","O","O","O","O","O","O","O","O","O","O","O","O","O","O","O","O","O","O","O","O","O","O","O","O","O","O","O","O","O","O","O","O","O","O","O","O","O","O","O","O","O","O","O","O","O","O","O","O","O","O","O","O","O","O","O","O","O","O","O","O","O","O","O","O","O","O","O","O","O","O","O","O","O","O","O","O","O","O","O","O","O","O","O","O","O","O","O","O","O","O","O","O","O","O","O","O","O","O","O","O","O","O","O","O","O","O","O","O","O","O","O","O","O","O","O","O","O","O","O","O","O","O","O","O","O","O","O","O","O","O","O","O","O","O","O","O","O","O","O","O","O","O","O","O","O","O","O","O","O","O","O","O","O","O","O","O","O","O","O","O","O","O","O","O","O","O","O","O","O","O","O","O","O","O","O","O","O","O","O","O","O","O","O","O","O","O","O","O","O","O","O","O","O","O","O","O","O","O","O","O","O","O","O","O","O","O","O","O","O","O","O","O","O","O","O","O","O","O","O","O","O","O","O","O","O","O","O","O","O","O","O","O","O","O","O","O","O","O","O","O","O","O","O","O","O","O","O","O","O","O","O","O","O","O","O","O","O","O","O","O","O","O","O","O","O","O","O","O","O","O","O","O","O","O","O","O","O","O","O","O","O","O","O","O","O","O","O","O","O","O","O","O","O","O","O","O","O","O","O","O","O","O","O","O","O","O","O","O","O","O","O","O","O","O","O","O","O","O","O","O","O","O","O","O","O","O","O","O","O","O","O","O","O","O","O","O","O","O","O","O","O","O","O","O","O","O","O","O","O","O","O","O","O","O","O","O","O","O","O","O","O","O","O","O","O","O","O","O","O","O","O","O","O","O","O","O","O","O","O","O","O","O","O","O","O","O","O","O","O","?","F","?","?","?","?","?","?","?","?","?","?","?","?","?","?","?","?","?","?","?","?","?","?","?","?","?","?","?","?","?","?","?","?","?","?","?","?","?","?","?","?","P","P","P","P","P","?","?","?","?","?","?","?","?","?","?","?","?","?","?","Z","?","?","?","?","?","?","?","?","?","?","R","R","R","R","R","R","R","R","R","R","R","R","R","R","R","R","R","R","R","R","R","R","R","R","R","R","R","R","R","R","R","R","R","R","R","R","R","R","R","R","R","R","R","R","R","R","R","R","R","R","R","R","R","R","R","R","R","R","R","R","R","R","R","R","R","R","R","R","R","R","R","R","R","R","R","R","R","R","R","R","R","R","R","R","R","R","R","R","R","R","R","R","R","R","R","R","R","R","R","R","R","R","R","R","R","R","R","R","R","R","R","R","R","R","R","R","R","R","R","R","R","R","R","R","R","R","R","R","R","R","R","R","R","R","R","R","R","R","R","R","R","R","R","R","R","R","R","R","R","R","R","R","R","R","R","R","R","R","R","R","R","R","R","R","R","R","R","R","R","R","R","R","R","R","R","R","R","R","R","R","R","R","R","R","R","R","R","R","R","R","R","R","R","R","R","R","R","R","R","R","R","R","R","R","R","R","R","R","R","R","R","R","R","R","R","R","R","R","R","R","R","R","R","R","R","R","R","R","R","R","R","R","R","R","R","R","R","R","R","R","R","R","R","R","R","R","R","R","R","R","R","R","R","R","R","R","R","R","R","R","R","R","R","R","R","R","R","R","R","R","R","R","R","R","R","R","R","R","R","R","R","R","R","R","R","R","R","R","R","R","R","R","R","R","R","R","R","R","R","R","R","R","R","R","R","R","R","R","R","R","R","R","R","R","R","R","R","R","R","R","R","R","R","R","R","R","R","R","R","R","R","R","R","R","R","R","R","R","R","R","R","R","R","R","R","R","R","R","R","R","R","R","R","R","R","R","R","R","R","R","R","R","R","R","R","R","R","R","R","R","R","R","R","R","R","R","R","R","R","R","R","R","R","R","R","R","R","R","R","R","R","R","R","R","R","R","R","R","R","R","R","R","R","R","R","R","R","R","R","R","R","R","R","R","R","R","R","R","R","R","R","R","R","R","R","R","R","R","R","R","R","R","R","R","R","R","R","R","R","R","R","R","R","R","R","R","R","R","R","R","R","R","R","R","R","R","R","R","R","R","R","R","R","R","R","R","R","R","R","R","R","R","R","R","R","R","R","R","R","R","R","R","R","R","R","R","R","R","R","R","R","R","R","R","R","R","R","R","R","R","R","R","R","R","R","R","R","R","R","R","R","R","R","R","R","R","R","R","R","R","R","R","R","R","R","R","R","R","R","R","R","R","R","R","R","R","R","R","R","R","R","R","R","R","R","R","R","R","R","R","R","R","R","R","R","R","R","R","R","R","R","R","R","R","R","R","R","R","R","R","R","R","R","R","R","R","R","R","R","R","R","R","R","R","R","R","R","R","R","R","R","R","R","R","R","R","R","R","R","R","R","R","R","R","R","R","R","R","R","R","R","R","R","R","R","R","R","R","R","R","R","R","R","R","R","R","R","R","R","R","R","R","R","R","R","R","R","R","R","R","R","R","R","R","R","R","R","R","R","R","R","R","R","R","R","R","R","R","R","R","R","R","R","R","R","R","R","R","R","R","R","R","R","R","R","R","R","R","R","R","R","R","R","R","R","R","R","R","R","R","R","R","R","R","R","R","R","R","R","R","R","R","R","R","R","R","R","R","R","R","R","R","R","R","R","R","R","R","R","R","R","R","R","R","R","R","R","R","R","R","R","R","R","R","R","R","R","R","R","R","R","R","R","R","R","R","R","R","R","R","R","R","R","R","R","R","R","R","Q","?","?","?","?","F","?","E","E","?","?","?","?","?","D","?","M","V","?","?","?","?","?","?","?","?","?","?","?","?","?","?","?","?","?","?","?","?","?","?","?","?","?","?","W","X","Y","?","Z","Z","Z","Z","Z","Z","Z","Z","Z","Z","Z","Z","Z","Z","Z","Z","Z","Z","Z","Z","Z","Z","Z","Z","Z","Z","Z","Z","Z","Z","Z","Z","Z","Z","Z","Z","Z","Z","Z","Z","Z","Z","Z","Z","Z","Z","Z","Z","Z","Z","Z","Z","Z","Z","Z","Z","Z","Z","Z","Z","Z","Z","Z","Z","Z","Z","Z","?","Y","Y","Y","X","X","X","?","?","?","?","?","?","?","?","?","?","N","N","N","N","N","N","?","?","?","?","?","?","?","?","?","?","?","?","?","?","?","?","?","?","C","C","C","C","C","C","C","C","C","C","C","C","C","?","?","?","B","B","B","B","B","B","B","B","B","B","B","B","B","B","B","B","B","B","B","B","B","B","B","B","B","B","B","B","B","B","B","B","B","B","B","B","B","B","B","B","B","B","B","B","B","B","B","B","?","?","?","?","?","L","L","L","?","?","?","V","V","V","V","V","V","V","V","V","V","V","V","V","V","?","?","?","?","K","K","K","K","K","K","K","?","?","?","?","?","?","A","A","A","A","A","A","A","A","A","A","A","A","A","A","A","A","A","A","A","A","A","A","A","A","A","A","A","A","?","?","K","?","T","?","?","?","?","?","?","?","?","?","?","?","?","?","?","?","?","?","?","?","?","?","?","?","?","?","?","?","?","?","?","?","?","?","?","?","?","?","?","?","?","?","?","?","?","?","?","?","?","?","?","?","?","?","?","?","?","?","?","?","?","?","?","?","?","?","?","?","?","?","?","?","?","?","?","?","?","?","?","?","?","?","?","?","?","?","?","?","?","?","?","?","?","?","?","?","?","?","?","?","?","?","?","?","?"],"t":[27,36,52,69,85,102,119,135,152,169,185,202,218,235,252,269,285,302,319,335,352,369,385,402,418,435,452,468,485,502,519,535,552,568,585,602,619,635,652,669,685,702,719,735,752,768,785,802,818,835,852,868,885,902,919,935,952,968,985,1002,1018,1035,1052,1069,1085,1102,1119,1135,1152,1168,1185,1202,1218,1235,1252,1268,1285,1302,1318,1335,1352,1368,1385,1402,1418,1435,1452,1468,1485,1502,1518,1535,1552,1568,1585,1602,1618,1635,1652,1668,1685,1702,1718,1735,1752,1768,1785,1802,1818,1835,1852,1868,1885,1902,1918,1935,1952,1968,1985,2002,2018,2035,2052,2068,2085,2102,2118,2135,2152,2168,2185,2202,2219,2235,2252,2268,2285,2302,2318,2335,2352,2368,2385,2402,2418,2435,2452,2468,2485,2502,2518,2535,2552,2568,2585,2602,2618,2635,2652,2668,2685,2702,2719,2735,2752,2768,2785,2802,2818,2835,2852,2868,2885,2902,2918,2935,2952,2968,2985,3002,3018,3035,3052,3068,3085,3102,3118,3135,3152,3168,3185,3202,3218,3235,3252,3268,3285,3302,3318,3335,3352,3368,3385,3402,3418,3435,3452,3468,3485,3502,3518,3535,3552,3568,3585,3602,3618,3635,3652,3668,3685,3702,3718,3735,3752,3768,3785,3802,3818,3835,3851,3868,3885,3901,3918,3935,3952,3968,3985,4002,4018,4035,4052,4068,4085,4102,4118,4135,4152,4168,4185,4202,4218,4235,4252,4268,4285,4302,4318,4335,4352,4368,4385,4402,4418,4435,4452,4468,4485,4502,4518,4535,4552,4568,4585,4602,4618,4635,4652,4668,4685,4702,4718,4735,4751,4768,4785,4802,4818,4835,4852,4868,4885,4902,4918,4935,4952,4968,4985,5002,5018,5035,5052,5069,5085,5102,5119,5135,5152,5168,5185,5202,5219,5235,5252,5268,5285,5302,5319,5335,5352,5368,5385,5402,5418,5435,5452,5468,5485,5502,5518,5535,5552,5568,5585,5602,5618,5635,5652,5668,5685,5702,5718,5735,5752,5768,5785,5802,5818,5835,5852,5868,5885,5902,5918,5935,5952,5968,5985,6002,6018,6035,6052,6068,6085,6102,6118,6135,6151,6168,6185,6202,6218,6235,6252,6268,6285,6302,6318,6335,6352,6368,6385,6402,6418,6435,6452,6468,6485,6502,6518,6535,6552,6568,6585,6602,6618,6635,6652,6669,6685,6702,6719,6735,6753,6768,6785,6802,6818,6835,6852,6868,6885,6902,6919,6935,6952,6968,6985,7002,7019,7035,7052,7068,7085,7102,7119,7135,7152,7169,7185,7202,7218,7235,7252,7268,7285,7302,7319,7335,7352,7368,7385,7402,7418,7435,7452,7468,7485,7502,7519,7535,7552,7569,7585,7602,7618,7635,7652,7668,7685,7702,7719,7735,7752,7768,7785,7802,7818,7835,7852,7868,7885,7902,7918,7935,7952,7968,7985,8002,8018,8035,8052,8068,8085,8102,8118,8135,8152,8168,8185,8202,8218,8235,8252,8269,8285,8302,8318,8335,8352,8368,8385,8402,8418,8435,8452,8468,8485,8502,8518,8535,8552,8568,8585,8602,8618,8635,8652,8669,8685,8702,8718,8735,8752,8769,8785,8802,8818,8835,8852,8868,8885,8902,8918,8935,8952,8968,8985,9002,9018,9035,9052,9068,9085,9102,9118,9135,9152,9168,9185,9202,9218,9235,9252,9268,9285,9302,9318,9335,9352,9368,9385,9402,9418,9435,9452,9468,9485,9502,9518,9535,9552,9569,9585,9602,9618,9635,9652,9669,9685,9702,9719,9735,9752,9769,9785,9802,9818,9835,9852,9868,9885,9902,9918,9935,9952,9968,9985,10002,10018,10035,10052,10068,10085,10102,10118,10135,10152,10168,10185,10202,10218,10235,10252,10268,10285,10302,10318,10335,10352,10368,10385,10402,10418,10435,10452,10468,10485,10502,10518,10535,10551,10568,10585,10601,10618,10635,10652,10668,10685,10702,10718,10735,10752,10768,10785,10802,10818,10835,10852,10868,10885,10902,10918,10935,10952,10968,10985,11002,11018,11035,11052,11068,11085,11102,11118,11135,11152,11168,11185,11202,11218,11235,11252,11268,11285,11302,11318,11335,11352,11368,11385,11402,11418,11435,11452,11468,11485,11501,11518,11535,11552,11568,11585,11602,11618,11635,11652,11668,11685,11702,11718,11735,11752,11768,11785,11802,11818,11835,11851,11868,11885,11902,11918,11935,11952,11968,11985,12002,12018,12035,12052,12068,12085,12102,12118,12135,12152,12168,12185,12202,12218,12235,12252,12268,12285,12302,12318,12335,12352,12368,12385,12402,12418,12435,12452,12468,12485,12502,12518,12535,12552,12568,12585,12602,12619,12635,12652,12668,12685,12702,12718,12735,12752,12768,12785,12801,12818,12835,12852,12868,12885,12902,12918,12935,12952,12968,12985,13002,13018,13035,13052,13068,13085,13102,13118,13135,13152,13168,13185,13202,13218,13235,13251,13268,13285,13302,13318,13335,13352,13368,13385,13401,13418,13435,13451,13468,13485,13502,13518,13535,13551,13568,13585,13602,13618,13635,13652,13668,13685,13702,13718,13735,13752,13768,13785,13802,13818,13835,13852,13868,13885,13902,13918,13935,13952,13968,13985,14001,14018,14035,14052,14068,14085,14101,14118,14135,14152,14168,14185,14202,14218,14235,14252,14268,14285,14302,14318,14335,14352,14368,14385,14402,14418,14435,14452,14468,14485,14501,14518,14535,14551,14568,14585,14602,14618,14635,14651,14668,14685,14702,14718,14735,14751,14768,14785,14802,14818,14835,14851,14868,14885,14902,14918,14935,14952,14968,14985,15002,15018,15035,15051,15068,15085,15102,15118,15135,15152,15168,15185,15202,15218,15235,15252,15268,15285,15302,15318,15335,15352,15368,15385,15402,15418,15435,15452,15468,15485,15502,15518,15535,15551,15568,15585,15602,15618,15635,15652,15668,15685,15701,15718,15735,15752,15768,15785,15802,15818,15835,15852,15868,15885,15901,15918,15935,15951,15968,15985,16002,16018,16035,16052,16068,16085,16101,16118,16135,16151,16168,16185,16202,16218,16235,16251,16268,16285,16301,16318,16335,16351,16368,16385,16401,16418,16435,16451,16468,16485,16501,16518,16535,16552,16568,16585,16601,16618,16635,16651,16668,16685,16701,16718,16735,16752,16768,16785,16801,16818,16835,16852,16868,16885,16902,16918,16935,16952,16970,16985,17002,17018,17035,17051,17068,17085,17102,17118,17135,17151,17168,17185,17201,17218,17235,17251,17268,17285,17301,17318,17335,17352,17368,17385,17402,17418,17435,17451,17468,17485,17502,17518,17535,17552,17568,17585,17601,17618,17635,17652,17668,17685,17702,17718,17735,17751,17768,17785,17801,17818,17835,17851,17868,17885,17901,17918,17935,17951,17968,17985,18001,18018,18035,18052,18068,18085,18101,18118,18135,18152,18168,18185,18202,18218,18235,18251,18268,18285,18301,18318,18335,18352,18368,18385,18402,18419,18435,18452,18468,18485,18501,18518,18535,18552,18568,18585,18602,18618,18635,18651,18668,18685,18702,18718,18735,18751,18768,18785,18801,18818,18835,18851,18868,18885,18902,18918,18935,18951,18968,18985,19001,19018,19035,19052,19068,19085,19101,19118,19135,19152,19168,19185,19201,19218,19235,19251,19268,19285,19301,19318,19335,19352,19368,19385,19401,19418,19435,19451,19468,19485,19502,19518,19535,19552,19568,19585,19601,19618,19635,19651,19668,19685,19702,19718,19735,19751,19768,19785,19802,19818,19835,19851,19868,19885,19902,19918,19935,19951,19968,19985,20001,20018,20035,20052,20068,20085,20102,20118,20135,20151,20168,20185,20201,20218,20235,20252,20268,20285,20301,20318,20335,20352,20368,20385,20402,20418,20435,20451,20468,20485,20501,20518,20535,20551,20568,20585,20601,20618,20635,20652,20668,20685,20701,20718,20735,20751,20768,20785,20801,20818,20835,20852,20868,20885,20901,20918,20935,20951,20968,20985,21002,21018,21035,21051,21068,21085,21101,21118,21135,21151,21168,21185,21202,21218,21235,21251,21268,21285,21301,21318,21335,21352,21368,21385,21401,21418,21435,21452,21468,21485,21502,21518,21535,21551,21568,21585,21601,21618,21635,21651,21668,21685,21701,21718,21735,21751,21768,21785,21801,21818,21835,21851,21868,21885,21901,21918,21935,21952,21968,21985,22001,22018,22035,22051,22068,22085,22101,22118,22135,22151,22168,22185,22201,22218,22235,22251,22268,22285,22301,22318,22335,22351,22368,22385,22401,22418,22435,22451,22468,22485,22501,22518,22535,22551,22568,22585,22602,22618,22635,22652,22668,22685,22701,22718,22735,22751,22768,22785,22802,22818,22835,22851,22868,22885,22901,22918,22935,22951,22968,22985,23001,23018,23035,23051,23068,23085,23101,23118,23135,23151,23168,23185,23201,23218,23235,23251,23268,23285,23301,23318,23335,23351,23368,23385,23401,23418,23435,23451,23468,23485,23501,23518,23535,23551,23568,23585,23602,23618,23635,23652,23668,23685,23702,23718,23735,23751,23768,23785,23801,23818,23835,23851,23868,23885,23901,23918,23935,23951,23968,23985,24001,24018,24035,24051,24068,24085,24101,24118,24135,24152,24168,24185,24202,24218,24235,24251,24268,24285,24301,24318,24335,24351,24368,24385,24401,24418,24435,24451,24468,24485,24501,24518,24535,24551,24568,24585,24601,24618,24635,24651,24668,24685,24701,24718,24735,24751,24768,24785,24801,24818,24835,24851,24868,24885,24901,24918,24935,24951,24968,24986,25001,25018,25035,25051,25068,25085,25102,25118,25135,25151,25168,25185,25201,25218,25235,25251,25268,25285,25301,25318,25335,25351,25368,25385,25401,25418,25435,25452,25468,25485,25501,25518,25535,25551,25568,25585,25601,25618,25635,25651,25668,25685,25702,25718,25735,25752,25768,25785,25801,25818,25835,25851,25868,25885,25901,25918,25935,25952,25968,25985,26002,26018,26035,26051,26068,26085,26101,26118,26135,26151,26168,26185,26201,26218,26235,26251,26268,26285,26301,26318,26335,26351,26368,26385,26401,26418,26435,26451,26468,26485,26501,26518,26535,26551,26568,26585,26601,26618,26635,26651,26668,26685,26701,26718,26735,26751,26768,26785,26801,26818,26835,26851,26868,26885,26901,26918,26935,26952,26968,26985,27001,27018,27035,27052,27068,27085,27101,27118,27135,27151,27168,27185,27201,27218,27235,27251,27268,27285,27301,27318,27335,27352,27368,27385,27401,27418,27435,27452,27468,27485,27502,27518,27535,27551,27568,27585,27602,27618,27635,27652,27668,27685,27702,27719,27735,27752,27768,27785,27802,27818,27835,27852,27868,27885,27902,27918,27935,27952,27968,27985,28002,28018,28035,28052,28068,28085,28102,28118,28135,28152,28168,28185,28202,28218,28235,28252,28268,28285,28301,28318,28335,28352,28368,28385,28401,28418,28435,28452,28468,28485,28501,28518,28535,28552,28568,28585,28601,28618,28635,28651,28668,28685,28701,28718,28735,28751,28768,28785,28802,28818,28835,28852,28868,28885,28902,28918,28935,28951,28968,28985,29001,29018,29035,29051,29068,29085,29102,29118,29135,29152,29168,29185,29202,29218,29235,29252,29268,29285,29302,29318,29335,29351,29368,29385,29401,29418,29435,29451,29468,29485,29501,29518,29535,29551,29568,29585,29601,29618,29635,29651,29668,29685,29701,29718,29735,29752,29768,29785,29802,29818,29835,29852,29868,29885,29902,29918,29935,29951,29968,29985,30001,30018,30035,30051,30068,30085,30102,30118,30135,30151,30168,30185,30202,30218,30235,30251,30268,30285,30302,30318,30335,30352,30368,30385,30401,30418,30435,30451,30468,30485,30502,30518,30535,30551,30568,30585,30602,30618,30635,30652,30668,30685,30702,30718,30735,30752,30768,30785,30802,30818,30835,30851,30868,30885,30901,30918,30935,30951,30968,30985,31002,31018,31035,31051,31068,31085,31102,31118,31135,31151,31168,31185,31201,31218,31235,31251,31268,31285,31302,31318,31335,31352,31368,31385,31402,31418,31435,31451,31468,31485,31501,31518,31535,31551,31568,31585,31601,31618,31635,31651,31668,31685,31702,31718,31735,31751,31768,31785,31802,31818,31835,31852,31868,31885,31902,31918,31935,31951,31968,31985,32001,32018,32035,32051,32068,32085,32101,32118,32135,32151,32168,32185,32201,32218,32235,32251,32268,32285,32301,32318,32335,32351,32368,32385,32401,32418,32435,32452,32468,32485,32501,32518,32535,32551,32568,32585,32601,32618,32635,32651,32668,32685,32701,32718,32735,32751,32768,32785,32801,32818,32835,32852,32868,32885,32902,32918,32935,32952,32968,32985,33002,33018,33035,33051,33068,33085,33102,33118,33135,33152,33168,33185,33201,33218,33235,33251,33268,33285,33301,33318,33335,33351,33368,33385,33401,33418,33435,33451,33468,33485,33501,33518,33535,33552,33568,33585,33601,33618,33635,33651,33668,33685,33702,33718,33735,33752,33768,33785,33801,33818,33835,33851,33868,33885,33901,33918,33935,33951,33968,33985,34002,34018,34035,34052,34068,34085,34102,34118,34135,34152,34168,34185,34201,34218,34235,34251,34268,34285,34302,34318,34335,34352,34368,34385,34402,34418,34435,34452,34468,34485,34501,34518,34535,34552,34568,34585,34602,34618,34635,34652,34668,34685,34702,34718,34735,34751,34768,34785,34801,34818,34835,34851,34868,34885,34901,34918,34935,34951,34968,34985,35001,35018,35035,35051,35068,35085,35102,35118,35135,35152,35169,35185,35201,35218,35235,35251,35268,35285,35301,35318,35335,35351,35368,35385,35401,35418,35435,35451,35468,35485,35501,35518,35535,35551,35568,35585,35601,35618,35635,35651,35668,35685,35701,35718,35735,35751,35768,35785,35801,35818,35835,35851,35868,35885,35901,35918,35935,35951,35968,35985,36001,36018,36035,36051,36068,36085,36101,36118,36135,36151,36168,36185,36202,36218,36235,36251,36268,36285,36301,36318,36335,36351,36368,36385,36401,36418,36435,36451,36468,36485,36501,36518,36535,36551,36568,36585,36601,36618,36635,36652,36668,36685,36701,36718,36735,36752,36768,36785,36802,36818,36835,36851,36868,36885,36902,36918,36935,36952,36968,36985,37003,37018,37035,37051,37068,37085,37101,37118,37135,37151,37168,37185,37201,37218,37235,37251,37268,37285,37301,37318,37335,37351,37368,37385,37401,37418,37435,37451,37468,37485,37501,37518,37535,37551,37568,37585,37601,37618,37635,37651,37668,37685,37701,37718,37735,37751,37768,37785,37802,37818,37835,37851,37868,37885,37901,37918,37935,37952,37968,37985,38001,38018,38035,38051,38068,38085,38102,38118,38135,38151,38168,38185,38202,38218,38235,38251,38268,38285,38301,38318,38335,38351,38369,38385,38401,38418,38435,38452,38468,38485,38502,38518,38535,38552,38568,38585,38601,38618,38635,38651,38668,38685,38701,38718,38735,38752,38768,38785,38802,38818,38835,38852,38868,38885,38901,38918,38935,38951,38968,38985,39001,39018,39035,39051,39068,39085,39101,39118,39135,39151,39168,39185,39202,39218,39235,39251,39268,39285,39301,39318,39335,39351,39368,39385,39401,39418,39435,39452,39468,39485,39502,39518,39535,39551,39568,39585,39601,39618,39635,39651,39668,39685,39701,39719,39735,39751,39768,39785,39801,39818,39835,39851,39868,39885,39901,39918,39935,39951,39968,39985,40001,40018,40035,40051,40068,40085,40101,40118,40135,40151,40168,40185,40202,40218,40235,40251,40268,40285,40301,40318,40335,40351,40368,40385,40401,40418,40435,40451,40468,40485,40502,40518,40535,40552,40568,40585,40601,40618,40635,40652,40668,40685,40702,40718,40735,40751,40768,40785,40802,40818,40835,40851,40868,40885,40901,40918,40935,40952,40968,40985,41001,41018,41035,41052,41068,41085,41102,41118,41135,41151,41168,41185,41202,41218,41235,41251,41268,41285,41302,41318,41335,41352,41368,41385,41402,41418,41435,41451,41468,41485,41502,41518,41535,41551,41568,41585,41601,41618,41635,41651,41668,41685,41701,41718,41735,41751,41768,41785,41801,41818,41835,41851,41868,41885,41901,41918,41935,41951,41968,41985,42001,42018,42035,42051,42068,42085,42101,42118,42135,42152,42168,42185,42201,42218,42235,42252,42268,42285,42301,42318,42335,42352,42368,42385,42402,42418,42435,42451,42468,42485,42501,42518,42535,42551,42568,42585,42601,42618,42635,42651,42668,42685,42701,42718,42735,42751,42768,42785,42801,42818,42835,42851,42868,42885,42901,42918,42935,42951,42968,42985,43001,43018,43035,43051,43068,43085,43101,43118,43135,43151,43168,43185,43201,43218,43235,43251,43268,43285,43301,43318,43335,43352,43368,43385,43402,43418,43435,43451,43468,43485,43501,43518,43535,43551,43568,43585,43601,43618,43635,43651,43668,43685,43701,43718,43735,43751,43768,43785,43801,43818,43835,43851,43868,43885,43901,43918,43935,43951,43968,43985,44002,44018,44035,44051,44068,44085,44102,44118,44135,44152,44168,44185,44201,44218,44235,44251,44268,44285,44301,44318,44335,44351,44368,44385,44401,44418,44435,44451,44468,44485,44502,44518,44535,44551,44568,44585,44601,44618,44635,44651,44668,44685,44701,44718,44735,44751,44768,44785,44801,44818,44835,44852,44868,44885,44901,44918,44935,44951,44968,44985,45002,45018,45035,45052,45068,45085,45102,45118,45135,45151,45168,45185,45202,45218,45235,45251,45268,45285,45301,45318,45335,45351,45368,45385,45401,45419,45435,45451,45468,45485,45501,45518,45535,45551,45568,45585,45601,45618,45635,45651,45668,45685,45701,45718,45735,45751,45768,45785,45801,45818,45835,45851,45868,45885,45901,45918,45935,45951,45968,45985,46001,46018,46035,46051,46068,46085,46101,46118,46135,46151,46168,46185,46202,46218,46235,46252,46268,46285,46301,46318,46335,46351,46368,46385,46401,46418,46435,46452,46468,46485,46501,46518,46535,46551,46568,46585,46601,46618,46635,46652,46668,46685,46701,46718,46735,46751,46768,46785,46801,46818,46837,46851,46868,46885,46901,46918,46935,46951,46968,46985,47002,47018,47035,47052,47068,47085,47101,47118,47135,47151,47168,47185,47202,47218,47235,47251,47268,47285,47301,47318,47335,47351,47368,47385,47401,47418,47435,47451,47468,47485,47502,47518,47535,47551,47568,47585,47601,47618,47635,47651,47668,47685,47701,47718,47735,47751,47768,47785,47801,47818,47835,47851,47868,47885,47901,47918,47935,47951,47968,47985,48001,48018,48035,48051,48068,48085,48101,48118,48135,48151,48168,48185,48202,48218,48235,48251,48268,48285,48301,48318,48335,48351,48368,48385,48401,48418,48435,48451,48468,48485,48501,48518,48535,48551,48568,48585,48601,48618,48635,48651,48668,48685,48701,48718,48735,48751,48768,48785,48801,48818,48835,48851,48868,48885,48901,48918,48935,48951,48968,48985,49002,49020,49035,49051,49068,49085,49101,49118,49135,49151,49168,49185,49201,49218,49235,49251,49268,49285,49302,49318,49334,49351,49368,49385,49401,49418,49435,49451,49468,49485,49501,49518,49535,49551,49568,49585,49601,49619,49635,49651,49668,49685,49701,49718,49735,49751,49768,49785,49801,49818,49835,49852,49868,49885,49901,49918,49935,49951,49968,49985,50001,50018,50035,50051,50068,50085,50101,50118,50135,50151,50168,50185,50201,50218,50235,50251,50268,50285,50301,50318,50335,50351,50368,50385,50401,50418,50435,50451,50468,50485,50501,50518,50535,50551,50568,50585,50601,50618,50635,50651,50668,50685,50701,50718,50735,50751,50768,50785,50801,50818,50835,50851,50868,50885,50901,50918,50935,50951,50968,50985,51001,51018,51035,51052,51068,51085,51101,51118,51135,51151,51168,51185,51201,51218,51235,51251,51268,51285,51301,51318,51335,51351,51368,51385,51401,51418,51435,51451,51468,51485,51501,51518,51535,51551,51568,51585,51601,51618,51635,51651,51668,51685,51701,51718,51735,51751,51768,51785,51801,51818,51835,51851,51868,51885,51901,51918,51935,51951,51968,51985,52001,52018,52034,52051,52068,52085,52101,52118,52135,52151,52168,52185,52201,52218,52235,52251,52268,52285,52301,52318,52335,52351,52368,52385,52401,52418,52435,52451,52468,52485,52501,52518,52535,52551,52568,52585,52601,52618,52635,52651,52668,52685,52701,52718,52735,52751,52768,52785,52801,52818,52835,52851,52868,52885,52901,52918,52935,52951,52968,52985,53001,53018,53035,53051,53068,53085,53101,53118,53135,53151,53168,53185,53201,53218,53235,53252,53268,53285,53301,53318,53335,53351,53368,53385,53401,53418,53435,53451,53468,53485,53501,53518,53535,53551,53568,53585,53601,53618,53635,53651,53668,53685,53701,53718,53735,53751,53768,53785,53801,53818,53835,53851,53868,53885,53901,53919,53935,53951,53968,53985,54001,54018,54035,54051,54068,54085,54101,54118,54135,54151,54168,54185,54201,54218,54235,54251,54268,54285,54301,54318,54335,54351,54368,54385,54401,54418,54435,54451,54468,54485,54501,54518,54535,54551,54568,54585,54601,54618,54635,54651,54668,54685,54701,54718,54735,54751,54768,54785,54801,54818,54835,54851,54868,54885,54901,54918,54935,54951,54968,54985,55001,55018,55035,55051,55068,55085,55101,55118,55135,55151,55168,55185,55201,55218,55235,55251,55268,55285,55301,55318,55335,55351,55368,55385,55401,55418,55435,55451,55468,55485,55501,55518,55535,55551,55568,55585,55601,55618,55635,55651,55668,55685,55701,55718,55735,55751,55768,55785,55801,55818,55835,55851,55868,55885,55901,55918,55935,55951,55968,55985,56001,56018,56035,56051,56068,56085,56101,56118,56135,56151,56168,56185,56201,56218,56235,56251,56268,56285,56301,56318,56335,56351,56368,56385,56401,56418,56435,56451,56468,56485,56501,56518,56535,56551,56568,56585,56601,56618,56635,56651,56668,56685,56702,56718,56735,56751,56768,56785,56801,56818,56835,56851,56868,56885,56901,56918,56935,56951,56968,56985,57001,57018,57035,57051,57068,57085,57101,57118,57134,57151,57168,57185,57201,57218,57235,57251,57268,57285,57301,57318,57335,57351,57368,57385,57401,57418,57435,57451,57468,57485,57501,57518,57535,57551,57568,57585,57601,57618,57635,57651,57668,57685,57701,57718,57735,57751,57768,57785,57801,57818,57835,57851,57868,57885,57901,57918,57935,57951,57968,57985,58001,58018,58035,58051,58068,58085,58101,58118,58135,58151,58168,58185,58202,58218,58235,58251,58268,58285,58301,58318,58335,58351,58368,58385,58401,58418,58435,58451,58468,58485,58501,58518,58535,58551,58568,58585,58601,58618,58635,58651,58668,58685,58701,58718,58735,58751,58768,58785,58801,58818,58835,58851,58868,58885,58901,58918,58935,58951,58968,58985,59001,59018,59035,59051,59068,59085,59101,59118,59135,59151,59168,59185,59201,59218,59235,59251,59268,59285,59301,59318,59335,59351,59368,59385,59401,59418,59434,59451,59468,59485,59501,59518,59535,59551,59568,59585,59601,59618,59635,59651,59668,59685,59701,59718,59735,59751,59768,59785,59801,59818,59835,59851,59868,59885,59901,59918,59935,59951,59968,59985,60001,60018,60035,60051,60068,60085,60101,60118,60135,60151,60168,60185,60201,60218,60234,60251,60268,60285,60301,60318,60335,60351,60368,60385,60401,60418,60435,60451,60468,60485,60501,60518,60535,60551,60568,60585,60601,60618,60635,60651,60668,60685,60701,60718,60735,60751,60768,60785,60801,60818,60835,60851,60868,60885,60901,60918,60935,60951,60968,60985,61001,61018,61035,61051,61068,61085,61101,61118,61135,61151,61168,61185,61201,61218,61234,61251,61268,61284,61301,61318,61335,61351,61368,61385,61401,61418,61435,61451,61468,61485,61501,61518,61535,61551,61568,61585,61601,61618,61635,61651,61668,61685,61701,61718,61735,61751,61768,61785,61801,61818,61835,61851,61868,61885,61901,61918,61935,61951,61968,61985,62001,62018,62035,62051,62068,62085,62101,62118,62135,62151,62168,62185,62201,62218,62235,62251,62268,62285,62301,62318,62335,62351,62368,62385,62401,62418,62435,62451,62468,62485,62502,62518,62535,62551,62568,62584,62601,62618,62635,62651,62668,62684,62701,62718,62735,62751,62768,62785,62801,62818,62835,62851,62868,62885,62901,62918,62935,62951,62968,62985,63001,63018,63035,63051,63068,63085,63101,63118,63135,63151,63168,63185,63201,63218,63235,63251,63268,63285,63301,63318,63335,63351,63368,63385,63401,63418,63435,63451,63468,63485,63501,63518,63535,63551,63568,63585,63601,63618,63635,63651,63668,63685,63702,63718,63735,63751,63768,63785,63801,63818,63835,63851,63868,63884,63901,63918,63935,63951,63968,63985,64001,64018,64035,64051,64068,64085,64101,64118,64135,64151,64168,64185,64201,64218,64235,64251,64268,64285,64301,64318,64335,64351,64368,64385,64401,64418,64435,64451,64468,64485,64501,64518,64535,64551,64568,64585,64601,64618,64635,64651,64668,64685,64701,64718,64735,64751,64768,64785,64801,64818,64835,64851,64868,64884,64901,64918,64935,64951,64968,64984,65001,65018,65035,65053,65068,65085,65101,65118,65135,65151,65168,65185,65201,65218,65235,65251,65268,65284,65301,65318,65335,65351,65368,65384,65401,65418,65434,65453,65468,65485,65501,65518,65535,65551,65568,65584,65601,65618,65634,65651,65668,65685,65701,65718,65735,65751,65768,65785,65801,65818,65835,65851,65868,65885,65901,65918,65935,65951,65968,65984,66001,66018,66035,66051,66068,66085,66101,66118,66135,66151,66168,66185,66202,66218,66235,66251,66268,66285,66301,66318,66335,66351,66368,66385,66401,66418,66435,66451,66468,66485,66501,66518,66535,66551,66568,66585,66601,66618,66635,66651,66668,66685,66701,66718,66735,66751,66768,66785,66801,66818,66835,66851,66868,66885,66901,66918,66935,66951,66968,66985,67001,67018,67035,67051,67068,67085,67101,67118,67135,67151,67168,67185,67201,67218,67235,67251,67268,67285,67301,67318,67335,67351,67368,67385,67401,67418,67434,67451,67468,67485,67501,67518,67535,67551,67568,67585,67601,67618,67635,67651,67668,67685,67701,67718,67735,67751,67768,67785,67801,67818,67835,67851,67868,67885,67901,67918,67935,67951,67968,67985,68001,68018,68035,68051,68068,68085,68101,68118,68135,68151,68168,68185,68201,68218,68235,68251,68268,68285,68301,68318,68335,68351,68368,68385,68401,68418,68435,68451,68468,68485,68501,68518,68535,68551,68568,68584,68601,68618,68635,68651,68668,68685,68701,68718,68735,68751,68768,68785,68801,68818,68835,68851,68868,68884,68901,68918,68935,68951,68968,68985,69001,69018,69034,69051,69068,69085,69101,69118,69135,69151,69168,69185,69201,69218,69235,69251,69268,69284,69301,69318,69335,69351,69368,69385,69401,69418,69435,69451,69468,69484,69501,69518,69535,69551,69568,69585,69601,69618,69635,69652,69668,69685,69701,69718,69735,69751,69768,69785,69801,69818,69835,69851,69868,69885,69901,69918,69935,69951,69968,69985,70001,70018,70034,70051,70068,70085,70101,70118,70135,70151,70168,70185,70201,70218,70235,70251,70268,70285,70301,70318,70334,70351,70368,70385,70401,70418,70434,70451,70468,70485,70502,70518,70535,70551,70568,70585,70601,70618,70634,70651,70668,70685,70701,70718,70735,70751,70768,70785,70801,70818,70835,70851,70868,70885,70901,70918,70935,70951,70968,70984,71001,71018,71035,71051,71068,71085,71101,71118,71135,71151,71168,71185,71201,71218,71235,71251,71268,71285,71301,71318,71334,71351,71368,71385,71401,71418,71435,71451,71468,71484,71501,71518,71535,71551,71568,71584,71601,71618,71635,71651,71668,71684,71701,71718,71735,71751,71768,71784,71801,71818,71835,71851,71868,71885,71901,71918,71934,71951,71968,71985,72001,72018,72035,72051,72068,72085,72101,72118,72135,72151,72168,72184,72201,72218,72235,72251,72268,72285,72301,72318,72334,72351,72368,72385,72401,72418,72435,72451,72468,72485,72502,72518,72534,72551,72568,72584,72601,72618,72634,72651,72668,72684,72701,72718,72734,72751,72768,72785,72801,72818,72834,72851,72868,72884,72901,72918,72934,72951,72968,72984,73001,73018,73034,73051,73070,73085,73101,73118,73135,73151,73168,73185,73201,73218,73235,73251,73268,73285,73301,73318,73335,73351,73368,73385,73402,73418,73435,73451,73468,73485,73501,73518,73535,73551,73568,73585,73601,73618,73635,73651,73668,73684,73701,73718,73735,73751,73768,73784,73801,73818,73835,73851,73868,73884,73901,73918,73934,73951,73968,73984,74001,74018,74034,74051,74068,74085,74101,74118,74135,74151,74168,74184,74201,74218,74235,74251,74268,74284,74301,74318,74334,74351,74368,74384,74401,74418,74435,74451,74468,74485,74501,74518,74535,74551,74568,74585,74601,74618,74635,74651,74668,74685,74701,74718,74735,74751,74768,74785,74801,74818,74835,74851,74868,74884,74901,74918,74935,74951,74968,74985,75001,75018,75035,75051,75068,75085,75101,75118,75135,75152,75168,75185,75202,75218,75235,75251,75268,75284,75301,75318,75335,75352,75368,75384,75401,75418,75434,75451,75468,75484,75501,75518,75535,75551,75568,75585,75601,75618,75635,75651,75668,75684,75701,75718,75735,75751,75768,75785,75801,75818,75834,75851,75868,75885,75901,75918,75934,75951,75968,75985,76001,76018,76034,76051,76068,76085,76101,76118,76134,76151,76168,76185,76201,76218,76234,76251,76268,76285,76301,76318,76334,76351,76368,76385,76401,76418,76435,76451,76468,76485,76501,76518,76535,76551,76568,76585,76601,76618,76635,76651,76668,76685,76701,76719,76735,76751,76768,76784,76801,76818,76835,76851,76868,76885,76901,76918,76935,76951,76968,76985,77001,77018,77035,77051,77068,77085,77101,77118,77135,77151,77168,77185,77201,77218,77235,77251,77268,77285,77301,77318,77335,77351,77368,77385,77401,77418,77435,77451,77468,77485,77501,77518,77535,77551,77568,77585,77601,77618,77635,77651,77668,77685,77701,77718,77735,77751,77768,77785,77801,77818,77835,77851,77868,77885,77901,77918,77935,77951,77968,77985,78001,78018,78035,78051,78068,78084,78101,78118,78135,78151,78168,78185,78201,78218,78234,78251,78268,78285,78301,78318,78335,78351,78368,78385,78401,78418,78435,78451,78468,78485,78501,78518,78534,78551,78568,78585,78601,78618,78634,78651,78668,78685,78701,78718,78735,78751,78768,78785,78801,78818,78835,78851,78868,78885,78901,78918,78934,78951,78968,78984,79001,79018,79034,79051,79068,79084,79101,79118,79135,79151,79168,79185,79201,79218,79234,79251,79268,79284,79301,79318,79335,79351,79368,79384,79401,79418,79435,79451,79468,79484,79501,79518,79534,79551,79568,79584,79601,79618,79635,79651,79668,79684,79701,79718,79735,79751,79768,79785,79801,79818,79835,79851,79868,79885,79901,79918,79935,79951,79968,79984,80001,80018,80034,80051,80068,80084,80101,80118,80135,80151,80168,80185,80201,80218,80235,80251,80268,80284,80301,80318,80335,80351,80368,80384,80401,80418,80434,80452,80468,80485,80501,80518,80535,80551,80568,80584,80601,80618,80634,80651,80668,80685,80701,80718,80735,80751,80768,80785,80801,80818,80835,80852,80868,80884,80901,80918,80935,80951,80968,80984,81001,81018,81034,81051,81068,81086,81101,81118,81135,81151,81168,81185,81201,81218,81235,81251,81268,81284,81301,81318,81335,81351,81368,81385,81401,81418,81434,81451,81468,81484,81501,81518,81535,81551,81568,81584,81602,81618,81634,81651,81668,81685,81701,81718,81735,81751,81768,81785,81801,81818,81835,81851,81868,81885,81901,81918,81935,81951,81968,81984,82001,82018,82034,82051,82068,82084,82101,82118,82134,82151,82168,82184,82201,82218,82235,82252,82268,82285,82301,82318,82334,82351,82368,82385,82401,82418,82435,82451,82468,82485,82501,82518,82534,82551,82568,82584,82601,82618,82634,82651,82668,82684,82701,82718,82735,82751,82768,82784,82801,82818,82834,82851,82868,82884,82901,82918,82935,82951,82968,82985,83001,83018,83034,83051,83068,83084,83101,83118,83134,83151,83168,83184,83201,83218,83234,83251,83268,83284,83301,83318,83335,83351,83368,83385,83401,83418,83434,83451,83468,83484,83501,83518,83535,83551,83568,83585,83601,83618,83634,83652,83668,83684,83701,83718,83734,83751,83768,83784,83801,83818,83834,83851,83868,83885,83901,83918,83935,83951,83968,83985,84001,84018,84035,84051,84068,84084,84101,84118,84134,84151,84168,84185,84201,84218,84234,84251,84268,84284,84301,84318,84335,84351,84368,84384,84401,84418,84434,84451,84468,84484,84501,84518,84534,84551,84568,84584,84601,84618,84635,84651,84668,84685,84702,84718,84734,84751,84768,84784,84801,84818,84835,84851,84868,84884,84901,84918,84934,84951,84968,84985,85001,85018,85035,85051,85068,85084,85101,85118,85134,85151,85168,85184,85201,85218,85235,85251,85268,85284,85301,85318,85335,85351,85368,85385,85401,85418,85434,85451,85468,85485,85502,85518,85535,85551,85568,85585,85601,85618,85635,85651,85668,85684,85701,85718,85734,85751,85768,85785,85801,85818,85834,85851,85868,85884,85901,85918,85935,85951,85968,85984,86001,86018,86034,86051,86068,86085,86101,86118,86134,86151,86168,86185,86201,86218,86235,86251,86268,86285,86301,86318,86334,86351,86368,86384,86401,86418,86435,86451,86468,86485,86501,86518,86534,86551,86568,86584,86601,86618,86634,86651,86668,86685,86701,86718,86734,86751,86768,86785,86801,86818,86835,86851,86868,86884,86901,86918,86934,86951,86968,86984,87001,87018,87034,87051,87068,87084,87101,87118,87134,87151,87168,87185,87201,87218,87234,87251,87268,87285,87301,87318,87334,87351,87368,87385,87401,87418,87434,87451,87468,87484,87501,87518,87535,87551,87568,87584,87601,87618,87634,87651,87668,87684,87701,87718,87735,87751,87768,87785,87801,87818,87835,87851,87868,87884,87901,87918,87934,87951,87968,87985,88001,88018,88034,88051,88068,88084,88101,88118,88134,88151,88168,88185,88201,88218,88235,88251,88268,88285,88301,88318,88335,88351,88368,88384,88401,88418,88434,88451,88468,88485,88501,88518,88534,88551,88568,88585,88601,88618,88634,88651,88668,88684,88701,88718,88735,88751,88768,88785,88801,88818,88835,88851,88868,88884,88901,88918,88934,88951,88968,88985,89001,89018,89035,89051,89068,89084,89101,89118,89135,89151,89168,89184,89201,89218,89235,89251,89268,89284,89301,89318,89335,89351,89368,89384,89401,89418,89435,89451,89468,89484,89501,89518,89534,89551,89568,89585,89601,89618,89635,89651,89668,89685,89701,89718,89734,89751,89768,89784,89801,89818,89835,89851,89868,89884,89901,89918,89934,89951,89968,89985,90001,90018,90034,90051,90068,90084,90101,90118,90135,90151,90168,90185,90201,90218,90234,90251,90268,90285,90301,90318,90335,90351,90368,90384,90401,90418,90435,90451,90468,90484,90501,90518,90535,90551,90568,90585,90601,90618,90635,90651,90668,90685,90701,90718,90735,90751,90768,90785,90801,90818,90834,90851,90868,90885,90901,90918,90935,90951,90968,90985,91001,91018,91035,91051,91068,91084,91101,91118,91135,91151,91168,91185,91201,91218,91234,91251,91268,91284,91301,91318,91335,91351,91368,91385,91401,91418,91435,91451,91468,91484,91501,91518,91534,91551,91568,91584,91601,91618,91634,91651,91668,91684,91701,91718,91735,91751,91768,91784,91801,91818,91835,91851,91868,91884,91902,91918,91935,91951,91968,91984,92001,92018,92034,92051,92068,92084,92101,92118,92135,92151,92168,92185,92201,92218,92235,92251,92268,92285,92301,92318,92335,92351,92368,92385,92401,92418,92434,92451,92468,92484,92501,92518,92535,92551,92568,92584,92601,92618,92635,92651,92668,92685,92701,92718,92735,92751,92768,92785,92801,92818,92835,92851,92868,92884,92901,92918,92935,92951,92968,92985,93001,93018,93035,93051,93068,93085,93103,93118,93135,93151,93168,93185,93201,93218,93235,93251,93268,93284,93301,93318,93334,93351,93368,93384,93401,93418,93435,93451,93468,93484,93501,93518,93534,93551,93568,93584,93601,93618,93634,93651,93668,93684,93701,93718,93735,93751,93768,93784,93801,93818,93834,93851,93868,93885,93901,93918,93935,93951,93968,93985,94001,94018,94035,94051,94068,94085,94101,94118,94135,94151,94168,94185,94201,94218,94235,94251,94268,94285,94301,94318,94335,94351,94368,94385,94401,94418,94435,94451,94468,94485,94501,94518,94535,94551,94568,94585,94601,94618,94635,94651,94668,94685,94701,94718,94735,94751,94768,94784,94801,94818,94834,94853,94868,94885,94901,94918,94935,94951,94968,94984,95001,95018,95035,95051,95068,95085,95101,95118,95135,95152,95168,95185,95201,95218,95235,95251,95268,95285,95301,95318,95335,95351,95368,95384,95401,95418,95435,95451,95468,95484,95501,95518,95535,95551,95568,95585,95601,95618,95634,95651,95668,95685,95702,95718,95735,95751,95768,95784,95801,95818,95835,95851,95868,95885,95901,95918,95935,95951,95968,95985,96001,96018,96035,96051,96068,96085,96101,96118,96135,96151,96168,96184,96202,96218,96235,96251,96268,96285,96301,96318,96335,96351,96368,96385,96401,96418,96435,96451,96468,96484,96501,96518,96535,96551,96568,96585,96601,96618,96635,96651,96668,96684,96701,96718,96735,96751,96768,96785,96801,96818,96835,96852],"hit":[null],"x":[-0.195578231292517,-0.195578231292517,-0.195578231292517,-0.195578231292517,-0.195578231292517,-0.195578231292517,-0.195578231292517,-0.195578231292517,-0.195578231292517,-0.195578231292517,-0.195578231292517,-0.195578231292517,-0.195578231292517,-0.195578231292517,-0.195578231292517,-0.195578231292517,-0.195578231292517,-0.195578231292517,-0.195578231292517,-0.195578231292517,-0.195578231292517,-0.195578231292517,-0.195578231292517,-0.195578231292517,-0.195578231292517,-0.195578231292517,-0.195578231292517,-0.195578231292517,-0.195578231292517,-0.195578231292517,-0.195578231292517,-0.195578231292517,-0.195578231292517,-0.195578231292517,-0.195578231292517,-0.195578231292517,-0.18877551020408162,-0.18877551020408162,-0.18537414965986396,-0.18197278911564627,-0.17517006802721088,-0.1683673469387755,-0.15816326530612246,-0.14795918367346939,-0.141156462585034,-0.13435374149659865,-0.13095238095238096,-0.12755102040816327,-0.12755102040816327,-0.12755102040816327,-0.12414965986394558,-0.12414965986394558,-0.12414965986394558,-0.12414965986394558,-0.12414965986394558,-0.12414965986394558,-0.12414965986394558,-0.12414965986394558,-0.12414965986394558,-0.12414965986394558,-0.12414965986394558,-0.12414965986394558,-0.12414965986394558,-0.12414965986394558,-0.12414965986394558,-0.12414965986394558,-0.12414965986394558,-0.12414965986394558,-0.12414965986394558,-0.12414965986394558,-0.12414965986394558,-0.12414965986394558,-0.12414965986394558,-0.12414965986394558,-0.12414965986394558,-0.12414965986394558,-0.12414965986394558,-0.12414965986394558,-0.12414965986394558,-0.12414965986394558,-0.12414965986394558,-0.12414965986394558,-0.12414965986394558,-0.12414965986394558,-0.12414965986394558,-0.12414965986394558,-0.12414965986394558,-0.12414965986394558,-0.12414965986394558,-0.12414965986394558,-0.12414965986394558,-0.12414965986394558,-0.12414965986394558,-0.12414965986394558,-0.12414965986394558,-0.12414965986394558,-0.12414965986394558,-0.12414965986394558,-0.12414965986394558,-0.12414965986394558,-0.12414965986394558,-0.12414965986394558,-0.12414965986394558,-0.12414965986394558,-0.12414965986394558,-0.12414965986394558,-0.12414965986394558,-0.12414965986394558,-0.12414965986394558,-0.12414965986394558,-0.12414965986394558,-0.12414965986394558,-0.12414965986394558,-0.12414965986394558,-0.12414965986394558,-0.12414965986394558,-0.12414965986394558,-0.12414965986394558,-0.12414965986394558,-0.12414965986394558,-0.12414965986394558,-0.12414965986394558,-0.12414965986394558,-0.12414965986394558,-0.12414965986394558,-0.12414965986394558,-0.12414965986394558,-0.12414965986394558,-0.12414965986394558,-0.12414965986394558,-0.12414965986394558,-0.12414965986394558,-0.12414965986394558,-0.12414965986394558,-0.12414965986394558,-0.12414965986394558,-0.12414965986394558,-0.12414965986394558,-0.12414965986394558,-0.12414965986394558,-0.12414965986394558,-0.12414965986394558,-0.12414965986394558,-0.12414965986394558,-0.12414965986394558,-0.12414965986394558,-0.12414965986394558,-0.12414965986394558,-0.12414965986394558,-0.12414965986394558,-0.12414965986394558,-0.12414965986394558,-0.12414965986394558,-0.12414965986394558,-0.12414965986394558,-0.12414965986394558,-0.12414965986394558,-0.12414965986394558,-0.12414965986394558,-0.12414965986394558,-0.12414965986394558,-0.12414965986394558,-0.12414965986394558,-0.12414965986394558,-0.12414965986394558,-0.12414965986394558,-0.12414965986394558,-0.12414965986394558,-0.12414965986394558,-0.12414965986394558,-0.12414965986394558,-0.12414965986394558,-0.12414965986394558,-0.12414965986394558,-0.12414965986394558,-0.12414965986394558,-0.12414965986394558,-0.12414965986394558,-0.12414965986394558,-0.12414965986394558,-0.12414965986394558,-0.12414965986394558,-0.12414965986394558,-0.12414965986394558,-0.12414965986394558,-0.12414965986394558,-0.12414965986394558,-0.12414965986394558,-0.12414965986394558,-0.12414965986394558,-0.12414965986394558,-0.12414965986394558,-0.12414965986394558,-0.12414965986394558,-0.12414965986394558,-0.12414965986394558,-0.12414965986394558,-0.12414965986394558,-0.12414965986394558,-0.12414965986394558,-0.12414965986394558,-0.12414965986394558,-0.12414965986394558,-0.12414965986394558,-0.12414965986394558,-0.12414965986394558,-0.12414965986394558,-0.12414965986394558,-0.12414965986394558,-0.12414965986394558,-0.12414965986394558,-0.12414965986394558,-0.12414965986394558,-0.12414965986394558,-0.12414965986394558,-0.12414965986394558,-0.12414965986394558,-0.12414965986394558,-0.12414965986394558,-0.12414965986394558,-0.12414965986394558,-0.12414965986394558,-0.12414965986394558,-0.12414965986394558,-0.12414965986394558,-0.12414965986394558,-0.12414965986394558,-0.12414965986394558,-0.12414965986394558,-0.12414965986394558,-0.12414965986394558,-0.12414965986394558,-0.12414965986394558,-0.12414965986394558,-0.12414965986394558,-0.12414965986394558,-0.12414965986394558,-0.12414965986394558,-0.12414965986394558,-0.12414965986394558,-0.12414965986394558,-0.12414965986394558,-0.12414965986394558,-0.12414965986394558,-0.12414965986394558,-0.12414965986394558,-0.12414965986394558,-0.12414965986394558,-0.12414965986394558,-0.12414965986394558,-0.12414965986394558,-0.12414965986394558,-0.12414965986394558,-0.12414965986394558,-0.12414965986394558,-0.12414965986394558,-0.12414965986394558,-0.12414965986394558,-0.12414965986394558,-0.12414965986394558,-0.12414965986394558,-0.12414965986394558,-0.12414965986394558,-0.12414965986394558,-0.12414965986394558,-0.12414965986394558,-0.12414965986394558,-0.12414965986394558,-0.12414965986394558,-0.12414965986394558,-0.12414965986394558,-0.12414965986394558,-0.12414965986394558,-0.12414965986394558,-0.12414965986394558,-0.12414965986394558,-0.12414965986394558,-0.12414965986394558,-0.12414965986394558,-0.12414965986394558,-0.12414965986394558,-0.12414965986394558,-0.12414965986394558,-0.12414965986394558,-0.12414965986394558,-0.12414965986394558,-0.12414965986394558,-0.12414965986394558,-0.12414965986394558,-0.12414965986394558,-0.12414965986394558,-0.12414965986394558,-0.12414965986394558,-0.12414965986394558,-0.12414965986394558,-0.12414965986394558,-0.12414965986394558,-0.12414965986394558,-0.12414965986394558,-0.12414965986394558,-0.12414965986394558,-0.12414965986394558,-0.12414965986394558,-0.12414965986394558,-0.12414965986394558,-0.12414965986394558,-0.12414965986394558,-0.12414965986394558,-0.12414965986394558,-0.12414965986394558,-0.12414965986394558,-0.12414965986394558,-0.12414965986394558,-0.12414965986394558,-0.12414965986394558,-0.12414965986394558,-0.12414965986394558,-0.12414965986394558,-0.12414965986394558,-0.12414965986394558,-0.12414965986394558,-0.12414965986394558,-0.12414965986394558,-0.12414965986394558,-0.12414965986394558,-0.12414965986394558,-0.12414965986394558,-0.12414965986394558,-0.12414965986394558,-0.12414965986394558,-0.12414965986394558,-0.12414965986394558,-0.12414965986394558,-0.12414965986394558,-0.12414965986394558,-0.12414965986394558,-0.12414965986394558,-0.12414965986394558,-0.12414965986394558,-0.12414965986394558,-0.12414965986394558,-0.12414965986394558,-0.12414965986394558,-0.12414965986394558,-0.12414965986394558,-0.12414965986394558,-0.12414965986394558,-0.12414965986394558,-0.12414965986394558,-0.12414965986394558,-0.12414965986394558,-0.12414965986394558,-0.12414965986394558,-0.12414965986394558,-0.12414965986394558,-0.12414965986394558,-0.12414965986394558,-0.12414965986394558,-0.12414965986394558,-0.12414965986394558,-0.12414965986394558,-0.12414965986394558,-0.12414965986394558,-0.12414965986394558,-0.12414965986394558,-0.12414965986394558,-0.12414965986394558,-0.12414965986394558,-0.12414965986394558,-0.12414965986394558,-0.12414965986394558,-0.12414965986394558,-0.12414965986394558,-0.12414965986394558,-0.12414965986394558,-0.12414965986394558,-0.12414965986394558,-0.12414965986394558,-0.12414965986394558,-0.12414965986394558,-0.12414965986394558,-0.12414965986394558,-0.12414965986394558,-0.12414965986394558,-0.12414965986394558,-0.12414965986394558,-0.12414965986394558,-0.12414965986394558,-0.12414965986394558,-0.12414965986394558,-0.12414965986394558,-0.12414965986394558,-0.12414965986394558,-0.12414965986394558,-0.12414965986394558,-0.12074829931972789,-0.07653061224489796,0.01870748299319728,0.11734693877551021,0.18197278911564627,0.20918367346938777,0.21258503401360543,0.22959183673469388,0.2534013605442177,0.26700680272108845,0.27721088435374147,0.27721088435374147,0.27721088435374147,0.27721088435374147,0.27040816326530615,0.27040816326530615,0.27040816326530615,0.27040816326530615,0.27721088435374147,0.2942176870748299,0.2942176870748299,0.2942176870748299,0.2942176870748299,0.2976190476190476,0.304421768707483,0.304421768707483,0.304421768707483,0.304421768707483,0.304421768707483,0.304421768707483,0.304421768707483,0.304421768707483,0.304421768707483,0.304421768707483,0.304421768707483,0.304421768707483,0.304421768707483,0.304421768707483,0.304421768707483,0.304421768707483,0.304421768707483,0.304421768707483,0.304421768707483,0.304421768707483,0.304421768707483,0.304421768707483,0.304421768707483,0.304421768707483,0.304421768707483,0.304421768707483,0.304421768707483,0.3078231292517007,0.3112244897959184,0.31802721088435376,0.3282312925170068,0.34183673469387754,0.3520408163265306,0.3656462585034014,0.37244897959183676,0.3792517006802721,0.3792517006802721,0.3792517006802721,0.3792517006802721,0.3792517006802721,0.3792517006802721,0.3792517006802721,0.3792517006802721,0.3792517006802721,0.3792517006802721,0.3792517006802721,0.3792517006802721,0.3792517006802721,0.3792517006802721,0.3792517006802721,0.3792517006802721,0.3792517006802721,0.3758503401360544,0.3758503401360544,0.3758503401360544,0.37244897959183676,0.37244897959183676,0.37244897959183676,0.37244897959183676,0.37244897959183676,0.37244897959183676,0.37244897959183676,0.37244897959183676,0.37244897959183676,0.37244897959183676,0.37244897959183676,0.37244897959183676,0.37244897959183676,0.37244897959183676,0.37244897959183676,0.37244897959183676,0.37244897959183676,0.37244897959183676,0.37244897959183676,0.37244897959183676,0.3758503401360544,0.3826530612244898,0.39285714285714285,0.39965986394557823,0.39965986394557823,0.39965986394557823,0.4030612244897959,0.4030612244897959,0.4030612244897959,0.4030612244897959,0.4030612244897959,0.4030612244897959,0.4030612244897959,0.4030612244897959,0.4030612244897959,0.4030612244897959,0.4030612244897959,0.4030612244897959,0.4030612244897959,0.4030612244897959,0.4030612244897959,0.4030612244897959,0.4030612244897959,0.4030612244897959,0.4030612244897959,0.4030612244897959,0.4030612244897959,0.4030612244897959,0.4030612244897959,0.39965986394557823,0.39285714285714285,0.38605442176870747,0.3758503401360544,0.3622448979591837,0.3520408163265306,0.34183673469387754,0.33163265306122447,0.32482993197278914,0.31802721088435376,0.3112244897959184,0.3078231292517007,0.3078231292517007,0.3078231292517007,0.3078231292517007,0.3078231292517007,0.3078231292517007,0.3112244897959184,0.32482993197278914,0.34523809523809523,0.3656462585034014,0.3792517006802721,0.39285714285714285,0.4030612244897959,0.4166666666666667,0.42346938775510207,0.4268707482993197,0.4268707482993197,0.4302721088435374,0.4302721088435374,0.4302721088435374,0.4302721088435374,0.4302721088435374,0.4302721088435374,0.4302721088435374,0.4302721088435374,0.4302721088435374,0.4302721088435374,0.4302721088435374,0.4302721088435374,0.4302721088435374,0.4302721088435374,0.4302721088435374,0.4302721088435374,0.4302721088435374,0.4302721088435374,0.4302721088435374,0.4302721088435374,0.4302721088435374,0.4302721088435374,0.4302721088435374,0.4302721088435374,0.4302721088435374,0.4302721088435374,0.4302721088435374,0.4370748299319728,0.45408163265306123,0.4608843537414966,0.4744897959183674,0.4914965986394558,0.5153061224489796,0.5357142857142857,0.5493197278911565,0.5629251700680272,0.576530612244898,0.5799319727891157,0.5799319727891157,0.5799319727891157,0.5799319727891157,0.5799319727891157,0.5799319727891157,0.5799319727891157,0.576530612244898,0.5697278911564626,0.5629251700680272,0.5561224489795918,0.5527210884353742,0.5527210884353742,0.5459183673469388,0.5425170068027211,0.5357142857142857,0.5289115646258503,0.5289115646258503,0.5289115646258503,0.5289115646258503,0.5289115646258503,0.5289115646258503,0.5289115646258503,0.5289115646258503,0.5289115646258503,0.5289115646258503,0.5289115646258503,0.5289115646258503,0.5289115646258503,0.5289115646258503,0.5289115646258503,0.5289115646258503,0.5289115646258503,0.5289115646258503,0.5289115646258503,0.5289115646258503,0.5289115646258503,0.5289115646258503,0.5289115646258503,0.5289115646258503,0.5289115646258503,0.5289115646258503,0.5289115646258503,0.5289115646258503,0.5289115646258503,0.5289115646258503,0.5289115646258503,0.5289115646258503,0.5289115646258503,0.5289115646258503,0.5289115646258503,0.5289115646258503,0.5289115646258503,0.5289115646258503,0.5289115646258503,0.5391156462585034,0.5629251700680272,0.5833333333333334,0.6071428571428571,0.6343537414965986,0.6683673469387755,0.7091836734693877,0.7465986394557823,0.7772108843537415,0.8078231292517006,0.8350340136054422,0.8622448979591837,0.8894557823129252,0.9064625850340136,0.9132653061224489,0.9166666666666666,0.9166666666666666,0.9166666666666666,0.9166666666666666,0.9166666666666666,0.9166666666666666,0.9166666666666666,0.9166666666666666,0.9166666666666666,0.9166666666666666,0.9166666666666666,0.9166666666666666,0.9166666666666666,0.9166666666666666,0.9166666666666666,0.9268707482993197,0.9302721088435374,0.9302721088435374,0.9302721088435374,0.9268707482993197,0.923469387755102,0.923469387755102,0.923469387755102,0.923469387755102,0.923469387755102,0.923469387755102,0.923469387755102,0.923469387755102,0.923469387755102,0.923469387755102,0.923469387755102,0.923469387755102,0.923469387755102,0.923469387755102,0.923469387755102,0.923469387755102,0.923469387755102,0.923469387755102,0.923469387755102,0.923469387755102,0.923469387755102,0.923469387755102,0.923469387755102,0.923469387755102,0.923469387755102,0.923469387755102,0.923469387755102,0.923469387755102,0.923469387755102,0.923469387755102,0.923469387755102,0.923469387755102,0.923469387755102,0.923469387755102,0.923469387755102,0.923469387755102,0.923469387755102,0.923469387755102,0.923469387755102,0.923469387755102,0.923469387755102,0.923469387755102,0.923469387755102,0.923469387755102,0.923469387755102,0.923469387755102,0.923469387755102,0.923469387755102,0.923469387755102,0.923469387755102,0.923469387755102,0.923469387755102,0.9064625850340136,0.8282312925170068,0.6989795918367347,0.5017006802721088,0.26700680272108845,0.0663265306122449,-0.08673469387755102,-0.18197278911564627,-0.22959183673469388,-0.24319727891156462,-0.24319727891156462,-0.24319727891156462,-0.22959183673469388,-0.20918367346938777,-0.18197278911564627,-0.1377551020408163,-0.07312925170068027,0.01870748299319728,0.11394557823129252,0.20918367346938777,0.27721088435374147,0.3112244897959184,0.31802721088435376,0.31802721088435376,0.31802721088435376,0.31802721088435376,0.31462585034013607,0.31462585034013607,0.3112244897959184,0.3078231292517007,0.304421768707483,0.3010204081632653,0.2942176870748299,0.29081632653061223,0.28741496598639454,0.28741496598639454,0.28401360544217685,0.28401360544217685,0.28061224489795916,0.27721088435374147,0.27721088435374147,0.27380952380952384,0.27380952380952384,0.27040816326530615,0.26700680272108845,0.26360544217687076,0.26360544217687076,0.26360544217687076,0.26360544217687076,0.26360544217687076,0.26360544217687076,0.26360544217687076,0.26360544217687076,0.26360544217687076,0.26360544217687076,0.26360544217687076,0.26360544217687076,0.26360544217687076,0.26360544217687076,0.26360544217687076,0.26360544217687076,0.26360544217687076,0.26360544217687076,0.26360544217687076,0.26360544217687076,0.26360544217687076,0.26360544217687076,0.26360544217687076,0.26360544217687076,0.26360544217687076,0.26360544217687076,0.26360544217687076,0.26360544217687076,0.26360544217687076,0.26360544217687076,0.26360544217687076,0.26360544217687076,0.26360544217687076,0.26360544217687076,0.26360544217687076,0.26360544217687076,0.26360544217687076,0.26360544217687076,0.26360544217687076,0.26360544217687076,0.26360544217687076,0.26360544217687076,0.26360544217687076,0.26360544217687076,0.26360544217687076,0.26360544217687076,0.26360544217687076,0.26360544217687076,0.26360544217687076,0.26360544217687076,0.26360544217687076,0.26360544217687076,0.26360544217687076,0.26360544217687076,0.26360544217687076,0.26360544217687076,0.26360544217687076,0.26360544217687076,0.26360544217687076,0.26360544217687076,0.26360544217687076,0.26360544217687076,0.26360544217687076,0.26360544217687076,0.26360544217687076,0.26360544217687076,0.26360544217687076,0.26360544217687076,0.26360544217687076,0.26360544217687076,0.26360544217687076,0.26360544217687076,0.26360544217687076,0.26360544217687076,0.26360544217687076,0.26360544217687076,0.26360544217687076,0.26360544217687076,0.26360544217687076,0.26360544217687076,0.26360544217687076,0.26360544217687076,0.26360544217687076,0.26360544217687076,0.26360544217687076,0.26360544217687076,0.26360544217687076,0.26360544217687076,0.26360544217687076,0.26360544217687076,0.26360544217687076,0.26360544217687076,0.26360544217687076,0.26360544217687076,0.26360544217687076,0.26360544217687076,0.26360544217687076,0.26360544217687076,0.26360544217687076,0.26360544217687076,0.26360544217687076,0.26360544217687076,0.26360544217687076,0.26360544217687076,0.26360544217687076,0.26360544217687076,0.26360544217687076,0.26360544217687076,0.26360544217687076,0.26360544217687076,0.26360544217687076,0.26360544217687076,0.26360544217687076,0.26360544217687076,0.26360544217687076,0.26360544217687076,0.26360544217687076,0.26360544217687076,0.26360544217687076,0.26360544217687076,0.26360544217687076,0.26360544217687076,0.26360544217687076,0.26360544217687076,0.26360544217687076,0.26360544217687076,0.26360544217687076,0.26360544217687076,0.26360544217687076,0.26360544217687076,0.26360544217687076,0.26360544217687076,0.26360544217687076,0.26360544217687076,0.26360544217687076,0.26360544217687076,0.26360544217687076,0.26360544217687076,0.26360544217687076,0.26360544217687076,0.26360544217687076,0.26360544217687076,0.26360544217687076,0.26360544217687076,0.26360544217687076,0.26360544217687076,0.26360544217687076,0.26360544217687076,0.26360544217687076,0.26360544217687076,0.26360544217687076,0.26360544217687076,0.26360544217687076,0.26360544217687076,0.26360544217687076,0.26360544217687076,0.26360544217687076,0.26360544217687076,0.26360544217687076,0.26360544217687076,0.26360544217687076,0.26360544217687076,0.26360544217687076,0.26360544217687076,0.26360544217687076,0.26360544217687076,0.26360544217687076,0.26360544217687076,0.26360544217687076,0.26360544217687076,0.26360544217687076,0.26360544217687076,0.26360544217687076,0.26360544217687076,0.26360544217687076,0.26360544217687076,0.26360544217687076,0.26360544217687076,0.26360544217687076,0.26360544217687076,0.26360544217687076,0.26360544217687076,0.26360544217687076,0.26360544217687076,0.26360544217687076,0.26360544217687076,0.26360544217687076,0.26360544217687076,0.26360544217687076,0.26360544217687076,0.26360544217687076,0.26360544217687076,0.26360544217687076,0.26360544217687076,0.26360544217687076,0.26360544217687076,0.26360544217687076,0.26360544217687076,0.26360544217687076,0.26360544217687076,0.26360544217687076,0.26360544217687076,0.26360544217687076,0.26360544217687076,0.26360544217687076,0.26360544217687076,0.26360544217687076,0.26360544217687076,0.26360544217687076,0.26360544217687076,0.26360544217687076,0.26360544217687076,0.26360544217687076,0.26360544217687076,0.26360544217687076,0.26360544217687076,0.26360544217687076,0.26360544217687076,0.26360544217687076,0.26360544217687076,0.26360544217687076,0.26360544217687076,0.26360544217687076,0.26360544217687076,0.26360544217687076,0.26360544217687076,0.26360544217687076,0.26360544217687076,0.26360544217687076,0.26360544217687076,0.26360544217687076,0.26360544217687076,0.26360544217687076,0.26360544217687076,0.26360544217687076,0.26360544217687076,0.26360544217687076,0.26360544217687076,0.26360544217687076,0.26360544217687076,0.26360544217687076,0.26360544217687076,0.26360544217687076,0.26360544217687076,0.26360544217687076,0.26360544217687076,0.26360544217687076,0.26360544217687076,0.26360544217687076,0.26360544217687076,0.26360544217687076,0.26360544217687076,0.26360544217687076,0.26360544217687076,0.26360544217687076,0.26360544217687076,0.26360544217687076,0.26360544217687076,0.26360544217687076,0.26360544217687076,0.26360544217687076,0.26360544217687076,0.26360544217687076,0.26360544217687076,0.26360544217687076,0.26360544217687076,0.26360544217687076,0.26360544217687076,0.26360544217687076,0.26360544217687076,0.26360544217687076,0.26360544217687076,0.26360544217687076,0.26360544217687076,0.26360544217687076,0.26360544217687076,0.26360544217687076,0.26360544217687076,0.26360544217687076,0.26360544217687076,0.26360544217687076,0.26360544217687076,0.26360544217687076,0.26360544217687076,0.26360544217687076,0.26360544217687076,0.26360544217687076,0.26360544217687076,0.26360544217687076,0.26360544217687076,0.26360544217687076,0.26360544217687076,0.26360544217687076,0.26360544217687076,0.26360544217687076,0.26360544217687076,0.26360544217687076,0.26360544217687076,0.26360544217687076,0.26360544217687076,0.26360544217687076,0.26360544217687076,0.26360544217687076,0.26360544217687076,0.26360544217687076,0.26360544217687076,0.26360544217687076,0.26360544217687076,0.26360544217687076,0.26360544217687076,0.26360544217687076,0.26360544217687076,0.26360544217687076,0.26360544217687076,0.26360544217687076,0.26360544217687076,0.26360544217687076,0.26360544217687076,0.26360544217687076,0.26360544217687076,0.26360544217687076,0.26360544217687076,0.26360544217687076,0.26360544217687076,0.26360544217687076,0.26360544217687076,0.26360544217687076,0.26360544217687076,0.26360544217687076,0.26360544217687076,0.26360544217687076,0.26360544217687076,0.26360544217687076,0.26360544217687076,0.26360544217687076,0.26360544217687076,0.26360544217687076,0.26360544217687076,0.26360544217687076,0.26360544217687076,0.26360544217687076,0.26360544217687076,0.26360544217687076,0.26360544217687076,0.26360544217687076,0.26360544217687076,0.26360544217687076,0.26360544217687076,0.26360544217687076,0.26360544217687076,0.26360544217687076,0.26360544217687076,0.26360544217687076,0.26360544217687076,0.26360544217687076,0.26360544217687076,0.26360544217687076,0.26360544217687076,0.26360544217687076,0.26360544217687076,0.26360544217687076,0.26360544217687076,0.26360544217687076,0.26360544217687076,0.26360544217687076,0.26360544217687076,0.26360544217687076,0.26360544217687076,0.26360544217687076,0.26360544217687076,0.26360544217687076,0.26360544217687076,0.26360544217687076,0.26360544217687076,0.26360544217687076,0.26360544217687076,0.26360544217687076,0.26360544217687076,0.26360544217687076,0.26360544217687076,0.26360544217687076,0.26360544217687076,0.26360544217687076,0.26360544217687076,0.26360544217687076,0.26360544217687076,0.26360544217687076,0.26360544217687076,0.26360544217687076,0.26360544217687076,0.26360544217687076,0.26360544217687076,0.26360544217687076,0.26360544217687076,0.26360544217687076,0.26360544217687076,0.26360544217687076,0.26360544217687076,0.26360544217687076,0.26360544217687076,0.26360544217687076,0.26360544217687076,0.26360544217687076,0.26360544217687076,0.26360544217687076,0.26360544217687076,0.26360544217687076,0.26360544217687076,0.26360544217687076,0.26360544217687076,0.26360544217687076,0.26360544217687076,0.26360544217687076,0.26360544217687076,0.26360544217687076,0.26360544217687076,0.26360544217687076,0.26360544217687076,0.26360544217687076,0.26360544217687076,0.26360544217687076,0.26360544217687076,0.26360544217687076,0.26360544217687076,0.26360544217687076,0.26360544217687076,0.26360544217687076,0.26360544217687076,0.26360544217687076,0.26360544217687076,0.26360544217687076,0.26360544217687076,0.26360544217687076,0.26360544217687076,0.26360544217687076,0.26360544217687076,0.26360544217687076,0.26360544217687076,0.26360544217687076,0.26360544217687076,0.26360544217687076,0.26360544217687076,0.26360544217687076,0.26360544217687076,0.26360544217687076,0.26360544217687076,0.26360544217687076,0.26360544217687076,0.26360544217687076,0.26360544217687076,0.26360544217687076,0.26360544217687076,0.26360544217687076,0.26360544217687076,0.26360544217687076,0.26360544217687076,0.26360544217687076,0.26360544217687076,0.26360544217687076,0.26360544217687076,0.26360544217687076,0.26360544217687076,0.26360544217687076,0.26360544217687076,0.26360544217687076,0.26360544217687076,0.26360544217687076,0.26360544217687076,0.26360544217687076,0.26360544217687076,0.26360544217687076,0.26360544217687076,0.26360544217687076,0.26360544217687076,0.26360544217687076,0.26360544217687076,0.26360544217687076,0.26360544217687076,0.26360544217687076,0.26360544217687076,0.26360544217687076,0.26360544217687076,0.26360544217687076,0.26360544217687076,0.26360544217687076,0.26360544217687076,0.26360544217687076,0.26360544217687076,0.26360544217687076,0.26360544217687076,0.26360544217687076,0.26360544217687076,0.26360544217687076,0.26360544217687076,0.26360544217687076,0.26360544217687076,0.26360544217687076,0.26360544217687076,0.26360544217687076,0.26360544217687076,0.26360544217687076,0.26360544217687076,0.26360544217687076,0.26360544217687076,0.26360544217687076,0.26360544217687076,0.26360544217687076,0.26360544217687076,0.26360544217687076,0.26360544217687076,0.26360544217687076,0.26360544217687076,0.26360544217687076,0.26360544217687076,0.26360544217687076,0.26360544217687076,0.26360544217687076,0.26360544217687076,0.26360544217687076,0.26360544217687076,0.26360544217687076,0.26360544217687076,0.26360544217687076,0.26360544217687076,0.26360544217687076,0.26360544217687076,0.26360544217687076,0.26360544217687076,0.26360544217687076,0.26360544217687076,0.26360544217687076,0.26360544217687076,0.26360544217687076,0.26360544217687076,0.26360544217687076,0.26360544217687076,0.26360544217687076,0.26360544217687076,0.26360544217687076,0.26360544217687076,0.26360544217687076,0.26360544217687076,0.26360544217687076,0.26360544217687076,0.26360544217687076,0.26360544217687076,0.26360544217687076,0.26360544217687076,0.26360544217687076,0.26360544217687076,0.26360544217687076,0.26360544217687076,0.26360544217687076,0.26360544217687076,0.26360544217687076,0.26360544217687076,0.26360544217687076,0.26360544217687076,0.26360544217687076,0.26360544217687076,0.26360544217687076,0.26360544217687076,0.26360544217687076,0.26360544217687076,0.26360544217687076,0.26360544217687076,0.26360544217687076,0.26360544217687076,0.26360544217687076,0.26360544217687076,0.26360544217687076,0.26360544217687076,0.26360544217687076,0.26360544217687076,0.26360544217687076,0.26360544217687076,0.26360544217687076,0.26360544217687076,0.26360544217687076,0.26360544217687076,0.26360544217687076,0.26360544217687076,0.26360544217687076,0.26360544217687076,0.26360544217687076,0.26360544217687076,0.26360544217687076,0.26360544217687076,0.26360544217687076,0.26360544217687076,0.26360544217687076,0.26360544217687076,0.26360544217687076,0.26360544217687076,0.26360544217687076,0.26360544217687076,0.26360544217687076,0.26360544217687076,0.26360544217687076,0.26360544217687076,0.26360544217687076,0.26360544217687076,0.26360544217687076,0.26360544217687076,0.26360544217687076,0.26360544217687076,0.26360544217687076,0.26360544217687076,0.26360544217687076,0.26360544217687076,0.26360544217687076,0.26360544217687076,0.26360544217687076,0.26360544217687076,0.26360544217687076,0.26360544217687076,0.26360544217687076,0.26360544217687076,0.26360544217687076,0.26360544217687076,0.26360544217687076,0.26360544217687076,0.26360544217687076,0.26360544217687076,0.26360544217687076,0.26360544217687076,0.26360544217687076,0.26360544217687076,0.26360544217687076,0.26360544217687076,0.26360544217687076,0.26360544217687076,0.26360544217687076,0.26360544217687076,0.26360544217687076,0.26360544217687076,0.26360544217687076,0.26360544217687076,0.26360544217687076,0.26360544217687076,0.26360544217687076,0.26360544217687076,0.26360544217687076,0.26360544217687076,0.26360544217687076,0.26360544217687076,0.26360544217687076,0.26360544217687076,0.26360544217687076,0.26360544217687076,0.26360544217687076,0.26360544217687076,0.26360544217687076,0.26360544217687076,0.26360544217687076,0.26360544217687076,0.26360544217687076,0.26360544217687076,0.26360544217687076,0.26360544217687076,0.26360544217687076,0.26360544217687076,0.26360544217687076,0.26360544217687076,0.26360544217687076,0.26360544217687076,0.26360544217687076,0.26360544217687076,0.26360544217687076,0.26360544217687076,0.26360544217687076,0.26360544217687076,0.26360544217687076,0.26360544217687076,0.26360544217687076,0.26360544217687076,0.26360544217687076,0.26360544217687076,0.26360544217687076,0.26360544217687076,0.26360544217687076,0.26360544217687076,0.26360544217687076,0.26360544217687076,0.26360544217687076,0.26360544217687076,0.26360544217687076,0.26360544217687076,0.26360544217687076,0.26360544217687076,0.26360544217687076,0.26360544217687076,0.26360544217687076,0.26360544217687076,0.26360544217687076,0.26360544217687076,0.26360544217687076,0.26360544217687076,0.26360544217687076,0.26360544217687076,0.26360544217687076,0.26360544217687076,0.26360544217687076,0.26360544217687076,0.26360544217687076,0.26360544217687076,0.26360544217687076,0.26360544217687076,0.26360544217687076,0.26360544217687076,0.26360544217687076,0.26360544217687076,0.26360544217687076,0.26360544217687076,0.26360544217687076,0.26360544217687076,0.26360544217687076,0.26360544217687076,0.26360544217687076,0.26360544217687076,0.26360544217687076,0.26360544217687076,0.26360544217687076,0.26360544217687076,0.26360544217687076,0.26360544217687076,0.26360544217687076,0.26360544217687076,0.26360544217687076,0.26360544217687076,0.26360544217687076,0.26360544217687076,0.26360544217687076,0.26360544217687076,0.26360544217687076,0.26360544217687076,0.26360544217687076,0.26360544217687076,0.26360544217687076,0.26360544217687076,0.26360544217687076,0.26360544217687076,0.26360544217687076,0.26360544217687076,0.26360544217687076,0.26360544217687076,0.26360544217687076,0.26360544217687076,0.26360544217687076,0.26360544217687076,0.26360544217687076,0.26360544217687076,0.26360544217687076,0.26360544217687076,0.26360544217687076,0.26360544217687076,0.26360544217687076,0.26360544217687076,0.26360544217687076,0.26360544217687076,0.26360544217687076,0.26360544217687076,0.26360544217687076,0.26360544217687076,0.26360544217687076,0.26360544217687076,0.26360544217687076,0.26360544217687076,0.26360544217687076,0.26360544217687076,0.26360544217687076,0.26360544217687076,0.26360544217687076,0.26360544217687076,0.26360544217687076,0.26360544217687076,0.26360544217687076,0.26360544217687076,0.26360544217687076,0.26360544217687076,0.26360544217687076,0.26360544217687076,0.26360544217687076,0.26360544217687076,0.26360544217687076,0.26360544217687076,0.26360544217687076,0.26360544217687076,0.26360544217687076,0.26360544217687076,0.26360544217687076,0.26360544217687076,0.26360544217687076,0.26360544217687076,0.26360544217687076,0.26360544217687076,0.26360544217687076,0.26360544217687076,0.26360544217687076,0.26360544217687076,0.26360544217687076,0.26360544217687076,0.26360544217687076,0.26360544217687076,0.26360544217687076,0.26360544217687076,0.26360544217687076,0.26360544217687076,0.26360544217687076,0.26360544217687076,0.26360544217687076,0.26360544217687076,0.26360544217687076,0.26360544217687076,0.26360544217687076,0.26360544217687076,0.26360544217687076,0.26360544217687076,0.26360544217687076,0.26360544217687076,0.26360544217687076,0.26360544217687076,0.26360544217687076,0.26360544217687076,0.26360544217687076,0.26360544217687076,0.26360544217687076,0.26360544217687076,0.26360544217687076,0.26360544217687076,0.26360544217687076,0.26360544217687076,0.26360544217687076,0.26360544217687076,0.26360544217687076,0.26360544217687076,0.26360544217687076,0.26360544217687076,0.26360544217687076,0.26360544217687076,0.26360544217687076,0.26360544217687076,0.26360544217687076,0.26360544217687076,0.26360544217687076,0.26360544217687076,0.26360544217687076,0.26360544217687076,0.26360544217687076,0.26360544217687076,0.26360544217687076,0.26360544217687076,0.26360544217687076,0.26360544217687076,0.26360544217687076,0.26360544217687076,0.26360544217687076,0.26360544217687076,0.26360544217687076,0.26360544217687076,0.26360544217687076,0.26360544217687076,0.26360544217687076,0.26360544217687076,0.26360544217687076,0.26360544217687076,0.26360544217687076,0.26360544217687076,0.26360544217687076,0.26360544217687076,0.25,0.18877551020408162,0.11054421768707483,0.03231292517006803,-0.05272108843537415,-0.13095238095238096,-0.17857142857142858,-0.20238095238095238,-0.20918367346938777,-0.21258503401360543,-0.20918367346938777,-0.18877551020408162,-0.1683673469387755,-0.15136054421768708,-0.12755102040816327,-0.09693877551020408,-0.04251700680272109,0.02891156462585034,0.11734693877551021,0.20578231292517007,0.26360544217687076,0.304421768707483,0.33843537414965985,0.36904761904761907,0.39625850340136054,0.4098639455782313,0.413265306122449,0.4200680272108844,0.42346938775510207,0.42346938775510207,0.42346938775510207,0.4268707482993197,0.44387755102040816,0.49489795918367346,0.5833333333333334,0.6649659863945578,0.7397959183673469,0.8044217687074829,0.8452380952380952,0.8758503401360545,0.8928571428571429,0.9098639455782312,0.9200680272108843,0.9336734693877551,0.9472789115646258,0.9574829931972789,0.967687074829932,0.9778911564625851,0.9880952380952381,0.9982993197278912,1.0051020408163265,1.0085034013605443,1.0119047619047619,1.0153061224489797,1.0255102040816326,1.0289115646258504,1.032312925170068,1.032312925170068,1.032312925170068,1.032312925170068,1.032312925170068,1.032312925170068,1.032312925170068,1.032312925170068,1.032312925170068,1.032312925170068,1.032312925170068,1.0357142857142858,1.0493197278911566,1.0629251700680271,1.0765306122448979,1.0833333333333333,1.086734693877551,1.086734693877551,1.086734693877551,1.086734693877551,1.086734693877551,1.086734693877551,1.0833333333333333,1.0697278911564625,1.0391156462585034,0.9982993197278912,0.9506802721088435,0.9098639455782312,0.8724489795918368,0.8486394557823129,0.8350340136054422,0.8350340136054422,0.8350340136054422,0.8350340136054422,0.8350340136054422,0.8350340136054422,0.8350340136054422,0.8350340136054422,0.8350340136054422,0.8350340136054422,0.8350340136054422,0.8350340136054422,0.8350340136054422,0.8350340136054422,0.8350340136054422,0.8350340136054422,0.8350340136054422,0.8350340136054422,0.8316326530612245,0.8248299319727891,0.814625850340136,0.7976190476190477,0.7806122448979592,0.7670068027210885,0.7568027210884354,0.75,0.7465986394557823,0.7397959183673469,0.7261904761904762,0.7159863945578231,0.7125850340136054,0.7125850340136054,0.7091836734693877,0.7091836734693877,0.7091836734693877,0.7091836734693877,0.7091836734693877,0.7091836734693877,0.7091836734693877,0.7091836734693877,0.7091836734693877,0.7091836734693877,0.7091836734693877,0.7091836734693877,0.7091836734693877,0.7091836734693877,0.7091836734693877,0.7091836734693877,0.7091836734693877,0.7091836734693877,0.7091836734693877,0.7091836734693877,0.7091836734693877,0.7159863945578231,0.7193877551020408,0.7193877551020408,0.7159863945578231,0.7091836734693877,0.6989795918367347,0.6887755102040817,0.6785714285714286,0.6717687074829932,0.6615646258503401,0.6581632653061225,0.6547619047619048,0.6513605442176871,0.6479591836734694,0.6479591836734694,0.6479591836734694,0.6479591836734694,0.6479591836734694,0.6479591836734694,0.6445578231292517,0.6445578231292517,0.6445578231292517,0.6445578231292517,0.6445578231292517,0.6445578231292517,0.6445578231292517,0.6445578231292517,0.641156462585034,0.6377551020408163,0.6343537414965986,0.6275510204081632,0.6241496598639455,0.6173469387755102,0.6071428571428571,0.5969387755102041,0.5867346938775511,0.5731292517006803,0.5595238095238095,0.5561224489795918,0.5561224489795918,0.5561224489795918,0.5561224489795918,0.5561224489795918,0.5561224489795918,0.5561224489795918,0.5493197278911565,0.5357142857142857,0.5255102040816326,0.5153061224489796,0.5119047619047619,0.5119047619047619,0.5085034013605442,0.5051020408163265,0.49829931972789115,0.4880952380952381,0.4812925170068027,0.477891156462585,0.4744897959183674,0.4744897959183674,0.4744897959183674,0.4642857142857143,0.45408163265306123,0.4370748299319728,0.413265306122449,0.39965986394557823,0.39965986394557823,0.39965986394557823,0.39965986394557823,0.4030612244897959,0.413265306122449,0.4166666666666667,0.4166666666666667,0.4166666666666667,0.4166666666666667,0.4166666666666667,0.4166666666666667,0.4166666666666667,0.4166666666666667,0.4166666666666667,0.4166666666666667,0.4166666666666667,0.4166666666666667,0.413265306122449,0.4064625850340136,0.4030612244897959,0.39965986394557823,0.39965986394557823,0.39965986394557823,0.39965986394557823,0.39965986394557823,0.39965986394557823,0.39965986394557823,0.39965986394557823,0.39625850340136054,0.38945578231292516,0.3792517006802721,0.37244897959183676,0.3622448979591837,0.3486394557823129,0.33843537414965985,0.3282312925170068,0.32142857142857145,0.31462585034013607,0.3078231292517007,0.3078231292517007,0.3078231292517007,0.3078231292517007,0.3078231292517007,0.3078231292517007,0.3078231292517007,0.3078231292517007,0.3078231292517007,0.3078231292517007,0.3078231292517007,0.3078231292517007,0.3078231292517007,0.3078231292517007,0.3078231292517007,0.3078231292517007,0.3078231292517007,0.3078231292517007,0.3078231292517007,0.3078231292517007,0.304421768707483,0.3010204081632653,0.29081632653061223,0.27721088435374147,0.26360544217687076,0.2534013605442177,0.25,0.25,0.25,0.25,0.25,0.25,0.25,0.25,0.25,0.25,0.25,0.25,0.25,0.25,0.25,0.25,0.25,0.25,0.25,0.25,0.25,0.25,0.25,0.25,0.25,0.25,0.25,0.25,0.25,0.25,0.25,0.25,0.25,0.25,0.25,0.25,0.25,0.25,0.25,0.25,0.25,0.25,0.25,0.25,0.25,0.25,0.25,0.25,0.25,0.25,0.25,0.25,0.25,0.25,0.25,0.2602040816326531,0.27721088435374147,0.29081632653061223,0.2976190476190476,0.304421768707483,0.3112244897959184,0.31462585034013607,0.31802721088435376,0.32142857142857145,0.32142857142857145,0.32482993197278914,0.32482993197278914,0.32482993197278914,0.32482993197278914,0.32482993197278914,0.32482993197278914,0.32482993197278914,0.32482993197278914,0.32482993197278914,0.3282312925170068,0.33163265306122447,0.33163265306122447,0.33163265306122447,0.33163265306122447,0.33163265306122447,0.33163265306122447,0.33163265306122447,0.33163265306122447,0.33163265306122447,0.33163265