[{"success":true,"trial_type":"fullscreen","trial_index":0,"time_elapsed":6831,"internal_node_id":"0.0-0.0","protocol_sum":"","subject_identifier":207,"subject_sum":[69,79,99,172,48,200,50,41,151,239,2,94,223,246,171,210,62,13,190,123,138,61,81,38,168,148,228,161,104,193,181,155],"subject_pair":103,"STUDY_ID":"669eec2e4270c76bc184a38e","PROLIFIC_PID":"664a4342cfb111168d73bdc6","SESSION_ID":"669f7ec531aa412547a16f44","practice_instructions":1,"leaderboard_instructions":0,"bonus":0,"reveal_word":true,"self_rating":"2","confidence":"74"},{"view_history":"[{\"page_index\":0,\"viewing_time\":15322}]","rt":15322.400000095367,"trial_type":"instructions","trial_index":1,"time_elapsed":22156,"internal_node_id":"0.0-1.0","protocol_sum":"","subject_identifier":207,"subject_sum":[69,79,99,172,48,200,50,41,151,239,2,94,223,246,171,210,62,13,190,123,138,61,81,38,168,148,228,161,104,193,181,155],"subject_pair":103,"STUDY_ID":"669eec2e4270c76bc184a38e","PROLIFIC_PID":"664a4342cfb111168d73bdc6","SESSION_ID":"669f7ec531aa412547a16f44","practice_instructions":1,"leaderboard_instructions":0,"bonus":0,"reveal_word":true,"self_rating":"2","confidence":"74"},{"view_history":"[{\"page_index\":0,\"viewing_time\":4367}]","rt":4367.199999809265,"trial_type":"instructions","trial_index":2,"time_elapsed":26524,"internal_node_id":"0.0-2.0-0.0","protocol_sum":"","subject_identifier":207,"subject_sum":[69,79,99,172,48,200,50,41,151,239,2,94,223,246,171,210,62,13,190,123,138,61,81,38,168,148,228,161,104,193,181,155],"subject_pair":103,"STUDY_ID":"669eec2e4270c76bc184a38e","PROLIFIC_PID":"664a4342cfb111168d73bdc6","SESSION_ID":"669f7ec531aa412547a16f44","practice_instructions":1,"leaderboard_instructions":0,"bonus":0,"reveal_word":true,"self_rating":"2","confidence":"74"},{"rt":5414.900000095367,"responses":"{\"Q0\":\"... reveal the word with as <b>few letter guesses</b> as possible\"}","question_order":"[0]","trial_type":"survey-multi-choice","trial_index":3,"time_elapsed":31940,"internal_node_id":"0.0-2.0-1.0","protocol_sum":"","subject_identifier":207,"subject_sum":[69,79,99,172,48,200,50,41,151,239,2,94,223,246,171,210,62,13,190,123,138,61,81,38,168,148,228,161,104,193,181,155],"subject_pair":103,"correct":true,"test_part":"multichoice_nonpretend","STUDY_ID":"669eec2e4270c76bc184a38e","PROLIFIC_PID":"664a4342cfb111168d73bdc6","SESSION_ID":"669f7ec531aa412547a16f44","practice_instructions":1,"leaderboard_instructions":0,"bonus":0,"reveal_word":true,"self_rating":"2","confidence":"74"},{"view_history":"[{\"page_index\":0,\"viewing_time\":1765.7999999523163}]","rt":1766,"trial_type":"instructions","trial_index":4,"time_elapsed":33708,"internal_node_id":"0.0-3.0","protocol_sum":"","subject_identifier":207,"subject_sum":[69,79,99,172,48,200,50,41,151,239,2,94,223,246,171,210,62,13,190,123,138,61,81,38,168,148,228,161,104,193,181,155],"subject_pair":103,"STUDY_ID":"669eec2e4270c76bc184a38e","PROLIFIC_PID":"664a4342cfb111168d73bdc6","SESSION_ID":"669f7ec531aa412547a16f44","practice_instructions":1,"leaderboard_instructions":0,"bonus":0,"reveal_word":true,"self_rating":"2","confidence":"74"},{"word":"ZEBRA","click_log":{"letter":["","Z","E","B","R","A"],"t":[0,100354.5,101576.59999990463,104336.5,107624.59999990463,109640.59999990463],"hit":[null,1,1,1,1,1],"asked":["","Z","ZE","ZEB","ZEBR","ZEBRA"],"word_state":["_____","Z____","ZE___","ZEB__","ZEBR_","ZEBRA"]},"hover_log":{"letter":["?","?","?","?","?","?","?","?","?","?","?","?","?","?","?","?","J","J","J","J","J","J","J","J","J","J","J","J","J","?","?","?","?","?","?","?","?","?","?","?","?","?","?","?","?","?","?","?","?","?","?","?","?","?","?","?","?","?","?","?","?","?","?","?","?","?","?","?","?","?","?","?","?","?","?","?","?","?","?","?","?","S","S","S","S","S","S","S","S","?","?","?","?","?","?","?","?","?","?","?","?","?","?","?","L","L","L","L","L","L","L","L","L","L","L","L","L","L","L","L","L","L","L","L","L","L","L","L","L","L","L","L","L","L","L","L","L","L","L","L","L","L","L","L","L","L","L","L","L","L","L","L","L","L","L","L","L","L","L","L","L","L","L","L","L","L","L","L","L","L","L","L","L","L","L","L","L","L","L","L","L","L","L","L","L","L","L","L","L","L","L","L","L","L","L","L","L","L","L","L","L","L","L","L","L","L","L","L","L","L","L","L","L","L","L","L","L","L","L","L","L","L","L","L","L","L","L","L","L","L","L","L","L","L","L","L","L","L","L","L","L","L","L","L","L","L","L","L","L","L","L","L","L","L","L","L","L","L","L","L","L","L","L","L","L","L","L","L","L","L","L","L","L","L","L","L","L","L","L","L","L","L","L","L","L","L","L","L","L","L","L","L","L","L","L","L","L","L","L","L","L","L","L","L","L","L","L","L","L","L","L","L","L","L","L","?","?","?","?","?","?","B","B","B","B","B","B","B","B","B","B","B","B","B","B","B","B","?","?","C","C","C","C","C","C","C","C","?","?","?","?","?","?","?","D","D","D","D","D","D","D","D","D","D","D","D","D","D","D","D","D","D","D","D","D","D","D","D","D","D","D","D","D","D","D","D","?","?","?","?","?","?","?","?","?","?","?","?","?","?","?","?","?","?","?","?","?","?","?","?","?","?","?","?","?","?","?","?","?","?","?","?","?","?","?","?","?","?","?","?","?","?","?","?","?","?","?","?","?","?","?","?","?","?","?","?","?","?","?","?","?","?","?","?","?","?","?","?","?","?","?","?","?","?","?","?","?","?","?","?","?","?","?","?","?","?","?","?","?","?","?","?","?","?","?","?","?","?","?","?","?","?","?","?","?","?","?","?","?","?","?","?","?","?","?","?","?","?","?","?","?","?","?","?","?","?","?","?","?","?","?","?","?","?","?","?","?","?","?","?","?","?","?","?","?","?","?","?","?","?","?","?","?","?","?","?","?","?","?","?","?","?","?","?","?","?","?","?","?","?","?","?","?","?","?","?","?","?","?","?","?","?","?","?","?","?","?","?","?","?","?","?","?","?","?","?","?","?","?","?","?","?","?","?","?","?","?","?","?","?","?","?","?","?","?","?","?","?","?","?","?","?","?","?","?","?","?","?","?","?","?","?","?","?","?","?","?","?","?","?","?","?","?","?","?","?","?","?","?","?","?","?","?","?","?","?","?","?","?","?","?","E","E","E","E","E","E","E","E","E","?","?","?","?","?","?","?","?","?","?","?","?","?","?","?","?","?","?","?","?","?","?","?","?","?","?","?","?","?","?","?","?","?","?","?","?","?","?","?","?","?","?","?","?","?","?","?","?","?","?","?","?","?","?","?","?","?","?","?","?","?","?","?","?","?","?","?","?","?","?","?","?","?","?","?","?","?","?","?","?","?","?","?","?","?","?","?","?","?","?","?","?","?","?","?","?","?","?","?","?","?","?","?","?","?","?","?","?","?","?","?","?","?","?","?","?","?","?","?","?","E","E","E","E","E","E","?","?","?","?","?","?","?","?","?","?","?","?","?","?","?","?","?","?","?","?","?","?","?","?","?","?","?","?","?","?","?","?","?","?","?","?","?","?","?","?","?","?","?","?","?","?","?","?","?","?","?","?","?","?","?","?","?","?","?","?","?","?","?","?","?","?","?","?","?","?","?","?","?","?","?","?","?","?","?","?","?","?","?","?","?","?","?","?","?","?","?","?","?","?","?","?","?","?","?","?","?","?","?","?","?","?","?","?","?","?","?","?","?","?","?","?","?","?","C","C","C","C","C","?","?","?","?","?","?","?","?","?","?","?","?","?","?","?","?","?","?","?","?","?","?","?","?","?","?","?","?","?","?","?","?","?","?","?","?","?","?","?","?","?","?","?","?","?","?","?","?","?","?","?","?","?","?","?","?","?","?","?","?","?","?","?","?","?","?","?","?","?","?","?","?","?","?","?","?","?","?","?","?","?","?","?","?","?","?","?","?","?","?","?","?","?","?","?","?","?","?","?","?","?","?","?","?","?","?","?","?","?","?","?","?","?","?","?","?","?","?","?","?","?","?","?","?","?","?","?","?","?","?","?","?","?","?","?","?","?","?","?","?","?","?","?","?","?","?","?","?","?","?","?","?","?","?","?","?","?","?","?","?","?","?","?","?","?","?","?","?","?","?","?","?","?","?","?","?","?","?","?","?","?","C","C","C","C","C","C","C","C","C","?","?","?","?","?","?","?","?","?","?","?","?","?","?","?","?","?","?","?","?","?","?","?","?","?","?","?","?","?","?","?","?","?","?","?","?","?","?","?","?","?","?","?","?","?","?","?","?","?","?","?","?","?","?","?","?","?","?","?","?","?","?","?","?","?","?","?","?","?","?","?","?","?","?","?","?","?","?","?","?","?","?","C","C","C","C","C","C","C","C","C","C","C","C","C","C","C","C","C","C","C","C","C","C","C","C","?","?","?","?","?","?","?","?","?","?","?","?","?","?","?","?","?","?","?","?","?","?","?","?","?","?","?","?","?","?","?","?","?","?","?","?","?","?","?","?","?","?","?","?","?","?","?","?","?","?","?","?","?","?","?","?","?","?","?","?","?","?","?","?","?","?","?","?","?","?","?","?","?","?","?","?","?","?","?","?","?","?","?","?","?","?","?","?","?","?","?","?","?","?","?","?","?","?","?","?","?","?","?","?","?","?","?","?","?","?","?","?","?","?","?","?","?","?","?","?","?","?","?","?","?","?","?","?","?","?","?","?","?","?","?","?","?","?","?","?","?","?","?","?","?","?","?","?","?","?","?","?","?","?","?","?","?","?","?","?","?","?","?","?","?","?","?","?","?","?","?","?","?","?","?","?","?","?","?","?","?","?","?","?","?","?","?","?","?","?","?","?","?","?","?","?","?","?","?","?","?","?","?","?","?","?","?","?","?","?","?","?","?","?","?","?","?","?","?","?","?","?","?","?","?","?","?","?","?","?","?","?","?","?","?","?","?","?","?","?","?","?","?","?","?","?","?","?","?","?","?","?","?","?","?","?","?","?","?","?","?","?","?","?","?","?","?","?","?","?","?","?","?","?","?","?","?","?","?","?","?","?","?","?","?","?","?","?","?","?","?","?","?","?","?","?","?","?","?","?","?","?","?","?","?","?","?","?","?","?","?","?","?","?","?","?","?","?","?","?","?","?","?","?","?","?","?","?","?","?","?","?","?","?","?","?","?","?","?","?","?","?","?","?","?","?","?","?","?","?","?","?","?","?","?","?","?","?","?","?","?","?","?","?","?","?","?","?","?","?","?","?","?","?","?","?","?","?","?","?","?","?","?","?","?","?","?","?","?","?","?","?","?","?","?","?","?","?","?","?","?","?","?","?","?","?","?","?","?","?","?","?","?","?","?","?","?","?","?","?","?","?","?","?","?","?","?","?","?","?","?","?","?","?","?","?","?","?","?","?","?","?","?","?","?","?","?","?","?","?","?","?","?","?","?","?","?","?","?","?","?","?","?","?","?","?","?","?","?","?","?","?","?","?","?","?","?","?","?","?","?","?","?","?","?","?","?","?","?","?","?","?","?","?","?","?","?","?","?","?","?","?","?","?","?","?","?","?","?","?","?","?","?","?","?","?","?","?","?","?","?","?","?","?","?","?","?","?","?","?","?","?","?","?","?","?","?","?","?","?","?","?","?","?","?","?","?","?","?","?","?","?","?","?","?","?","?","?","?","?","?","?","?","?","?","?","?","?","?","?","?","?","?","?","?","?","?","?","?","?","?","?","?","?","?","?","?","?","?","?","?","?","?","?","?","?","?","?","?","?","?","?","?","?","?","?","?","?","?","?","?","?","?","?","?","?","?","?","?","?","?","?","?","?","?","?","?","?","?","?","?","?","?","?","?","?","?","?","?","?","?","?","?","?","?","?","?","?","?","?","?","?","?","?","?","?","?","?","?","?","?","?","?","?","?","?","?","?","?","?","?","?","?","?","?","?","?","?","?","?","?","?","?","?","?","?","?","?","?","?","?","?","?","?","?","?","?","?","?","?","?","?","?","?","?","?","?","?","?","?","?","?","?","?","?","?","?","?","?","?","?","?","?","?","?","?","?","?","?","?","?","?","?","?","?","?","?","?","?","?","?","?","?","?","?","?","?","?","?","?","?","?","?","?","?","?","?","?","?","?","?","?","?","?","?","?","?","?","?","?","?","?","?","?","?","?","?","?","?","?","?","?","?","?","?","?","?","?","?","?","?","?","?","?","?","?","?","?","?","?","?","?","?","?","?","?","?","?","?","?","?","?","?","?","?","?","?","?","?","G","G","G","G","G","G","?","?","?","?","?","?","?","?","?","?","?","?","?","?","?","?","?","?","?","O","O","O","O","O","O","O","O","O","?","?","?","?","?","?","?","?","?","?","?","?","?","?","?","?","?","?","?","?","?","?","?","?","?","?","X","X","X","?","?","?","?","?","?","?","?","?","?","?","?","?","?","?","?","?","?","?","?","?","?","?","W","W","W","W","W","W","W","W","W","W","W","W","W","W","W","W","W","W","W","W","W","W","W","W","W","W","W","W","W","W","W","W","W","W","W","W","W","W","W","W","W","W","W","W","W","W","W","?","?","?","?","?","?","?","?","?","?","?","?","?","?","?","O","O","O","O","O","O","O","O","O","O","O","O","O","O","O","O","O","O","O","O","O","O","O","O","O","O","O","O","O","O","O","O","O","O","O","O","O","O","O","O","O","O","O","O","O","O","O","O","O","O","O","O","O","O","O","O","O","O","O","O","O","O","O","O","O","O","O","O","O","O","O","O","O","O","O","O","O","O","O","O","O","O","O","O","O","O","O","O","O","O","O","O","O","O","O","O","O","O","O","O","O","O","O","O","O","O","O","O","O","O","?","?","?","?","?","?","?","X","X","X","X","X","X","X","X","X","X","X","X","X","X","X","X","X","X","X","X","X","X","X","X","X","X","X","X","X","X","X","X","X","X","X","X","X","X","X","X","X","X","X","X","X","X","X","X","X","X","X","X","X","X","X","X","X","X","X","X","X","X","X","X","X","X","X","X","X","X","X","X","X","X","X","X","X","X","X","X","X","X","X","X","X","X","X","X","X","X","X","X","X","X","X","X","X","X","X","X","X","X","X","X","X","X","X","X","X","X","X","X","X","X","X","X","X","X","X","X","X","X","X","X","X","X","X","X","X","X","X","X","X","X","X","X","X","X","X","X","X","X","X","X","X","X","X","X","X","X","X","X","X","X","X","X","X","X","X","X","X","X","X","X","X","X","X","X","X","X","X","X","X","X","X","X","X","X","X","X","X","X","X","X","X","X","X","X","X","X","X","X","X","X","X","X","X","X","X","X","X","X","X","X","X","X","X","X","X","X","X","X","X","X","X","X","X","X","X","X","X","X","X","X","X","X","X","X","X","X","X","X","X","X","X","X","X","X","X","X","X","X","X","X","X","X","X","X","X","X","X","X","X","X","X","X","X","X","X","X","X","X","X","X","X","X","X","X","X","X","X","X","X","X","X","X","X","X","X","X","X","X","X","X","X","X","X","X","X","X","X","X","X","X","X","X","X","X","X","X","X","X","X","X","X","X","X","X","X","X","X","X","X","X","X","X","X","X","X","X","X","X","X","X","X","X","X","X","X","X","X","X","X","X","X","X","X","X","X","X","X","X","X","X","X","X","X","X","X","X","X","X","X","X","X","X","X","X","X","X","X","X","X","X","X","X","X","X","X","X","X","X","X","X","X","X","X","X","X","X","X","X","X","X","X","X","X","X","X","X","X","X","X","X","X","X","X","X","X","X","X","X","X","X","X","X","X","X","X","X","X","X","X","X","X","X","X","X","X","X","X","X","X","X","X","X","X","X","X","X","X","X","X","X","X","X","X","X","X","X","X","X","X","X","X","X","X","X","X","X","X","X","X","X","X","X","X","X","X","X","X","X","X","X","X","X","X","X","X","X","X","X","X","X","X","X","X","X","X","X","X","X","X","X","X","X","X","X","X","X","X","X","X","X","X","X","X","X","X","X","X","X","X","X","X","X","X","X","X","X","X","X","X","X","X","X","X","X","X","X","X","X","X","X","X","X","X","X","X","X","X","X","X","X","X","X","X","X","X","X","X","X","X","X","X","X","X","X","X","X","X","X","X","X","X","X","X","X","X","X","X","X","X","X","X","X","X","X","X","X","X","X","X","X","X","X","X","X","X","X","X","X","X","X","X","X","X","X","X","X","X","X","X","X","X","X","X","X","X","X","X","X","X","X","X","X","X","X","X","X","X","X","X","X","X","X","X","X","X","X","X","X","X","X","X","X","X","X","X","X","X","X","X","X","X","X","X","X","X","X","X","X","X","X","X","X","X","X","X","X","X","X","X","X","X","X","X","X","X","X","X","X","X","X","X","X","X","X","X","X","X","X","X","X","X","X","X","X","X","X","X","X","X","X","X","X","X","X","X","X","X","X","X","X","X","X","X","X","X","X","X","X","X","X","X","X","X","X","X","X","X","X","X","X","X","X","X","X","X","X","X","X","X","X","X","X","X","X","X","X","X","X","X","X","X","X","X","X","X","X","X","X","X","X","?","?","?","?","?","?","?","?","?","?","?","?","?","?","?","?","?","?","?","?","?","?","?","?","?","?","?","?","?","?","?","?","?","?","?","?","?","?","?","?","?","?","?","?","?","?","?","?","?","?","?","?","?","?","?","?","?","?","?","?","?","?","?","?","?","?","?","?","?","?","?","?","?","?","?","?","?","X","X","X","X","X","X","X","X","X","X","X","X","X","X","X","X","X","X","X","X","X","X","X","X","X","X","X","X","X","X","X","X","X","X","X","X","X","X","X","X","X","X","X","X","X","X","X","X","X","X","X","X","X","X","X","X","X","X","X","X","X","X","X","X","X","X","X","X","X","X","X","X","X","X","X","X","X","X","X","X","X","X","X","X","X","X","X","X","X","X","X","X","X","X","X","X","X","X","X","X","X","X","X","X","X","X","X","X","X","X","X","X","X","X","X","X","X","X","X","X","X","X","X","X","X","X","X","X","X","X","X","X","X","X","X","X","X","X","X","X","X","X","X","X","X","X","X","X","X","X","X","X","X","X","X","X","X","X","X","X","X","X","X","X","X","X","X","X","X","X","X","X","X","X","X","X","X","X","X","X","X","X","X","X","X","X","X","X","X","X","X","X","X","X","X","X","X","X","X","X","X","X","X","X","X","X","X","X","X","X","X","X","X","X","X","X","X","X","X","X","X","X","X","X","X","X","X","X","X","X","X","X","X","X","X","X","X","X","X","X","X","X","X","X","X","X","X","X","X","X","X","X","X","X","X","X","X","X","X","X","X","X","X","X","X","X","X","X","X","X","X","X","X","X","X","X","X","X","X","X","X","X","X","X","X","X","X","X","X","X","X","X","X","X","X","X","X","X","X","X","X","X","X","X","X","X","X","X","X","X","X","X","X","X","X","X","X","X","X","X","X","X","X","X","X","X","X","X","X","X","X","X","X","X","X","X","X","X","X","X","X","X","X","X","X","X","X","X","X","X","X","X","X","X","X","X","X","X","X","X","X","X","X","X","X","X","X","X","X","X","X","X","X","X","X","X","X","X","X","X","X","X","X","X","X","X","X","X","X","X","X","X","X","X","X","X","X","X","X","X","X","X","X","X","X","X","X","X","X","X","X","X","X","X","X","X","X","X","X","X","X","X","X","X","X","X","X","X","X","X","X","X","X","X","X","X","X","X","X","X","X","X","X","X","X","X","X","X","X","X","X","X","X","X","X","X","X","X","X","X","X","X","X","X","X","X","X","X","X","X","X","X","X","X","X","X","X","X","X","X","X","X","X","X","X","X","X","X","X","X","X","X","X","X","X","X","X","X","X","X","X","X","X","X","X","X","X","X","X","X","X","X","X","X","X","X","X","X","X","X","X","X","X","X","X","X","X","X","X","X","X","X","X","X","X","X","X","X","X","X","X","X","X","X","X","X","X","X","X","X","X","X","X","X","X","X","X","X","X","X","X","X","X","X","X","X","X","X","X","X","X","X","X","X","X","X","X","X","X","X","X","X","X","X","X","X","X","X","X","X","X","X","X","X","X","X","X","X","X","X","X","X","X","X","X","X","X","X","X","X","X","X","X","X","X","X","X","X","X","X","X","X","X","X","X","X","X","X","X","X","X","X","X","X","X","X","X","X","X","X","X","X","X","X","X","X","X","X","X","X","X","X","X","X","X","X","X","X","X","X","X","X","X","X","X","X","X","X","X","X","X","X","X","X","X","X","X","X","X","X","X","X","X","X","X","X","X","X","X","X","X","X","X","X","X","X","X","X","X","X","X","X","X","X","X","X","X","X","X","X","X","X","X","X","X","X","X","X","X","X","X","X","X","X","X","X","X","X","X","X","X","X","X","X","X","X","X","X","X","X","X","X","X","X","X","X","X","X","X","X","X","X","X","X","X","X","X","X","X","X","X","X","X","X","X","X","X","X","X","X","X","X","X","X","X","X","X","X","X","X","X","X","X","X","X","X","X","X","X","X","X","X","X","X","X","X","X","X","X","X","X","X","X","X","X","X","X","X","X","X","X","X","X","X","X","X","X","X","X","X","X","X","X","X","X","X","X","X","X","X","X","X","X","X","X","X","X","X","X","X","X","X","X","X","X","X","X","X","X","X","X","X","X","X","X","X","X","X","X","X","X","X","X","X","X","X","X","X","X","X","X","X","X","X","X","X","X","X","X","X","X","X","X","X","X","X","X","X","X","X","X","X","X","X","X","X","X","X","X","X","X","X","X","X","X","X","X","X","X","X","X","X","X","X","X","X","X","X","X","X","X","X","X","X","X","X","X","X","X","X","X","X","X","X","X","X","X","X","X","X","X","X","X","X","X","X","X","X","X","X","X","X","X","X","X","X","X","X","X","X","X","X","X","X","X","X","X","X","X","X","X","X","X","X","X","X","X","X","X","X","X","X","X","X","X","X","X","X","X","X","X","X","X","X","X","X","X","X","X","X","X","X","X","X","X","X","X","X","X","X","X","X","X","X","X","X","X","X","X","X","X","X","X","X","X","X","X","X","X","X","X","X","X","X","X","X","X","X","X","X","X","X","X","X","X","X","X","X","X","X","X","X","X","X","X","X","X","X","X","X","X","X","X","X","X","X","X","X","X","X","X","X","X","X","X","X","X","X","X","X","X","X","X","X","X","X","X","X","X","X","X","X","X","X","X","X","X","X","X","X","X","X","X","X","X","X","X","X","X","X","X","X","X","X","X","X","X","X","X","X","X","X","X","X","X","X","X","X","X","X","X","X","X","X","X","X","X","X","X","X","X","X","X","X","X","X","X","X","X","X","X","X","X","X","X","X","X","X","X","X","X","X","X","X","X","X","X","X","X","X","X","X","X","X","X","X","X","X","X","X","X","X","X","X","X","X","X","X","X","X","X","X","X","X","X","X","X","X","X","X","X","X","X","X","X","X","X","X","X","X","X","X","X","X","X","X","X","X","X","X","X","X","X","X","X","X","X","X","X","X","X","X","X","X","X","X","X","X","X","X","X","X","X","X","X","X","X","X","X","X","X","X","X","X","X","X","X","X","X","X","X","X","X","X","X","X","X","X","X","X","X","X","X","X","X","X","X","X","X","X","X","X","X","X","X","X","X","X","X","X","X","X","X","X","X","X","X","X","X","X","X","X","X","X","X","X","X","X","X","X","X","X","X","X","X","X","X","X","X","X","X","X","X","X","X","X","X","X","X","X","X","X","X","X","X","X","X","X","X","X","X","X","X","X","X","X","X","X","X","X","X","X","X","X","X","X","X","X","X","X","X","X","X","X","X","X","X","X","X","X","X","X","X","X","X","X","X","X","X","X","X","X","X","X","X","X","X","X","X","X","X","X","X","X","X","X","X","X","X","X","X","X","X","X","X","X","X","X","X","X","X","X","X","X","X","X","X","X","X","X","X","X","X","X","X","X","X","X","X","X","X","X","X","X","X","X","X","X","X","X","X","X","X","X","X","X","X","X","X","X","X","X","X","X","X","X","X","X","X","X","X","X","X","X","X","X","X","X","X","X","X","X","X","X","X","X","X","X","X","X","X","X","X","X","X","X","X","X","X","X","X","X","X","X","X","X","X","X","X","X","X","X","X","X","X","X","X","X","X","X","X","X","X","X","X","X","X","X","X","X","X","X","X","X","X","X","X","X","X","X","X","X","X","X","X","X","X","X","X","X","X","X","X","X","X","X","X","X","X","X","X","X","X","X","X","X","X","X","X","X","X","X","X","X","X","X","X","X","X","X","X","X","X","X","X","X","X","X","X","X","X","X","X","X","X","X","X","X","X","X","X","X","X","X","X","X","X","X","X","X","X","X","X","X","X","X","X","X","X","X","X","X","X","X","X","X","X","X","X","X","X","X","X","X","X","X","X","X","X","X","X","X","X","X","X","X","X","X","X","X","X","X","X","X","X","X","X","X","X","X","X","X","X","X","X","X","X","X","X","X","X","X","X","X","X","X","X","X","X","X","X","X","X","X","X","X","X","X","X","X","X","X","X","X","X","X","X","X","X","X","X","X","X","X","X","X","X","X","X","X","X","X","X","X","X","X","X","X","X","X","X","X","X","X","X","X","X","X","X","X","X","X","X","X","X","X","X","X","X","X","X","X","X","X","X","X","X","X","X","X","X","X","X","X","X","X","X","X","X","X","X","X","X","X","X","X","X","X","X","X","X","X","X","X","X","X","X","X","X","X","X","X","X","X","X","X","X","X","X","X","X","X","X","X","X","X","X","X","X","X","X","X","X","X","X","X","X","X","X","X","X","X","X","X","X","X","X","X","X","X","X","X","X","X","X","X","X","X","X","X","X","X","X","X","X","X","X","X","X","X","X","X","X","X","X","X","X","X","X","X","X","X","X","X","X","X","X","X","X","X","X","X","X","X","X","X","X","X","X","X","X","X","X","X","X","X","X","X","X","X","X","X","X","X","X","X","X","X","X","X","X","X","X","X","X","X","X","X","X","X","X","X","X","X","X","X","X","X","X","X","X","X","X","X","X","X","X","X","X","X","X","X","X","X","X","X","X","X","X","X","X","X","X","X","X","X","X","X","X","X","X","X","X","X","X","X","X","X","X","X","X","X","X","X","X","X","X","X","X","X","X","X","X","X","X","X","X","X","X","X","X","X","X","X","X","X","X","X","X","X","X","X","X","X","X","X","X","X","X","X","X","X","X","X","X","X","X","X","X","X","X","X","X","X","X","X","X","X","X","X","X","X","X","X","X","X","X","X","X","X","X","X","X","X","X","X","X","X","X","X","X","X","X","X","X","X","X","X","X","X","X","X","X","X","X","X","X","X","X","X","X","X","X","X","X","X","X","X","X","X","X","X","X","X","X","X","X","X","X","X","X","X","X","X","X","X","X","X","X","X","X","X","X","X","X","X","X","X","X","X","X","X","X","X","X","X","X","X","X","X","X","X","X","X","X","X","X","X","X","X","X","X","X","X","X","X","X","X","X","X","X","X","X","X","X","X","X","X","X","X","X","X","X","X","X","X","X","X","X","X","X","X","X","X","X","X","X","X","X","X","X","X","X","X","X","X","X","X","X","X","X","X","X","X","X","X","X","X","X","X","X","X","X","X","X","X","X","X","X","X","X","X","X","X","X","X","X","X","X","X","X","X","X","X","X","X","X","X","X","X","X","X","X","X","X","X","X","X","X","X","X","X","X","X","X","X","X","X","X","X","X","X","X","X","X","X","X","X","X","X","X","X","X","X","X","X","X","X","X","X","X","X","X","X","X","X","X","X","X","X","X","X","X","X","X","X","X","X","X","X","X","X","X","X","X","X","X","X","X","X","X","X","X","X","X","X","X","X","X","X","X","X","X","X","X","X","X","X","X","X","X","X","X","X","X","X","X","X","X","X","X","X","X","X","X","X","X","X","X","X","X","X","X","X","X","X","X","X","X","X","X","X","X","X","X","X","X","X","X","X","X","X","X","X","X","X","X","X","X","X","X","X","X","X","X","X","X","X","X","X","X","X","X","X","X","X","X","X","X","X","X","X","X","X","X","X","X","X","X","X","X","X","X","X","X","X","X","X","X","X","X","X","X","X","X","X","X","X","X","X","X","X","X","X","X","X","X","X","X","X","X","X","X","X","X","X","X","X","X","X","X","X","X","X","X","X","X","X","X","X","X","X","X","X","X","X","X","X","X","X","X","X","X","X","X","X","X","X","X","X","X","X","X","X","X","X","X","X","X","X","X","X","X","X","X","X","X","X","X","X","X","X","X","X","X","X","X","X","X","X","X","X","X","X","X","X","X","X","X","X","X","X","X","X","X","X","X","X","X","X","X","X","X","X","X","X","X","X","X","X","X","X","X","X","X","X","X","X","X","X","X","X","X","X","X","X","X","X","X","X","X","X","X","X","X","X","X","X","X","X","X","X","X","X","X","X","X","X","X","X","X","X","X","X","X","X","X","X","X","X","X","X","X","X","X","X","X","X","X","X","X","X","X","X","X","X","X","X","X","X","X","X","X","X","X","X","X","X","X","X","X","X","X","X","X","X","X","X","X","X","X","X","X","X","X","X","X","X","X","X","X","X","X","X","X","X","X","X","X","X","X","X","X","X","X","X","X","X","X","X","X","X","X","X","X","X","X","X","X","X","X","X","X","X","X","X","X","X","X","X","X","X","X","X","X","X","X","X","X","X","X","X","X","X","X","X","X","X","X","X","X","X","X","X","X","X","X","X","X","X","X","X","X","X","X","X","X","X","X","X","X","X","X","X","X","X","X","X","X","X","X","X","X","X","X","X","?","Y","?","?","?","?","?","?","?","?","?","?","?","?","?","?","?","?","?","?","?","?","?","?","?","?","?","?","?","?","?","?","?","?","?","?","?","?","?","?","?","?","?","?","?","?","?","?","?","?","?","?","?","?","?","?","?","?","?","?","P","P","P","P","P","P","P","P","P","P","P","P","P","P","P","P","P","P","P","P","P","P","P","P","P","P","P","P","P","P","P","?","?","?","?","?","?","?","?","?","?","?","?","?","?","?","?","?","?","?","?","?","?","?","?","?","?","?","?","?","?","?","?","?","V","V","V","V","V","V","V","V","V","V","V","?","W","W","X","X","X","X","X","X","X","X","X","X","X","X","X","X","Y","Y","Y","Y","Y","Y","Y","Y","Y","Y","Y","Y","Y","Y","Y","Y","Y","Y","Y","?","?","?","?","?","?","?","?","?","?","?","?","?","?","?","?","?","Z","Z","Z","Z","Z","Z","Z","Z","Z","Z","Z","Z","Z","Z","Z","Z","Z","Z","Z","Z","Z","Z","Z","Z","Z","Z","Z","Z","Z","Z","?","?","?","?","?","?","?","O","O","O","N","N","N","N","N","N","N","N","N","N","?","?","?","?","?","?","?","?","?","?","?","?","?","?","?","?","?","?","?","?","?","?","?","?","?","E","E","E","E","E","E","E","E","E","E","E","E","E","E","E","E","E","E","E","E","E","E","E","E","E","E","E","E","E","E","E","E","?","?","?","?","?","?","M","M","M","M","M","M","M","M","M","M","M","M","M","M","M","M","M","M","M","M","M","?","?","?","?","?","?","?","?","?","U","U","U","U","U","U","U","U","U","U","?","T","T","T","T","T","T","T","T","T","T","T","T","T","T","T","T","T","T","T","T","T","T","T","T","T","T","?","?","?","?","K","K","K","K","K","K","K","K","K","K","K","K","K","K","K","K","K","K","K","K","K","K","K","K","K","K","?","?","?","?","?","?","?","?","?","?","?","?","?","?","?","?","?","?","?","?","?","?","?","?","?","?","B","B","B","B","B","B","B","B","B","B","B","B","B","B","B","B","B","B","B","B","B","B","B","B","B","B","B","B","B","B","B","B","B","B","B","B","B","B","B","B","B","B","B","B","B","B","B","B","B","?","?","?","?","C","C","C","C","C","C","C","C","C","C","C","C","C","C","C","C","C","C","C","C","C","C","C","C","C","C","C","C","C","C","C","C","C","C","C","C","C","C","C","C","C","C","C","C","C","?","?","?","?","?","?","?","?","?","?","?","D","D","D","D","?","?","?","?","?","?","?","?","?","?","?","?","?","?","?","?","?","?","?","?","?","?","?","?","?","?","?","?","?","?","?","?","?","?","?","?","?","?","?","?","?","?","?","?","?","?","?","?","?","?","?","?","?","?","?","?","?","?","?","?","?","?","?","?","?","?","?","?","?","?","?","?","?","?","?","?","?","?","?","?","?","R","R","R","R","R","R","R","R","R","R","R","R","R","R","R","R","R","R","R","R","R","R","R","R","R","R","R","R","R","R","R","R","R","R","R","R","R","R","R","R","R","R","R","R","R","?","?","Q","Q","Q","Q","Q","?","P","P","P","P","?","?","O","O","O","O","?","?","?","?","?","?","?","?","U","U","U","?","?","?","T","T","T","T","T","T","T","?","?","?","?","?","?","?","J","J","J","J","J","J","J","?","?","?","?","?","A","A","A","A","A","A","A","A","A","A","A","A","A","A","A","A","A","A","A","A","A","A","A","A","A","A","A","A","A","A","A","A","A","A","A","A","A","A","A","A","A","A","A","A","A","A","A","A","A","A","A","A","A","A","A","A","A","A","A","A","A","A","A","A","A","A","A","A","A","A","?","?","?","?","?","?","?","?","?","?","L","M","?","?","?","?","Y","?","Z","?","?","?","?","?","?","?","?","?","?","?","?","?","?","?","?","?","?","?","?","?","?","?","?","?","?","?","?","?","?","?","?","?","?","?","?","?","?","?","?","?","?","?","?","?","?","?","?","?","?","?","?","?","?","?","?","?","?","?","?","?","?","?","?","?","?","?","?","?","?","?","?","?","?","?","?","?","?"],"t":[42,59,80,96,113,130,147,164,181,197,213,228,246,262,279,296,322,334,353,367,383,398,415,431,450,466,483,500,517,534,553,565,579,599,614,633,648,664,680,701,714,731,749,766,781,797,814,831,847,864,880,899,913,931,948,964,983,1001,1014,1030,1044,1065,1082,1097,1114,1130,1147,1166,1182,1199,1216,1232,1250,1266,1281,1299,1316,1332,1349,1365,1382,1400,1415,1429,1449,1467,1481,1500,1516,1533,1550,1571,1583,1595,1615,1631,1649,1663,1679,1699,1715,1735,1749,1765,1784,1799,1815,1830,1846,1866,1881,1899,1916,1932,1949,1967,1983,1998,2012,2031,2048,2064,2083,2098,2114,2132,2147,2164,2181,2197,2214,2233,2246,2263,2278,2294,2312,2328,2344,2361,2377,2393,2411,2427,2449,2462,2477,2494,2511,2527,2543,2561,2578,2594,2611,2627,2644,2662,2677,2694,2711,2727,2743,2762,2781,2799,2812,2827,2844,2862,2881,2899,2914,2931,2946,2960,2977,2994,3011,3027,3044,3061,3079,3095,3113,3129,3146,3164,3179,3196,3212,3230,3244,3260,3277,3295,3310,3327,3344,3360,3377,3394,3410,3427,3443,3460,3478,3493,3510,3527,3544,3560,3577,3594,3610,3627,3643,3660,3677,3693,3710,3727,3743,3760,3777,3794,3810,3826,3843,3860,3877,3893,3910,3927,3945,3961,3977,3994,4010,4026,4043,4060,4076,4093,4110,4127,4143,4160,4178,4196,4211,4226,4244,4259,4276,4295,4310,4327,4343,4364,4378,4394,4411,4426,4443,4460,4476,4493,4512,4530,4547,4564,4578,4593,4611,4628,4646,4662,4679,4695,4712,4729,4745,4762,4779,4796,4812,4829,4845,4863,4880,4896,4911,4929,4945,4962,4979,4998,5013,5026,5043,5059,5076,5093,5109,5126,5142,5159,5176,5194,5212,5229,5246,5261,5280,5295,5314,5326,5343,5361,5381,5398,5415,5427,5447,5461,5478,5496,5511,5529,5549,5560,5579,5595,5613,5628,5643,5662,5679,5698,5715,5728,5746,5763,5781,5797,5812,5829,5846,5862,5881,5897,5909,5931,5947,5962,5979,6000,6011,6025,6045,6062,6079,6097,6113,6130,6145,6161,6180,6197,6211,6230,6247,6260,6280,6297,6309,6330,6346,6364,6378,6394,6412,6429,6446,6460,6480,6500,6514,6526,6547,6563,6581,6596,6646,6654,6679,6695,6711,6730,6745,6762,6778,6797,6812,6828,6845,6862,6879,6895,6914,6929,6945,6961,6978,6997,7010,7025,7042,7058,7075,7091,7109,7126,7144,7160,7177,7195,7210,7227,7244,7260,7277,7294,7312,7328,7344,7362,7377,7397,7411,7425,7441,7458,7475,7492,7509,7526,7543,7559,7576,7596,7614,7631,7644,7659,7676,7692,7708,7726,7742,7760,7776,7793,7810,7826,7843,7859,7877,7893,7911,7926,7943,7960,7978,7995,8009,8025,8041,8058,8075,8093,8111,8125,8142,8158,8177,8192,8208,8225,8242,8259,8275,8292,8308,8325,8341,8358,8375,8394,8412,8427,8444,8462,8477,8494,8512,8528,8544,8560,8577,8595,8612,8628,8644,8659,8676,8693,8709,8725,8742,8761,8777,8793,8809,8826,8844,8861,8878,8893,8908,8924,8941,8958,8975,8994,9008,9026,9041,9058,9075,9093,9109,9126,9143,9161,9178,9193,9209,9227,9244,9262,9276,9294,9309,9326,9343,9361,9376,9393,9410,9426,9444,9461,9476,9494,9509,9526,9543,9563,9576,9593,9610,9628,9644,9661,9676,9692,9709,9728,9744,9763,9775,9791,9808,9825,9841,9858,9875,9891,9908,9925,9942,9959,9975,9995,10010,10025,10040,10057,10073,10090,10108,10125,10143,10160,10179,10193,10210,10226,10245,10260,10274,10291,10308,10324,10341,10361,10376,10393,10408,10423,10440,10457,10475,10491,10508,10524,10541,10557,10575,10590,10607,10624,10640,10657,10673,10690,10707,10724,10742,10760,10777,10794,10811,10827,10843,10860,10876,10893,10910,10928,10943,10958,10974,10992,11008,11023,11044,11059,11078,11097,11110,11127,11144,11159,11176,11194,11209,11226,11245,11261,11278,11295,11309,11326,11343,11359,11376,11394,11407,11424,11442,11459,11475,11492,11510,11526,11543,11559,11575,11592,11609,11626,11643,11659,11675,11693,11710,11728,11744,11760,11777,11792,11809,11825,11848,11858,11875,11893,11909,11925,11941,11958,11975,11995,12010,12023,12039,12058,12075,12093,12110,12127,12146,12160,12173,12189,12206,12223,12239,12256,12272,12295,12308,12324,12344,12360,12375,12394,12409,12426,12442,12459,12477,12492,12509,12525,12543,12560,12577,12594,12609,12629,12642,12659,12675,12692,12709,12725,12742,12759,12777,12794,12807,12825,12841,12858,12876,12893,12910,12926,12943,12960,12973,12990,13006,13022,13042,13060,13076,13093,13112,13127,13142,13162,13179,13190,13206,13223,13239,13257,13273,13290,13306,13323,13340,13358,13375,13390,13406,13423,13439,13457,13475,13491,13508,13524,13540,13558,13573,13590,13607,13624,13641,13657,13673,13689,13708,13725,13740,13757,13774,13790,13808,13823,13840,13859,13876,13892,13908,13925,13940,13959,13975,13994,14006,14022,14039,14056,14072,14090,14106,14124,14143,14157,14175,14191,14208,14224,14243,14259,14274,14293,14310,14323,14340,14356,14373,14389,14407,14423,14442,14457,14474,14490,14507,14524,14541,14558,14575,14590,14607,14627,14641,14657,14674,14692,14707,14725,14742,14757,14774,14792,14808,14823,14840,14859,14874,14890,14905,14922,14938,14955,14973,14991,15007,15022,15039,15056,15072,15090,15107,15124,15142,15159,15175,15190,15210,15225,15243,15257,15274,15291,15307,15323,15340,15357,15374,15390,15406,15424,15441,15457,15474,15490,15506,15522,15540,15556,15572,15589,15606,15624,15642,15657,15673,15689,15707,15723,15741,15757,15775,15790,15806,15825,15841,15859,15876,15888,15905,15921,15938,15955,15973,15993,16006,16023,16039,16056,16072,16089,16106,16124,16140,16156,16172,16189,16207,16223,16240,16257,16274,16291,16307,16324,16340,16356,16374,16390,16404,16421,16438,16454,16472,16489,16505,16522,16539,16556,16572,16591,16606,16622,16640,16656,16674,16691,16706,16722,16739,16756,16772,16790,16806,16822,16839,16855,16872,16889,16906,16924,16940,16956,16972,16991,17008,17022,17039,17055,17073,17091,17108,17123,17139,17156,17173,17189,17205,17222,17239,17255,17272,17289,17305,17322,17340,17358,17375,17389,17406,17423,17441,17457,17474,17490,17508,17524,17541,17557,17573,17590,17606,17625,17638,17655,17672,17690,17705,17722,17739,17757,17772,17790,17805,17822,17839,17857,17875,17887,17903,17920,17937,17953,17970,17987,18004,18021,18037,18053,18070,18087,18104,18120,18137,18153,18174,18190,18207,18224,18239,18258,18275,18291,18307,18324,18341,18355,18370,18390,18408,18423,18439,18457,18472,18489,18506,18522,18539,18556,18572,18589,18606,18623,18640,18658,18674,18689,18706,18723,18741,18757,18773,18789,18807,18824,18839,18855,18872,18889,18906,18924,18941,18956,18974,18991,19005,19022,19039,19055,19078,19092,19107,19123,19140,19158,19173,19188,19205,19222,19240,19255,19274,19289,19305,19323,19345,19355,19369,19390,19407,19422,19438,19455,19472,19489,19506,19524,19541,19555,19572,19590,19606,19625,19639,19656,19673,19691,19708,19725,19742,19759,19776,19789,19807,19822,19839,19855,19872,19889,19906,19922,19939,19956,19974,19993,20006,20023,20039,20055,20073,20091,20105,20123,20141,20159,20173,20187,20208,20226,20240,20255,20272,20287,20303,20323,20341,20355,20375,20387,20404,20421,20439,20456,20475,20490,20506,20524,20541,20556,20570,20591,20602,20619,20636,20654,20672,20689,20707,20724,20741,20755,20771,20789,20805,20822,20839,20860,20871,20885,20906,20922,20938,20957,20972,20989,21003,21018,21036,21052,21069,21087,21104,21124,21141,21155,21177,21188,21207,21224,21237,21257,21273,21290,21305,21323,21341,21357,21378,21390,21403,21424,21440,21456,21471,21490,21505,21521,21536,21553,21572,21589,21607,21625,21640,21658,21673,21686,21706,21724,21739,21753,21769,21788,21808,21823,21840,21855,21869,21885,21902,21923,21938,21955,21970,21989,22003,22018,22040,22055,22073,22093,22105,22122,22142,22156,22170,22193,22205,22222,22240,22257,22272,22289,22307,22324,22338,22355,22369,22386,22404,22421,22439,22456,22471,22490,22509,22524,22539,22555,22573,22589,22605,22624,22636,22655,22672,22689,22705,22721,22741,22756,22774,22788,22806,22821,22836,22851,22870,22889,22908,22923,22942,22959,22972,22988,23003,23022,23040,23056,23069,23085,23102,23125,23140,23157,23172,23189,23204,23220,23236,23253,23271,23289,23305,23324,23339,23355,23371,23388,23411,23426,23435,23452,23474,23490,23504,23518,23540,23558,23574,23586,23609,23624,23635,23660,23675,23687,23705,23722,23738,23757,23772,23786,23804,23817,23840,23858,23871,23887,23904,23923,23938,23952,23971,23989,24001,24022,24038,24055,24071,24090,24104,24123,24138,24154,24170,24189,24205,24221,24238,24254,24272,24284,24306,24322,24337,24351,24373,24393,24404,24417,24434,24451,24467,24484,24500,24520,24537,24554,24571,24588,24607,24620,24634,24654,24670,24688,24704,24721,24735,24755,24772,24788,24806,24821,24837,24854,24874,24885,24904,24921,24938,24954,24974,24990,25003,25017,25033,25050,25072,25088,25104,25122,25136,25154,25171,25187,25204,25222,25238,25257,25270,25283,25305,25321,25338,25356,25372,25386,25401,25423,25438,25454,25470,25485,25504,25526,25537,25553,25571,25587,25604,25620,25637,25655,25668,25687,25704,25720,25737,25753,25771,25789,25805,25819,25837,25854,25872,25886,25904,25921,25934,25959,25971,25985,26001,26025,26039,26051,26071,26087,26103,26121,26137,26156,26170,26187,26204,26218,26238,26255,26270,26287,26307,26319,26335,26350,26371,26387,26403,26420,26437,26455,26470,26485,26503,26520,26537,26554,26571,26584,26603,26623,26637,26651,26670,26687,26703,26721,26736,26756,26769,26783,26801,26820,26836,26853,26872,26888,26901,26920,26934,26951,26970,26988,27007,27017,27037,27052,27072,27087,27101,27118,27136,27153,27170,27187,27204,27222,27235,27249,27272,27286,27303,27319,27336,27353,27372,27386,27403,27417,27437,27453,27471,27487,27500,27525,27537,27551,27570,27586,27603,27620,27640,27654,27672,27685,27703,27721,27737,27752,27772,27787,27801,27817,27836,27853,27870,27886,27902,27921,27937,27955,27970,27990,28004,28016,28036,28052,28071,28082,28106,28119,28134,28152,28169,28186,28203,28223,28236,28250,28266,28282,28302,28319,28336,28349,28366,28382,28398,28421,28436,28452,28469,28486,28502,28520,28536,28552,28569,28586,28603,28622,28636,28652,28666,28685,28703,28719,28736,28752,28769,28783,28805,28820,28836,28852,28870,28886,28902,28920,28936,28950,28967,28990,29007,29018,29032,29051,29069,29085,29102,29119,29136,29153,29173,29189,29202,29217,29236,29255,29269,29287,29304,29321,29335,29352,29369,29388,29399,29419,29435,29452,29469,29485,29503,29520,29536,29551,29569,29585,29600,29615,29636,29651,29666,29686,29703,29720,29738,29752,29765,29781,29801,29819,29835,29852,29870,29888,29901,29920,29938,29953,29975,29987,29998,30018,30035,30054,30068,30085,30103,30119,30135,30153,30169,30183,30202,30220,30234,30254,30266,30285,30302,30319,30336,30352,30366,30385,30402,30440,30453,30467,30485,30501,30520,30535,30552,30567,30585,30605,30621,30632,30649,30668,30685,30701,30718,30735,30752,30769,30786,30804,30818,30834,30851,30869,30881,30901,30918,30938,30953,30966,30983,30999,31019,31035,31052,31068,31085,31103,31118,31135,31153,31168,31185,31202,31219,31236,31252,31268,31285,31297,31318,31334,31352,31369,31386,31402,31415,31434,31452,31468,31484,31502,31519,31537,31551,31568,31584,31605,31616,31631,31647,31668,31684,31703,31719,31735,31749,31768,31786,31802,31818,31832,31848,31868,31884,31901,31918,31934,31950,31968,31987,32002,32014,32030,32051,32070,32083,32101,32119,32134,32152,32168,32185,32198,32217,32234,32251,32267,32284,32300,32320,32335,32352,32369,32382,32404,32419,32431,32447,32467,32484,32500,32517,32534,32551,32569,32586,32599,32620,32638,32650,32664,32684,32701,32718,32737,32752,32767,32781,32802,32815,32833,32850,32870,32882,32900,32917,32934,32951,32967,32984,33000,33016,33034,33052,33065,33080,33101,33120,33134,33153,33166,33180,33200,33215,33233,33250,33269,33284,33299,33317,33334,33351,33364,33384,33400,33417,33433,33450,33467,33486,33498,33519,33534,33551,33567,33583,33601,33614,33632,33650,33667,33683,33700,33718,33736,33751,33768,33789,33815,33830,33852,33868,33885,33899,33921,33935,33948,33964,33981,33998,34019,34034,34050,34068,34084,34102,34116,34133,34150,34166,34183,34200,34218,34234,34249,34266,34287,34297,34314,34333,34351,34367,34386,34397,34420,34436,34447,34463,34479,34496,34513,34529,34546,34563,34579,34596,34613,34629,34646,34662,34679,34696,34713,34731,34746,34767,34784,34802,34814,34830,34851,34867,34883,34898,34914,34930,34946,34969,34986,35000,35013,35039,35049,35071,35083,35097,35118,35132,35146,35166,35182,35199,35213,35230,35246,35263,35283,35301,35315,35330,35346,35362,35379,35396,35412,35429,35445,35463,35486,35502,35514,35533,35550,35564,35579,35596,35613,35629,35655,35666,35680,35700,35714,35731,35745,35762,35779,35796,35812,35828,35846,35862,35885,35900,35913,35929,35946,35962,35981,35999,36014,36029,36045,36062,36086,36101,36113,36138,36154,36166,36179,36202,36214,36231,36254,36263,36279,36303,36319,36332,36346,36362,36382,36402,36417,36436,36449,36462,36482,36497,36516,36532,36549,36565,36584,36599,36613,36630,36647,36667,36682,36697,36712,36729,36749,36768,36782,36799,36815,36830,36845,36863,36882,36899,36917,36932,36946,36967,36987,36999,37011,37028,37049,37069,37082,37095,37113,37134,37149,37165,37182,37197,37215,37232,37249,37265,37283,37299,37313,37332,37349,37365,37382,37399,37415,37431,37450,37466,37482,37496,37516,37531,37549,37565,37581,37596,37615,37636,37649,37665,37684,37699,37715,37732,37749,37765,37780,37798,37817,37832,37849,37862,37885,37899,37915,37933,37949,37966,37982,37996,38016,38034,38048,38066,38085,38099,38113,38129,38151,38171,38183,38196,38214,38232,38253,38268,38279,38295,38320,38337,38369,38385,38396,38420,38433,38450,38465,38481,38498,38515,38531,38548,38564,38581,38598,38615,38629,38645,38665,38685,38700,38714,38729,38748,38764,38781,38798,38814,38831,38848,38865,38881,38899,38914,38931,38947,38964,38981,38994,39014,39031,39051,39063,39080,39095,39113,39129,39147,39163,39179,39195,39212,39229,39245,39262,39279,39295,39313,39330,39345,39362,39379,39395,39412,39429,39445,39462,39479,39495,39512,39530,39547,39562,39579,39595,39612,39629,39645,39662,39678,39695,39712,39729,39746,39762,39779,39795,39814,39828,39845,39862,39879,39895,39912,39929,39946,39961,39980,39995,40011,40028,40044,40061,40080,40096,40112,40129,40146,40162,40181,40195,40212,40227,40244,40260,40278,40294,40312,40332,40348,40362,40380,40395,40412,40429,40448,40462,40477,40493,40510,40526,40544,40560,40577,40594,40612,40633,40646,40662,40678,40695,40711,40728,40744,40761,40780,40796,40811,40830,40847,40862,40878,40895,40912,40928,40945,40963,40981,40995,41014,41028,41045,41062,41078,41095,41112,41128,41147,41163,41179,41195,41212,41228,41246,41262,41279,41295,41312,41329,41345,41362,41378,41395,41412,41430,41445,41461,41478,41495,41512,41529,41545,41562,41579,41595,41611,41628,41645,41663,41678,41695,41714,41727,41746,41759,41776,41793,41810,41828,41845,41862,41879,41897,41912,41928,41945,41962,41978,41997,42013,42031,42050,42062,42078,42097,42112,42128,42145,42162,42178,42195,42212,42230,42245,42262,42278,42295,42312,42328,42345,42361,42379,42395,42411,42428,42445,42462,42480,42496,42512,42528,42546,42561,42578,42595,42611,42628,42645,42661,42678,42695,42712,42730,42745,42761,42779,42795,42813,42828,42845,42864,42878,42895,42912,42930,42945,42961,42981,42994,43013,43028,43043,43058,43077,43094,43111,43128,43145,43162,43179,43195,43212,43230,43245,43261,43275,43292,43308,43326,43343,43362,43377,43395,43412,43429,43444,43461,43478,43494,43511,43528,43545,43560,43577,43594,43611,43627,43644,43660,43677,43694,43712,43727,43745,43761,43778,43794,43810,43827,43845,43860,43877,43894,43910,43927,43944,43961,43979,43994,44011,44027,44045,44060,44077,44094,44112,44127,44144,44160,44177,44194,44212,44228,44243,44262,44277,44294,44312,44327,44343,44361,44377,44394,44410,44427,44444,44460,44477,44495,44510,44526,44543,44558,44575,44591,44608,44625,44642,44660,44678,44693,44711,44727,44743,44763,44780,44791,44808,44825,44841,44859,44876,44893,44910,44927,44943,44960,44977,44995,45011,45028,45045,45060,45077,45093,45109,45127,45143,45161,45176,45193,45210,45228,45243,45261,45278,45293,45310,45326,45343,45360,45377,45393,45411,45426,45445,45462,45475,45491,45507,45524,45541,45559,45576,45594,45610,45629,45643,45661,45676,45693,45711,45728,45743,45759,45776,45794,45811,45827,45844,45861,45876,45893,45911,45926,45944,45959,45976,45996,46012,46027,46044,46059,46077,46093,46111,46126,46143,46161,46176,46192,46212,46226,46243,46261,46279,46292,46311,46325,46341,46360,46377,46393,46409,46429,46445,46460,46476,46493,46509,46526,46543,46559,46578,46593,46610,46628,46643,46660,46676,46693,46710,46724,46741,46758,46775,46792,46810,46827,46843,46859,46878,46893,46909,46926,46943,46960,46976,46993,47009,47028,47044,47062,47077,47093,47109,47126,47143,47161,47176,47193,47210,47226,47243,47262,47277,47293,47308,47323,47340,47357,47374,47392,47409,47427,47442,47459,47475,47492,47509,47527,47543,47558,47575,47592,47609,47625,47642,47659,47675,47692,47709,47726,47743,47759,47775,47792,47811,47825,47840,47857,47873,47890,47908,47924,47943,47961,47976,47994,48009,48025,48040,48059,48077,48094,48108,48126,48142,48159,48175,48193,48208,48225,48242,48258,48275,48292,48309,48326,48343,48358,48377,48392,48408,48427,48443,48457,48473,48490,48507,48523,48540,48556,48573,48590,48606,48623,48639,48656,48673,48690,48706,48723,48740,48756,48773,48789,48808,48825,48843,48858,48875,48891,48909,48925,48942,48958,48977,48993,49011,49025,49042,49059,49076,49093,49109,49127,49145,49158,49176,49194,49210,49226,49242,49258,49275,49293,49309,49326,49342,49360,49375,49391,49409,49427,49444,49459,49475,49491,49508,49525,49542,49559,49575,49594,49610,49627,49642,49659,49675,49692,49709,49726,49741,49758,49775,49792,49809,49827,49843,49862,49880,49893,49910,49923,49942,49959,49976,49997,50007,50026,50042,50060,50076,50094,50110,50125,50142,50158,50175,50192,50209,50225,50242,50259,50276,50292,50311,50325,50341,50359,50389,50406,50427,50445,50463,50475,50489,50510,50526,50542,50558,50579,50590,50606,50630,50644,50657,50672,50692,50708,50725,50743,50760,50776,50795,50809,50825,50841,50857,50872,50889,50907,50924,50943,50955,50975,50994,51008,51022,51038,51055,51072,51088,51105,51122,51138,51155,51172,51188,51205,51222,51239,51258,51275,51291,51308,51324,51341,51358,51378,51392,51405,51426,51444,51459,51478,51495,51510,51524,51542,51560,51576,51592,51609,51626,51642,51660,51675,51691,51709,51727,51741,51757,51776,51794,51812,51826,51840,51859,51876,51889,51914,51929,51940,51955,51972,51988,52008,52024,52041,52059,52075,52094,52109,52125,52145,52156,52176,52194,52210,52224,52248,52260,52272,52289,52311,52328,52344,52356,52372,52391,52405,52421,52441,52460,52476,52493,52509,52528,52547,52557,52571,52589,52610,52629,52641,52654,52675,52693,52707,52723,52743,52757,52775,52795,52810,52828,52841,52855,52877,52892,52911,52923,52945,52957,52975,52994,53006,53021,53042,53059,53076,53092,53108,53125,53140,53159,53175,53194,53208,53224,53242,53259,53275,53289,53311,53325,53341,53360,53374,53394,53408,53424,53440,53459,53477,53491,53508,53525,53541,53558,53574,53594,53608,53624,53644,53658,53675,53692,53708,53722,53744,53759,53772,53794,53808,53821,53841,53862,53873,53887,53907,53923,53943,53958,53972,53989,54012,54043,54058,54075,54091,54110,54124,54143,54159,54172,54191,54207,54227,54241,54258,54276,54291,54306,54324,54340,54357,54374,54395,54405,54424,54440,54457,54474,54493,54509,54525,54538,54557,54574,54590,54607,54626,54639,54658,54674,54690,54708,54725,54742,54759,54771,54790,54807,54824,54843,54857,54871,54890,54907,54924,54940,54958,54976,54990,55007,55025,55038,55057,55073,55090,55107,55123,55140,55158,55175,55191,55208,55221,55238,55255,55271,55288,55305,55321,55338,55355,55371,55390,55410,55420,55436,55454,55470,55486,55503,55521,55542,55556,55573,55591,55608,55625,55640,55656,55673,55689,55708,55724,55741,55758,55771,55788,55804,55821,55838,55855,55871,55887,55904,55922,55940,55956,55974,55992,56006,56022,56039,56055,56072,56089,56105,56122,56139,56155,56174,56189,56205,56222,56239,56255,56272,56289,56305,56322,56340,56357,56372,56389,56406,56422,56439,56455,56473,56489,56505,56522,56539,56555,56575,56588,56605,56621,56637,56653,56671,56687,56704,56720,56739,56755,56770,56787,56803,56820,56837,56855,56874,56890,56904,56920,56936,56953,56969,56989,57004,57020,57037,57053,57070,57088,57104,57121,57138,57155,57172,57188,57206,57221,57238,57255,57271,57288,57304,57321,57338,57354,57371,57388,57405,57421,57439,57454,57471,57489,57504,57522,57541,57554,57570,57585,57602,57619,57635,57652,57669,57687,57704,57721,57738,57755,57771,57788,57805,57821,57838,57857,57872,57889,57905,57921,57938,57955,57972,57990,58004,58021,58038,58054,58071,58088,58106,58125,58138,58153,58169,58186,58203,58220,58236,58253,58271,58286,58304,58321,58338,58354,58370,58389,58406,58421,58435,58452,58468,58486,58503,58521,58538,58555,58573,58587,58604,58623,58638,58663,58671,58686,58703,58719,58737,58753,58771,58788,58806,58820,58836,58856,58872,58887,58903,58922,58937,58953,58970,58989,59004,59020,59036,59052,59069,59086,59103,59121,59136,59153,59171,59186,59203,59220,59237,59253,59271,59286,59303,59319,59336,59353,59370,59386,59403,59419,59437,59453,59470,59486,59503,59521,59536,59553,59571,59586,59603,59619,59636,59653,59669,59686,59703,59721,59736,59753,59769,59786,59803,59821,59838,59852,59869,59886,59903,59922,59939,59951,59969,59985,60002,60018,60035,60052,60069,60086,60103,60120,60136,60153,60169,60186,60203,60219,60237,60254,60270,60288,60303,60321,60336,60353,60369,60388,60403,60421,60436,60453,60473,60487,60502,60518,60535,60552,60569,60587,60604,60622,60637,60653,60670,60686,60702,60718,60734,60750,60767,60784,60801,60818,60834,60852,60870,60886,60903,60920,60936,60953,60971,60988,61003,61018,61035,61051,61067,61085,61101,61118,61134,61152,61168,61185,61202,61219,61237,61253,61270,61285,61301,61317,61334,61350,61367,61384,61400,61418,61435,61451,61468,61484,61502,61519,61536,61552,61571,61586,61603,61621,61636,61652,61669,61686,61702,61721,61736,61752,61769,61785,61802,61819,61838,61853,61870,61887,61902,61919,61936,61952,61969,61988,62002,62023,62038,62052,62070,62086,62102,62119,62135,62154,62170,62185,62202,62219,62237,62252,62269,62287,62303,62319,62337,62352,62369,62385,62402,62419,62435,62452,62469,62485,62502,62519,62536,62554,62569,62585,62603,62621,62635,62652,62669,62685,62702,62719,62735,62752,62769,62785,62802,62818,62835,62852,62869,62890,62903,62918,62933,62950,62967,62984,63000,63018,63036,63053,63070,63085,63101,63118,63135,63152,63168,63185,63202,63219,63236,63254,63270,63285,63302,63318,63335,63352,63368,63385,63402,63419,63435,63453,63468,63485,63501,63518,63535,63551,63568,63585,63601,63618,63635,63653,63670,63685,63703,63718,63735,63754,63770,63785,63802,63818,63835,63851,63868,63885,63902,63919,63936,63953,63968,63987,64001,64018,64035,64051,64068,64085,64101,64119,64136,64151,64168,64185,64201,64218,64235,64251,64268,64285,64302,64318,64335,64352,64370,64386,64403,64418,64432,64449,64466,64482,64499,64516,64533,64551,64568,64585,64601,64618,64635,64651,64669,64685,64702,64718,64736,64752,64770,64786,64799,64815,64832,64849,64867,64883,64899,64917,64934,64951,64968,64987,65001,65019,65034,65051,65068,65084,65101,65118,65135,65152,65169,65186,65201,65218,65234,65251,65267,65284,65301,65317,65334,65351,65368,65384,65401,65417,65434,65452,65470,65489,65500,65516,65533,65549,65566,65584,65599,65616,65633,65649,65667,65684,65701,65718,65733,65750,65768,65783,65800,65817,65833,65850,65869,65885,65901,65915,65932,65949,65965,65983,66000,66019,66035,66052,66067,66084,66100,66117,66134,66152,66167,66184,66202,66217,66234,66253,66267,66282,66298,66315,66334,66351,66368,66385,66402,66417,66432,66448,66467,66483,66500,66517,66533,66550,66567,66586,66600,66619,66633,66651,66667,66684,66702,66718,66733,66750,66767,66785,66801,66817,66832,66848,66865,66882,66900,66918,66933,66951,66967,66985,67000,67017,67033,67050,67067,67083,67100,67118,67133,67149,67165,67181,67198,67215,67232,67250,67267,67284,67300,67318,67334,67352,67367,67386,67399,67414,67431,67448,67464,67481,67500,67518,67534,67551,67568,67583,67600,67616,67634,67649,67665,67682,67700,67716,67734,67750,67766,67782,67799,67816,67832,67850,67866,67882,67900,67916,67932,67950,67966,67984,67999,68016,68032,68054,68068,68083,68098,68114,68131,68147,68164,68181,68197,68214,68231,68248,68265,68281,68298,68315,68332,68351,68366,68384,68399,68416,68433,68449,68466,68483,68501,68516,68532,68549,68566,68583,68601,68618,68633,68649,68666,68682,68699,68716,68733,68749,68766,68782,68801,68818,68832,68848,68864,68881,68900,68914,68931,68948,68964,68981,68998,69016,69032,69049,69066,69084,69101,69115,69134,69150,69164,69181,69197,69214,69231,69248,69266,69283,69300,69317,69332,69349,69366,69382,69399,69416,69432,69449,69465,69483,69500,69517,69532,69549,69567,69582,69599,69615,69632,69649,69665,69683,69698,69715,69732,69749,69765,69783,69800,69816,69833,69850,69864,69880,69896,69915,69932,69950,69966,69985,69998,70015,70036,70051,70065,70082,70101,70117,70133,70149,70165,70183,70198,70216,70232,70251,70266,70283,70299,70315,70334,70349,70368,70381,70396,70416,70432,70448,70468,70486,70500,70513,70532,70549,70565,70582,70600,70616,70633,70649,70666,70684,70700,70715,70733,70747,70765,70781,70798,70815,70831,70848,70867,70883,70900,70916,70932,70948,70965,70981,70997,71014,71030,71047,71065,71080,71097,71114,71131,71148,71164,71181,71198,71214,71231,71248,71264,71281,71298,71314,71331,71349,71365,71381,71398,71414,71431,71448,71464,71481,71498,71514,71531,71548,71565,71582,71597,71616,71631,71648,71664,71681,71698,71714,71731,71747,71764,71782,71799,71815,71832,71849,71864,71882,71896,71913,71929,71946,71962,71980,71996,72013,72031,72048,72067,72083,72103,72115,72130,72145,72162,72179,72195,72212,72229,72246,72262,72279,72296,72312,72329,72346,72362,72379,72396,72416,72429,72445,72462,72479,72495,72512,72529,72545,72567,72583,72598,72615,72631,72648,72665,72681,72698,72714,72731,72748,72765,72786,72799,72812,72832,72847,72865,72880,72897,72914,72931,72948,72965,72983,73000,73014,73029,73045,73061,73080,73097,73115,73131,73148,73165,73182,73197,73216,73233,73250,73266,73283,73296,73312,73328,73351,73381,73397,73414,73432,73448,73464,73481,73498,73514,73530,73548,73566,73581,73598,73614,73631,73648,73664,73680,73697,73714,73732,73748,73764,73780,73799,73814,73831,73847,73864,73882,73900,73914,73932,73947,73964,73980,74000,74013,74028,74047,74062,74079,74095,74113,74132,74147,74164,74181,74198,74214,74232,74249,74264,74280,74297,74313,74332,74347,74364,74382,74399,74417,74432,74448,74464,74479,74497,74512,74530,74545,74562,74581,74596,74613,74631,74646,74664,74681,74697,74715,74729,74746,74763,74779,74797,74816,74829,74845,74861,74878,74894,74911,74931,74947,74963,74983,74999,75012,75030,75045,75062,75080,75095,75112,75128,75146,75164,75180,75198,75213,75231,75246,75263,75279,75298,75313,75330,75346,75363,75379,75396,75413,75429,75446,75463,75481,75497,75511,75528,75545,75561,75580,75596,75614,75629,75645,75662,75679,75695,75712,75729,75745,75762,75780,75795,75812,75830,75847,75863,75880,75895,75911,75930,75945,75961,75979,75996,76013,76029,76045,76063,76078,76095,76112,76128,76145,76162,76179,76197,76213,76230,76248,76263,76280,76296,76313,76332,76345,76361,76377,76393,76410,76427,76444,76461,76479,76496,76512,76529,76546,76562,76579,76596,76612,76631,76646,76662,76680,76697,76712,76729,76745,76762,76779,76796,76814,76830,76847,76864,76887,76895,76910,76928,76944,76961,76978,76994,77010,77027,77044,77061,77078,77095,77111,77127,77144,77161,77177,77194,77211,77228,77246,77261,77278,77294,77312,77329,77344,77361,77378,77394,77411,77428,77446,77461,77478,77495,77513,77529,77545,77562,77579,77595,77613,77629,77645,77662,77679,77695,77713,77729,77746,77762,77780,77795,77812,77828,77847,77863,77878,77893,77910,77926,77943,77961,77980,77996,78011,78030,78045,78062,78078,78095,78112,78128,78145,78163,78180,78196,78213,78230,78245,78263,78278,78295,78311,78330,78345,78361,78378,78395,78412,78428,78446,78463,78478,78495,78511,78528,78545,78561,78578,78595,78612,78630,78645,78663,78678,78696,78711,78728,78745,78761,78778,78795,78812,78828,78844,78861,78878,78895,78911,78929,78945,78961,78978,78995,79011,79028,79045,79062,79078,79094,79111,79129,79144,79161,79178,79195,79211,79229,79244,79261,79278,79294,79311,79328,79344,79362,79378,79394,79409,79426,79442,79460,79477,79495,79511,79530,79545,79561,79580,79594,79611,79628,79644,79661,79679,79695,79711,79729,79747,79760,79776,79792,79809,79825,79842,79859,79876,79894,79911,79928,79944,79961,79980,79995,80011,80027,80044,80061,80077,80094,80111,80128,80145,80161,80177,80195,80210,80227,80244,80261,80277,80295,80311,80327,80344,80361,80378,80394,80410,80428,80444,80462,80480,80496,80511,80525,80542,80558,80576,80593,80609,80625,80642,80659,80676,80692,80709,80728,80746,80762,80775,80792,80809,80825,80842,80861,80879,80895,80909,80926,80944,80960,80977,80992,81010,81027,81043,81060,81076,81094,81110,81127,81143,81162,81177,81195,81210,81227,81243,81262,81277,81294,81311,81327,81345,81361,81377,81393,81410,81427,81443,81460,81479,81495,81512,81527,81545,81561,81577,81593,81611,81627,81645,81662,81676,81694,81710,81727,81744,81761,81776,81795,81810,81828,81843,81861,81876,81893,81910,81927,81944,81961,81978,81993,82010,82025,82041,82060,82076,82093,82109,82126,82143,82159,82177,82194,82210,82228,82244,82261,82276,82293,82310,82326,82343,82360,82376,82406,82424,82441,82458,82474,82491,82507,82524,82541,82558,82574,82591,82607,82624,82641,82657,82674,82691,82707,82724,82741,82757,82774,82791,82807,82824,82841,82857,82874,82891,82907,82924,82941,82957,82974,82991,83007,83024,83040,83057,83074,83090,83108,83124,83140,83159,83176,83193,83209,83226,83242,83261,83277,83294,83311,83326,83342,83359,83376,83392,83409,83426,83442,83461,83476,83494,83509,83527,83542,83559,83576,83592,83610,83627,83642,83659,83676,83692,83710,83726,83743,83759,83777,83792,83809,83826,83842,83859,83875,83895,83908,83924,83940,83957,83974,83991,84009,84026,84043,84061,84076,84093,84111,84126,84143,84163,84176,84193,84209,84227,84244,84258,84275,84291,84308,84324,84341,84358,84375,84392,84409,84426,84443,84460,84475,84493,84508,84531,84544,84558,84573,84590,84606,84623,84640,84659,84676,84693,84709,84727,84742,84759,84775,84792,84811,84825,84842,84859,84875,84892,84910,84927,84943,84961,84974,84990,85007,85023,85039,85057,85073,85090,85108,85125,85142,85158,85175,85192,85210,85227,85243,85258,85275,85291,85307,85324,85341,85358,85375,85396,85410,85424,85440,85456,85473,85490,85507,85523,85540,85557,85574,85592,85607,85624,85641,85657,85675,85692,85709,85725,85742,85758,85775,85792,85809,85825,85841,85858,85876,85891,85908,85926,85943,85958,85975,85994,86010,86026,86043,86058,86075,86091,86108,86124,86141,86159,86176,86191,86208,86224,86241,86258,86274,86291,86308,86325,86341,86358,86375,86393,86408,86424,86441,86458,86476,86491,86508,86525,86541,86558,86574,86591,86608,86627,86643,86659,86677,86691,86706,86722,86739,86756,86772,86789,86805,86822,86840,86858,86874,86891,86910,86926,86942,86955,86972,86989,87005,87022,87039,87057,87074,87091,87108,87124,87141,87158,87174,87191,87208,87224,87241,87259,87276,87291,87308,87324,87341,87357,87374,87392,87407,87424,87441,87458,87474,87490,87507,87524,87542,87557,87574,87592,87608,87622,87638,87655,87672,87690,87707,87725,87740,87757,87774,87790,87807,87824,87840,87857,87874,87890,87907,87924,87941,87959,87977,87991,88007,88024,88040,88057,88074,88090,88107,88124,88140,88157,88174,88191,88207,88224,88240,88257,88274,88292,88307,88323,88340,88357,88374,88392,88408,88426,88441,88457,88472,88488,88505,88523,88542,88557,88573,88590,88608,88625,88640,88657,88673,88690,88707,88723,88740,88757,88775,88792,88807,88824,88841,88858,88873,88891,88907,88923,88941,88957,88973,88990,89008,89022,89038,89054,89071,89088,89104,89121,89140,89156,89172,89188,89206,89223,89239,89259,89275,89290,89307,89323,89341,89358,89373,89391,89406,89423,89441,89458,89474,89489,89506,89523,89541,89556,89573,89591,89606,89623,89640,89658,89675,89691,89706,89723,89741,89756,89773,89791,89806,89823,89839,89856,89874,89891,89906,89924,89941,89963,89974,89989,90004,90020,90037,90054,90072,90087,90104,90120,90137,90156,90175,90192,90205,90221,90239,90257,90272,90291,90307,90322,90341,90356,90373,90390,90406,90424,90439,90456,90473,90491,90508,90521,90537,90554,90570,90588,90604,90623,90640,90656,90673,90690,90706,90723,90739,90755,90772,90789,90806,90822,90839,90856,90872,90890,90906,90923,90939,90958,90972,90992,91006,91022,91039,91058,91074,91090,91108,91123,91141,91158,91173,91189,91208,91222,91239,91255,91272,91289,91306,91322,91340,91356,91373,91389,91406,91422,91439,91456,91474,91490,91505,91520,91537,91554,91571,91589,91606,91625,91639,91656,91673,91691,91706,91723,91740,91756,91772,91789,91806,91822,91839,91856,91872,91889,91906,91922,91941,91956,91974,91989,92004,92021,92037,92054,92071,92088,92105,92122,92138,92155,92172,92190,92207,92223,92237,92254,92270,92288,92305,92321,92337,92354,92372,92389,92406,92422,92440,92464,92488,92505,92522,92538,92555,92573,92590,92605,92622,92639,92655,92671,92688,92705,92722,92740,92755,92772,92788,92805,92822,92838,92856,92873,92888,92905,92921,92938,92956,92971,92989,93006,93020,93036,93053,93070,93086,93103,93119,93136,93154,93171,93188,93205,93221,93238,93255,93272,93290,93306,93323,93336,93352,93369,93386,93402,93419,93436,93454,93471,93489,93505,93521,93539,93555,93571,93588,93604,93621,93638,93654,93671,93688,93705,93722,93738,93756,93773,93788,93804,93821,93839,93854,93871,93888,93904,93921,93938,93955,93973,93990,94004,94021,94038,94054,94072,94088,94104,94121,94138,94155,94171,94189,94204,94221,94238,94254,94271,94288,94304,94321,94338,94356,94372,94389,94404,94422,94439,94454,94469,94485,94502,94519,94535,94552,94569,94585,94602,94619,94635,94654,94672,94687,94704,94721,94737,94754,94771,94787,94804,94821,94838,94855,94871,94887,94904,94920,94937,94954,94971,94987,95004,95021,95037,95055,95071,95087,95106,95123,95138,95154,95170,95187,95204,95220,95237,95254,95272,95288,95305,95321,95338,95353,95372,95386,95402,95418,95435,95452,95469,95487,95507,95520,95537,95554,95570,95587,95606,95621,95635,95652,95669,95686,95703,95720,95737,95754,95770,95788,95804,95821,95837,95855,95870,95887,95903,95921,95937,95953,95970,95990,96008,96020,96035,96052,96068,96084,96101,96118,96135,96152,96168,96186,96203,96221,96237,96253,96272,96287,96305,96320,96338,96353,96370,96387,96403,96420,96437,96453,96469,96486,96503,96521,96537,96554,96571,96589,96603,96619,96637,96654,96670,96686,96703,96721,96738,96764,96789,96806,96822,96837,96856,96869,96886,96902,96919,96935,96952,96968,96985,97003,97018,97035,97052,97070,97085,97103,97118,97135,97153,97171,97186,97203,97219,97236,97254,97269,97287,97304,97320,97336,97352,97372,97386,97403,97421,97437,97453,97470,97487,97506,97520,97534,97554,97571,97588,97605,97620,97639,97654,97671,97687,97704,97720,97738,97753,97771,97789,97805,97821,97836,97855,97869,97887,97904,97922,97938,97956,97973,97991,98007,98018,98036,98054,98072,98091,98103,98122,98141,98156,98169,98189,98204,98220,98237,98254,98270,98286,98303,98318,98336,98353,98370,98386,98404,98422,98436,98453,98470,98488,98501,98520,98536,98553,98570,98589,98605,98625,98636,98651,98672,98689,98704,98718,98739,98755,98769,98789,98805,98822,98838,98852,98872,98888,98901,98923,98938,98951,98967,98990,99003,99022,99038,99054,99068,99084,99100,99122,99140,99152,99173,99188,99204,99223,99239,99252,99271,99287,99304,99318,99341,99355,99369,99385,99405,99420,99438,99455,99470,99484,99504,99524,99537,99554,99571,99591,99605,99627,99639,99650,99671,99688,99706,99719,99736,99754,99772,99787,99806,99821,99836,99853,99869,99890,99901,99924,99940,99956,99975,99987,100000,100020,100036,100053,100070,100089,100105,100120,100138,100155,100168,100186,100203,100221,100236,100261,100288,100303,100323,100341,100353,100368,100389,100406,100426,100436,100454,100468,100492,100510,100521,100539,100551,100572,100586,100602,100623,100640,100653,100674,100689,100701,100721,100736,100755,100774,100786,100800,100818,100838,100853,100871,100888,100901,100916,100937,100957,100972,100985,101006,101021,101037,101054,101071,101087,101103,101118,101134,101150,101171,101187,101204,101223,101239,101253,101269,101285,101304,101322,101334,101356,101370,101384,101405,101422,101441,101456,101467,101485,101499,101518,101536,101552,101573,101582,101599,101621,101640,101657,101671,101692,101702,101722,101734,101749,101774,101791,101804,101820,101836,101851,101876,101895,101904,101916,101935,101950,101970,101992,102008,102018,102032,102056,102070,102083,102100,102116,102134,102150,102175,102191,102204,102218,102234,102253,102270,102286,102302,102317,102341,102355,102366,102382,102403,102426,102437,102452,102476,102485,102501,102516,102533,102557,102575,102588,102603,102622,102640,102651,102670,102690,102702,102719,102734,102749,102773,102788,102805,102819,102833,102849,102872,102886,102899,102922,102940,102951,102966,102988,103005,103016,103032,103048,103070,103086,103102,103122,103135,103152,103170,103188,103204,103219,103233,103255,103269,103283,103303,103319,103336,103350,103365,103389,103407,103425,103434,103456,103472,103485,103500,103519,103536,103554,103573,103586,103602,103617,103633,103654,103670,103687,103703,103721,103734,103752,103769,103783,103803,103821,103836,103850,103876,103892,103902,103919,103936,103952,103969,103987,104005,104018,104033,104054,104069,104085,104102,104116,104137,104153,104170,104185,104199,104218,104240,104251,104264,104285,104303,104321,104334,104348,104364,104386,104403,104419,104436,104453,104468,104485,104503,104522,104536,104554,104569,104583,104603,104622,104638,104650,104672,104685,104702,104719,104733,104752,104766,104781,104807,104825,104834,104858,104873,104884,104901,104916,104947,104959,104968,104988,105015,105032,105048,105065,105081,105102,105119,105132,105152,105172,105188,105199,105214,105236,105252,105271,105284,105304,105320,105336,105350,105369,105384,105402,105419,105436,105451,105465,105481,105518,105538,105547,105568,105585,105604,105617,105632,105647,105670,105686,105699,105721,105742,105754,105766,105782,105801,105816,105845,105857,105866,105882,105906,105922,105939,105957,105970,105996,106008,106031,106047,106064,106081,106099,106114,106130,106151,106168,106187,106202,106216,106235,106253,106270,106283,106302,106318,106334,106349,106371,106386,106397,106418,106437,106453,106469,106481,106501,106518,106534,106551,106568,106584,106598,106616,106632,106650,106667,106688,106702,106715,106736,106751,106764,106785,106802,106819,106835,106854,106871,106883,106905,106917,106932,106953,106966,106986,106999,107017,107032,107049,107071,107084,107102,107120,107133,107150,107167,107186,107202,107216,107230,107251,107268,107284,107303,107320,107332,107353,107369,107385,107398,107418,107434,107451,107468,107487,107502,107517,107539,107549,107568,107585,107602,107613,107630,107646,107663,107680,107697,107716,107733,107752,107767,107785,107800,107817,107834,107852,107866,107887,107902,107919,107932,107949,107970,107987,107999,108014,108031,108054,108073,108085,108100,108115,108131,108153,108172,108188,108198,108221,108233,108247,108270,108288,108305,108317,108334,108349,108370,108387,108398,108419,108430,108455,108471,108483,108503,108520,108533,108547,108567,108584,108599,108623,108638,108647,108675,108686,108702,108715,108730,108746,108765,108780,108802,108814,108829,108846,108864,108880,108896,108912,108930,108946,108962,108980,108996,109012,109029,109046,109062,109079,109096,109113,109129,109145,109166,109182,109197,109214,109237,109251,109264,109279,109301,109318,109337,109352,109365,109379,109400,109419,109433,109453,109468,109479,109501,109518,109536,109551,109564,109584,109600,109619,109635,109648,109662,109679,109701,109719,109739,109754,109765,109779,109801,109821,109836,109846,109867,109884,109900,109913,109933,109950,109970,109986,109997,110012,110028,110053,110068,110081,110097,110119,110137,110150,110163,110179,110197,110213,110236,110255,110269,110286,110298,110313,110337,110353,110366,110388,110398,110420,110431,110451,110469,110486,110504,110516,110529,110551,110566,110582,110601,110619,110633,110646,110668,110686,110704,110716,110732,110751,110765,110786,110803,110816,110830,110852,110873,110882,110905,110924,110933,110946,110967,110991,111000,111012,111033,111046,111064,111085,111119,111138,111149,111162,111186,111200,111217,111230,111253,111269,111279,111303,111322,111339,111348,111366,111389,111398,111415,111437,111452,111470,111485,111497,111517,111534,111551,111566,111580,111599,111616,111629,111656],"hit":[null],"x":[-1.6054421768707483,-1.6054421768707483,-1.6054421768707483,-1.6054421768707483,-1.6054421768707483,-1.6054421768707483,-1.6054421768707483,-1.6054421768707483,-1.6054421768707483,-1.6054421768707483,-1.6054421768707483,-1.6054421768707483,-1.6054421768707483,-1.6054421768707483,-1.6054421768707483,-1.6054421768707483,-0.013605442176870748,-0.02040816326530612,-0.030612244897959183,-0.03741496598639456,-0.03741496598639456,-0.03741496598639456,-0.03741496598639456,-0.03741496598639456,-0.03741496598639456,-0.03741496598639456,-0.03741496598639456,-0.03741496598639456,-0.04081632653061224,-0.05442176870748299,-0.07482993197278912,-0.10204081632653061,-0.12585034013605442,-0.12585034013605442,-0.12585034013605442,-0.12585034013605442,-0.12585034013605442,-0.12585034013605442,-0.12585034013605442,-0.12585034013605442,-0.12585034013605442,-0.12585034013605442,-0.12585034013605442,-0.12585034013605442,-0.12585034013605442,-0.12585034013605442,-0.12585034013605442,-0.12585034013605442,-0.12585034013605442,-0.12585034013605442,-0.12585034013605442,-0.12585034013605442,-0.12585034013605442,-0.12585034013605442,-0.12585034013605442,-0.12585034013605442,-0.12585034013605442,-0.12585034013605442,-0.12585034013605442,-0.12585034013605442,-0.12585034013605442,-0.12585034013605442,-0.12585034013605442,-0.12585034013605442,-0.12585034013605442,-0.12585034013605442,-0.12585034013605442,-0.12585034013605442,-0.12244897959183673,-0.10204081632653061,-0.08843537414965986,-0.0782312925170068,-0.07482993197278912,-0.06802721088435375,-0.06462585034013606,-0.05782312925170068,-0.05442176870748299,-0.047619047619047616,-0.04421768707482993,-0.04081632653061224,-0.03741496598639456,-0.030612244897959183,-0.023809523809523808,-0.02040816326530612,-0.013605442176870748,-0.006802721088435374,0,0.006802721088435374,0.02040816326530612,0.030612244897959183,0.04421768707482993,0.061224489795918366,0.08503401360544217,0.10204081632653061,0.11564625850340136,0.1292517006802721,0.14285714285714285,0.1598639455782313,0.17687074829931973,0.20068027210884354,0.22448979591836735,0.24149659863945577,0.25510204081632654,0.2653061224489796,0.272108843537415,0.272108843537415,0.2789115646258503,0.2789115646258503,0.2789115646258503,0.282312925170068,0.2857142857142857,0.2857142857142857,0.2891156462585034,0.2925170068027211,0.2925170068027211,0.29591836734693877,0.29931972789115646,0.29931972789115646,0.29931972789115646,0.29931972789115646,0.29931972789115646,0.29931972789115646,0.29931972789115646,0.29931972789115646,0.29931972789115646,0.29931972789115646,0.29931972789115646,0.29931972789115646,0.29931972789115646,0.29931972789115646,0.29931972789115646,0.29931972789115646,0.29931972789115646,0.29931972789115646,0.29931972789115646,0.29931972789115646,0.29931972789115646,0.29931972789115646,0.29931972789115646,0.29931972789115646,0.29931972789115646,0.29931972789115646,0.29931972789115646,0.29931972789115646,0.29931972789115646,0.29931972789115646,0.29931972789115646,0.29931972789115646,0.29931972789115646,0.29931972789115646,0.29931972789115646,0.29931972789115646,0.29931972789115646,0.29931972789115646,0.29931972789115646,0.29931972789115646,0.29931972789115646,0.29931972789115646,0.29931972789115646,0.29931972789115646,0.29931972789115646,0.29931972789115646,0.29931972789115646,0.29931972789115646,0.29931972789115646,0.29931972789115646,0.29931972789115646,0.29931972789115646,0.29931972789115646,0.29931972789115646,0.29931972789115646,0.29931972789115646,0.29931972789115646,0.29931972789115646,0.29931972789115646,0.29931972789115646,0.29931972789115646,0.29931972789115646,0.29931972789115646,0.29931972789115646,0.29931972789115646,0.29931972789115646,0.29931972789115646,0.29931972789115646,0.29931972789115646,0.29931972789115646,0.29931972789115646,0.29931972789115646,0.29931972789115646,0.29931972789115646,0.29931972789115646,0.29931972789115646,0.29931972789115646,0.29931972789115646,0.29931972789115646,0.29931972789115646,0.29931972789115646,0.29931972789115646,0.29931972789115646,0.29931972789115646,0.29931972789115646,0.29931972789115646,0.29931972789115646,0.29931972789115646,0.29931972789115646,0.29931972789115646,0.29931972789115646,0.29931972789115646,0.29931972789115646,0.29931972789115646,0.29931972789115646,0.29931972789115646,0.29931972789115646,0.29931972789115646,0.29931972789115646,0.29931972789115646,0.29931972789115646,0.29931972789115646,0.29931972789115646,0.29931972789115646,0.29931972789115646,0.29931972789115646,0.29931972789115646,0.29931972789115646,0.29931972789115646,0.29931972789115646,0.29931972789115646,0.29931972789115646,0.29931972789115646,0.29931972789115646,0.29931972789115646,0.29931972789115646,0.29931972789115646,0.29931972789115646,0.29931972789115646,0.29931972789115646,0.29931972789115646,0.29931972789115646,0.29931972789115646,0.29931972789115646,0.29931972789115646,0.29931972789115646,0.29931972789115646,0.29931972789115646,0.29931972789115646,0.29931972789115646,0.29931972789115646,0.29931972789115646,0.29931972789115646,0.29931972789115646,0.29931972789115646,0.29931972789115646,0.29931972789115646,0.29931972789115646,0.29931972789115646,0.29931972789115646,0.29931972789115646,0.29931972789115646,0.29931972789115646,0.29931972789115646,0.29931972789115646,0.29931972789115646,0.29931972789115646,0.29931972789115646,0.29931972789115646,0.29931972789115646,0.29931972789115646,0.29931972789115646,0.29931972789115646,0.29931972789115646,0.29931972789115646,0.29931972789115646,0.29931972789115646,0.29931972789115646,0.29931972789115646,0.29931972789115646,0.29931972789115646,0.29931972789115646,0.29931972789115646,0.29931972789115646,0.29931972789115646,0.29931972789115646,0.29931972789115646,0.29931972789115646,0.29931972789115646,0.29931972789115646,0.29931972789115646,0.29931972789115646,0.29931972789115646,0.29931972789115646,0.29931972789115646,0.29931972789115646,0.29931972789115646,0.29931972789115646,0.29931972789115646,0.29931972789115646,0.29931972789115646,0.29931972789115646,0.29931972789115646,0.29931972789115646,0.29931972789115646,0.29931972789115646,0.29931972789115646,0.29931972789115646,0.29931972789115646,0.29931972789115646,0.29931972789115646,0.29931972789115646,0.29931972789115646,0.29931972789115646,0.29931972789115646,0.29931972789115646,0.29931972789115646,0.29931972789115646,0.2789115646258503,0.24829931972789115,0.24829931972789115,0.23129251700680273,0.2108843537414966,0.20408163265306123,0.19387755102040816,0.17687074829931973,0.17346938775510204,0.17346938775510204,0.17006802721088435,0.17006802721088435,0.17006802721088435,0.17006802721088435,0.17006802721088435,0.17006802721088435,0.17006802721088435,0.17006802721088435,0.17006802721088435,0.17006802721088435,0.17006802721088435,0.17687074829931973,0.19047619047619047,0.20748299319727892,0.22448979591836735,0.24489795918367346,0.2687074829931973,0.2857142857142857,0.2857142857142857,0.2857142857142857,0.30612244897959184,0.32653061224489793,0.3435374149659864,0.36054421768707484,0.38095238095238093,0.38095238095238093,0.38095238095238093,0.38095238095238093,0.38095238095238093,0.38095238095238093,0.3843537414965986,0.3877551020408163,0.3877551020408163,0.3877551020408163,0.3877551020408163,0.3877551020408163,0.3877551020408163,0.3877551020408163,0.3877551020408163,0.3877551020408163,0.3877551020408163,0.3877551020408163,0.3877551020408163,0.3877551020408163,0.3877551020408163,0.3877551020408163,0.3877551020408163,0.3877551020408163,0.4013605442176871,0.40816326530612246,0.40816326530612246,0.40816326530612246,0.40816326530612246,0.40816326530612246,0.40816326530612246,0.41496598639455784,0.41496598639455784,0.41496598639455784,0.41496598639455784,0.41496598639455784,0.40816326530612246,0.40816326530612246,0.40816326530612246,0.40816326530612246,0.40476190476190477,0.4013605442176871,0.4013605442176871,0.3979591836734694,0.3979591836734694,0.3979591836734694,0.3979591836734694,0.3945578231292517,0.3945578231292517,0.391156462585034,0.391156462585034,0.391156462585034,0.391156462585034,0.391156462585034,0.391156462585034,0.391156462585034,0.391156462585034,0.391156462585034,0.391156462585034,0.391156462585034,0.391156462585034,0.391156462585034,0.391156462585034,0.391156462585034,0.391156462585034,0.391156462585034,0.391156462585034,0.391156462585034,0.391156462585034,0.391156462585034,0.391156462585034,0.391156462585034,0.391156462585034,0.391156462585034,0.391156462585034,0.391156462585034,0.391156462585034,0.391156462585034,0.391156462585034,0.391156462585034,0.391156462585034,0.391156462585034,0.391156462585034,0.391156462585034,0.391156462585034,0.391156462585034,0.391156462585034,0.391156462585034,0.391156462585034,0.391156462585034,0.391156462585034,0.3877551020408163,0.3877551020408163,0.3877551020408163,0.3877551020408163,0.3877551020408163,0.3877551020408163,0.3843537414965986,0.3843537414965986,0.38095238095238093,0.38095238095238093,0.38095238095238093,0.38095238095238093,0.38095238095238093,0.3707482993197279,0.35374149659863946,0.3333333333333333,0.3231292517006803,0.30952380952380953,0.29931972789115646,0.29591836734693877,0.29591836734693877,0.29591836734693877,0.29591836734693877,0.29591836734693877,0.29591836734693877,0.29591836734693877,0.29591836734693877,0.29591836734693877,0.29591836734693877,0.29591836734693877,0.29591836734693877,0.29591836734693877,0.29591836734693877,0.29591836734693877,0.29591836734693877,0.29591836734693877,0.29591836734693877,0.29591836734693877,0.29591836734693877,0.29591836734693877,0.29591836734693877,0.29591836734693877,0.29591836734693877,0.29591836734693877,0.29591836734693877,0.29591836734693877,0.29591836734693877,0.29591836734693877,0.29591836734693877,0.2925170068027211,0.2925170068027211,0.2891156462585034,0.282312925170068,0.2789115646258503,0.2755102040816326,0.2755102040816326,0.2755102040816326,0.2755102040816326,0.2755102040816326,0.2755102040816326,0.2755102040816326,0.2755102040816326,0.2755102040816326,0.2755102040816326,0.2755102040816326,0.2755102040816326,0.2755102040816326,0.2755102040816326,0.2755102040816326,0.2755102040816326,0.2755102040816326,0.2755102040816326,0.2755102040816326,0.2755102040816326,0.2755102040816326,0.2755102040816326,0.2755102040816326,0.2755102040816326,0.2755102040816326,0.2755102040816326,0.2755102040816326,0.2755102040816326,0.2755102040816326,0.2755102040816326,0.2755102040816326,0.2755102040816326,0.2755102040816326,0.2755102040816326,0.2755102040816326,0.2755102040816326,0.2755102040816326,0.2755102040816326,0.2755102040816326,0.2755102040816326,0.2755102040816326,0.2755102040816326,0.2755102040816326,0.2755102040816326,0.2755102040816326,0.2755102040816326,0.2755102040816326,0.2755102040816326,0.2755102040816326,0.2755102040816326,0.2755102040816326,0.2755102040816326,0.2755102040816326,0.2755102040816326,0.2755102040816326,0.2755102040816326,0.2755102040816326,0.2755102040816326,0.2755102040816326,0.2755102040816326,0.2755102040816326,0.2755102040816326,0.2755102040816326,0.2755102040816326,0.2755102040816326,0.2755102040816326,0.2755102040816326,0.2755102040816326,0.2755102040816326,0.2755102040816326,0.2755102040816326,0.2755102040816326,0.2755102040816326,0.2755102040816326,0.2755102040816326,0.2755102040816326,0.2755102040816326,0.2755102040816326,0.2755102040816326,0.2755102040816326,0.2755102040816326,0.2755102040816326,0.2755102040816326,0.2755102040816326,0.2755102040816326,0.2755102040816326,0.2755102040816326,0.2755102040816326,0.2755102040816326,0.2755102040816326,0.2755102040816326,0.2755102040816326,0.2755102040816326,0.2755102040816326,0.2755102040816326,0.2755102040816326,0.2755102040816326,0.2755102040816326,0.2755102040816326,0.2755102040816326,0.2755102040816326,0.2755102040816326,0.2755102040816326,0.2755102040816326,0.2755102040816326,0.2755102040816326,0.2755102040816326,0.2755102040816326,0.2755102040816326,0.2755102040816326,0.2755102040816326,0.2755102040816326,0.2755102040816326,0.2755102040816326,0.2755102040816326,0.2755102040816326,0.2755102040816326,0.2755102040816326,0.2755102040816326,0.2755102040816326,0.2755102040816326,0.2755102040816326,0.2755102040816326,0.2755102040816326,0.2755102040816326,0.2755102040816326,0.2755102040816326,0.2755102040816326,0.2755102040816326,0.2755102040816326,0.2755102040816326,0.2755102040816326,0.2925170068027211,0.30612244897959184,0.3299319727891156,0.3333333333333333,0.36054421768707484,0.37755102040816324,0.37755102040816324,0.38095238095238093,0.3877551020408163,0.3877551020408163,0.3979591836734694,0.4387755102040816,0.47959183673469385,0.48299319727891155,0.48299319727891155,0.48299319727891155,0.48299319727891155,0.5034013605442177,0.5102040816326531,0.5170068027210885,0.5238095238095238,0.5272108843537415,0.5272108843537415,0.5272108843537415,0.5306122448979592,0.5408163265306123,0.5510204081632653,0.5612244897959183,0.5680272108843537,0.5748299319727891,0.5816326530612245,0.5816326530612245,0.5816326530612245,0.5850340136054422,0.608843537414966,0.6292517006802721,0.6496598639455783,0.673469387755102,0.673469387755102,0.673469387755102,0.673469387755102,0.673469387755102,0.673469387755102,0.673469387755102,0.673469387755102,0.673469387755102,0.673469387755102,0.673469387755102,0.673469387755102,0.673469387755102,0.673469387755102,0.673469387755102,0.673469387755102,0.673469387755102,0.673469387755102,0.673469387755102,0.673469387755102,0.673469387755102,0.673469387755102,0.673469387755102,0.673469387755102,0.673469387755102,0.673469387755102,0.673469387755102,0.673469387755102,0.673469387755102,0.673469387755102,0.673469387755102,0.673469387755102,0.673469387755102,0.673469387755102,0.673469387755102,0.673469387755102,0.673469387755102,0.673469387755102,0.673469387755102,0.673469387755102,0.673469387755102,0.673469387755102,0.673469387755102,0.673469387755102,0.673469387755102,0.673469387755102,0.673469387755102,0.673469387755102,0.673469387755102,0.673469387755102,0.673469387755102,0.673469387755102,0.673469387755102,0.673469387755102,0.673469387755102,0.673469387755102,0.673469387755102,0.673469387755102,0.673469387755102,0.673469387755102,0.673469387755102,0.673469387755102,0.6700680272108843,0.6666666666666666,0.6666666666666666,0.6632653061224489,0.6598639455782312,0.6598639455782312,0.6598639455782312,0.6598639455782312,0.6598639455782312,0.6598639455782312,0.6598639455782312,0.6598639455782312,0.6564625850340136,0.6564625850340136,0.6564625850340136,0.6564625850340136,0.6564625850340136,0.6530612244897959,0.6530612244897959,0.6530612244897959,0.6530612244897959,0.6530612244897959,0.6530612244897959,0.6530612244897959,0.6530612244897959,0.6530612244897959,0.6530612244897959,0.6530612244897959,0.6530612244897959,0.6530612244897959,0.6530612244897959,0.6530612244897959,0.6530612244897959,0.6530612244897959,0.6530612244897959,0.6530612244897959,0.6530612244897959,0.6530612244897959,0.6530612244897959,0.6530612244897959,0.6530612244897959,0.6530612244897959,0.6530612244897959,0.6530612244897959,0.6530612244897959,0.6530612244897959,0.6530612244897959,0.6530612244897959,0.6530612244897959,0.6530612244897959,0.6530612244897959,0.6496598639455783,0.6428571428571429,0.6326530612244898,0.6258503401360545,0.6190476190476191,0.6122448979591837,0.5986394557823129,0.5816326530612245,0.5714285714285714,0.5714285714285714,0.5714285714285714,0.5476190476190477,0.5408163265306123,0.5408163265306123,0.5408163265306123,0.5408163265306123,0.5408163265306123,0.5170068027210885,0.5034013605442177,0.4897959183673469,0.47619047619047616,0.46938775510204084,0.46258503401360546,0.4523809523809524,0.445578231292517,0.4387755102040816,0.43537414965986393,0.43537414965986393,0.43537414965986393,0.42857142857142855,0.42857142857142855,0.4217687074829932,0.4217687074829932,0.41836734693877553,0.41496598639455784,0.41496598639455784,0.41496598639455784,0.41496598639455784,0.41156462585034015,0.41156462585034015,0.40816326530612246,0.40816326530612246,0.40816326530612246,0.40816326530612246,0.40476190476190477,0.40476190476190477,0.40476190476190477,0.40476190476190477,0.40476190476190477,0.4013605442176871,0.4013605442176871,0.4013605442176871,0.3979591836734694,0.3979591836734694,0.3945578231292517,0.3877551020408163,0.38095238095238093,0.37755102040816324,0.3673469387755102,0.35374149659863946,0.3469387755102041,0.3469387755102041,0.3469387755102041,0.3469387755102041,0.3469387755102041,0.3435374149659864,0.3435374149659864,0.3435374149659864,0.3435374149659864,0.3435374149659864,0.3435374149659864,0.3435374149659864,0.3435374149659864,0.3435374149659864,0.3435374149659864,0.3435374149659864,0.3401360544217687,0.3401360544217687,0.3401360544217687,0.3401360544217687,0.3401360544217687,0.3401360544217687,0.3401360544217687,0.3401360544217687,0.3401360544217687,0.3401360544217687,0.3401360544217687,0.3401360544217687,0.3401360544217687,0.3401360544217687,0.3401360544217687,0.3401360544217687,0.3401360544217687,0.3401360544217687,0.3401360544217687,0.3401360544217687,0.3401360544217687,0.3401360544217687,0.3333333333333333,0.3333333333333333,0.3333333333333333,0.3333333333333333,0.3333333333333333,0.3333333333333333,0.3333333333333333,0.3333333333333333,0.3333333333333333,0.3333333333333333,0.3333333333333333,0.3333333333333333,0.3333333333333333,0.3333333333333333,0.3333333333333333,0.3333333333333333,0.3333333333333333,0.3333333333333333,0.3333333333333333,0.3333333333333333,0.3333333333333333,0.3333333333333333,0.3333333333333333,0.3333333333333333,0.3333333333333333,0.3333333333333333,0.3333333333333333,0.3333333333333333,0.3333333333333333,0.3333333333333333,0.3333333333333333,0.3299319727891156,0.30952380952380953,0.30612244897959184,0.30612244897959184,0.29931972789115646,0.2857142857142857,0.272108843537415,0.2585034013605442,0.25170068027210885,0.24489795918367346,0.24489795918367346,0.24489795918367346,0.24829931972789115,0.2585034013605442,0.2585034013605442,0.2585034013605442,0.2585034013605442,0.2585034013605442,0.2585034013605442,0.25510204081632654,0.25170068027210885,0.25170068027210885,0.25170068027210885,0.25170068027210885,0.25170068027210885,0.25170068027210885,0.25170068027210885,0.25170068027210885,0.25170068027210885,0.25170068027210885,0.25170068027210885,0.25170068027210885,0.25170068027210885,0.25170068027210885,0.25170068027210885,0.25170068027210885,0.25170068027210885,0.25170068027210885,0.25170068027210885,0.25170068027210885,0.25170068027210885,0.25170068027210885,0.25170068027210885,0.25170068027210885,0.25170068027210885,0.25170068027210885,0.25170068027210885,0.25170068027210885,0.25170068027210885,0.25170068027210885,0.25170068027210885,0.25170068027210885,0.25170068027210885,0.25170068027210885,0.25170068027210885,0.25170068027210885,0.25170068027210885,0.25170068027210885,0.25170068027210885,0.25170068027210885,0.25170068027210885,0.25170068027210885,0.25170068027210885,0.25170068027210885,0.25170068027210885,0.25170068027210885,0.25170068027210885,0.25170068027210885,0.25170068027210885,0.25510204081632654,0.2585034013605442,0.2653061224489796,0.2687074829931973,0.272108843537415,0.272108843537415,0.272108843537415,0.272108843537415,0.272108843537415,0.272108843537415,0.272108843537415,0.272108843537415,0.272108843537415,0.272108843537415,0.272108843537415,0.272108843537415,0.272108843537415,0.272108843537415,0.2755102040816326,0.2789115646258503,0.2789115646258503,0.2789115646258503,0.2789115646258503,0.2789115646258503,0.2789115646258503,0.282312925170068,0.282312925170068,0.282312925170068,0.282312925170068,0.282312925170068,0.2857142857142857,0.2857142857142857,0.2857142857142857,0.2857142857142857,0.2857142857142857,0.2857142857142857,0.2857142857142857,0.2857142857142857,0.2891156462585034,0.2891156462585034,0.2891156462585034,0.2891156462585034,0.2891156462585034,0.2891156462585034,0.2891156462585034,0.2891156462585034,0.2891156462585034,0.2891156462585034,0.30612244897959184,0.3163265306122449,0.3163265306122449,0.3163265306122449,0.3163265306122449,0.3163265306122449,0.3163265306122449,0.3163265306122449,0.3163265306122449,0.3163265306122449,0.3163265306122449,0.3163265306122449,0.3163265306122449,0.3163265306122449,0.3163265306122449,0.3163265306122449,0.3163265306122449,0.3129251700680272,0.3129251700680272,0.3129251700680272,0.3129251700680272,0.3129251700680272,0.3129251700680272,0.3129251700680272,0.30952380952380953,0.30612244897959184,0.30612244897959184,0.29931972789115646,0.29591836734693877,0.2925170068027211,0.2857142857142857,0.2789115646258503,0.2653061224489796,0.2653061224489796,0.2653061224489796,0.2653061224489796,0.2653061224489796,0.2653061224489796,0.2653061224489796,0.2653061224489796,0.2653061224489796,0.2653061224489796,0.2653061224489796,0.2653061224489796,0.2653061224489796,0.2653061224489796,0.2653061224489796,0.2653061224489796,0.2653061224489796,0.2653061224489796,0.2653061224489796,0.2653061224489796,0.2653061224489796,0.2653061224489796,0.2653061224489796,0.2653061224489796,0.2653061224489796,0.2653061224489796,0.2653061224489796,0.2653061224489796,0.2653061224489796,0.272108843537415,0.2789115646258503,0.2789115646258503,0.2789115646258503,0.2789115646258503,0.2789115646258503,0.2755102040816326,0.272108843537415,0.272108843537415,0.272108843537415,0.272108843537415,0.272108843537415,0.2789115646258503,0.2789115646258503,0.2789115646258503,0.2789115646258503,0.282312925170068,0.2857142857142857,0.2857142857142857,0.2925170068027211,0.29591836734693877,0.29591836734693877,0.29591836734693877,0.29591836734693877,0.29591836734693877,0.29591836734693877,0.29591836734693877,0.29591836734693877,0.29591836734693877,0.29591836734693877,0.29591836734693877,0.29591836734693877,0.29591836734693877,0.29591836734693877,0.29591836734693877,0.29591836734693877,0.29591836734693877,0.29591836734693877,0.29591836734693877,0.29591836734693877,0.29591836734693877,0.29591836734693877,0.29591836734693877,0.29591836734693877,0.29591836734693877,0.29591836734693877,0.29591836734693877,0.29591836734693877,0.29591836734693877,0.29591836734693877,0.29931972789115646,0.29931972789115646,0.29931972789115646,0.30272108843537415,0.30612244897959184,0.30612244897959184,0.30612244897959184,0.30612244897959184,0.30612244897959184,0.30952380952380953,0.30952380952380953,0.30952380952380953,0.30952380952380953,0.30952380952380953,0.3129251700680272,0.3129251700680272,0.3129251700680272,0.3129251700680272,0.3129251700680272,0.3129251700680272,0.3129251700680272,0.3129251700680272,0.3129251700680272,0.3129251700680272,0.3129251700680272,0.3129251700680272,0.3129251700680272,0.3129251700680272,0.3163265306122449,0.3163265306122449,0.3163265306122449,0.3163265306122449,0.3163265306122449,0.3163265306122449,0.3163265306122449,0.3163265306122449,0.3163265306122449,0.3163265306122449,0.3163265306122449,0.3163265306122449,0.3163265306122449,0.3163265306122449,0.3163265306122449,0.3163265306122449,0.3163265306122449,0.3163265306122449,0.3163265306122449,0.3197278911564626,0.3197278911564626,0.3197278911564626,0.3231292517006803,0.3231292517006803,0.3231292517006803,0.3231292517006803,0.3231292517006803,0.3231292517006803,0.3231292517006803,0.3231292517006803,0.3231292517006803,0.3231292517006803,0.3231292517006803,0.3231292517006803,0.3231292517006803,0.3231292517006803,0.3231292517006803,0.3231292517006803,0.3231292517006803,0.3231292517006803,0.3231292517006803,0.3231292517006803,0.3231292517006803,0.3231292517006803,0.3231292517006803,0.3197278911564626,0.3129251700680272,0.29931972789115646,0.2925170068027211,0.2755102040816326,0.2619047619047619,0.2619047619047619,0.2619047619047619,0.2619047619047619,0.23129251700680273,0.2108843537414966,0.19047619047619047,0.19047619047619047,0.19047619047619047,0.19047619047619047,0.19047619047619047,0.19047619047619047,0.19047619047619047,0.19047619047619047,0.19047619047619047,0.19047619047619047,0.19047619047619047,0.19047619047619047,0.19047619047619047,0.19047619047619047,0.19047619047619047,0.19047619047619047,0.19047619047619047,0.19047619047619047,0.19047619047619047,0.19047619047619047,0.19047619047619047,0.19047619047619047,0.19047619047619047,0.19047619047619047,0.19047619047619047,0.19047619047619047,0.19047619047619047,0.19047619047619047,0.19047619047619047,0.19047619047619047,0.19047619047619047,0.19047619047619047,0.19047619047619047,0.19047619047619047,0.19047619047619047,0.19047619047619047,0.19047619047619047,0.19047619047619047,0.19047619047619047,0.19047619047619047,0.19047619047619047,0.19047619047619047,0.21428571428571427,0.22448979591836735,0.22789115646258504,0.22789115646258504,0.22789115646258504,0.23129251700680273,0.23129251700680273,0.23129251700680273,0.23129251700680273,0.23129251700680273,0.23129251700680273,0.23129251700680273,0.23129251700680273,0.23809523809523808,0.24149659863945577,0.24489795918367346,0.2585034013605442,0.282312925170068,0.29931972789115646,0.29931972789115646,0.3197278911564626,0.35034013605442177,0.3673469387755102,0.3673469387755102,0.3673469387755102,0.3707482993197279,0.3707482993197279,0.3707482993197279,0.3707482993197279,0.3707482993197279,0.3707482993197279,0.3707482993197279,0.3707482993197279,0.3707482993197279,0.3707482993197279,0.3707482993197279,0.3707482993197279,0.3741496598639456,0.3741496598639456,0.3741496598639456,0.3741496598639456,0.3741496598639456,0.3741496598639456,0.3741496598639456,0.3741496598639456,0.3741496598639456,0.3741496598639456,0.3741496598639456,0.3741496598639456,0.3741496598639456,0.3741496598639456,0.3741496598639456,0.3741496598639456,0.3741496598639456,0.3741496598639456,0.3741496598639456,0.3741496598639456,0.3741496598639456,0.3741496598639456,0.40476190476190477,0.4421768707482993,0.4421768707482993,0.4421768707482993,0.46598639455782315,0.47959183673469385,0.4931972789115646,0.5238095238095238,0.5510204081632653,0.5714285714285714,0.5816326530612245,0.5850340136054422,0.5850340136054422,0.5850340136054422,0.5850340136054422,0.5850340136054422,0.5850340136054422,0.5850340136054422,0.5850340136054422,0.5850340136054422,0.5850340136054422,0.5850340136054422,0.5850340136054422,0.5850340136054422,0.5850340136054422,0.5850340136054422,0.5850340136054422,0.608843537414966,0.6122448979591837,0.6394557823129252,0.6530612244897959,0.6802721088435374,0.7346938775510204,0.7619047619047619,0.7653061224489796,0.7653061224489796,0.7653061224489796,0.7653061224489796,0.7653061224489796,0.7653061224489796,0.7653061224489796,0.7653061224489796,0.7653061224489796,0.7653061224489796,0.7653061224489796,0.7653061224489796,0.7653061224489796,0.7653061224489796,0.7653061224489796,0.7653061224489796,0.7653061224489796,0.7653061224489796,0.7653061224489796,0.8129251700680272,0.8775510204081632,0.9081632653061225,0.9319727891156463,0.9489795918367347,0.9523809523809523,0.9523809523809523,0.9523809523809523,0.9523809523809523,0.9523809523809523,0.9523809523809523,0.9523809523809523,0.9523809523809523,0.9523809523809523,0.9523809523809523,0.9523809523809523,0.9523809523809523,0.9523809523809523,0.9523809523809523,0.9523809523809523,0.9523809523809523,0.9523809523809523,0.9523809523809523,0.9523809523809523,0.9523809523809523,0.9523809523809523,0.9523809523809523,0.9523809523809523,0.9523809523809523,0.9523809523809523,0.95578231292517,0.9523809523809523,0.9523809523809523,0.9455782312925171,0.9387755102040817,0.9319727891156463,0.9251700680272109,0.9251700680272109,0.9251700680272109,0.9183673469387755,0.9115646258503401,0.9115646258503401,0.9115646258503401,0.9013605442176871,0.9013605442176871,0.9013605442176871,0.8945578231292517,0.8843537414965986,0.8843537414965986,0.8843537414965986,0.8843537414965986,0.8843537414965986,0.8843537414965986,0.8809523809523809,0.8809523809523809,0.8809523809523809,0.8809523809523809,0.8809523809523809,0.8809523809523809,0.8809523809523809,0.8809523809523809,0.8809523809523809,0.8809523809523809,0.8809523809523809,0.8809523809523809,0.8809523809523809,0.8809523809523809,0.8809523809523809,0.8809523809523809,0.8809523809523809,0.8809523809523809,0.8809523809523809,0.8809523809523809,0.8809523809523809,0.8809523809523809,0.8809523809523809,0.8809523809523809,0.8809523809523809,0.8809523809523809,0.8809523809523809,0.8809523809523809,0.8809523809523809,0.8809523809523809,0.8809523809523809,0.8809523809523809,0.8809523809523809,0.8809523809523809,0.8809523809523809,0.8809523809523809,0.8809523809523809,0.8809523809523809,0.8809523809523809,0.8809523809523809,0.8809523809523809,0.8809523809523809,0.8809523809523809,0.8809523809523809,0.8809523809523809,0.8809523809523809,0.8809523809523809,0.8809523809523809,0.8809523809523809,0.8809523809523809,0.8809523809523809,0.8809523809523809,0.8809523809523809,0.8809523809523809,0.8809523809523809,0.8809523809523809,0.8809523809523809,0.8809523809523809,0.8809523809523809,0.8809523809523809,0.8809523809523809,0.8809523809523809,0.8809523809523809,0.8809523809523809,0.8809523809523809,0.8809523809523809,0.8809523809523809,0.8809523809523809,0.8809523809523809,0.8809523809523809,0.8809523809523809,0.8809523809523809,0.8809523809523809,0.8809523809523809,0.8809523809523809,0.8775510204081632,0.8775510204081632,0.8775510204081632,0.8775510204081632,0.8775510204081632,0.8775510204081632,0.8775510204081632,0.8775510204081632,0.8775510204081632,0.8775510204081632,0.8775510204081632,0.8775510204081632,0.8775510204081632,0.8775510204081632,0.8775510204081632,0.8775510204081632,0.8775510204081632,0.8775510204081632,0.8775510204081632,0.8775510204081632,0.8775510204081632,0.8775510204081632,0.8775510204081632,0.8775510204081632,0.8775510204081632,0.8775510204081632,0.8775510204081632,0.8775510204081632,0.8775510204081632,0.8775510204081632,0.8775510204081632,0.8775510204081632,0.8775510204081632,0.8775510204081632,0.8775510204081632,0.8775510204081632,0.8775510204081632,0.