"success","trial_type","trial_index","time_elapsed","internal_node_id","protocol_sum","subject_identifier","subject_sum","subject_pair","STUDY_ID","PROLIFIC_PID","SESSION_ID","practice_instructions","leaderboard_instructions","bonus","reveal_word","self_rating","confidence","view_history","rt","responses","question_order","correct","test_part","word","final_keyboard_state","num_clicks","points","cheat","position_RT","position","player","i_game","true_position","distance","last_word","response","stimulus","confidence_slider_self_response"
"true","fullscreen",0,9117,"0.0-0.0",NA,530,"118,139,132,239,5,246,85,213,127,226,45,72,132,81,240,117,54,95,108,209,138,19,7,52,102,170,130,108,192,235,219,251",265,"66a3ed3c5d10d0e7d8a6b9da","66441c9e616f79e9d27738d3","66a46a9e2a651831942096be",1,0,0,"false",6,0,"",NA,"","","","","","",NA,NA,"",NA,NA,NA,NA,NA,NA,"",NA,"",NA
"","instructions",1,14640,"0.0-1.0",NA,530,"118,139,132,239,5,246,85,213,127,226,45,72,132,81,240,117,54,95,108,209,138,19,7,52,102,170,130,108,192,235,219,251",265,"66a3ed3c5d10d0e7d8a6b9da","66441c9e616f79e9d27738d3","66a46a9e2a651831942096be",1,0,0,"false",6,0,"[{""page_index"":0,""viewing_time"":5520.70000000298}]",5521.40000000596,"","","","","","",NA,NA,"",NA,NA,NA,NA,NA,NA,"",NA,"",NA
"","instructions",2,32352,"0.0-2.0-0.0",NA,530,"118,139,132,239,5,246,85,213,127,226,45,72,132,81,240,117,54,95,108,209,138,19,7,52,102,170,130,108,192,235,219,251",265,"66a3ed3c5d10d0e7d8a6b9da","66441c9e616f79e9d27738d3","66a46a9e2a651831942096be",1,0,0,"false",6,0,"[{""page_index"":0,""viewing_time"":17710.5}]",17711,"","","","","","",NA,NA,"",NA,NA,NA,NA,NA,NA,"",NA,"",NA
"","survey-multi-choice",3,39193,"0.0-2.0-1.0",NA,530,"118,139,132,239,5,246,85,213,127,226,45,72,132,81,240,117,54,95,108,209,138,19,7,52,102,170,130,108,192,235,219,251",265,"66a3ed3c5d10d0e7d8a6b9da","66441c9e616f79e9d27738d3","66a46a9e2a651831942096be",1,0,0,"false",6,0,"",6838.09999999404,"{""Q0"":""... reveal the word with as <b>few letter guesses</b> as possible""}","[0]","true","multichoice_nonpretend","","",NA,NA,"",NA,NA,NA,NA,NA,NA,"",NA,"",NA
"","instructions",4,40640,"0.0-3.0",NA,530,"118,139,132,239,5,246,85,213,127,226,45,72,132,81,240,117,54,95,108,209,138,19,7,52,102,170,130,108,192,235,219,251",265,"66a3ed3c5d10d0e7d8a6b9da","66441c9e616f79e9d27738d3","66a46a9e2a651831942096be",1,0,0,"false",6,0,"[{""page_index"":0,""viewing_time"":1445.2000000029802}]",1445.60000000894,"","","","","","",NA,NA,"",NA,NA,NA,NA,NA,NA,"",NA,"",NA
"","Hangman",5,74789,"0.0-4.0",NA,530,"118,139,132,239,5,246,85,213,127,226,45,72,132,81,240,117,54,95,108,209,138,19,7,52,102,170,130,108,192,235,219,251",265,"66a3ed3c5d10d0e7d8a6b9da","66441c9e616f79e9d27738d3","66a46a9e2a651831942096be",1,0,0,"false",6,0,"",NA,"","","","","ZEBRA","A,T,S,O,I,M,K,J,B,E,Z,R",12,8,"false",NA,NA,NA,NA,NA,NA,"",NA,"",NA
"","instructions",6,86864,"0.0-5.0",NA,530,"118,139,132,239,5,246,85,213,127,226,45,72,132,81,240,117,54,95,108,209,138,19,7,52,102,170,130,108,192,235,219,251",265,"66a3ed3c5d10d0e7d8a6b9da","66441c9e616f79e9d27738d3","66a46a9e2a651831942096be",1,0,0,"false",6,0,"[{""page_index"":0,""viewing_time"":1912.800000011921},{""page_index"":1,""viewing_time"":10159.699999988079}]",12073.400000006,"","","","","","",NA,NA,"",NA,NA,NA,NA,NA,NA,"",NA,"",NA
"","survey-multi-choice",7,95416,"0.0-6.0",NA,530,"118,139,132,239,5,246,85,213,127,226,45,72,132,81,240,117,54,95,108,209,138,19,7,52,102,170,130,108,192,235,219,251",265,"66a3ed3c5d10d0e7d8a6b9da","66441c9e616f79e9d27738d3","66a46a9e2a651831942096be",1,0,0,"false",6,0,"",8550.5,"{""Q0"":""...from <b>a previous session</b> that is not part of the upcoming tournament.""}","[0]","true","multichoice_leaderboard","","",NA,NA,"",NA,NA,NA,NA,NA,NA,"",NA,"",NA
"","instructions",8,103879,"0.0-8.0",NA,530,"118,139,132,239,5,246,85,213,127,226,45,72,132,81,240,117,54,95,108,209,138,19,7,52,102,170,130,108,192,235,219,251",265,"66a3ed3c5d10d0e7d8a6b9da","66441c9e616f79e9d27738d3","66a46a9e2a651831942096be",1,0,0,"false",6,0,"[{""page_index"":0,""viewing_time"":8462.199999988079}]",8462.5,"","","","","","",NA,NA,"",NA,NA,NA,NA,NA,NA,"",NA,"",NA
"","survey-multi-choice",9,111095,"0.0-9.0",NA,530,"118,139,132,239,5,246,85,213,127,226,45,72,132,81,240,117,54,95,108,209,138,19,7,52,102,170,130,108,192,235,219,251",265,"66a3ed3c5d10d0e7d8a6b9da","66441c9e616f79e9d27738d3","66a46a9e2a651831942096be",1,0,0,"false",6,0,"",7215,"{""Q0"":""...players' leaderboard position (in terms of <b>points</b>) in an <b>upcoming tournament.</b>""}","[0]","true","multichoice_tournament","","",NA,NA,"",NA,NA,NA,NA,NA,NA,"",NA,"",NA
"","instructions",10,123847,"0.0-11.0",NA,530,"118,139,132,239,5,246,85,213,127,226,45,72,132,81,240,117,54,95,108,209,138,19,7,52,102,170,130,108,192,235,219,251",265,"66a3ed3c5d10d0e7d8a6b9da","66441c9e616f79e9d27738d3","66a46a9e2a651831942096be",1,0,0,"false",6,0,"[{""page_index"":0,""viewing_time"":12750.70000000298}]",12751,"","","","","","",NA,NA,"",NA,NA,NA,NA,NA,NA,"",NA,"",NA
"","instructions",11,130767,"0.0-12.0-0.0",NA,530,"118,139,132,239,5,246,85,213,127,226,45,72,132,81,240,117,54,95,108,209,138,19,7,52,102,170,130,108,192,235,219,251",265,"66a3ed3c5d10d0e7d8a6b9da","66441c9e616f79e9d27738d3","66a46a9e2a651831942096be",1,0,0,"false",6,0,"[{""page_index"":0,""viewing_time"":6918.899999991059}]",6919.29999999702,"","","","","","",NA,NA,"",NA,NA,NA,NA,NA,NA,"",NA,"",NA
"","Hangman_replay",12,210904,"0.0-12.0-1.0",NA,530,"118,139,132,239,5,246,85,213,127,226,45,72,132,81,240,117,54,95,108,209,138,19,7,52,102,170,130,108,192,235,219,251",265,"66a3ed3c5d10d0e7d8a6b9da","66441c9e616f79e9d27738d3","66a46a9e2a651831942096be",1,0,0,"false",6,0,"",NA,"","","","","NECTARINE","P,E,A,S,F,C,U,M,H,R,N,T,I",13,9,"false",NA,NA,NA,NA,NA,NA,"",NA,"",NA
"","instructions",13,213537,"0.0-12.0-2.0",NA,530,"118,139,132,239,5,246,85,213,127,226,45,72,132,81,240,117,54,95,108,209,138,19,7,52,102,170,130,108,192,235,219,251",265,"66a3ed3c5d10d0e7d8a6b9da","66441c9e616f79e9d27738d3","66a46a9e2a651831942096be",1,0,0,"false",6,0,"[{""page_index"":0,""viewing_time"":2631.2000000029802}]",2631.5,"","","","","","",NA,NA,"",NA,NA,NA,NA,NA,NA,"",NA,"",NA
"","Guess_leaderboard",14,219351,"0.0-12.0-3.0",NA,530,"118,139,132,239,5,246,85,213,127,226,45,72,132,81,240,117,54,95,108,209,138,19,7,52,102,170,130,108,192,235,219,251",265,"66a3ed3c5d10d0e7d8a6b9da","66441c9e616f79e9d27738d3","66a46a9e2a651831942096be",1,0,0,"false",6,0,"",NA,"","","","","NECTARINE","",NA,NA,"",5053.09999999404,32,12,0,65,33,"",NA,"",NA
"","instructions",15,222855,"0.0-12.0-0.1",NA,530,"118,139,132,239,5,246,85,213,127,226,45,72,132,81,240,117,54,95,108,209,138,19,7,52,102,170,130,108,192,235,219,251",265,"66a3ed3c5d10d0e7d8a6b9da","66441c9e616f79e9d27738d3","66a46a9e2a651831942096be",1,0,0,"false",6,0,"[{""page_index"":0,""viewing_time"":3502.5}]",3502.89999999106,"","","","","","",NA,NA,"",NA,NA,NA,NA,NA,NA,"",NA,"",NA
"","Hangman_replay",16,245009,"0.0-12.0-1.1",NA,530,"118,139,132,239,5,246,85,213,127,226,45,72,132,81,240,117,54,95,108,209,138,19,7,52,102,170,130,108,192,235,219,251",265,"66a3ed3c5d10d0e7d8a6b9da","66441c9e616f79e9d27738d3","66a46a9e2a651831942096be",1,0,0,"false",6,0,"",NA,"","","","","THIRTY FOUR","T,W,H,I,Y,R,F,O,U",9,14,"false",NA,NA,NA,NA,NA,NA,"",NA,"",NA
"","instructions",17,246232,"0.0-12.0-2.1",NA,530,"118,139,132,239,5,246,85,213,127,226,45,72,132,81,240,117,54,95,108,209,138,19,7,52,102,170,130,108,192,235,219,251",265,"66a3ed3c5d10d0e7d8a6b9da","66441c9e616f79e9d27738d3","66a46a9e2a651831942096be",1,0,0,"false",6,0,"[{""page_index"":0,""viewing_time"":1222.1000000089407}]",1222.60000000894,"","","","","","",NA,NA,"",NA,NA,NA,NA,NA,NA,"",NA,"",NA
"","Guess_leaderboard",18,251388,"0.0-12.0-3.1",NA,530,"118,139,132,239,5,246,85,213,127,226,45,72,132,81,240,117,54,95,108,209,138,19,7,52,102,170,130,108,192,235,219,251",265,"66a3ed3c5d10d0e7d8a6b9da","66441c9e616f79e9d27738d3","66a46a9e2a651831942096be",1,0,0,"false",6,0,"",NA,"","","","","THIRTY FOUR","",NA,NA,"",4391.79999999702,3,42,1,86,83,"",NA,"",NA
"","instructions",19,252905,"0.0-12.0-0.2",NA,530,"118,139,132,239,5,246,85,213,127,226,45,72,132,81,240,117,54,95,108,209,138,19,7,52,102,170,130,108,192,235,219,251",265,"66a3ed3c5d10d0e7d8a6b9da","66441c9e616f79e9d27738d3","66a46a9e2a651831942096be",1,0,0,"false",6,0,"[{""page_index"":0,""viewing_time"":1513.9000000059605}]",1514.90000000596,"","","","","","",NA,NA,"",NA,NA,NA,NA,NA,NA,"",NA,"",NA
"","Hangman_replay",20,280278,"0.0-12.0-1.2",NA,530,"118,139,132,239,5,246,85,213,127,226,45,72,132,81,240,117,54,95,108,209,138,19,7,52,102,170,130,108,192,235,219,251",265,"66a3ed3c5d10d0e7d8a6b9da","66441c9e616f79e9d27738d3","66a46a9e2a651831942096be",1,0,0,"false",6,0,"",NA,"","","","","HAWAII","E,V,I,W,H,A",6,13,"false",NA,NA,NA,NA,NA,NA,"",NA,"",NA
"","instructions",21,281304,"0.0-12.0-2.2",NA,530,"118,139,132,239,5,246,85,213,127,226,45,72,132,81,240,117,54,95,108,209,138,19,7,52,102,170,130,108,192,235,219,251",265,"66a3ed3c5d10d0e7d8a6b9da","66441c9e616f79e9d27738d3","66a46a9e2a651831942096be",1,0,0,"false",6,0,"[{""page_index"":0,""viewing_time"":1024.9000000059605}]",1025.20000000298,"","","","","","",NA,NA,"",NA,NA,NA,NA,NA,NA,"",NA,"",NA
"","Guess_leaderboard",22,284308,"0.0-12.0-3.2",NA,530,"118,139,132,239,5,246,85,213,127,226,45,72,132,81,240,117,54,95,108,209,138,19,7,52,102,170,130,108,192,235,219,251",265,"66a3ed3c5d10d0e7d8a6b9da","66441c9e616f79e9d27738d3","66a46a9e2a651831942096be",1,0,0,"false",6,0,"",NA,"","","","","HAWAII","",NA,NA,"",2245.60000000894,30,86,2,70,40,"",NA,"",NA
"","instructions",23,285279,"0.0-12.0-0.3",NA,530,"118,139,132,239,5,246,85,213,127,226,45,72,132,81,240,117,54,95,108,209,138,19,7,52,102,170,130,108,192,235,219,251",265,"66a3ed3c5d10d0e7d8a6b9da","66441c9e616f79e9d27738d3","66a46a9e2a651831942096be",1,0,0,"false",6,0,"[{""page_index"":0,""viewing_time"":970.5}]",970.800000011921,"","","","","","",NA,NA,"",NA,NA,NA,NA,NA,NA,"",NA,"",NA
"","Hangman_replay",24,338501,"0.0-12.0-1.3",NA,530,"118,139,132,239,5,246,85,213,127,226,45,72,132,81,240,117,54,95,108,209,138,19,7,52,102,170,130,108,192,235,219,251",265,"66a3ed3c5d10d0e7d8a6b9da","66441c9e616f79e9d27738d3","66a46a9e2a651831942096be",1,0,0,"false",6,0,"",NA,"","","","","SHAKIRA","I,S,T,O,A,E,H,K,R",9,12,"false",NA,NA,NA,NA,NA,NA,"",NA,"",NA
"","instructions",25,339736,"0.0-12.0-2.3",NA,530,"118,139,132,239,5,246,85,213,127,226,45,72,132,81,240,117,54,95,108,209,138,19,7,52,102,170,130,108,192,235,219,251",265,"66a3ed3c5d10d0e7d8a6b9da","66441c9e616f79e9d27738d3","66a46a9e2a651831942096be",1,0,0,"false",6,0,"[{""page_index"":0,""viewing_time"":1233.7999999970198}]",1234.09999999404,"","","","","","",NA,NA,"",NA,NA,NA,NA,NA,NA,"",NA,"",NA
"","Guess_leaderboard",26,341229,"0.0-12.0-3.3",NA,530,"118,139,132,239,5,246,85,213,127,226,45,72,132,81,240,117,54,95,108,209,138,19,7,52,102,170,130,108,192,235,219,251",265,"66a3ed3c5d10d0e7d8a6b9da","66441c9e616f79e9d27738d3","66a46a9e2a651831942096be",1,0,0,"false",6,0,"",NA,"","","","","SHAKIRA","",NA,NA,"",728.79999999702,7,57,3,39,32,"",NA,"",NA
"","instructions",27,342281,"0.0-12.0-0.4",NA,530,"118,139,132,239,5,246,85,213,127,226,45,72,132,81,240,117,54,95,108,209,138,19,7,52,102,170,130,108,192,235,219,251",265,"66a3ed3c5d10d0e7d8a6b9da","66441c9e616f79e9d27738d3","66a46a9e2a651831942096be",1,0,0,"false",6,0,"[{""page_index"":0,""viewing_time"":1050.4000000059605}]",1050.90000000596,"","","","","","",NA,NA,"",NA,NA,NA,NA,NA,NA,"",NA,"",NA
"","Hangman_replay",28,388955,"0.0-12.0-1.4",NA,530,"118,139,132,239,5,246,85,213,127,226,45,72,132,81,240,117,54,95,108,209,138,19,7,52,102,170,130,108,192,235,219,251",265,"66a3ed3c5d10d0e7d8a6b9da","66441c9e616f79e9d27738d3","66a46a9e2a651831942096be",1,0,0,"false",6,0,"",NA,"","","","","THUMB","U,M,B,T,H",5,15,"false",NA,NA,NA,NA,NA,NA,"",NA,"",NA
"","instructions",29,390806,"0.0-12.0-2.4",NA,530,"118,139,132,239,5,246,85,213,127,226,45,72,132,81,240,117,54,95,108,209,138,19,7,52,102,170,130,108,192,235,219,251",265,"66a3ed3c5d10d0e7d8a6b9da","66441c9e616f79e9d27738d3","66a46a9e2a651831942096be",1,0,0,"false",6,0,"[{""page_index"":0,""viewing_time"":1850.1000000089407}]",1850.40000000596,"","","","","","",NA,NA,"",NA,NA,NA,NA,NA,NA,"",NA,"",NA
"","Guess_leaderboard",30,392601,"0.0-12.0-3.4",NA,530,"118,139,132,239,5,246,85,213,127,226,45,72,132,81,240,117,54,95,108,209,138,19,7,52,102,170,130,108,192,235,219,251",265,"66a3ed3c5d10d0e7d8a6b9da","66441c9e616f79e9d27738d3","66a46a9e2a651831942096be",1,0,0,"false",6,0,"",NA,"","","","","THUMB","",NA,NA,"",1035.40000000596,60,58,4,33,27,"",NA,"",NA
"","survey-text",31,401768,"0.0-13.0",NA,530,"118,139,132,239,5,246,85,213,127,226,45,72,132,81,240,117,54,95,108,209,138,19,7,52,102,170,130,108,192,235,219,251",265,"66a3ed3c5d10d0e7d8a6b9da","66441c9e616f79e9d27738d3","66a46a9e2a651831942096be",1,0,0,"false",6,0,"",9163.09999999404,"{""Q0"":""""}","","","","","",NA,NA,"",NA,NA,NA,NA,NA,NA,"thumb",NA,"",NA
"","survey-multi-choice",32,412955,"0.0-14.0",NA,530,"118,139,132,239,5,246,85,213,127,226,45,72,132,81,240,117,54,95,108,209,138,19,7,52,102,170,130,108,192,235,219,251",265,"66a3ed3c5d10d0e7d8a6b9da","66441c9e616f79e9d27738d3","66a46a9e2a651831942096be",1,0,0,"false",6,0,"",11183.299999997,"{""Q0"":""6. I would be <b>last</b> out of the six of us.""}","[0]","","self-rating","","",NA,NA,"",NA,6,NA,NA,NA,NA,"",NA,"",NA
"","html-slider-response",33,416408,"0.0-15.0",NA,530,"118,139,132,239,5,246,85,213,127,226,45,72,132,81,240,117,54,95,108,209,138,19,7,52,102,170,130,108,192,235,219,251",265,"66a3ed3c5d10d0e7d8a6b9da","66441c9e616f79e9d27738d3","66a46a9e2a651831942096be",1,0,0,"false",6,0,"",3449.70000000298,"","","","","","",NA,NA,"",NA,NA,NA,NA,NA,NA,"",0,"<p>Overall, how confident were you in your answer to this last question?</p>",0
"","survey-text",34,443512,"0.0-16.0",NA,530,"118,139,132,239,5,246,85,213,127,226,45,72,132,81,240,117,54,95,108,209,138,19,7,52,102,170,130,108,192,235,219,251",265,"66a3ed3c5d10d0e7d8a6b9da","66441c9e616f79e9d27738d3","66a46a9e2a651831942096be",1,0,0,"false",6,0,"",27101.799999997,"{""Q0"":""I have no idea.""}","","","","","",NA,NA,"",NA,NA,NA,NA,NA,NA,"",NA,"",NA
"","survey-text",35,453009,"0.0-17.0",NA,530,"118,139,132,239,5,246,85,213,127,226,45,72,132,81,240,117,54,95,108,209,138,19,7,52,102,170,130,108,192,235,219,251",265,"66a3ed3c5d10d0e7d8a6b9da","66441c9e616f79e9d27738d3","66a46a9e2a651831942096be",1,0,0,"false",6,0,"",9495.39999999106,"{""Q0"":""""}","","","","","",NA,NA,"",NA,NA,NA,NA,NA,NA,"",NA,"",NA
"","instructions",36,457272,"0.0-18.0",NA,530,"118,139,132,239,5,246,85,213,127,226,45,72,132,81,240,117,54,95,108,209,138,19,7,52,102,170,130,108,192,235,219,251",265,"66a3ed3c5d10d0e7d8a6b9da","66441c9e616f79e9d27738d3","66a46a9e2a651831942096be",1,0,0,"false",6,0,"[{""page_index"":0,""viewing_time"":4262}]",4262.40000000596,"","","","","","",NA,NA,"",NA,NA,NA,NA,NA,NA,"",NA,"",NA
