[{"success":true,"trial_type":"fullscreen","trial_index":0,"time_elapsed":4965,"internal_node_id":"0.0-0.0","protocol_sum":"","subject_identifier":332,"subject_sum":[224,240,93,169,58,15,90,134,163,190,95,192,227,1,96,101,19,201,247,229,157,172,35,87,52,138,160,242,244,125,185,132],"subject_pair":166,"STUDY_ID":"66a0b3911f23dfc7665bb169","PROLIFIC_PID":"63d7f2153299e6f52ede9916","SESSION_ID":"66a16ad8ff6d119c30efdf8b","practice_instructions":1,"leaderboard_instructions":0,"bonus":0,"reveal_word":false,"self_rating":"1","confidence":"100"},{"view_history":"[{\"page_index\":0,\"viewing_time\":7674.599999904633}]","rt":7679.200000047684,"trial_type":"instructions","trial_index":1,"time_elapsed":12650,"internal_node_id":"0.0-1.0","protocol_sum":"","subject_identifier":332,"subject_sum":[224,240,93,169,58,15,90,134,163,190,95,192,227,1,96,101,19,201,247,229,157,172,35,87,52,138,160,242,244,125,185,132],"subject_pair":166,"STUDY_ID":"66a0b3911f23dfc7665bb169","PROLIFIC_PID":"63d7f2153299e6f52ede9916","SESSION_ID":"66a16ad8ff6d119c30efdf8b","practice_instructions":1,"leaderboard_instructions":0,"bonus":0,"reveal_word":false,"self_rating":"1","confidence":"100"},{"view_history":"[{\"page_index\":0,\"viewing_time\":24658.299999952316}]","rt":24658.700000047684,"trial_type":"instructions","trial_index":2,"time_elapsed":37310,"internal_node_id":"0.0-2.0-0.0","protocol_sum":"","subject_identifier":332,"subject_sum":[224,240,93,169,58,15,90,134,163,190,95,192,227,1,96,101,19,201,247,229,157,172,35,87,52,138,160,242,244,125,185,132],"subject_pair":166,"STUDY_ID":"66a0b3911f23dfc7665bb169","PROLIFIC_PID":"63d7f2153299e6f52ede9916","SESSION_ID":"66a16ad8ff6d119c30efdf8b","practice_instructions":1,"leaderboard_instructions":0,"bonus":0,"reveal_word":false,"self_rating":"1","confidence":"100"},{"rt":6793.599999904633,"responses":"{\"Q0\":\"... reveal the word with as <b>few letter guesses</b> as possible\"}","question_order":"[0]","trial_type":"survey-multi-choice","trial_index":3,"time_elapsed":44109,"internal_node_id":"0.0-2.0-1.0","protocol_sum":"","subject_identifier":332,"subject_sum":[224,240,93,169,58,15,90,134,163,190,95,192,227,1,96,101,19,201,247,229,157,172,35,87,52,138,160,242,244,125,185,132],"subject_pair":166,"correct":true,"test_part":"multichoice_nonpretend","STUDY_ID":"66a0b3911f23dfc7665bb169","PROLIFIC_PID":"63d7f2153299e6f52ede9916","SESSION_ID":"66a16ad8ff6d119c30efdf8b","practice_instructions":1,"leaderboard_instructions":0,"bonus":0,"reveal_word":false,"self_rating":"1","confidence":"100"},{"view_history":"[{\"page_index\":0,\"viewing_time\":1775.3000001907349}]","rt":1775.4000000953674,"trial_type":"instructions","trial_index":4,"time_elapsed":45886,"internal_node_id":"0.0-3.0","protocol_sum":"","subject_identifier":332,"subject_sum":[224,240,93,169,58,15,90,134,163,190,95,192,227,1,96,101,19,201,247,229,157,172,35,87,52,138,160,242,244,125,185,132],"subject_pair":166,"STUDY_ID":"66a0b3911f23dfc7665bb169","PROLIFIC_PID":"63d7f2153299e6f52ede9916","SESSION_ID":"66a16ad8ff6d119c30efdf8b","practice_instructions":1,"leaderboard_instructions":0,"bonus":0,"reveal_word":false,"self_rating":"1","confidence":"100"},{"word":"ZEBRA","click_log":{"letter":["","T","E","A","Z","B","R"],"t":[0,8123.800000190735,12111,27012.300000190735,35507.5,36737.60000014305,38081.90000009537],"hit":[null,0,1,1,1,1,1],"asked":["","T","TE","TEA","TEAZ","TEAZB","TEAZBR"],"word_state":["_____","_____","_E___","_E__A","ZE__A","ZEB_A","ZEBRA"]},"hover_log":{"letter":["?","?","?","?","?","?","?","?","?","?","?","?","?","?","?","?","?","?","?","?","?","?","?","?","?","?","?","?","?","?","?","?","?","?","?","?","?","?","?","?","?","?","?","?","?","?","?","?","?","?","?","?","?","?","?","?","?","?","?","?","?","?","?","?","?","?","?","?","?","?","?","?","?","?","?","?","?","?","?","?","?","?","?","?","?","?","?","?","?","?","?","?","?","?","?","?","?","?","?","?","?","?","?","?","?","?","?","?","?","?","?","?","?","?","?","?","?","?","?","?","?","?","?","?","?","?","?","?","?","?","?","?","?","?","?","?","?","?","?","?","?","?","?","?","?","?","?","?","?","?","?","?","?","?","?","?","?","?","?","?","?","?","?","?","?","?","?","?","?","?","?","?","?","?","?","?","?","?","?","?","?","?","?","?","?","?","?","?","?","?","?","?","?","?","?","?","?","?","?","?","?","?","?","?","?","?","?","?","?","?","?","?","?","?","?","?","?","?","?","?","?","?","?","?","?","?","?","?","?","?","?","?","?","?","?","?","?","?","?","?","?","?","?","?","?","?","?","?","?","?","?","?","?","?","?","?","?","?","?","?","?","?","?","?","?","?","?","?","?","?","?","?","?","?","?","?","?","?","?","?","?","?","?","?","?","?","?","?","?","?","?","?","?","?","?","?","?","?","?","?","?","?","?","?","?","?","?","?","?","?","?","?","?","?","?","?","?","?","?","?","?","?","?","?","?","?","?","?","?","?","?","?","?","?","?","?","?","?","?","?","?","?","?","?","?","?","?","?","?","?","?","?","?","?","?","?","?","?","?","?","?","?","?","?","?","?","?","?","?","?","?","?","?","?","?","?","?","?","?","?","?","?","?","?","?","?","?","?","?","?","?","?","?","?","?","?","?","?","?","?","?","?","?","?","?","?","?","?","?","?","?","?","?","?","?","?","?","?","?","?","?","?","?","?","?","?","?","?","?","?","?","?","?","?","?","?","?","?","?","?","?","?","?","?","?","?","?","?","?","?","?","?","?","?","?","?","?","?","?","?","?","?","?","?","?","?","?","?","?","T","T","T","T","T","T","T","T","T","T","T","T","T","T","T","T","T","T","T","T","T","T","T","T","T","T","T","T","T","T","T","T","T","T","T","T","T","T","T","T","T","T","T","T","T","T","T","T","T","T","T","T","T","T","T","T","T","T","T","T","T","T","T","T","T","T","T","T","T","T","T","T","T","T","T","T","T","T","T","T","T","T","T","T","T","T","T","T","T","T","T","T","T","T","T","T","T","T","T","T","T","T","T","T","T","T","T","T","T","T","T","T","T","T","T","T","T","T","T","T","T","T","T","T","T","T","T","T","T","T","T","T","T","T","T","T","T","T","T","T","T","T","T","T","T","T","T","T","T","T","T","T","T","T","T","T","T","T","T","T","T","T","T","T","T","T","T","T","T","T","T","T","T","T","T","T","T","T","T","T","T","T","T","T","T","T","T","T","T","T","T","T","T","T","T","T","T","T","T","T","T","T","T","T","T","T","T","T","T","T","T","T","T","T","T","T","T","T","T","T","T","T","T","T","T","T","T","T","T","T","T","T","T","T","T","T","T","T","T","T","T","E","E","E","E","E","E","E","E","E","E","E","E","E","E","E","E","E","E","E","E","E","E","E","E","E","E","E","E","E","E","E","E","E","E","E","E","E","E","E","E","E","E","E","E","E","E","E","E","E","E","E","E","E","E","E","E","E","E","E","E","E","E","E","E","E","E","E","E","E","E","E","E","E","E","E","E","E","E","E","E","E","E","E","E","E","E","E","E","E","E","E","E","E","E","E","E","E","E","E","E","E","E","E","E","E","E","E","E","E","E","E","E","E","E","E","E","E","E","E","E","E","E","E","E","E","E","E","E","E","E","E","E","E","E","E","E","E","E","E","E","E","E","E","E","E","E","E","E","E","E","E","E","E","E","E","E","E","E","E","E","E","E","E","E","E","E","E","E","E","E","E","E","E","E","E","E","E","E","E","E","E","E","E","E","E","E","E","E","E","E","E","E","E","E","E","E","E","E","E","E","E","E","E","E","E","E","E","E","E","E","E","E","E","E","E","E","E","E","E","E","E","E","E","E","E","E","E","E","E","E","E","E","E","E","E","E","E","E","E","E","E","E","E","E","E","E","E","E","E","E","E","E","E","E","E","E","E","E","E","E","E","E","E","E","E","E","E","E","E","E","E","E","E","E","E","E","E","E","E","E","E","E","E","E","E","E","E","E","E","E","E","E","E","E","E","E","E","E","E","E","E","E","E","E","E","E","E","E","E","E","E","E","E","E","E","E","E","E","E","E","E","E","E","E","E","E","E","E","E","E","E","E","E","E","E","E","E","E","E","E","E","E","E","E","E","E","E","E","E","E","E","E","E","E","E","E","E","E","E","E","E","E","E","E","E","E","E","E","E","E","E","E","E","E","E","E","E","E","E","E","E","E","E","E","E","E","E","E","E","E","E","E","E","E","E","E","E","E","E","E","E","E","E","E","E","E","E","E","E","E","E","E","E","E","E","E","E","E","E","E","E","E","E","E","E","E","E","E","E","E","E","E","E","E","E","E","E","E","E","E","E","E","E","E","E","E","E","E","E","E","E","E","E","E","E","E","E","E","E","E","E","E","E","E","E","E","E","E","E","E","E","E","E","E","E","E","E","E","E","E","E","E","E","E","E","E","E","E","E","E","E","E","E","E","E","E","E","E","E","E","E","E","E","E","E","E","E","E","E","E","E","E","E","E","E","E","E","E","E","E","E","E","E","E","E","E","E","E","E","E","E","E","E","E","E","E","E","E","E","E","E","E","E","E","E","E","E","E","E","E","E","E","E","E","E","E","E","E","E","E","E","E","E","E","E","E","E","E","E","E","E","E","E","E","E","E","E","E","E","E","E","E","E","E","E","E","E","E","E","E","E","E","E","E","E","E","E","E","E","E","E","E","E","E","E","E","E","E","E","E","E","E","E","E","E","E","E","E","E","E","E","E","E","E","E","E","E","E","E","E","E","E","E","E","E","E","E","E","E","E","E","E","E","E","E","E","E","E","E","E","E","E","E","E","E","E","E","E","E","E","E","E","E","E","E","E","E","E","E","E","E","E","E","E","E","E","E","E","E","E","E","E","E","E","E","E","E","E","E","E","E","E","E","E","E","E","E","E","E","E","E","E","E","E","E","E","E","E","E","E","E","E","E","E","E","E","E","E","E","E","E","E","E","E","E","E","E","E","E","E","E","E","E","E","E","E","E","E","E","E","E","E","E","E","E","E","E","E","E","E","E","E","E","E","E","E","E","E","E","E","E","E","E","E","E","E","E","E","E","E","E","E","E","E","E","E","E","E","E","E","E","E","E","E","E","E","E","E","E","E","E","E","E","E","E","E","E","E","E","E","E","E","E","E","E","E","E","E","E","E","E","E","E","E","E","E","E","E","E","E","E","E","E","E","E","E","E","E","E","E","E","E","E","E","E","E","E","E","E","E","E","E","E","E","E","E","E","E","E","E","E","E","E","E","E","E","E","E","E","E","E","E","E","E","E","E","E","E","E","E","E","E","E","E","E","E","E","E","E","E","E","E","E","A","A","A","A","A","A","A","A","A","A","A","A","A","A","A","A","A","A","A","A","A","A","A","A","A","A","A","A","A","A","A","A","A","A","A","A","A","A","A","A","A","A","A","A","A","A","A","A","A","A","A","A","A","A","A","A","A","A","A","A","A","A","A","A","A","A","A","A","A","A","A","A","A","A","A","A","A","A","A","A","A","A","A","A","A","A","A","A","A","A","A","A","A","A","A","A","A","A","A","A","A","A","A","A","A","A","A","A","A","A","A","A","A","A","A","A","A","A","A","A","A","A","A","A","A","A","A","A","A","A","A","A","A","A","A","A","A","A","A","A","A","A","A","A","A","A","A","A","A","A","A","A","A","A","A","A","A","A","A","A","A","A","A","A","A","A","A","A","A","A","A","A","A","A","A","A","A","A","A","A","A","A","A","A","A","A","A","A","A","A","A","A","A","A","A","A","A","A","A","A","A","A","A","A","A","A","A","A","A","A","A","A","A","A","A","A","A","A","A","A","A","A","A","A","A","A","A","A","A","A","A","A","A","A","A","A","A","A","A","A","A","A","A","A","A","A","A","A","A","A","A","A","A","A","A","A","A","A","A","A","A","A","A","A","A","A","A","A","A","A","A","A","A","A","A","A","A","A","A","A","A","A","A","A","A","A","A","A","A","A","A","A","A","A","A","A","A","A","A","A","A","A","A","A","A","A","A","A","A","A","A","A","A","A","A","A","A","A","A","A","A","A","A","A","A","A","A","A","A","A","A","A","A","A","A","A","A","A","A","A","A","A","A","A","A","A","A","A","A","A","A","A","A","A","A","A","A","A","A","A","A","A","A","A","A","A","A","A","A","A","A","A","A","A","A","A","A","A","A","A","A","A","A","A","A","A","A","A","A","A","A","A","A","A","A","A","A","A","A","A","A","A","A","A","A","A","A","A","A","A","A","A","A","A","A","A","A","A","A","A","A","A","A","A","A","A","A","A","A","A","A","A","A","A","A","A","A","A","A","A","A","A","A","A","A","A","A","A","A","A","A","A","A","A","A","A","A","A","A","A","A","A","A","A","A","A","A","A","Z","Z","Z","Z","Z","Z","Z","Z","Z","Z","Z","Z","Z","Z","Z","Z","Z","Z","Z","Z","Z","Z","Z","Z","Z","Z","Z","Z","Z","Z","Z","Z","Z","Z","Z","Z","Z","Z","Z","Z","Z","Z","Z","Z","Z","Z","Z","Z","Z","Z","Z","Z","Z","Z","Z","Z","Z","Z","Z","Z","Z","Z","Z","Z","Z","Z","Z","Z","Z","Z","Z","Z","Z","Z","Z","Z","Z","Z","Z","Z","Z","Z","Z","Z","Z","Z","Z","Z","Z","Z","Z","Z","Z","Z","Z","Z","Z","Z","Z","Z","Z","Z","Z","Z","Z","Z","Z","Z","Z","Z","Z","Z","Z","Z","Z","Z","Z","Z","Z","B","B","B","B","B","B","B","B","B","B","B","B","B","B","B","B","B","B","B","B","B","B","B","B","B","B","B","B","B","B","B","B","B","B","B","B","B","B","B","B","B","B","B","B","B","B","B","B","B","B","B","B","B","B","B","B","B","B","B","B","B","B","B","B","B","B","B","B","B","B","B","B","B","B","B","B","B","B","B","R","R","R","R","R","R","R","R","R","R","R","R","R","R","R","R","R","R","R","R","R","R","R","R","R","R","R","R","R","R","R","R","R","R","R","R","R","R","R","R","R","R","R","R","R","R","R","R","R","R","R","R","R","R","R","R","R","R","R","R","R","R","R","R","R","R","R","R","R","R","R","R","R","R","R","R","R","R","R","R","R","R","R","R","R","R","R","R","R","R","R","R","R","R","R","R","R","R","R","R","R","R","R","R","R","R","R","R","R","R","R","R","R","R","R","R","R","R","R","R","R","R","R","R","R","R","R"],"t":[38,45,251,266,283,300,319,336,350,367,384,400,417,434,451,467,484,500,516,533,550,566,582,600,617,633,650,667,683,700,716,733,750,766,783,800,816,833,850,867,884,900,916,933,950,966,982,1000,1016,1034,1051,1067,1084,1103,1117,1132,1150,1168,1184,1200,1217,1234,1251,1267,1283,1299,1316,1332,1350,1367,1383,1400,1416,1433,1450,1466,1485,1500,1516,1533,1550,1566,1583,1599,1617,1632,1650,1666,1684,1700,1716,1733,1752,1765,1782,1800,1816,1833,1850,1866,1884,1900,1916,1933,1950,1966,1983,2000,2016,2033,2050,2067,2083,2099,2116,2133,2149,2166,2183,2201,2216,2233,2250,2266,2283,2300,2316,2333,2350,2366,2383,2400,2416,2433,2450,2467,2483,2500,2517,2533,2550,2567,2584,2601,2617,2634,2650,2670,2685,2700,2716,2733,2751,2766,2783,2800,2816,2833,2850,2866,2883,2899,2917,2933,2949,2966,2983,3000,3016,3033,3051,3064,3082,3099,3116,3133,3150,3166,3183,3200,3217,3233,3250,3265,3283,3301,3317,3332,3349,3366,3383,3400,3420,3435,3449,3466,3483,3500,3517,3532,3549,3566,3583,3599,3616,3633,3650,3666,3683,3699,3716,3733,3749,3766,3783,3800,3816,3833,3850,3866,3883,3900,3916,3933,3949,3966,3983,3999,4016,4033,4049,4066,4083,4099,4116,4133,4149,4166,4183,4200,4216,4233,4250,4266,4283,4299,4316,4333,4349,4366,4383,4399,4416,4433,4450,4466,4483,4499,4515,4532,4548,4565,4583,4600,4616,4633,4650,4666,4683,4700,4716,4733,4749,4766,4783,4800,4816,4833,4850,4866,4883,4900,4916,4933,4949,4966,4983,5000,5016,5034,5051,5066,5083,5100,5116,5133,5150,5166,5183,5199,5216,5233,5249,5266,5283,5300,5316,5333,5349,5367,5383,5400,5416,5433,5449,5466,5483,5501,5517,5533,5550,5567,5583,5600,5619,5633,5649,5667,5684,5699,5716,5734,5751,5767,5783,5799,5817,5833,5850,5866,5883,5900,5916,5933,5949,5965,5976,5991,6007,6025,6041,6058,6075,6092,6108,6125,6141,6158,6175,6191,6208,6225,6241,6258,6275,6291,6308,6324,6341,6358,6375,6391,6410,6425,6440,6457,6474,6493,6509,6525,6542,6559,6575,6592,6608,6625,6641,6658,6675,6692,6709,6725,6743,6758,6774,6791,6809,6825,6843,6860,6875,6891,6908,6925,6942,6959,6976,6992,7008,7025,7042,7060,7075,7092,7108,7125,7142,7158,7175,7191,7208,7225,7242,7258,7274,7292,7308,7324,7341,7354,7366,7385,7399,7416,7433,7449,7466,7483,7500,7517,7533,7550,7566,7583,7600,7616,7633,7650,7667,7684,7700,7717,7734,7751,7765,7783,7800,7817,7834,7850,7867,7886,7902,7916,7933,7949,7966,7982,7999,8016,8032,8050,8066,8083,8100,8117,8135,8152,8167,8183,8200,8216,8234,8250,8267,8283,8299,8317,8333,8350,8366,8383,8399,8417,8433,8450,8466,8483,8500,8517,8534,8551,8567,8584,8600,8617,8633,8650,8667,8683,8700,8716,8729,8742,8757,8775,8791,8808,8825,8842,8858,8875,8892,8908,8925,8941,8958,8975,8991,9008,9025,9042,9058,9074,9091,9108,9125,9141,9158,9175,9191,9208,9225,9241,9258,9275,9291,9308,9325,9341,9358,9377,9391,9407,9425,9441,9458,9475,9491,9508,9524,9541,9558,9575,9591,9608,9640,9658,9675,9691,9708,9725,9741,9758,9775,9792,9808,9825,9841,9858,9874,9892,9907,9924,9941,9958,9975,9991,10008,10025,10041,10058,10075,10091,10108,10125,10141,10158,10175,10191,10207,10225,10241,10259,10274,10291,10307,10325,10342,10358,10375,10392,10409,10427,10442,10457,10475,10491,10508,10525,10542,10558,10575,10591,10608,10625,10640,10657,10673,10692,10708,10725,10741,10757,10777,10790,10807,10823,10840,10857,10875,10890,10907,10923,10940,10957,10974,10990,11007,11023,11040,11057,11073,11090,11107,11123,11140,11156,11173,11190,11207,11224,11241,11257,11274,11290,11307,11324,11340,11357,11373,11392,11407,11429,11448,11465,11482,11498,11515,11532,11548,11565,11582,11599,11615,11632,11648,11665,11682,11698,11715,11731,11748,11765,11778,11791,11807,11823,11840,11857,11873,11890,11907,11924,11940,11957,11973,11990,12007,12023,12041,12057,12073,12090,12107,12127,12294,12307,12323,12341,12357,12374,12390,12407,12424,12440,12457,12473,12490,12507,12523,12540,12557,12573,12590,12607,12623,12640,12657,12674,12690,12707,12723,12740,12757,12773,12790,12807,12823,12840,12857,12873,12890,12907,12923,12940,12957,12974,12990,13007,13023,13040,13057,13073,13090,13107,13124,13140,13157,13173,13190,13206,13223,13240,13257,13273,13290,13307,13325,13340,13352,13367,13382,13398,13415,13432,13448,13465,13482,13498,13515,13532,13548,13565,13582,13598,13615,13632,13648,13665,13682,13698,13715,13732,13748,13765,13782,13799,13815,13833,13851,13867,13884,13900,13917,13933,13950,13968,13984,14001,14016,14034,14050,14067,14084,14100,14117,14133,14152,14165,14182,14201,14216,14233,14250,14266,14283,14301,14316,14333,14350,14366,14383,14400,14416,14433,14450,14466,14483,14500,14516,14533,14550,14566,14583,14600,14616,14633,14650,14666,14683,14700,14716,14733,14750,14766,14783,14801,14815,14835,14848,14865,14882,14898,14915,14931,14948,14965,14981,14999,15015,15031,15048,15065,15082,15098,15115,15132,15148,15165,15182,15198,15215,15233,15248,15266,15282,15298,15315,15332,15349,15365,15382,15398,15415,15432,15448,15465,15482,15498,15515,15532,15548,15565,15582,15598,15615,15632,15648,15665,15682,15700,15716,15732,15750,15767,15783,15800,15816,15836,15852,15866,15883,15900,15916,15934,15950,15966,15983,16000,16016,16033,16050,16066,16082,16100,16120,16136,16151,16166,16183,16200,16217,16234,16251,16265,16282,16299,16316,16333,16350,16366,16383,16400,16416,16433,16450,16467,16482,16499,16516,16532,16550,16566,16583,16600,16616,16633,16650,16666,16683,16700,16712,16724,16742,16758,16775,16791,16808,16825,16841,16858,16875,16892,16908,16925,16941,16958,16975,16991,17008,17026,17041,17058,17076,17091,17108,17124,17142,17158,17174,17191,17208,17225,17241,17258,17275,17291,17308,17324,17341,17358,17374,17391,17408,17425,17441,17459,17475,17491,17508,17525,17541,17558,17575,17591,17608,17625,17641,17658,17674,17692,17708,17724,17736,17748,17766,17783,17800,17816,17833,17850,17866,17883,17900,17916,17933,17950,17966,17983,18000,18017,18033,18050,18067,18083,18099,18116,18133,18149,18168,18184,18201,18217,18234,18250,18267,18283,18300,18316,18335,18350,18366,18383,18400,18416,18433,18449,18466,18483,18499,18516,18533,18550,18567,18583,18600,18616,18633,18650,18666,18683,18700,18716,18733,18750,18766,18783,18799,18816,18833,18849,18866,18883,18900,18916,18933,18949,18966,18983,19000,19017,19033,19050,19066,19083,19100,19116,19135,19160,19174,19190,19207,19225,19242,19259,19275,19292,19308,19325,19341,19358,19375,19391,19408,19425,19443,19457,19474,19492,19508,19525,19541,19558,19575,19591,19607,19624,19641,19658,19674,19691,19708,19724,19741,19758,19775,19791,19808,19824,19841,19858,19877,19890,19908,19925,19941,19958,19975,19991,20008,20025,20041,20058,20074,20091,20108,20125,20141,20158,20175,20191,20208,20224,20241,20258,20274,20292,20308,20325,20341,20358,20374,20391,20408,20425,20441,20458,20475,20491,20508,20524,20541,20558,20575,20591,20607,20625,20641,20658,20675,20691,20708,20724,20741,20758,20775,20791,20810,20825,20841,20858,20875,20891,20907,20924,20941,20958,20974,20991,21008,21024,21041,21058,21074,21091,21108,21124,21142,21158,21175,21191,21208,21224,21242,21258,21275,21291,21308,21325,21342,21358,21376,21391,21407,21425,21440,21458,21475,21494,21510,21524,21541,21558,21574,21591,21608,21625,21642,21658,21675,21692,21705,21717,21732,21750,21766,21784,21800,21817,21834,21850,21867,21883,21900,21916,21933,21950,21966,21983,21999,22017,22032,22049,22065,22082,22098,22115,22131,22149,22165,22182,22198,22215,22232,22248,22265,22282,22298,22316,22333,22350,22367,22384,22400,22416,22433,22450,22467,22483,22500,22516,22533,22549,22566,22583,22600,22616,22633,22650,22666,22683,22699,22716,22733,22750,22766,22783,22801,22816,22833,22849,22866,22883,22900,22916,22933,22949,22966,22983,23000,23016,23032,23049,23066,23083,23100,23116,23133,23150,23166,23183,23199,23216,23233,23249,23266,23283,23300,23316,23333,23349,23367,23383,23399,23416,23433,23450,23466,23483,23495,23508,23523,23540,23559,23577,23593,23608,23624,23641,23658,23675,23691,23708,23724,23741,23758,23775,23792,23816,23832,23850,23866,23883,23900,23916,23933,23950,23966,23983,24000,24016,24034,24049,24066,24083,24100,24117,24133,24150,24167,24183,24201,24217,24233,24250,24267,24284,24300,24316,24333,24350,24366,24383,24400,24416,24433,24450,24466,24483,24499,24516,24533,24549,24566,24583,24600,24617,24633,24650,24666,24683,24700,24716,24733,24750,24766,24783,24800,24816,24833,24849,24866,24883,24899,24916,24933,24955,24975,24990,25008,25025,25043,25058,25074,25091,25108,25125,25141,25159,25175,25191,25208,25225,25241,25258,25274,25291,25309,25325,25341,25358,25374,25391,25408,25424,25441,25458,25476,25491,25508,25524,25541,25558,25575,25592,25608,25625,25642,25658,25674,25691,25708,25737,25749,25766,25783,25800,25816,25833,25850,25866,25883,25900,25916,25933,25950,25966,25983,25999,26016,26033,26049,26066,26083,26099,26116,26133,26149,26166,26183,26201,26217,26233,26250,26267,26282,26299,26316,26333,26350,26367,26383,26398,26416,26432,26449,26466,26483,26500,26516,26533,26550,26566,26583,26600,26616,26633,26650,26667,26683,26699,26716,26733,26750,26766,26783,26800,26816,26834,26849,26866,26885,26899,26916,26933,26950,26966,26983,26999,27016,27033,27049,27068,27085,27101,27119,27133,27150,27167,27183,27200,27216,27233,27249,27266,27283,27300,27316,27333,27350,27366,27384,27400,27416,27433,27450,27467,27483,27500,27516,27533,27550,27566,27583,27599,27618,27634,27649,27666,27683,27700,27716,27733,27750,27766,27783,27800,27819,27832,27848,27866,27883,27900,27916,27933,27950,27966,27983,28000,28016,28033,28049,28066,28083,28100,28117,28133,28149,28167,28183,28200,28216,28233,28250,28266,28283,28300,28316,28333,28350,28366,28384,28400,28416,28433,28449,28466,28483,28500,28516,28533,28550,28567,28583,28600,28616,28633,28650,28666,28683,28700,28716,28733,28750,28766,28783,28800,28817,28833,28849,28867,28883,28900,28916,28933,28949,28966,28985,28999,29016,29033,29050,29066,29083,29100,29116,29133,29150,29166,29183,29200,29216,29233,29250,29266,29289,29300,29316,29332,29349,29367,29383,29400,29416,29433,29449,29466,29483,29499,29516,29533,29549,29566,29583,29599,29616,29633,29650,29666,29683,29699,29716,29733,29750,29770,29782,29799,29816,29834,29850,29867,29884,29900,29917,29934,29950,29966,29983,29999,30016,30033,30049,30066,30083,30099,30116,30133,30149,30166,30183,30200,30217,30233,30250,30266,30283,30300,30316,30335,30350,30366,30382,30400,30417,30433,30450,30467,30483,30500,30516,30533,30549,30567,30583,30600,30616,30633,30650,30666,30683,30700,30715,30727,30741,30757,30775,30791,30810,30825,30842,30858,30875,30892,30908,30925,30941,30958,30975,30991,31008,31024,31041,31058,31075,31091,31108,31124,31141,31158,31175,31192,31208,31225,31241,31258,31275,31291,31308,31324,31341,31358,31375,31391,31408,31424,31441,31458,31474,31492,31508,31524,31541,31558,31574,31591,31608,31625,31641,31658,31675,31691,31708,31725,31741,31758,31775,31791,31808,31825,31841,31858,31874,31891,31908,31925,31941,31958,31974,31992,32008,32024,32041,32058,32074,32091,32108,32125,32136,32149,32166,32182,32200,32216,32233,32250,32266,32283,32300,32316,32333,32350,32366,32383,32400,32416,32433,32449,32466,32483,32500,32516,32533,32549,32566,32583,32600,32616,32633,32650,32666,32683,32700,32717,32733,32749,32766,32783,32799,32816,32833,32849,32866,32883,32900,32916,32933,32950,32966,32983,33000,33016,33033,33050,33067,33083,33100,33117,33133,33150,33166,33183,33200,33216,33233,33249,33266,33283,33300,33316,33333,33349,33366,33383,33400,33416,33435,33450,33466,33483,33499,33516,33542,33557,33573,33591,33608,33625,33641,33658,33674,33691,33708,33725,33741,33759,33784,33801,33816,33834,33850,33866,33883,33900,33916,33933,33950,33966,33983,34000,34016,34033,34050,34066,34084,34099,34116,34133,34151,34166,34183,34200,34216,34233,34249,34266,34283,34300,34316,34333,34350,34366,34383,34399,34416,34434,34450,34466,34483,34500,34516,34533,34550,34566,34583,34600,34616,34633,34650,34666,34683,34701,34715,34733,34751,34769,34785,34799,34816,34833,34849,34866,34883,34901,34916,34933,34951,34966,34982,34999,35016,35033,35050,35066,35083,35100,35116,35133,35149,35166,35183,35199,35216,35233,35250,35267,35283,35300,35316,35333,35349,35366,35383,35400,35416,35433,35448,35465,35482,35499,35517,35533,35551,35566,35583,35600,35616,35634,35650,35666,35683,35700,35717,35733,35749,35766,35783,35800,35817,35833,35849,35866,35883,35899,35916,35933,35950,35967,35984,35999,36018,36033,36050,36067,36083,36100,36117,36133,36150,36167,36183,36200,36217,36234,36250,36267,36284,36303,36317,36333,36348,36366,36383,36400,36416,36433,36450,36466,36483,36500,36516,36533,36549,36566,36583,36600,36616,36633,36650,36667,36682,36699,36716,36734,36750,36767,36784,36800,36817,36833,36851,36867,36883,36900,36916,36933,36949,36966,36983,37000,37017,37033,37051,37068,37087,37102,37116,37133,37150,37166,37183,37200,37216,37233,37250,37266,37283,37300,37316,37333,37350,37366,37383,37400,37416,37433,37450,37466,37483,37501,37516,37533,37549,37566,37583,37600,37616,37633,37650,37667,37683,37700,37715,37733,37752,37767,37784,37800,37816,37833,37850,37866,37883,37900,37916,37933,37950,37968,37983,37999,38015,38033,38050,38066,38086,38103,38118,38133,38150,38167,38184,38199,38216,38233,38249,38266,38283,38300,38318,38335,38351,38366,38383,38400,38416,38434,38450,38466,38484,38500,38517,38533,38549,38567,38583,38600,38616,38633,38650,38666,38683,38700,38717,38733,38751,38766,38783,38800,38816,38833,38850,38866,38883,38900,38916,38933,38950,38966,38983,39000,39019,39032,39049,39066,39083,39100,39116,39133,39150,39166,39183,39200,39216,39233,39250,39267,39283,39300,39316,39333,39350,39366,39383,39400,39416,39433,39450,39467,39483,39500,39516,39533,39550,39566,39584,39599,39616,39633,39650,39666,39683,39699,39716,39733,39750,39766,39783,39800,39816,39833,39850,39866,39883,39900,39916,39933,39950,39966,39983,40000,40016,40033,40050,40066,40083,40104],"hit":[null],"x":[-2.0408163265306123,-2.0408163265306123,-2.0408163265306123,-2.0408163265306123,-2.0408163265306123,-2.0408163265306123,-2.0408163265306123,-2.0408163265306123,-2.0408163265306123,-2.0408163265306123,-2.0408163265306123,-2.0408163265306123,-2.0408163265306123,-2.0408163265306123,-2.0408163265306123,-2.0408163265306123,-2.0408163265306123,-2.0408163265306123,-2.0408163265306123,-2.0408163265306123,-2.0408163265306123,-2.0408163265306123,-2.0408163265306123,-2.0408163265306123,-2.0408163265306123,-2.0408163265306123,-2.0408163265306123,-2.0408163265306123,-2.0408163265306123,-2.0408163265306123,-2.0408163265306123,-2.0408163265306123,-2.0408163265306123,-2.0408163265306123,-2.0408163265306123,-2.0408163265306123,-2.0408163265306123,-2.0408163265306123,-2.0408163265306123,-2.0408163265306123,-2.0408163265306123,-2.0408163265306123,-2.0408163265306123,-2.0408163265306123,-2.0408163265306123,-2.0408163265306123,-2.0408163265306123,-2.0408163265306123,-2.0408163265306123,-2.0408163265306123,-2.0408163265306123,-2.0408163265306123,-2.0408163265306123,-2.0408163265306123,-2.0408163265306123,-2.0408163265306123,-2.0408163265306123,-2.0408163265306123,-2.0408163265306123,-2.0408163265306123,-2.0408163265306123,-2.0408163265306123,-2.0408163265306123,-2.0408163265306123,-2.0408163265306123,-2.0408163265306123,-2.0408163265306123,-2.0408163265306123,-2.0408163265306123,-2.0408163265306123,-2.0408163265306123,-2.0408163265306123,-2.0408163265306123,-2.0408163265306123,-2.0408163265306123,-2.0408163265306123,-2.0408163265306123,-2.0408163265306123,-2.0408163265306123,-2.0408163265306123,-2.0408163265306123,-2.0408163265306123,-2.0408163265306123,-2.0408163265306123,-2.0408163265306123,-2.0408163265306123,-2.0408163265306123,-2.0408163265306123,-2.0408163265306123,-2.0408163265306123,-2.0408163265306123,-2.0408163265306123,-2.0408163265306123,-2.0408163265306123,-2.0408163265306123,-2.0408163265306123,-2.0408163265306123,-2.0408163265306123,-2.0408163265306123,-2.0408163265306123,-2.0408163265306123,-2.0408163265306123,-2.0408163265306123,-2.0408163265306123,-2.0408163265306123,-2.0408163265306123,-2.0408163265306123,-2.0408163265306123,-2.0408163265306123,-2.0408163265306123,-2.0408163265306123,-2.0408163265306123,-2.0408163265306123,-2.0408163265306123,-2.0408163265306123,-2.0408163265306123,-2.0408163265306123,-2.0408163265306123,-2.0408163265306123,-2.0408163265306123,-2.0408163265306123,-2.0408163265306123,-2.0408163265306123,-2.0408163265306123,-2.0408163265306123,-2.0408163265306123,-2.0408163265306123,-2.0408163265306123,-2.0408163265306123,-2.0408163265306123,-2.0408163265306123,-2.0408163265306123,-2.0408163265306123,-2.0408163265306123,-2.0408163265306123,-2.0408163265306123,-2.0408163265306123,-2.0408163265306123,-2.0408163265306123,-2.0408163265306123,-2.0408163265306123,-2.0408163265306123,-2.0408163265306123,-2.0408163265306123,-2.0408163265306123,-2.0408163265306123,-2.0408163265306123,-2.0408163265306123,-2.0408163265306123,-2.0408163265306123,-2.0408163265306123,-2.0408163265306123,-2.0408163265306123,-2.0408163265306123,-2.0408163265306123,-2.0408163265306123,-2.0408163265306123,-2.0408163265306123,-2.0408163265306123,-2.0408163265306123,-2.0408163265306123,-2.0408163265306123,-2.0408163265306123,-2.0408163265306123,-2.0408163265306123,-2.0408163265306123,-2.0408163265306123,-2.0408163265306123,-2.0408163265306123,-2.0408163265306123,-2.0408163265306123,-2.0408163265306123,-2.0408163265306123,-2.0408163265306123,-2.0408163265306123,-2.0408163265306123,-2.0408163265306123,-2.0408163265306123,-2.0408163265306123,-2.0408163265306123,-2.0408163265306123,-2.0408163265306123,-2.0408163265306123,-2.0408163265306123,-2.0408163265306123,-2.0408163265306123,-2.0408163265306123,-2.0408163265306123,-2.0408163265306123,-2.0408163265306123,-2.0408163265306123,-2.0408163265306123,-2.0408163265306123,-2.0408163265306123,-2.0408163265306123,-2.0408163265306123,-2.0408163265306123,-2.0408163265306123,-2.0408163265306123,-2.0408163265306123,-2.0408163265306123,-2.0408163265306123,-2.0408163265306123,-2.0408163265306123,-2.0408163265306123,-2.0408163265306123,-2.0408163265306123,-2.0408163265306123,-2.0408163265306123,-2.0408163265306123,-2.0408163265306123,-2.0408163265306123,-2.0408163265306123,-2.0408163265306123,-2.0408163265306123,-2.0408163265306123,-2.0408163265306123,-2.0408163265306123,-2.0408163265306123,-2.0408163265306123,-2.0408163265306123,-2.0408163265306123,-2.0408163265306123,-2.0408163265306123,-2.0408163265306123,-2.0408163265306123,-2.0408163265306123,-2.0408163265306123,-2.0408163265306123,-2.0408163265306123,-2.0408163265306123,-2.0408163265306123,-2.0408163265306123,-2.0408163265306123,-2.0408163265306123,-2.0408163265306123,-2.0408163265306123,-2.0408163265306123,-2.0408163265306123,-2.0408163265306123,-2.0408163265306123,-2.0408163265306123,-2.0408163265306123,-2.0408163265306123,-2.0408163265306123,-2.0408163265306123,-2.0408163265306123,-2.0408163265306123,-2.0408163265306123,-2.0408163265306123,-2.0408163265306123,-2.0408163265306123,-2.0408163265306123,-2.0408163265306123,-2.0408163265306123,-2.0408163265306123,-2.0408163265306123,-2.0408163265306123,-2.0408163265306123,-2.0408163265306123,-2.0408163265306123,-2.0408163265306123,-2.0408163265306123,-2.0408163265306123,-2.0408163265306123,-2.0408163265306123,-2.0408163265306123,-2.0408163265306123,-2.0408163265306123,-2.0408163265306123,-2.0408163265306123,-2.0408163265306123,-2.0408163265306123,-2.0408163265306123,-2.0408163265306123,-2.0408163265306123,-2.0408163265306123,-2.0408163265306123,-2.0408163265306123,-2.0408163265306123,-2.0408163265306123,-2.0408163265306123,-2.0408163265306123,-2.0408163265306123,-2.0408163265306123,-2.0408163265306123,-2.0408163265306123,-2.0408163265306123,-2.0408163265306123,-2.0408163265306123,-2.0408163265306123,-2.0408163265306123,-2.0408163265306123,-2.0408163265306123,-2.0408163265306123,-2.0408163265306123,-2.0408163265306123,-2.0408163265306123,-2.0408163265306123,-2.0408163265306123,-2.0408163265306123,-2.0408163265306123,-2.0408163265306123,-2.0408163265306123,-2.0408163265306123,-2.0408163265306123,-2.0408163265306123,-2.0408163265306123,-2.0408163265306123,-2.0408163265306123,-2.0408163265306123,-2.0408163265306123,-2.0408163265306123,-2.0408163265306123,-2.0408163265306123,-2.0408163265306123,-2.0408163265306123,-2.0408163265306123,-2.0408163265306123,-2.0408163265306123,-2.0408163265306123,-2.0408163265306123,-2.0408163265306123,-2.0408163265306123,-2.0408163265306123,-2.0408163265306123,-2.0408163265306123,-2.0408163265306123,-2.0408163265306123,-2.0408163265306123,-2.0408163265306123,-2.0408163265306123,-2.0408163265306123,-2.0408163265306123,-2.0408163265306123,-2.0408163265306123,-2.0408163265306123,-2.0408163265306123,-2.0408163265306123,-2.0408163265306123,-2.0408163265306123,-2.0408163265306123,-2.0408163265306123,-2.0408163265306123,-2.0408163265306123,-2.0408163265306123,-2.0408163265306123,-2.0408163265306123,-2.0408163265306123,-2.0408163265306123,-2.0408163265306123,-2.0408163265306123,-2.0408163265306123,-2.0408163265306123,-2.0408163265306123,-2.0408163265306123,-2.0408163265306123,-2.0408163265306123,-2.0408163265306123,-2.0408163265306123,-2.0408163265306123,-2.0408163265306123,-2.0408163265306123,-2.0408163265306123,-2.0408163265306123,-2.0408163265306123,-2.0408163265306123,-2.0408163265306123,-2.0408163265306123,-2.0408163265306123,-2.0408163265306123,-2.0408163265306123,-2.0408163265306123,-2.0408163265306123,1.1723356701078869,1.1723356701078869,1.1723356701078869,1.1746033130048894,1.1746033130048894,1.1746033130048894,1.1746033130048894,1.1723356701078869,1.1723356701078869,1.1700680272108843,1.1700680272108843,1.167800591916454,1.167800591916454,1.167800591916454,1.167800591916454,1.163265306122449,1.158730227931016,1.1541951497395833,1.1541951497395833,1.1519275068425807,1.1496598639455782,1.1496598639455782,1.1496598639455782,1.1496598639455782,1.1519275068425807,1.1541951497395833,1.1541951497395833,1.1564625850340136,1.1564625850340136,1.1541951497395833,1.1496598639455782,1.1451247857541453,1.1405897075627125,1.13832206466571,1.13832206466571,1.13832206466571,1.13832206466571,1.13832206466571,1.13832206466571,1.1405897075627125,1.1405897075627125,1.1405897075627125,1.1405897075627125,1.1405897075627125,1.1428571428571428,1.1428571428571428,1.1360544217687074,1.1269842653858417,1.1201815442974066,1.1179139014004038,1.1179139014004038,1.1224489795918366,1.1269842653858417,1.1269842653858417,1.1269842653858417,1.1269842653858417,1.1269842653858417,1.1269842653858417,1.1269842653858417,1.1269842653858417,1.1269842653858417,1.1269842653858417,1.1269842653858417,1.1269842653858417,1.1269842653858417,1.1269842653858417,1.1269842653858417,1.1269842653858417,1.1269842653858417,1.1269842653858417,1.1269842653858417,1.1269842653858417,1.1269842653858417,1.1269842653858417,1.1269842653858417,1.1269842653858417,1.1269842653858417,1.1269842653858417,1.1269842653858417,1.1269842653858417,1.1269842653858417,1.1269842653858417,1.1269842653858417,1.1269842653858417,1.1269842653858417,1.1269842653858417,1.1269842653858417,1.1269842653858417,1.1269842653858417,1.1269842653858417,1.1269842653858417,1.1269842653858417,1.1269842653858417,1.1269842653858417,1.1269842653858417,0.1564625850340136,0.1564625850340136,0.1564625850340136,0.1564625850340136,0.1564625850340136,0.1564625850340136,0.1564625850340136,0.1564625850340136,0.1564625850340136,0.1564625850340136,0.1564625850340136,0.1564625850340136,0.1564625850340136,0.1564625850340136,0.1564625850340136,0.1564625850340136,0.1564625850340136,0.1564625850340136,0.1564625850340136,0.1564625850340136,0.1564625850340136,0.1564625850340136,0.1564625850340136,0.1564625850340136,0.1564625850340136,0.1564625850340136,0.1564625850340136,0.1564625850340136,0.1564625850340136,0.1564625850340136,0.1564625850340136,0.1564625850340136,0.1564625850340136,0.1564625850340136,0.1564625850340136,0.1564625850340136,0.1564625850340136,0.1564625850340136,0.1564625850340136,0.1564625850340136,0.1564625850340136,0.1564625850340136,0.1564625850340136,0.1564625850340136,0.1564625850340136,0.1564625850340136,0.1564625850340136,0.1564625850340136,0.1564625850340136,0.1564625850340136,0.1564625850340136,0.1564625850340136,0.1564625850340136,0.1564625850340136,0.1564625850340136,0.1564625850340136,0.1564625850340136,0.1564625850340136,0.1564625850340136,0.1564625850340136,0.1564625850340136,0.1564625850340136,0.1564625850340136,0.1564625850340136,0.1564625850340136,0.1564625850340136,0.1564625850340136,0.1564625850340136,0.1564625850340136,0.1564625850340136,0.1564625850340136,0.1564625850340136,0.1564625850340136,0.1564625850340136,0.1564625850340136,0.1564625850340136,0.1564625850340136,0.1564625850340136,0.1564625850340136,0.1564625850340136,0.1564625850340136,0.1564625850340136,0.1564625850340136,0.1564625850340136,0.1564625850340136,0.1564625850340136,0.1564625850340136,0.1564625850340136,0.1564625850340136,0.1564625850340136,0.1564625850340136,0.1564625850340136,0.1564625850340136,0.1564625850340136,0.1564625850340136,0.1564625850340136,0.1564625850340136,0.1564625850340136,0.1564625850340136,0.1564625850340136,0.1564625850340136,0.1564625850340136,0.1564625850340136,0.1564625850340136,0.1564625850340136,0.1564625850340136,0.1564625850340136,0.1564625850340136,0.1564625850340136,0.1564625850340136,0.1564625850340136,0.1564625850340136,0.1564625850340136,0.1564625850340136,0.1564625850340136,0.1564625850340136,0.1564625850340136,0.1564625850340136,0.1564625850340136,0.1564625850340136,0.1564625850340136,0.1564625850340136,0.1564625850340136,0.1564625850340136,0.1564625850340136,0.1564625850340136,0.1564625850340136,0.1564625850340136,0.1564625850340136,0.1564625850340136,0.1564625850340136,0.1564625850340136,0.1564625850340136,0.1564625850340136,0.1564625850340136,0.1564625850340136,0.1564625850340136,0.1564625850340136,0.1564625850340136,0.1564625850340136,0.1564625850340136,0.1564625850340136,0.1564625850340136,0.1564625850340136,0.1564625850340136,0.1564625850340136,0.1564625850340136,0.1564625850340136,0.1564625850340136,0.1564625850340136,0.1564625850340136,0.1564625850340136,0.1564625850340136,0.1564625850340136,0.1564625850340136,0.1564625850340136,0.1564625850340136,0.1564625850340136,0.1564625850340136,0.1564625850340136,0.1564625850340136,0.1564625850340136,0.1564625850340136,0.1564625850340136,0.1564625850340136,0.1564625850340136,0.1564625850340136,0.1564625850340136,0.1564625850340136,0.1564625850340136,0.1564625850340136,0.1564625850340136,0.1564625850340136,0.1564625850340136,0.1564625850340136,0.1564625850340136,0.1564625850340136,0.1564625850340136,0.1564625850340136,0.1564625850340136,0.1564625850340136,0.1564625850340136,0.1564625850340136,0.1564625850340136,0.1564625850340136,0.1564625850340136,0.1564625850340136,0.1564625850340136,0.1564625850340136,0.1564625850340136,0.1564625850340136,0.1564625850340136,0.1564625850340136,0.1564625850340136,0.1564625850340136,0.1564625850340136,0.1564625850340136,0.1564625850340136,0.1564625850340136,0.1564625850340136,0.1564625850340136,0.1564625850340136,0.1564625850340136,0.1564625850340136,0.1564625850340136,0.1564625850340136,0.1564625850340136,0.1564625850340136,0.1564625850340136,0.1564625850340136,0.1564625850340136,0.1564625850340136,0.1564625850340136,0.1564625850340136,0.1564625850340136,0.1564625850340136,0.1564625850340136,0.1564625850340136,0.1564625850340136,0.1564625850340136,0.1564625850340136,0.1564625850340136,0.1564625850340136,0.1564625850340136,0.1564625850340136,0.1564625850340136,0.1564625850340136,0.1564625850340136,0.1564625850340136,0.1564625850340136,0.1564625850340136,0.1564625850340136,0.1564625850340136,0.1564625850340136,0.1564625850340136,0.1564625850340136,0.1564625850340136,0.1564625850340136,0.1564625850340136,0.1564625850340136,0.1564625850340136,0.5283448096035289,0.5283448096035289,0.5283448096035289,0.5283448096035289,0.5283448096035289,0.5272108843537415,0.5272108843537415,0.5272108843537415,0.5272108843537415,0.5272108843537415,0.5272108843537415,0.5272108843537415,0.5272108843537415,0.5272108843537415,0.5272108843537415,0.5272108843537415,0.5272108843537415,0.5272108843537415,0.5272108843537415,0.5272108843537415,0.5272108843537415,0.5272108843537415,0.5272108843537415,0.5272108843537415,0.5272108843537415,0.5272108843537415,0.5272108843537415,0.5272108843537415,0.5272108843537415,0.5272108843537415,0.5272108843537415,0.5272108843537415,0.5272108843537415,0.5272108843537415,0.5272108843537415,0.5272108843537415,0.5272108843537415,0.5272108843537415,0.5272108843537415,0.5272108843537415,0.5272108843537415,0.5272108843537415,0.5272108843537415,0.5272108843537415,0.5272108843537415,0.5272108843537415,0.5272108843537415,0.5272108843537415,0.5272108843537415,0.5272108843537415,0.5272108843537415,0.5272108843537415,0.5272108843537415,0.5272108843537415,0.5272108843537415,0.5272108843537415,0.5272108843537415,0.5272108843537415,0.5272108843537415,0.5272108843537415,0.5272108843537415,0.5272108843537415,0.5272108843537415,0.5272108843537415,0.5272108843537415,0.5272108843537415,0.5272108843537415,0.5272108843537415,0.5272108843537415,0.5272108843537415,0.5272108843537415,0.5272108843537415,0.5272108843537415,0.5272108843537415,0.5272108843537415,0.5272108843537415,0.5272108843537415,0.5272108843537415,0.5272108843537415,0.5272108843537415,0.5272108843537415,0.5272108843537415,0.5272108843537415,0.5272108843537415,0.5272108843537415,0.5272108843537415,0.5272108843537415,0.5272108843537415,0.5272108843537415,0.5272108843537415,0.5272108843537415,0.5272108843537415,0.5272108843537415,0.5272108843537415,0.5272108843537415,0.5272108843537415,0.5272108843537415,0.5272108843537415,0.5272108843537415,0.5272108843537415,0.5272108843537415,0.5272108843537415,0.5272108843537415,0.5272108843537415,0.5272108843537415,0.5272108843537415,0.5272108843537415,0.5272108843537415,0.5272108843537415,0.5272108843537415,0.5272108843537415,0.5272108843537415,0.5272108843537415,0.5272108843537415,0.5272108843537415,0.5272108843537415,0.5272108843537415,0.5272108843537415,0.5272108843537415,0.5272108843537415,0.5272108843537415,0.5272108843537415,0.5272108843537415,0.5272108843537415,0.5272108843537415,0.5272108843537415,0.5272108843537415,0.5272108843537415,0.5272108843537415,0.5272108843537415,0.5272108843537415,0.5272108843537415,0.5272108843537415,0.5272108843537415,0.5272108843537415,0.5272108843537415,0.5272108843537415,0.5272108843537415,0.5272108843537415,0.5272108843537415,0.5272108843537415,0.5272108843537415,0.5272108843537415,0.5272108843537415,0.5272108843537415,0.5272108843537415,0.5272108843537415,0.5272108843537415,0.5272108843537415,0.5272108843537415,0.5272108843537415,0.5272108843537415,0.5272108843537415,0.5272108843537415,0.5272108843537415,0.5272108843537415,0.5272108843537415,0.5272108843537415,0.5272108843537415,0.5272108843537415,0.5272108843537415,0.5272108843537415,0.5272108843537415,0.5272108843537415,0.5272108843537415,0.5272108843537415,0.5272108843537415,0.5272108843537415,0.5272108843537415,0.5272108843537415,0.5272108843537415,0.5272108843537415,0.5272108843537415,0.5272108843537415,0.5272108843537415,0.5272108843537415,0.5272108843537415,0.5272108843537415,0.5272108843537415,0.5272108843537415,0.5272108843537415,0.5272108843537415,0.5272108843537415,0.5272108843537415,0.5272108843537415,0.5272108843537415,0.5272108843537415,0.5272108843537415,0.5272108843537415,0.5272108843537415,0.5272108843537415,0.5272108843537415,0.5272108843537415,0.5272108843537415,0.5272108843537415,0.5272108843537415,0.5272108843537415,0.5272108843537415,0.5272108843537415,0.5272108843537415,0.5272108843537415,0.5272108843537415,0.5272108843537415,0.5272108843537415,0.5272108843537415,0.5272108843537415,0.5272108843537415,0.5272108843537415,0.5272108843537415,0.5272108843537415,0.5272108843537415,0.5272108843537415,0.5272108843537415,0.5272108843537415,0.5272108843537415,0.5272108843537415,0.5272108843537415,0.5272108843537415,0.5272108843537415,0.5272108843537415,0.5272108843537415,0.5272108843537415,0.5272108843537415,0.5272108843537415,0.5272108843537415,0.5272108843537415,0.5272108843537415,0.5272108843537415,0.5272108843537415,0.5272108843537415,0.5272108843537415,0.5272108843537415,0.5272108843537415,0.5272108843537415,0.5272108843537415,0.5272108843537415,0.5272108843537415,0.5272108843537415,0.5272108843537415,0.5272108843537415,0.5272108843537415,0.5272108843537415,0.5272108843537415,0.5272108843537415,0.5272108843537415,0.5272108843537415,0.5272108843537415,0.5272108843537415,0.5272108843537415,0.5272108843537415,0.5272108843537415,0.5272108843537415,0.5272108843537415,0.5272108843537415,0.5272108843537415,0.5272108843537415,0.5272108843537415,0.5272108843537415,0.5272108843537415,0.5272108843537415,0.5272108843537415,0.5272108843537415,0.5272108843537415,0.5272108843537415,0.5272108843537415,0.5272108843537415,0.5272108843537415,0.5272108843537415,0.5272108843537415,0.5272108843537415,0.5272108843537415,0.5272108843537415,0.5272108843537415,0.5272108843537415,0.5272108843537415,0.5272108843537415,0.5272108843537415,0.5272108843537415,0.5272108843537415,0.5272108843537415,0.5272108843537415,0.5272108843537415,0.5272108843537415,0.5272108843537415,0.5272108843537415,0.5272108843537415,0.5272108843537415,0.5272108843537415,0.5272108843537415,0.5272108843537415,0.5272108843537415,0.5272108843537415,0.5272108843537415,0.5272108843537415,0.5272108843537415,0.5272108843537415,0.5272108843537415,0.5272108843537415,0.5272108843537415,0.5272108843537415,0.5272108843537415,0.5272108843537415,0.5272108843537415,0.5272108843537415,0.5272108843537415,0.5272108843537415,0.5272108843537415,0.5272108843537415,0.5272108843537415,0.5272108843537415,0.5272108843537415,0.5272108843537415,0.5272108843537415,0.5272108843537415,0.5272108843537415,0.5272108843537415,0.5272108843537415,0.5272108843537415,0.5272108843537415,0.5272108843537415,0.5272108843537415,0.5272108843537415,0.5272108843537415,0.5272108843537415,0.5272108843537415,0.5272108843537415,0.5272108843537415,0.5272108843537415,0.5272108843537415,0.5272108843537415,0.5272108843537415,0.5272108843537415,0.5272108843537415,0.5272108843537415,0.5272108843537415,0.5272108843537415,0.5272108843537415,0.5272108843537415,0.5272108843537415,0.5272108843537415,0.5272108843537415,0.5272108843537415,0.5272108843537415,0.5272108843537415,0.5272108843537415,0.5272108843537415,0.5272108843537415,0.5272108843537415,0.5272108843537415,0.5272108843537415,0.5272108843537415,0.5272108843537415,0.5272108843537415,0.5272108843537415,0.5272108843537415,0.5272108843537415,0.5272108843537415,0.5272108843537415,0.5272108843537415,0.5272108843537415,0.5272108843537415,0.5272108843537415,0.5272108843537415,0.5272108843537415,0.5272108843537415,0.5272108843537415,0.5272108843537415,0.5272108843537415,0.5272108843537415,0.5272108843537415,0.5272108843537415,0.5272108843537415,0.5272108843537415,0.5272108843537415,0.5272108843537415,0.5272108843537415,0.5272108843537415,0.5272108843537415,0.5272108843537415,0.5272108843537415,0.5272108843537415,0.5272108843537415,0.5272108843537415,0.5272108843537415,0.5272108843537415,0.5272108843537415,0.5272108843537415,0.5272108843537415,0.5272108843537415,0.5272108843537415,0.5272108843537415,0.5272108843537415,0.5272108843537415,0.5272108843537415,0.5272108843537415,0.5272108843537415,0.5272108843537415,0.5272108843537415,0.5272108843537415,0.5272108843537415,0.5272108843537415,0.5272108843537415,0.5272108843537415,0.5272108843537415,0.5272108843537415,0.5272108843537415,0.5272108843537415,0.5272108843537415,0.5272108843537415,0.5272108843537415,0.5272108843537415,0.5272108843537415,0.5272108843537415,0.5272108843537415,0.5272108843537415,0.5272108843537415,0.5272108843537415,0.5272108843537415,0.5272108843537415,0.5272108843537415,0.5272108843537415,0.5272108843537415,0.5272108843537415,0.5272108843537415,0.5272108843537415,0.5272108843537415,0.5272108843537415,0.5272108843537415,0.5272108843537415,0.5272108843537415,0.5272108843537415,0.5272108843537415,0.5272108843537415,0.5272108843537415,0.5272108843537415,0.5272108843537415,0.5272108843537415,0.5272108843537415,0.5272108843537415,0.5272108843537415,0.5272108843537415,0.5272108843537415,0.5272108843537415,0.5272108843537415,0.5272108843537415,0.5272108843537415,0.5272108843537415,0.5272108843537415,0.5272108843537415,0.5272108843537415,0.5272108843537415,0.5272108843537415,0.5272108843537415,0.5272108843537415,0.5272108843537415,0.5272108843537415,0.5272108843537415,0.5272108843537415,0.5272108843537415,0.5272108843537415,0.5272108843537415,0.5272108843537415,0.5272108843537415,0.5272108843537415,0.5272108843537415,0.5272108843537415,0.5272108843537415,0.5272108843537415,0.5272108843537415,0.5272108843537415,0.5272108843537415,0.5272108843537415,0.5272108843537415,0.5272108843537415,0.5272108843537415,0.5272108843537415,0.5272108843537415,0.5272108843537415,0.5272108843537415,0.5272108843537415,0.5272108843537415,0.5272108843537415,0.5272108843537415,0.5272108843537415,0.5272108843537415,0.5272108843537415,0.5272108843537415,0.5272108843537415,0.5272108843537415,0.5272108843537415,0.5272108843537415,0.5272108843537415,0.5272108843537415,0.5272108843537415,0.5272108843537415,0.5272108843537415,0.5272108843537415,0.5272108843537415,0.5272108843537415,0.5272108843537415,0.5272108843537415,0.5272108843537415,0.5272108843537415,0.5272108843537415,0.5272108843537415,0.5272108843537415,0.5272108843537415,0.5272108843537415,0.5272108843537415,0.5272108843537415,0.5272108843537415,0.5272108843537415,0.5272108843537415,0.5272108843537415,0.5272108843537415,0.5272108843537415,0.5272108843537415,0.5272108843537415,0.5272108843537415,0.5272108843537415,0.5272108843537415,0.5272108843537415,0.5272108843537415,0.5272108843537415,0.5272108843537415,0.5272108843537415,0.5272108843537415,0.5272108843537415,0.5272108843537415,0.5272108843537415,0.5272108843537415,0.5272108843537415,0.5272108843537415,0.5272108843537415,0.5272108843537415,0.5272108843537415,0.5272108843537415,0.5272108843537415,0.5272108843537415,0.5272108843537415,0.5272108843537415,0.5272108843537415,0.5272108843537415,0.5272108843537415,0.5272108843537415,0.5272108843537415,0.5272108843537415,0.5272108843537415,0.5272108843537415,0.5272108843537415,0.5272108843537415,0.5272108843537415,0.5272108843537415,0.5272108843537415,0.5272108843537415,0.5272108843537415,0.5272108843537415,0.5272108843537415,0.5272108843537415,0.5272108843537415,0.5272108843537415,0.5272108843537415,0.5272108843537415,0.5272108843537415,0.5272108843537415,0.5272108843537415,0.5272108843537415,0.5272108843537415,0.5272108843537415,0.5272108843537415,0.5272108843537415,0.5272108843537415,0.5272108843537415,0.5272108843537415,0.5272108843537415,0.5272108843537415,0.5272108843537415,0.5272108843537415,0.5272108843537415,0.5272108843537415,0.5272108843537415,0.5272108843537415,0.5272108843537415,0.5272108843537415,0.5272108843537415,0.5272108843537415,0.5272108843537415,0.5272108843537415,0.5272108843537415,0.5272108843537415,0.5272108843537415,0.5272108843537415,0.5272108843537415,0.5272108843537415,0.5272108843537415,0.5272108843537415,0.5272108843537415,0.5272108843537415,0.5272108843537415,0.5272108843537415,0.5272108843537415,0.5272108843537415,0.5272108843537415,0.5272108843537415,0.5272108843537415,0.5272108843537415,0.5272108843537415,0.5272108843537415,0.5272108843537415,0.5272108843537415,0.5272108843537415,0.5272108843537415,0.5272108843537415,0.5272108843537415,0.5272108843537415,0.5272108843537415,0.5272108843537415,0.5272108843537415,0.5272108843537415,0.5272108843537415,0.5272108843537415,0.5272108843537415,0.5272108843537415,0.5272108843537415,0.5272108843537415,0.5272108843537415,0.5272108843537415,0.5272108843537415,0.5272108843537415,0.5272108843537415,0.5272108843537415,0.5272108843537415,0.5272108843537415,0.5272108843537415,0.5272108843537415,0.5272108843537415,0.5272108843537415,0.5272108843537415,0.5272108843537415,0.5272108843537415,0.5272108843537415,0.5272108843537415,0.5272108843537415,0.5272108843537415,0.5272108843537415,0.5272108843537415,0.5272108843537415,0.5272108843537415,0.5272108843537415,0.5272108843537415,0.5272108843537415,0.5272108843537415,0.5272108843537415,0.5272108843537415,0.5272108843537415,0.5272108843537415,0.5272108843537415,0.5272108843537415,0.5272108843537415,0.5272108843537415,0.5272108843537415,0.5272108843537415,0.5272108843537415,0.5272108843537415,0.5272108843537415,0.5272108843537415,0.5272108843537415,0.5272108843537415,0.5272108843537415,0.5272108843537415,0.5272108843537415,0.5272108843537415,0.5272108843537415,0.5272108843537415,0.5272108843537415,0.5272108843537415,0.5272108843537415,0.5272108843537415,0.5272108843537415,0.5272108843537415,0.5272108843537415,0.5272108843537415,0.5272108843537415,0.5272108843537415,0.5272108843537415,0.5272108843537415,0.5272108843537415,0.5272108843537415,0.5272108843537415,0.5272108843537415,0.5272108843537415,0.5272108843537415,0.5272108843537415,0.5272108843537415,0.5272108843537415,0.5272108843537415,0.5272108843537415,0.5272108843537415,0.5272108843537415,0.5272108843537415,0.5272108843537415,0.5272108843537415,0.5272108843537415,0.5272108843537415,0.5272108843537415,0.5272108843537415,0.5272108843537415,0.5272108843537415,0.5272108843537415,0.5272108843537415,0.5272108843537415,0.5272108843537415,0.5272108843537415,0.5272108843537415,0.5272108843537415,0.5272108843537415,0.5272108843537415,0.5272108843537415,0.5272108843537415,0.5272108843537415,0.5272108843537415,0.5272108843537415,0.5272108843537415,0.5272108843537415,0.5272108843537415,0.5272108843537415,0.5272108843537415,0.5272108843537415,0.5272108843537415,0.5272108843537415,0.5272108843537415,0.5272108843537415,0.5272108843537415,0.5272108843537415,0.5272108843537415,0.5272108843537415,0.5272108843537415,0.5272108843537415,0.5272108843537415,0.5272108843537415,0.5272108843537415,0.5272108843537415,0.5272108843537415,0.5272108843537415,0.5272108843537415,0.5272108843537415,0.5272108843537415,0.5272108843537415,0.5272108843537415,0.5272108843537415,0.5272108843537415,0.5272108843537415,0.5272108843537415,0.5272108843537415,0.5272108843537415,0.5272108843537415,0.5272108843537415,0.5272108843537415,0.5272108843537415,0.5272108843537415,0.5272108843537415,0.5272108843537415,0.5272108843537415,0.5272108843537415,0.5272108843537415,0.5272108843537415,0.5272108843537415,0.5272108843537415,0.5272108843537415,0.5272108843537415,0.5272108843537415,0.5272108843537415,0.5272108843537415,0.5272108843537415,0.5272108843537415,0.5272108843537415,0.5272108843537415,0.5272108843537415,0.5272108843537415,0.5272108843537415,0.5272108843537415,0.5272108843537415,0.5272108843537415,0.5272108843537415,0.5272108843537415,0.5272108843537415,0.5272108843537415,0.5272108843537415,0.5272108843537415,0.5272108843537415,0.5272108843537415,0.5272108843537415,0.5272108843537415,0.5272108843537415,0.5272108843537415,0.5272108843537415,0.5272108843537415,0.5272108843537415,0.5272108843537415,0.5272108843537415,0.5272108843537415,0.5272108843537415,0.5272108843537415,0.5272108843537415,0.5272108843537415,0.5272108843537415,0.5272108843537415,0.5272108843537415,0.5272108843537415,0.5272108843537415,0.5272108843537415,0.5272108843537415,0.5272108843537415,0.5272108843537415,0.5272108843537415,0.5272108843537415,0.5272108843537415,0.5272108843537415,0.5272108843537415,0.5272108843537415,0.5272108843537415,0.5272108843537415,0.5272108843537415,0.5272108843537415,0.5272108843537415,0.5272108843537415,0.5272108843537415,0.5272108843537415,0.5272108843537415,0.5272108843537415,0.5272108843537415,0.5272108843537415,0.5272108843537415,0.5272108843537415,0.5272108843537415,0.5272108843537415,0.5272108843537415,0.5272108843537415,0.5272108843537415,0.5272108843537415,0.5272108843537415,0.5272108843537415,0.5272108843537415,0.5272108843537415,0.5272108843537415,0.5272108843537415,0.5272108843537415,0.5272108843537415,0.5272108843537415,0.5272108843537415,0.5272108843537415,0.5272108843537415,0.5272108843537415,0.5272108843537415,0.5272108843537415,0.5272108843537415,0.5272108843537415,0.5272108843537415,0.5272108843537415,0.5272108843537415,0.5272108843537415,0.5272108843537415,0.5272108843537415,0.5272108843537415,0.5272108843537415,0.5272108843537415,0.5272108843537415,0.5272108843537415,0.5272108843537415,0.5272108843537415,0.5272108843537415,0.5272108843537415,0.5272108843537415,0.5272108843537415,0.5272108843537415,0.5272108843537415,0.5272108843537415,0.5272108843537415,0.5272108843537415,0.5272108843537415,0.5272108843537415,0.5272108843537415,0.5272108843537415,-0.02947831964817177,-0.02947831964817177,-0.02947831964817177,-0.02947831964817177,-0.02947831964817177,-0.02947831964817177,-0.02947831964817177,-0.030612244897959183,-0.030612244897959183,-0.030612244897959183,-0.030612244897959183,-0.030612244897959183,-0.030612244897959183,-0.030612244897959183,-0.030612244897959183,-0.030612244897959183,-0.030612244897959183,-0.030612244897959183,-0.030612244897959183,-0.030612244897959183,-0.030612244897959183,-0.030612244897959183,-0.030612244897959183,-0.030612244897959183,-0.030612244897959183,-0.030612244897959183,-0.030612244897959183,-0.030612244897959183,-0.030612244897959183,-0.030612244897959183,-0.030612244897959183,-0.030612244897959183,-0.030612244897959183,-0.030612244897959183,-0.030612244897959183,-0.030612244897959183,-0.030612244897959183,-0.030612244897959183,-0.030612244897959183,-0.030612244897959183,-0.030612244897959183,-0.030612244897959183,-0.030612244897959183,-0.030612244897959183,-0.030612244897959183,-0.030612244897959183,-0.030612244897959183,-0.030612244897959183,-0.030612244897959183,-0.030612244897959183,-0.030612244897959183,-0.030612244897959183,-0.030612244897959183,-0.030612244897959183,-0.030612244897959183,-0.030612244897959183,-0.030612244897959183,-0.030612244897959183,-0.030612244897959183,-0.030612244897959183,-0.030612244897959183,-0.030612244897959183,-0.030612244897959183,-0.030612244897959183,-0.030612244897959183,-0.030612244897959183,-0.030612244897959183,-0.030612244897959183,-0.030612244897959183,-0.030612244897959183,-0.030612244897959183,-0.030612244897959183,-0.030612244897959183,-0.030612244897959183,-0.030612244897959183,-0.030612244897959183,-0.030612244897959183,-0.030612244897959183,-0.030612244897959183,-0.030612244897959183,-0.030612244897959183,-0.030612244897959183,-0.030612244897959183,-0.030612244897959183,-0.030612244897959183,-0.030612244897959183,-0.030612244897959183,-0.030612244897959183,-0.030612244897959183,-0.030612244897959183,-0.030612244897959183,-0.030612244897959183,-0.030612244897959183,-0.030612244897959183,-0.030612244897959183,-0.030612244897959183,-0.030612244897959183,-0.030612244897959183,-0.030612244897959183,-0.030612244897959183,-0.030612244897959183,-0.030612244897959183,-0.030612244897959183,-0.030612244897959183,-0.030612244897959183,-0.030612244897959183,-0.030612244897959183,-0.030612244897959183,-0.030612244897959183,-0.030612244897959183,-0.030612244897959183,-0.030612244897959183,-0.030612244897959183,-0.030612244897959183,-0.030612244897959183,-0.030612244897959183,-0.030612244897959183,-0.030612244897959183,-0.030612244897959183,-0.030612244897959183,-0.030612244897959183,-0.030612244897959183,-0.030612244897959183,-0.030612244897959183,-0.030612244897959183,-0.030612244897959183,-0.030612244897959183,-0.030612244897959183,-0.030612244897959183,-0.030612244897959183,-0.030612244897959183,-0.030612244897959183,-0.030612244897959183,-0.030612244897959183,-0.030612244897959183,-0.030612244897959183,-0.030612244897959183,-0.030612244897959183,-0.030612244897959183,-0.030612244897959183,-0.030612244897959183,-0.030612244897959183,-0.030612244897959183,-0.030612244897959183,-0.030612244897959183,-0.030612244897959183,-0.030612244897959183,-0.030612244897959183,-0.030612244897959183,-0.030612244897959183,-0.030612244897959183,-0.030612244897959183,-0.030612244897959183,-0.030612244897959183,-0.030612244897959183,-0.030612244897959183,-0.030612244897959183,-0.030612244897959183,-0.030612244897959183,-0.030612244897959183,-0.030612244897959183,-0.030612244897959183,-0.030612244897959183,-0.030612244897959183,-0.030612244897959183,-0.030612244897959183,-0.030612244897959183,-0.030612244897959183,-0.030612244897959183,-0.030612244897959183,-0.030612244897959183,-0.030612244897959183,-0.030612244897959183,-0.030612244897959183,-0.030612244897959183,-0.030612244897959183,-0.030612244897959183,-0.030612244897959183,-0.030612244897959183,-0.030612244897959183,-0.030612244897959183,-0.030612244897959183,-0.030612244897959183,-0.030612244897959183,-0.030612244897959183,-0.030612244897959183,-0.030612244897959183,-0.030612244897959183,-0.030612244897959183,-0.030612244897959183,-0.030612244897959183,-0.030612244897959183,-0.030612244897959183,-0.030612244897959183,-0.030612244897959183,-0.030612244897959183,-0.030612244897959183,-0.030612244897959183,-0.030612244897959183,-0.030612244897959183,-0.030612244897959183,-0.030612244897959183,-0.030612244897959183,-0.030612244897959183,-0.030612244897959183,-0.030612244897959183,-0.030612244897959183,-0.030612244897959183,-0.030612244897959183,-0.030612244897959183,-0.030612244897959183,-0.030612244897959183,-0.030612244897959183,-0.030612244897959183,-0.030612244897959183,-0.030612244897959183,-0.030612244897959183,-0.030612244897959183,-0.030612244897959183,-0.030612244897959183,-0.030612244897959183,-0.030612244897959183,-0.030612244897959183,-0.030612244897959183,-0.030612244897959183,-0.030612244897959183,-0.030612244897959183,-0.030612244897959183,-0.030612244897959183,-0.030612244897959183,-0.030612244897959183,-0.030612244897959183,-0.030612244897959183,-0.030612244897959183,-0.030612244897959183,-0.030612244897959183,-0.030612244897959183,-0.030612244897959183,-0.030612244897959183,-0.030612244897959183,-0.030612244897959183,-0.030612244897959183,-0.030612244897959183,-0.030612244897959183,-0.030612244897959183,-0.030612244897959183,-0.030612244897959183,-0.030612244897959183,-0.030612244897959183,-0.030612244897959183,-0.030612244897959183,-0.030612244897959183,-0.030612244897959183,-0.030612244897959183,-0.030612244897959183,-0.030612244897959183,-0.030612244897959183,-0.030612244897959183,-0.030612244897959183,-0.030612244897959183,-0.030612244897959183,-0.030612244897959183,-0.030612244897959183,-0.030612244897959183,-0.030612244897959183,-0.030612244897959183,-0.030612244897959183,-0.030612244897959183,-0.030612244897959183,-0.030612244897959183,-0.030612244897959183,-0.030612244897959183,-0.030612244897959183,-0.030612244897959183,-0.030612244897959183,-0.030612244897959183,-0.030612244897959183,-0.030612244897959183,-0.030612244897959183,-0.030612244897959183,-0.030612244897959183,-0.030612244897959183,-0.030612244897959183,-0.030612244897959183,-0.030612244897959183,-0.030612244897959183,-0.030612244897959183,-0.030612244897959183,-0.030612244897959183,-0.030612244897959183,-0.030612244897959183,-0.030612244897959183,-0.030612244897959183,-0.030612244897959183,-0.030612244897959183,-0.030612244897959183,-0.030612244897959183,-0.030612244897959183,-0.030612244897959183,-0.030612244897959183,-0.030612244897959183,-0.030612244897959183,-0.030612244897959183,-0.030612244897959183,-0.030612244897959183,-0.030612244897959183,-0.030612244897959183,-0.030612244897959183,-0.030612244897959183,-0.030612244897959183,-0.030612244897959183,-0.030612244897959183,-0.030612244897959183,-0.030612244897959183,-0.030612244897959183,-0.030612244897959183,-0.030612244897959183,-0.030612244897959183,-0.030612244897959183,-0.030612244897959183,-0.030612244897959183,-0.030612244897959183,-0.030612244897959183,-0.030612244897959183,-0.030612244897959183,-0.030612244897959183,-0.030612244897959183,-0.030612244897959183,-0.030612244897959183,-0.030612244897959183,-0.030612244897959183,-0.030612244897959183,-0.030612244897959183,-0.030612244897959183,-0.030612244897959183,-0.030612244897959183,-0.030612244897959183,-0.030612244897959183,-0.030612244897959183,-0.030612244897959183,-0.030612244897959183,-0.030612244897959183,-0.030612244897959183,-0.030612244897959183,-0.030612244897959183,-0.030612244897959183,-0.030612244897959183,-0.030612244897959183,-0.030612244897959183,-0.030612244897959183,-0.030612244897959183,-0.030612244897959183,-0.030612244897959183,-0.030612244897959183,-0.030612244897959183,-0.030612244897959183,-0.030612244897959183,-0.030612244897959183,-0.030612244897959183,-0.030612244897959183,-0.030612244897959183,-0.030612244897959183,-0.030612244897959183,-0.030612244897959183,-0.030612244897959183,-0.030612244897959183,-0.030612244897959183,-0.030612244897959183,-0.030612244897959183,-0.030612244897959183,-0.030612244897959183,-0.030612244897959183,-0.030612244897959183,-0.030612244897959183,-0.030612244897959183,-0.030612244897959183,-0.030612244897959183,-0.030612244897959183,-0.030612244897959183,-0.030612244897959183,-0.030612244897959183,-0.030612244897959183,-0.030612244897959183,-0.030612244897959183,-0.030612244897959183,-0.030612244897959183,-0.030612244897959183,-0.030612244897959183,-0.030612244897959183,-0.030612244897959183,-0.030612244897959183,-0.030612244897959183,-0.030612244897959183,-0.030612244897959183,-0.030612244897959183,-0.030612244897959183,-0.030612244897959183,-0.030612244897959183,-0.030612244897959183,-0.030612244897959183,-0.030612244897959183,-0.030612244897959183,-0.030612244897959183,-0.030612244897959183,-0.030612244897959183,-0.030612244897959183,-0.030612244897959183,-0.030612244897959183,-0.030612244897959183,-0.030612244897959183,-0.030612244897959183,-0.030612244897959183,-0.030612244897959183,-0.030612244897959183,-0.030612244897959183,-0.030612244897959183,-0.030612244897959183,-0.030612244897959183,-0.030612244897959183,-0.030612244897959183,-0.030612244897959183,-0.030612244897959183,-0.030612244897959183,-0.030612244897959183,-0.030612244897959183,-0.030612244897959183,-0.030612244897959183,-0.030612244897959183,-0.030612244897959183,-0.030612244897959183,-0.030612244897959183,-0.030612244897959183,-0.030612244897959183,-0.030612244897959183,-0.030612244897959183,-0.030612244897959183,-0.030612244897959183,-0.030612244897959183,-0.030612244897959183,-0.030612244897959183,-0.030612244897959183,-0.030612244897959183,-0.030612244897959183,-0.030612244897959183,-0.030612244897959183,-0.030612244897959183,-0.030612244897959183,-0.030612244897959183,-0.030612244897959183,-0.030612244897959183,-0.030612244897959183,-0.030612244897959183,-0.030612244897959183,-0.030612244897959183,-0.030612244897959183,-0.030612244897959183,-0.030612244897959183,-0.030612244897959183,-0.030612244897959183,-0.030612244897959183,-0.030612244897959183,-0.030612244897959183,-0.030612244897959183,-0.030612244897959183,-0.030612244897959183,-0.030612244897959183,-0.030612244897959183,-0.030612244897959183,0.9818594796316964,0.9818594796316964,0.9818594796316964,0.9818594796316964,0.9818594796316964,0.9818594796316964,0.9818594796316964,0.9818594796316964,0.9818594796316964,0.9818594796316964,0.9818594796316964,0.9841271225286989,0.9841271225286989,0.9841271225286989,0.9841271225286989,0.9841271225286989,0.9841271225286989,0.9841271225286989,0.9841271225286989,0.9841271225286989,0.9841271225286989,0.9841271225286989,0.9841271225286989,0.9841271225286989,0.9841271225286989,0.9841271225286989,0.9841271225286989,0.9841271225286989,0.9841271225286989,0.9841271225286989,0.9841271225286989,0.9841271225286989,0.9841271225286989,0.9841271225286989,0.9841271225286989,0.9841271225286989,0.9841271225286989,0.9841271225286989,0.9841271225286989,0.9841271225286989,0.9841271225286989,0.9841271225286989,0.9841271225286989,0.9841271225286989,0.9841271225286989,1.0226758061623087,1.0226758061623087,1.0226758061623087,1.0226758061623087,1.0204081632653061,1.0204081632653061,1.0204081632653061,1.0204081632653061,1.0204081632653061,1.0204081632653061,1.0204081632653061,1.0204081632653061,1.0204081632653061,1.0204081632653061,1.0204081632653061,1.0204081632653061,1.0204081632653061,1.0204081632653061,1.0204081632653061,1.0204081632653061,1.0204081632653061,1.0204081632653061,1.0204081632653061,1.0204081632653061,1.0204081632653061,1.0204081632653061,1.0204081632653061,1.0204081632653061,1.0204081632653061,1.0204081632653061,1.0204081632653061,1.0204081632653061,1.0204081632653061,1.0204081632653061,1.0204081632653061,1.0204081632653061,1.0204081632653061,1.0204081632653061,1.0204081632653061,1.0204081632653061,1.0204081632653061,1.0204081632653061,1.0204081632653061,1.0204081632653061,1.0204081632653061,1.0204081632653061,1.0204081632653061,1.0204081632653061,1.0204081632653061,1.0204081632653061,1.0204081632653061,1.0204081632653061,1.0204081632653061,1.0204081632653061,1.0204081632653061,1.0204081632653061,1.0204081632653061,1.0204081632653061,1.0204081632653061,1.0204081632653061,1.0204081632653061,1.0204081632653061,1.0204081632653061,1.0204081632653061,1.0204081632653061,1.0204081632653061,1.0204081632653061,1.0204081632653061,1.0204081632653061,1.0204081632653061,1.0204081632653061,1.0204081632653061,1.0204081632653061,1.0204081632653061,0.18594111228475765,0.18594111228475765,0.18594111228475765,0.18594111228475765,0.1836734693877551,0.1836734693877551,0.1836734693877551,0.1836734693877551,0.1836734693877551,0.1836734693877551,0.1836734693877551,0.1836734693877551,0.1836734693877551,0.1836734693877551,0.1836734693877551,0.1836734693877551,0.1836734693877551,0.1836734693877551,0.1836734693877551,0.1836734693877551,0.1836734693877551,0.1836734693877551,0.1836734693877551,0.1836734693877551,0.1836734693877551,0.1836734693877551,0.1836734693877551,0.1836734693877551,0.1836734693877551,0.1836734693877551,0.1836734693877551,0.1836734693877551,0.1836734693877551,0.1836734693877551,0.1836734693877551,0.1836734693877551,0.1836734693877551,0.1836734693877551,0.1836734693877551,0.1836734693877551,0.1836734693877551,0.1836734693877551,0.1836734693877551,0.1836734693877551,0.1836734693877551,0.1836734693877551,0.1836734693877551,0.1836734693877551,0.1836734693877551,0.1836734693877551,0.1836734693877551,0.1836734693877551,0.1836734693877551,0.1836734693877551,0.1836734693877551,0.1836734693877551,0.1836734693877551,0.1836734693877551,0.1836734693877551,0.1836734693877551,0.1836734693877551,0.1836734693877551,0.1836734693877551,0.1836734693877551,0.1836734693877551,0.1836734693877551,0.1836734693877551,0.1836734693877551,0.1836734693877551,0.1836734693877551,0.1836734693877551,0.1836734693877551,0.1836734693877551,0.1836734693877551,0.1836734693877551,0.1836734693877551,0.1836734693877551,0.1836734693877551,0.1836734693877551,1.1541951497395833,1.1541951497395833,1.1541951497395833,1.1541951497395833,1.1541951497395833,1.153061224489796,1.153061224489796,1.153061224489796,1.153061224489796,1.153061224489796,1.153061224489796,1.153061224489796,1.153061224489796,1.153061224489796,1.153061224489796,1.153061224489796,1.153061224489796,1.153061224489796,1.153061224489796,1.153061224489796,1.153061224489796,1.153061224489796,1.153061224489796,1.153061224489796,1.153061224489796,1.153061224489796,1.153061224489796,1.153061224489796,1.153061224489796,1.153061224489796,1.153061224489796,1.153061224489796,1.153061224489796,1.153061224489796,1.153061224489796,1.153061224489796,1.153061224489796,1.153061224489796,1.153061224489796,1.153061224489796,1.153061224489796,1.153061224489796,1.153061224489796,1.153061224489796,1.153061224489796,1.153061224489796,1.153061224489796,1.153061224489796,1.153061224489796,1.153061224489796,1.153061224489796,1.153061224489796,1.153061224489796,1.153061224489796,1.153061224489796,1.153061224489796,1.153061224489796,1.153061224489796,1.153061224489796,1.153061224489796,1.153061224489796,1.153061224489796,1.153061224489796,1.153061224489796,1.153061224489796,1.153061224489796,1.153061224489796,1.153061224489796,1.153061224489796,1.153061224489796,1.153061224489796,1.153061224489796,1.153061224489796,1.153061224489796,1.153061224489796,1.153061224489796,1.153061224489796,1.153061224489796,1.153061224489796,1.153061224489796,1.153061224489796,1.153061224489796,1.153061224489796,1.153061224489796,1.153061224489796,1.153061224489796,1.153061224489796,1.153061224489796,1.153061224489796,1.153061224489796,1.153061224489796,1.153061224489796,1.153061224489796,1.153061224489796,1.153061224489796,1.153061224489796,1.153061224489796,1.153061224489796,1.153061224489796,1.153061224489796,1.153061224489796,1.153061224489796,1.153061224489796,1.153061224489796,1.153061224489796,1.153061224489796,1.153061224489796,1.153061224489796,1.153061224489796,1.153061224489796,1.153061224489796,1.153061224489796,1.153061224489796,1.153061224489796,1.153061224489796,1.153061224489796,1.153061224489796,1.153061224489796,1.153061224489796,1.153061224489796,1.153061224489796,1.153061224489796,1.153061224489796,1.153061224489796,1.153061224489796,1.153061224489796,1.153061224489796],"y":[-4.0634920634920615,-4.0634920634920615,-4.0634920634920615,-4.0634920634920615,-4.0634920634920615,-4.0634920634920615,-4.0634920634920615,-4.0634920634920615,-4.0634920634920615,-4.0634920634920615,-4.0634920634920615,-4.0634920634920615,-4.0634920634920615,-4.0634920634920615,-4.0634920634920615,-4.0634920634920615,-4.0634920634920615,-4.0634920634920615,-4.0634920634920615,-4.0634920634920615,-4.0634920634920615,-4.0634920634920615,-4.0634920634920615,-4.0634920634920615,-4.0634920634920615,-4.0634920634920615,-4.0634920634920615,-4.0634920634920615,-4.0634920634920615,-4.0634920634920615,-4.0634920634920615,-4.0634920634920615,-4.0634920634920615,-4.0634920634920615,-4.0634920634920615,-4.0634920634920615,-4.0634920634920615,-4.0634920634920615,-4.0634920634920615,-4.0634920634920615,-4.0634920634920615,-4.0634920634920615,-4.0634920634920615,-4.0634920634920615,-4.0634920634920615,-4.0634920634920615,-4.0634920634920615,-4.0634920634920615,-4.0634920634920615,-4.0634920634920615,-4.0634920634920615,-4.0634920634920615,-4.0634920634920615,-4.0634920634920615,-4.0634920634920615,-4.0634920634920615,-4.0634920634920615,-4.0634920634920615,-4.0634920634920615,-4.0634920634920615,-4.0634920634920615,-4.0634920634920615,-4.0634920634920615,-4.0634920634920615,-4.0634920634920615,-4.0634920634920615,-4.0634920634920615,-4.0634920634920615,-4.0634920634920615,-4.0634920634920615,-4.0634920634920615,-4.0634920634920615,-4.0634920634920615,-4.0634920634920615,-4.0634920634920615,-4.0634920634920615,-4.0634920634920615,-4.0634920634920615,-4.0634920634920615,-4.0634920634920615,-4.0634920634920615,-4.0634920634920615,-4.0634920634920615,-4.0634920634920615,-4.0634920634920615,-4.0634920634920615,-4.0634920634920615,-4.0634920634920615,-4.0634920634920615,-4.0634920634920615,-4.0634920634920615,-4.0634920634920615,-4.0634920634920615,-4.0634920634920615,-4.0634920634920615,-4.0634920634920615,-4.0634920634920615,-4.0634920634920615,-4.0634920634920615,-4.0634920634920615,-4.0634920634920615,-4.0634920634920615,-4.0634920634920615,-4.0634920634920615,-4.0634920634920615,-4.0634920634920615,-4.0634920634920615,-4.0634920634920615,-4.0634920634920615,-4.0634920634920615,-4.0634920634920615,-4.0634920634920615,-4.0634920634920615,-4.0634920634920615,-4.0634920634920615,-4.0634920634920615,-4.0634920634920615,-4.0634920634920615,-4.0634920634920615,-4.0634920634920615,-4.0634920634920615,-4.0634920634920615,-4.0634920634920615,-4.0634920634920615,-4.0634920634920615,-4.0634920634920615,-4.0634920634920615,-4.0634920634920615,-4.0634920634920615,-4.0634920634920615,-4.0634920634920615,-4.0634920634920615,-4.0634920634920615,-4.0634920634920615,-4.0634920634920615,-4.0634920634920615,-4.0634920634920615,-4.0634920634920615,-4.0634920634920615,-4.0634920634920615,-4.0634920634920615,-4.0634920634920615,-4.0634920634920615,-4.0634920634920615,-4.0634920634920615,-4.0634920634920615,-4.0634920634920615,-4.0634920634920615,-4.0634920634920615,-4.0634920634920615,-4.0634920634920615,-4.0634920634920615,-4.0634920634920615,-4.0634920634920615,-4.0634920634920615,-4.0634920634920615,-4.0634920634920615,-4.0634920634920615,-4.0634920634920615,-4.0634920634920615,-4.0634920634920615,-4.0634920634920615,-4.0634920634920615,-4.0634920634920615,-4.0634920634920615,-4.0634920634920615,-4.0634920634920615,-4.0634920634920615,-4.0634920634920615,-4.0634920634920615,-4.0634920634920615,-4.0634920634920615,-4.0634920634920615,-4.0634920634920615,-4.0634920634920615,-4.0634920634920615,-4.0634920634920615,-4.0634920634920615,-4.0634920634920615,-4.0634920634920615,-4.0634920634920615,-4.0634920634920615,-4.0634920634920615,-4.0634920634920615,-4.0634920634920615,-4.0634920634920615,-4.0634920634920615,-4.0634920634920615,-4.0634920634920615,-4.0634920634920615,-4.0634920634920615,-4.0634920634920615,-4.0634920634920615,-4.0634920634920615,-4.0634920634920615,-4.0634920634920615,-4.0634920634920615,-4.0634920634920615,-4.0634920634920615,-4.0634920634920615,-4.0634920634920615,-4.0634920634920615,-4.0634920634920615,-4.0634920634920615,-4.0634920634920615,-4.0634920634920615,-4.0634920634920615,-4.0634920634920615,-4.0634920634920615,-4.0634920634920615,-4.0634920634920615,-4.0634920634920615,-4.0634920634920615,-4.0634920634920615,-4.0634920634920615,-4.0634920634920615,-4.0634920634920615,-4.0634920634920615,-4.0634920634920615,-4.0634920634920615,-4.0634920634920615,-4.0634920634920615,-4.0634920634920615,-4.0634920634920615,-4.0634920634920615,-4.0634920634920615,-4.0634920634920615,-4.0634920634920615,-4.0634920634920615,-4.0634920634920615,-4.0634920634920615,-4.0634920634920615,-4.0634920634920615,-4.0634920634920615,-4.0634920634920615,-4.0634920634920615,-4.0634920634920615,-4.0634920634920615,-4.0634920634920615,-4.0634920634920615,-4.0634920634920615,-4.0634920634920615,-4.0634920634920615,-4.0634920634920615,-4.0634920634920615,-4.0634920634920615,-4.0634920634920615,-4.0634920634920615,-4.0634920634920615,-4.0634920634920615,-4.0634920634920615,-4.0634920634920615,-4.0634920634920615,-4.0634920634920615,-4.0634920634920615,-4.0634920634920615,-4.0634920634920615,-4.0634920634920615,-4.0634920634920615,-4.0634920634920615,-4.0634920634920615,-4.0634920634920615,-4.0634920634920615,-4.0634920634920615,-4.0634920634920615,-4.0634920634920615,-4.0634920634920615,-4.0634920634920615,-4.0634920634920615,-4.0634920634920615,-4.0634920634920615,-4.0634920634920615,-4.0634920634920615,-4.0634920634920615,-4.0634920634920615,-4.0634920634920615,-4.0634920634920615,-4.0634920634920615,-4.0634920634920615,-4.0634920634920615,-4.0634920634920615,-4.0634920634920615,-4.0634920634920615,-4.0634920634920615,-4.0634920634920615,-4.0634920634920615,-4.0634920634920615,-4.0634920634920615,-4.0634920634920615,-4.0634920634920615,-4.0634920634920615,-4.0634920634920615,-4.0634920634920615,-4.0634920634920615,-4.0634920634920615,-4.0634920634920615,-4.0634920634920615,-4.0634920634920615,-4.0634920634920615,-4.0634920634920615,-4.0634920634920615,-4.0634920634920615,-4.0634920634920615,-4.0634920634920615,-4.0634920634920615,-4.0634920634920615,-4.0634920634920615,-4.0634920634920615,-4.0634920634920615,-4.0634920634920615,-4.0634920634920615,-4.0634920634920615,-4.0634920634920615,-4.0634920634920615,-4.0634920634920615,-4.0634920634920615,-4.0634920634920615,-4.0634920634920615,-4.0634920634920615,-4.0634920634920615,-4.0634920634920615,-4.0634920634920615,-4.0634920634920615,-4.0634920634920615,-4.0634920634920615,-4.0634920634920615,-4.0634920634920615,-4.0634920634920615,-4.0634920634920615,-4.0634920634920615,-4.0634920634920615,-4.0634920634920615,-4.0634920634920615,-4.0634920634920615,-4.0634920634920615,-4.0634920634920615,-4.0634920634920615,-4.0634920634920615,-4.0634920634920615,-4.0634920634920615,-4.0634920634920615,-4.0634920634920615,-4.0634920634920615,-4.0634920634920615,-4.0634920634920615,-4.0634920634920615,-4.0634920634920615,-4.0634920634920615,-4.0634920634920615,-4.0634920634920615,-4.0634920634920615,-4.0634920634920615,-4.0634920634920615,-4.0634920634920615,-4.0634920634920615,-4.0634920634920615,-4.0634920634920615,-4.0634920634920615,-4.0634920634920615,-4.0634920634920615,-4.0634920634920615,-4.0634920634920615,-4.0634920634920615,-4.0634920634920615,-4.0634920634920615,-4.0634920634920615,-4.0634920634920615,-4.0634920634920615,-4.0634920634920615,-4.0634920634920615,-4.0634920634920615,-4.0634920634920615,-4.0634920634920615,-4.0634920634920615,4.466666860429065,4.466666860429065,4.466666860429065,4.434921022445434,4.42222222222222,4.415873403397815,4.409524003286208,4.403174603174601,4.396825784350196,4.396825784350196,4.396825784350196,4.396825784350196,4.396825784350196,4.396825784350196,4.403174603174601,4.42222222222222,4.460317460317458,4.485714479476684,4.504762098524303,4.504762098524303,4.517460317460315,4.517460317460315,4.517460317460315,4.517460317460315,4.498412698412696,4.485714479476684,4.479365079365077,4.479365079365077,4.479365079365077,4.479365079365077,4.498412698412696,4.504762098524303,4.517460317460315,4.523809717571922,4.530159117683529,4.530159117683529,4.530159117683529,4.523809717571922,4.523809717571922,4.51111149863591,4.498412698412696,4.479365079365077,4.466666860429065,4.453968641493053,4.447619241381446,4.447619241381446,4.466666860429065,4.504762098524303,4.536507936507934,4.555555555555553,4.555555555555553,4.587301974826386,4.587301974826386,4.587301974826386,4.587301974826386,4.587301974826386,4.587301974826386,4.587301974826386,4.587301974826386,4.587301974826386,4.587301974826386,4.587301974826386,4.587301974826386,4.587301974826386,4.587301974826386,4.587301974826386,4.587301974826386,4.587301974826386,4.587301974826386,4.587301974826386,4.587301974826386,4.587301974826386,4.587301974826386,4.587301974826386,4.587301974826386,4.587301974826386,4.587301974826386,4.587301974826386,4.587301974826386,4.587301974826386,4.587301974826386,4.587301974826386,4.587301974826386,4.587301974826386,4.587301974826386,4.587301974826386,4.587301974826386,4.587301974826386,4.587301974826386,4.587301974826386,4.587301974826386,4.587301974826386,4.587301974826386,4.587301974826386,4.587301974826386,0.9492067367311501,0.9492067367311501,0.9492067367311501,0.9492067367311501,0.9492067367311501,0.9492067367311501,0.9492067367311501,0.9460317460317453,0.9460317460317453,0.9460317460317453,0.9460317460317453,0.9460317460317453,0.9460317460317453,0.9460317460317453,0.9460317460317453,0.9460317460317453,0.9460317460317453,0.9460317460317453,0.9460317460317453,0.9460317460317453,0.9460317460317453,0.9460317460317453,0.9460317460317453,0.9460317460317453,0.9460317460317453,0.9460317460317453,0.9460317460317453,0.9460317460317453,0.9460317460317453,0.9460317460317453,0.9460317460317453,0.9460317460317453,0.9460317460317453,0.9460317460317453,0.9460317460317453,0.9460317460317453,0.9460317460317453,0.9460317460317453,0.9460317460317453,0.9460317460317453,0.9460317460317453,0.9460317460317453,0.9460317460317453,0.9460317460317453,0.9460317460317453,0.9460317460317453,0.9460317460317453,0.9460317460317453,0.9460317460317453,0.9460317460317453,0.9460317460317453,0.9460317460317453,0.9460317460317453,0.9460317460317453,0.9460317460317453,0.9460317460317453,0.9460317460317453,0.9460317460317453,0.9460317460317453,0.9460317460317453,0.9460317460317453,0.9460317460317453,0.9460317460317453,0.9460317460317453,0.9460317460317453,0.9460317460317453,0.9460317460317453,0.9460317460317453,0.9460317460317453,0.9460317460317453,0.9460317460317453,0.9460317460317453,0.9460317460317453,0.9460317460317453,0.9460317460317453,0.9460317460317453,0.9460317460317453,0.9460317460317453,0.9460317460317453,0.9460317460317453,0.9460317460317453,0.9460317460317453,0.9460317460317453,0.9460317460317453,0.9460317460317453,0.9460317460317453,0.9460317460317453,0.9460317460317453,0.9460317460317453,0.9460317460317453,0.9460317460317453,0.9460317460317453,0.9460317460317453,0.9460317460317453,0.9460317460317453,0.9460317460317453,0.9460317460317453,0.9460317460317453,0.9460317460317453,0.9460317460317453,0.9460317460317453,0.9460317460317453,0.9460317460317453,0.9460317460317453,0.9460317460317453,0.9460317460317453,0.9460317460317453,0.9460317460317453,0.9460317460317453,0.9460317460317453,0.9460317460317453,0.9460317460317453,0.9460317460317453,0.9460317460317453,0.9460317460317453,0.9460317460317453,0.9460317460317453,0.9460317460317453,0.9460317460317453,0.9460317460317453,0.9460317460317453,0.9460317460317453,0.9460317460317453,0.9460317460317453,0.9460317460317453,0.9460317460317453,0.9460317460317453,0.9460317460317453,0.9460317460317453,0.9460317460317453,0.9460317460317453,0.9460317460317453,0.9460317460317453,0.9460317460317453,0.9460317460317453,0.9460317460317453,0.9460317460317453,0.9460317460317453,0.9460317460317453,0.9460317460317453,0.9460317460317453,0.9460317460317453,0.9460317460317453,0.9460317460317453,0.9460317460317453,0.9460317460317453,0.9460317460317453,0.9460317460317453,0.9460317460317453,0.9460317460317453,0.9460317460317453,0.9460317460317453,0.9460317460317453,0.9460317460317453,0.9460317460317453,0.9460317460317453,0.9460317460317453,0.9460317460317453,0.9460317460317453,0.9460317460317453,0.9460317460317453,0.9460317460317453,0.9460317460317453,0.9460317460317453,0.9460317460317453,0.9460317460317453,0.9460317460317453,0.9460317460317453,0.9460317460317453,0.9460317460317453,0.9460317460317453,0.9460317460317453,0.9460317460317453,0.9460317460317453,0.9460317460317453,0.9460317460317453,0.9460317460317453,0.9460317460317453,0.9460317460317453,0.9460317460317453,0.9460317460317453,0.9460317460317453,0.9460317460317453,0.9460317460317453,0.9460317460317453,0.9460317460317453,0.9460317460317453,0.9460317460317453,0.9460317460317453,0.9460317460317453,0.9460317460317453,0.9460317460317453,0.9460317460317453,0.9460317460317453,0.9460317460317453,0.9460317460317453,0.9460317460317453,0.9460317460317453,0.9460317460317453,0.9460317460317453,0.9460317460317453,0.9460317460317453,0.9460317460317453,0.9460317460317453,0.9460317460317453,0.9460317460317453,0.9460317460317453,0.9460317460317453,0.9460317460317453,0.9460317460317453,0.9460317460317453,0.9460317460317453,0.9460317460317453,0.9460317460317453,0.9460317460317453,0.9460317460317453,0.9460317460317453,0.9460317460317453,0.9460317460317453,0.9460317460317453,0.9460317460317453,0.9460317460317453,0.9460317460317453,0.9460317460317453,0.9460317460317453,0.9460317460317453,0.9460317460317453,0.9460317460317453,0.9460317460317453,0.9460317460317453,0.9460317460317453,0.9460317460317453,0.9460317460317453,0.9460317460317453,0.9460317460317453,0.9460317460317453,0.9460317460317453,0.9460317460317453,0.9460317460317453,0.9460317460317453,0.9460317460317453,-0.09841260153149814,-0.09841260153149814,-0.09841260153149814,-0.09841260153149814,-0.09841260153149814,-0.10158730158730171,-0.10158730158730171,-0.10158730158730171,-0.10158730158730171,-0.10158730158730171,-0.10158730158730171,-0.10158730158730171,-0.10158730158730171,-0.10158730158730171,-0.10158730158730171,-0.10158730158730171,-0.10158730158730171,-0.10158730158730171,-0.10158730158730171,-0.10158730158730171,-0.10158730158730171,-0.10158730158730171,-0.10158730158730171,-0.10158730158730171,-0.10158730158730171,-0.10158730158730171,-0.10158730158730171,-0.10158730158730171,-0.10158730158730171,-0.10158730158730171,-0.10158730158730171,-0.10158730158730171,-0.10158730158730171,-0.10158730158730171,-0.10158730158730171,-0.10158730158730171,-0.10158730158730171,-0.10158730158730171,-0.10158730158730171,-0.10158730158730171,-0.10158730158730171,-0.10158730158730171,-0.10158730158730171,-0.10158730158730171,-0.10158730158730171,-0.10158730158730171,-0.10158730158730171,-0.10158730158730171,-0.10158730158730171,-0.10158730158730171,-0.10158730158730171,-0.10158730158730171,-0.10158730158730171,-0.10158730158730171,-0.10158730158730171,-0.10158730158730171,-0.10158730158730171,-0.10158730158730171,-0.10158730158730171,-0.10158730158730171,-0.10158730158730171,-0.10158730158730171,-0.10158730158730171,-0.10158730158730171,-0.10158730158730171,-0.10158730158730171,-0.10158730158730171,-0.10158730158730171,-0.10158730158730171,-0.10158730158730171,-0.10158730158730171,-0.10158730158730171,-0.10158730158730171,-0.10158730158730171,-0.10158730158730171,-0.10158730158730171,-0.10158730158730171,-0.10158730158730171,-0.10158730158730171,-0.10158730158730171,-0.10158730158730171,-0.10158730158730171,-0.10158730158730171,-0.10158730158730171,-0.10158730158730171,-0.10158730158730171,-0.10158730158730171,-0.10158730158730171,-0.10158730158730171,-0.10158730158730171,-0.10158730158730171,-0.10158730158730171,-0.10158730158730171,-0.10158730158730171,-0.10158730158730171,-0.10158730158730171,-0.10158730158730171,-0.10158730158730171,-0.10158730158730171,-0.10158730158730171,-0.10158730158730171,-0.10158730158730171,-0.10158730158730171,-0.10158730158730171,-0.10158730158730171,-0.10158730158730171,-0.10158730158730171,-0.10158730158730171,-0.10158730158730171,-0.10158730158730171,-0.10158730158730171,-0.10158730158730171,-0.10158730158730171,-0.10158730158730171,-0.10158730158730171,-0.10158730158730171,-0.10158730158730171,-0.10158730158730171,-0.10158730158730171,-0.10158730158730171,-0.10158730158730171,-0.10158730158730171,-0.10158730158730171,-0.10158730158730171,-0.10158730158730171,-0.10158730158730171,-0.10158730158730171,-0.10158730158730171,-0.10158730158730171,-0.10158730158730171,-0.10158730158730171,-0.10158730158730171,-0.10158730158730171,-0.10158730158730171,-0.10158730158730171,-0.10158730158730171,-0.10158730158730171,-0.10158730158730171,-0.10158730158730171,-0.10158730158730171,-0.10158730158730171,-0.10158730158730171,-0.10158730158730171,-0.10158730158730171,-0.10158730158730171,-0.10158730158730171,-0.10158730158730171,-0.10158730158730171,-0.10158730158730171,-0.10158730158730171,-0.10158730158730171,-0.10158730158730171,-0.10158730158730171,-0.10158730158730171,-0.10158730158730171,-0.10158730158730171,-0.10158730158730171,-0.10158730158730171,-0.10158730158730171,-0.10158730158730171,-0.10158730158730171,-0.10158730158730171,-0.10158730158730171,-0.10158730158730171,-0.10158730158730171,-0.10158730158730171,-0.10158730158730171,-0.10158730158730171,-0.10158730158730171,-0.10158730158730171,-0.10158730158730171,-0.10158730158730171,-0.10158730158730171,-0.10158730158730171,-0.10158730158730171,-0.10158730158730171,-0.10158730158730171,-0.10158730158730171,-0.10158730158730171,-0.10158730158730171,-0.10158730158730171,-0.10158730158730171,-0.10158730158730171,-0.10158730158730171,-0.10158730158730171,-0.10158730158730171,-0.10158730158730171,-0.10158730158730171,-0.10158730158730171,-0.10158730158730171,-0.10158730158730171,-0.10158730158730171,-0.10158730158730171,-0.10158730158730171,-0.10158730158730171,-0.10158730158730171,-0.10158730158730171,-0.10158730158730171,-0.10158730158730171,-0.10158730158730171,-0.10158730158730171,-0.10158730158730171,-0.10158730158730171,-0.10158730158730171,-0.10158730158730171,-0.10158730158730171,-0.10158730158730171,-0.10158730158730171,-0.10158730158730171,-0.10158730158730171,-0.10158730158730171,-0.10158730158730171,-0.10158730158730171,-0.10158730158730171,-0.10158730158730171,-0.10158730158730171,-0.10158730158730171,-0.10158730158730171,-0.10158730158730171,-0.10158730158730171,-0.10158730158730171,-0.10158730158730171,-0.10158730158730171,-0.10158730158730171,-0.10158730158730171,-0.10158730158730171,-0.10158730158730171,-0.10158730158730171,-0.10158730158730171,-0.10158730158730171,-0.10158730158730171,-0.10158730158730171,-0.10158730158730171,-0.10158730158730171,-0.10158730158730171,-0.10158730158730171,-0.10158730158730171,-0.10158730158730171,-0.10158730158730171,-0.10158730158730171,-0.10158730158730171,-0.10158730158730171,-0.10158730158730171,-0.10158730158730171,-0.10158730158730171,-0.10158730158730171,-0.10158730158730171,-0.10158730158730171,-0.10158730158730171,-0.10158730158730171,-0.10158730158730171,-0.10158730158730171,-0.10158730158730171,-0.10158730158730171,-0.10158730158730171,-0.10158730158730171,-0.10158730158730171,-0.10158730158730171,-0.10158730158730171,-0.10158730158730171,-0.10158730158730171,-0.10158730158730171,-0.10158730158730171,-0.10158730158730171,-0.10158730158730171,-0.10158730158730171,-0.10158730158730171,-0.10158730158730171,-0.10158730158730171,-0.10158730158730171,-0.10158730158730171,-0.10158730158730171,-0.10158730158730171,-0.10158730158730171,-0.10158730158730171,-0.10158730158730171,-0.10158730158730171,-0.10158730158730171,-0.10158730158730171,-0.10158730158730171,-0.10158730158730171,-0.10158730158730171,-0.10158730158730171,-0.10158730158730171,-0.10158730158730171,-0.10158730158730171,-0.10158730158730171,-0.10158730158730171,-0.10158730158730171,-0.10158730158730171,-0.10158730158730171,-0.10158730158730171,-0.10158730158730171,-0.10158730158730171,-0.10158730158730171,-0.10158730158730171,-0.10158730158730171,-0.10158730158730171,-0.10158730158730171,-0.10158730158730171,-0.10158730158730171,-0.10158730158730171,-0.10158730158730171,-0.10158730158730171,-0.10158730158730171,-0.10158730158730171,-0.10158730158730171,-0.10158730158730171,-0.10158730158730171,-0.10158730158730171,-0.10158730158730171,-0.10158730158730171,-0.10158730158730171,-0.10158730158730171,-0.10158730158730171,-0.10158730158730171,-0.10158730158730171,-0.10158730158730171,-0.10158730158730171,-0.10158730158730171,-0.10158730158730171,-0.10158730158730171,-0.10158730158730171,-0.10158730158730171,-0.10158730158730171,-0.10158730158730171,-0.10158730158730171,-0.10158730158730171,-0.10158730158730171,-0.10158730158730171,-0.10158730158730171,-0.10158730158730171,-0.10158730158730171,-0.10158730158730171,-0.10158730158730171,-0.10158730158730171,-0.10158730158730171,-0.10158730158730171,-0.10158730158730171,-0.10158730158730171,-0.10158730158730171,-0.10158730158730171,-0.10158730158730171,-0.10158730158730171,-0.10158730158730171,-0.10158730158730171,-0.10158730158730171,-0.10158730158730171,-0.10158730158730171,-0.10158730158730171,-0.10158730158730171,-0.10158730158730171,-0.10158730158730171,-0.10158730158730171,-0.10158730158730171,-0.10158730158730171,-0.10158730158730171,-0.10158730158730171,-0.10158730158730171,-0.10158730158730171,-0.10158730158730171,-0.10158730158730171,-0.10158730158730171,-0.10158730158730171,-0.10158730158730171,-0.10158730158730171,-0.10158730158730171,-0.10158730158730171,-0.10158730158730171,-0.10158730158730171,-0.10158730158730171,-0.10158730158730171,-0.10158730158730171,-0.10158730158730171,-0.10158730158730171,-0.10158730158730171,-0.10158730158730171,-0.10158730158730171,-0.10158730158730171,-0.10158730158730171,-0.10158730158730171,-0.10158730158730171,-0.10158730158730171,-0.10158730158730171,-0.10158730158730171,-0.10158730158730171,-0.10158730158730171,-0.10158730158730171,-0.10158730158730171,-0.10158730158730171,-0.10158730158730171,-0.10158730158730171,-0.10158730158730171,-0.10158730158730171,-0.10158730158730171,-0.10158730158730171,-0.10158730158730171,-0.10158730158730171,-0.10158730158730171,-0.10158730158730171,-0.10158730158730171,-0.10158730158730171,-0.10158730158730171,-0.10158730158730171,-0.10158730158730171,-0.10158730158730171,-0.10158730158730171,-0.10158730158730171,-0.10158730158730171,-0.10158730158730171,-0.10158730158730171,-0.10158730158730171,-0.10158730158730171,-0.10158730158730171,-0.10158730158730171,-0.10158730158730171,-0.10158730158730171,-0.10158730158730171,-0.10158730158730171,-0.10158730158730171,-0.10158730158730171,-0.10158730158730171,-0.10158730158730171,-0.10158730158730171,-0.10158730158730171,-0.10158730158730171,-0.10158730158730171,-0.10158730158730171,-0.10158730158730171,-0.10158730158730171,-0.10158730158730171,-0.10158730158730171,-0.10158730158730171,-0.10158730158730171,-0.10158730158730171,-0.10158730158730171,-0.10158730158730171,-0.10158730158730171,-0.10158730158730171,-0.10158730158730171,-0.10158730158730171,-0.10158730158730171,-0.10158730158730171,-0.10158730158730171,-0.10158730158730171,-0.10158730158730171,-0.10158730158730171,-0.10158730158730171,-0.10158730158730171,-0.10158730158730171,-0.10158730158730171,-0.10158730158730171,-0.10158730158730171,-0.10158730158730171,-0.10158730158730171,-0.10158730158730171,-0.10158730158730171,-0.10158730158730171,-0.10158730158730171,-0.10158730158730171,-0.10158730158730171,-0.10158730158730171,-0.10158730158730171,-0.10158730158730171,-0.10158730158730171,-0.10158730158730171,-0.10158730158730171,-0.10158730158730171,-0.10158730158730171,-0.10158730158730171,-0.10158730158730171,-0.10158730158730171,-0.10158730158730171,-0.10158730158730171,-0.10158730158730171,-0.10158730158730171,-0.10158730158730171,-0.10158730158730171,-0.10158730158730171,-0.10158730158730171,-0.10158730158730171,-0.10158730158730171,-0.10158730158730171,-0.10158730158730171,-0.10158730158730171,-0.10158730158730171,-0.10158730158730171,-0.10158730158730171,-0.10158730158730171,-0.10158730158730171,-0.10158730158730171,-0.10158730158730171,-0.10158730158730171,-0.10158730158730171,-0.10158730158730171,-0.10158730158730171,-0.10158730158730171,-0.10158730158730171,-0.10158730158730171,-0.10158730158730171,-0.10158730158730171,-0.10158730158730171,-0.10158730158730171,-0.10158730158730171,-0.10158730158730171,-0.10158730158730171,-0.10158730158730171,-0.10158730158730171,-0.10158730158730171,-0.10158730158730171,-0.10158730158730171,-0.10158730158730171,-0.10158730158730171,-0.10158730158730171,-0.10158730158730171,-0.10158730158730171,-0.10158730158730171,-0.10158730158730171,-0.10158730158730171,-0.10158730158730171,-0.10158730158730171,-0.10158730158730171,-0.10158730158730171,-0.10158730158730171,-0.10158730158730171,-0.10158730158730171,-0.10158730158730171,-0.10158730158730171,-0.10158730158730171,-0.10158730158730171,-0.10158730158730171,-0.10158730158730171,-0.10158730158730171,-0.10158730158730171,-0.10158730158730171,-0.10158730158730171,-0.10158730158730171,-0.10158730158730171,-0.10158730158730171,-0.10158730158730171,-0.10158730158730171,-0.10158730158730171,-0.10158730158730171,-0.10158730158730171,-0.10158730158730171,-0.10158730158730171,-0.10158730158730171,-0.10158730158730171,-0.10158730158730171,-0.10158730158730171,-0.10158730158730171,-0.10158730158730171,-0.10158730158730171,-0.10158730158730171,-0.10158730158730171,-0.10158730158730171,-0.10158730158730171,-0.10158730158730171,-0.10158730158730171,-0.10158730158730171,-0.10158730158730171,-0.10158730158730171,-0.10158730158730171,-0.10158730158730171,-0.10158730158730171,-0.10158730158730171,-0.10158730158730171,-0.10158730158730171,-0.10158730158730171,-0.10158730158730171,-0.10158730158730171,-0.10158730158730171,-0.10158730158730171,-0.10158730158730171,-0.10158730158730171,-0.10158730158730171,-0.10158730158730171,-0.10158730158730171,-0.10158730158730171,-0.10158730158730171,-0.10158730158730171,-0.10158730158730171,-0.10158730158730171,-0.10158730158730171,-0.10158730158730171,-0.10158730158730171,-0.10158730158730171,-0.10158730158730171,-0.10158730158730171,-0.10158730158730171,-0.10158730158730171,-0.10158730158730171,-0.10158730158730171,-0.10158730158730171,-0.10158730158730171,-0.10158730