[{"success":true,"trial_type":"fullscreen","trial_index":0,"time_elapsed":2929,"internal_node_id":"0.0-0.0","protocol_sum":"","subject_identifier":24,"subject_sum":[107,81,212,49,223,93,127,20,28,190,206,204,247,158,223,61,216,97,195,180,6,159,11,17,102,26,62,239,172,187,169,24],"subject_pair":12,"STUDY_ID":"669a58f4f17d67c0aba4c4d3","PROLIFIC_PID":"667ff3711e30726d16f919c7","SESSION_ID":"669a67461a84556efb35c34e","practice_instructions":1,"leaderboard_instructions":2,"bonus":0,"reveal_word":false,"self_rating":"6","confidence":"100"},{"view_history":"[{\"page_index\":0,\"viewing_time\":1465.2999999821186}]","rt":1465.5,"trial_type":"instructions","trial_index":1,"time_elapsed":4395,"internal_node_id":"0.0-1.0","protocol_sum":"","subject_identifier":24,"subject_sum":[107,81,212,49,223,93,127,20,28,190,206,204,247,158,223,61,216,97,195,180,6,159,11,17,102,26,62,239,172,187,169,24],"subject_pair":12,"STUDY_ID":"669a58f4f17d67c0aba4c4d3","PROLIFIC_PID":"667ff3711e30726d16f919c7","SESSION_ID":"669a67461a84556efb35c34e","practice_instructions":1,"leaderboard_instructions":2,"bonus":0,"reveal_word":false,"self_rating":"6","confidence":"100"},{"view_history":"[{\"page_index\":0,\"viewing_time\":19057.09999999404}]","rt":19057.19999998808,"trial_type":"instructions","trial_index":2,"time_elapsed":23453,"internal_node_id":"0.0-2.0-0.0","protocol_sum":"","subject_identifier":24,"subject_sum":[107,81,212,49,223,93,127,20,28,190,206,204,247,158,223,61,216,97,195,180,6,159,11,17,102,26,62,239,172,187,169,24],"subject_pair":12,"STUDY_ID":"669a58f4f17d67c0aba4c4d3","PROLIFIC_PID":"667ff3711e30726d16f919c7","SESSION_ID":"669a67461a84556efb35c34e","practice_instructions":1,"leaderboard_instructions":2,"bonus":0,"reveal_word":false,"self_rating":"6","confidence":"100"},{"rt":14014,"responses":"{\"Q0\":\"... reveal the word with as <b>few letter guesses</b> as possible\"}","question_order":"[0]","trial_type":"survey-multi-choice","trial_index":3,"time_elapsed":37469,"internal_node_id":"0.0-2.0-1.0","protocol_sum":"","subject_identifier":24,"subject_sum":[107,81,212,49,223,93,127,20,28,190,206,204,247,158,223,61,216,97,195,180,6,159,11,17,102,26,62,239,172,187,169,24],"subject_pair":12,"correct":true,"test_part":"multichoice_nonpretend","STUDY_ID":"669a58f4f17d67c0aba4c4d3","PROLIFIC_PID":"667ff3711e30726d16f919c7","SESSION_ID":"669a67461a84556efb35c34e","practice_instructions":1,"leaderboard_instructions":2,"bonus":0,"reveal_word":false,"self_rating":"6","confidence":"100"},{"view_history":"[{\"page_index\":0,\"viewing_time\":1606.0999999940395}]","rt":1606.199999988079,"trial_type":"instructions","trial_index":4,"time_elapsed":39076,"internal_node_id":"0.0-3.0","protocol_sum":"","subject_identifier":24,"subject_sum":[107,81,212,49,223,93,127,20,28,190,206,204,247,158,223,61,216,97,195,180,6,159,11,17,102,26,62,239,172,187,169,24],"subject_pair":12,"STUDY_ID":"669a58f4f17d67c0aba4c4d3","PROLIFIC_PID":"667ff3711e30726d16f919c7","SESSION_ID":"669a67461a84556efb35c34e","practice_instructions":1,"leaderboard_instructions":2,"bonus":0,"reveal_word":false,"self_rating":"6","confidence":"100"},{"word":"ZEBRA","click_log":{"letter":["","H","O","R","S","B","L","Y","D","K","F","M","N","T","W","Z","E","A"],"t":[0,6997.5,8387.700000017881,10889.800000011921,23403.80000001192,26405.40000000596,33255.5,34735.80000001192,35948,38856.40000000596,40862.40000000596,42650.60000002384,43394.80000001192,44864.5,45809.80000001192,46970.40000000596,48688.80000001192,51300.20000001788],"hit":[null,0,0,1,0,1,0,0,0,0,0,0,0,0,0,1,1,1],"asked":["","H","HO","HOR","HORS","HORSB","HORSBL","HORSBLY","HORSBLYD","HORSBLYDK","HORSBLYDKF","HORSBLYDKFM","HORSBLYDKFMN","HORSBLYDKFMNT","HORSBLYDKFMNTW","HORSBLYDKFMNTWZ","HORSBLYDKFMNTWZE","HORSBLYDKFMNTWZEA"],"word_state":["_____","_____","_____","___R_","___R_","__BR_","__BR_","__BR_","__BR_","__BR_","__BR_","__BR_","__BR_","__BR_","__BR_","Z_BR_","ZEBR_","ZEBRA"]},"hover_log":{"letter":["?","?","?","?","?","?","?","?","?","?","?","?","?","?","?","?","?","?","?","?","?","?","?","?","?","?","?","?","?","?","?","?","?","?","?","?","?","?","?","?","?","?","?","?","?","?","?","?","?","?","?","?","?","?","?","?","?","?","?","?","?","?","?","?","?","?","?","?","?","?","?","?","?","?","?","?","?","?","?","?","?","?","?","?","?","?","?","?","?","?","?","?","?","?","?","?","?","?","?","?","?","?","?","?","?","?","?","?","?","?","?","?","?","?","?","?","?","?","?","?","?","?","?","?","?","?","?","?","?","?","?","?","?","?","?","?","?","?","?","?","?","?","?","?","?","?","?","?","?","?","?","?","?","?","?","?","?","?","?","?","?","?","?","?","?","?","?","?","?","?","?","?","?","?","?","?","?","?","?","?","?","?","?","?","?","?","?","?","?","?","?","?","?","?","?","?","?","?","?","?","?","?","?","?","?","?","?","?","?","?","?","?","?","?","?","?","?","?","?","?","?","?","?","?","?","?","?","?","?","?","?","?","?","?","?","?","?","?","?","?","?","?","?","?","?","?","?","?","?","?","?","?","?","?","?","?","?","?","?","?","?","?","?","?","?","?","?","?","?","?","?","?","?","?","?","?","?","?","?","?","?","?","?","?","?","?","?","?","?","?","?","?","?","?","?","?","?","?","?","?","?","?","?","?","?","?","?","?","?","?","?","?","?","?","?","?","?","?","?","?","?","?","?","?","?","?","?","?","?","?","?","?","?","?","?","?","?","?","?","?","?","?","?","?","?","?","?","?","?","?","?","?","?","?","?","?","?","?","?","?","?","?","?","?","?","?","?","?","?","?","?","?","?","?","?","?","?","?","?","?","?","?","?","?","?","?","?","?","?","?","?","?","?","?","?","?","?","?","?","?","?","?","?","?","?","?","?","?","?","?","?","?","?","H","H","H","H","H","H","H","H","H","H","H","H","H","H","H","H","H","H","H","H","H","H","H","H","H","H","H","H","H","H","H","H","H","H","H","H","H","H","H","H","H","H","H","H","H","H","H","H","H","H","H","H","H","H","H","H","H","H","H","H","H","H","H","H","H","H","H","H","H","H","H","H","H","H","H","H","H","H","H","H","H","H","H","H","H","H","O","O","O","O","O","O","O","O","O","O","O","O","O","O","O","O","O","O","O","O","O","O","O","O","O","O","O","O","O","O","O","O","O","O","O","O","O","O","O","O","O","O","O","O","O","O","O","O","O","O","O","O","O","O","O","O","O","O","O","O","O","O","O","O","O","O","O","O","O","O","O","O","O","O","O","O","O","O","O","O","O","O","O","O","O","O","O","O","O","O","O","O","O","O","O","O","O","O","O","O","O","O","O","O","O","O","O","O","O","O","O","O","O","O","O","O","O","O","O","O","O","O","O","O","O","O","O","O","O","O","O","O","O","O","O","O","O","O","O","O","O","O","O","O","R","R","R","R","R","R","R","R","R","R","R","R","R","R","R","R","R","R","R","R","R","R","R","R","R","R","R","R","R","R","R","R","R","R","R","R","R","R","R","R","R","R","R","R","R","R","R","R","R","R","R","R","R","R","R","R","R","R","R","R","R","R","R","R","R","R","R","R","R","R","R","R","R","R","R","R","R","R","R","R","R","R","R","R","R","R","R","R","R","R","R","R","R","R","R","R","R","R","R","R","R","R","R","R","R","R","R","R","R","R","R","R","R","R","R","R","R","R","R","R","R","R","R","R","R","R","R","R","R","R","R","R","R","R","R","R","R","R","R","R","R","R","R","R","R","R","R","R","R","R","R","R","R","R","R","R","R","R","R","R","R","R","R","R","R","R","R","R","R","R","R","R","R","R","R","R","R","R","R","R","R","R","R","R","R","R","R","R","R","R","R","R","R","R","R","R","R","R","R","R","R","R","R","R","R","R","R","R","R","R","R","R","R","R","R","R","R","R","R","R","R","R","R","R","R","R","R","R","R","R","R","R","R","R","R","R","R","R","R","R","R","R","R","R","R","R","R","R","R","R","R","R","R","R","R","R","R","R","R","R","R","R","R","R","R","R","R","R","R","R","R","R","R","R","R","R","R","R","R","R","R","R","R","R","R","R","R","R","R","R","R","R","R","R","R","R","R","R","R","R","R","R","R","R","R","R","R","R","R","R","R","R","R","R","R","R","R","R","R","R","R","R","R","R","R","R","R","R","R","R","R","R","R","R","R","R","R","R","R","R","R","R","R","R","R","R","R","R","R","R","R","R","R","R","R","R","R","R","R","R","R","R","R","R","R","R","R","R","R","R","R","R","R","R","R","R","R","R","R","R","R","R","R","R","R","R","R","R","R","R","R","R","R","R","R","R","R","R","R","R","R","R","R","R","R","R","R","R","R","R","R","R","R","R","R","R","R","R","R","R","R","R","R","R","R","R","R","R","R","R","R","R","R","R","R","R","R","R","R","R","R","R","R","R","R","R","R","R","R","R","R","R","R","R","R","R","R","R","R","R","R","R","R","R","R","R","R","R","R","R","R","R","R","R","R","R","R","R","R","R","R","R","R","R","R","R","R","R","R","R","R","R","R","R","R","R","R","R","R","R","R","R","R","R","R","R","R","R","R","R","R","R","R","R","R","R","R","R","R","R","R","R","R","R","R","R","R","R","R","R","R","R","R","R","R","R","R","R","R","R","R","R","R","R","R","R","R","R","R","R","R","R","R","R","R","R","R","R","R","R","R","R","R","R","R","R","R","R","R","R","R","R","R","R","R","R","R","R","R","R","R","R","R","R","R","R","R","R","R","R","R","R","R","R","R","R","R","R","R","R","R","R","R","R","R","R","R","R","R","R","R","R","R","R","R","R","R","R","R","R","R","R","R","R","R","R","R","R","R","R","R","R","R","R","R","R","R","R","R","R","R","R","R","R","R","R","R","R","R","R","R","R","R","R","R","R","R","R","R","R","R","R","R","R","R","R","R","R","R","R","R","R","R","R","R","R","R","R","R","R","R","R","R","R","R","R","R","R","R","R","R","R","R","R","R","R","R","R","R","R","R","R","R","R","R","R","R","R","R","R","R","R","R","R","R","R","R","R","R","R","R","R","R","R","R","R","R","R","R","R","R","R","R","R","R","R","R","R","R","R","R","R","R","R","R","R","R","R","R","R","R","R","R","R","R","R","S","S","S","S","S","S","S","S","S","S","S","S","S","S","S","S","S","S","S","S","S","S","S","S","S","S","S","S","S","S","S","S","S","S","S","S","S","S","S","S","S","S","S","S","S","S","S","S","S","S","S","S","S","S","S","S","S","S","S","S","S","S","S","S","S","S","S","S","S","S","S","S","S","S","S","S","S","S","S","S","S","S","S","S","S","S","S","S","S","S","S","S","S","S","S","S","S","S","S","S","S","S","S","S","S","S","S","S","S","S","S","S","S","S","S","S","S","S","S","S","S","S","S","S","S","S","S","S","S","S","S","S","S","S","S","S","S","S","S","S","S","S","S","S","S","S","S","S","S","S","S","S","S","S","S","S","S","S","S","S","S","S","S","S","S","S","S","S","S","S","S","S","S","S","S","S","S","S","S","B","B","B","B","B","B","B","B","B","B","B","B","B","B","B","B","B","B","B","B","B","B","B","B","B","B","B","B","B","B","B","B","B","B","B","B","B","B","B","B","B","B","B","B","B","B","B","B","B","B","B","B","B","B","B","B","B","B","B","B","B","B","B","B","B","B","B","B","B","B","B","B","B","B","B","B","B","B","B","B","B","B","B","B","B","B","B","B","B","B","B","B","B","B","B","B","B","B","B","B","B","B","B","B","B","B","B","B","B","B","B","B","B","B","B","B","B","B","B","B","B","B","B","B","B","B","B","B","B","B","B","B","B","B","B","B","B","B","B","B","B","B","B","B","B","B","B","B","B","B","B","B","B","B","B","B","B","B","B","B","B","B","B","B","B","B","B","B","B","B","B","B","B","B","B","B","B","B","B","B","B","B","B","B","B","B","B","B","B","B","B","B","B","B","B","B","B","B","B","B","B","B","B","B","B","B","B","B","B","B","B","B","B","B","B","B","B","B","B","B","B","B","B","B","B","B","B","B","B","B","B","B","B","B","B","B","B","B","B","B","B","B","B","B","B","B","B","B","B","B","B","B","B","B","B","B","B","B","B","B","B","B","B","B","B","B","B","B","B","B","B","B","B","B","B","B","B","B","B","B","B","B","B","B","B","B","B","B","B","B","B","B","B","B","B","B","B","B","B","B","B","B","B","B","B","B","B","B","B","B","B","B","B","B","B","B","B","B","B","B","B","B","B","B","B","B","B","B","B","B","B","B","B","B","B","B","B","B","B","B","B","B","B","B","B","B","B","B","B","B","B","B","B","B","B","B","B","B","B","B","B","B","B","B","B","B","B","B","B","B","B","B","B","B","B","B","B","B","B","B","B","B","B","B","B","B","B","B","B","B","B","B","B","B","B","B","B","B","B","B","B","B","B","B","B","B","B","B","B","B","B","B","B","L","L","L","L","L","L","L","L","L","L","L","L","L","L","L","L","L","L","L","L","L","L","L","L","L","L","L","L","L","L","L","L","L","L","L","L","L","L","L","L","L","L","L","L","L","L","L","L","L","L","L","L","L","L","L","L","L","L","L","L","L","L","L","L","L","L","L","L","L","L","L","L","L","L","L","L","L","L","L","L","L","L","L","L","L","L","L","L","L","Y","Y","Y","Y","Y","Y","Y","Y","Y","Y","Y","Y","Y","Y","Y","Y","Y","Y","Y","Y","Y","Y","Y","Y","Y","Y","Y","Y","Y","Y","Y","Y","Y","Y","Y","Y","Y","Y","Y","Y","Y","Y","Y","Y","Y","Y","Y","Y","Y","Y","Y","Y","Y","Y","Y","Y","Y","Y","Y","Y","Y","Y","Y","Y","Y","Y","Y","Y","Y","Y","Y","Y","D","D","D","D","D","D","D","D","D","D","D","D","D","D","D","D","D","D","D","D","D","D","D","D","D","D","D","D","D","D","D","D","D","D","D","D","D","D","D","D","D","D","D","D","D","D","D","D","D","D","D","D","D","D","D","D","D","D","D","D","D","D","D","D","D","D","D","D","D","D","D","D","D","D","D","D","D","D","D","D","D","D","?","?","?","?","?","?","?","?","?","?","?","?","?","?","?","?","?","?","?","?","?","?","?","?","?","?","?","?","?","?","?","?","?","?","?","?","?","?","?","?","?","?","?","?","?","?","?","?","?","?","?","?","?","?","?","?","?","?","?","?","?","?","?","?","?","?","?","?","?","?","?","?","?","?","?","?","?","?","?","?","?","?","?","?","?","?","?","?","?","?","K","K","K","K","K","K","K","K","K","K","K","K","K","K","K","K","K","K","K","K","K","K","K","K","K","K","K","K","K","K","K","K","K","K","K","K","K","K","K","K","K","K","K","K","K","K","K","K","K","K","K","K","K","K","K","K","K","K","K","K","K","K","K","K","K","K","K","K","K","K","K","K","K","K","K","K","K","K","K","K","K","K","K","K","K","K","K","K","K","K","K","K","K","K","K","K","K","K","K","K","K","K","K","K","K","K","K","K","K","K","K","K","K","K","K","K","K","K","K","K","K","K","K","F","F","F","F","F","F","F","F","F","F","F","F","F","F","F","F","F","F","F","F","F","F","F","F","F","F","F","F","F","F","F","F","F","F","F","F","F","F","F","F","F","F","F","F","F","F","F","F","F","F","F","F","F","F","F","F","F","F","F","F","F","F","F","F","F","F","F","F","F","F","F","F","F","F","F","F","F","F","F","F","F","F","F","F","F","F","F","F","F","F","F","F","F","F","F","F","F","F","F","F","F","F","F","F","F","F","M","M","M","M","M","M","M","M","M","M","M","M","M","M","M","M","M","M","M","M","M","M","M","M","M","M","M","M","M","M","M","M","M","M","M","M","M","M","M","M","M","M","M","M","M","M","N","N","N","N","N","N","N","N","N","N","N","N","N","N","N","N","N","N","N","N","N","N","N","N","N","N","N","N","N","N","N","N","N","N","N","N","N","N","N","N","N","N","N","N","N","N","N","N","N","N","N","N","N","N","N","N","N","N","N","N","N","N","N","N","N","N","N","N","N","N","N","N","N","N","N","N","N","N","N","N","N","N","N","N","N","N","N","T","T","T","T","T","T","T","T","T","T","T","T","T","T","T","T","T","T","T","T","T","T","T","T","T","T","T","T","T","T","T","T","T","T","T","T","T","T","T","T","T","T","T","T","T","T","T","T","T","T","T","T","T","T","W","W","W","W","W","W","W","W","W","W","W","W","W","W","W","W","W","W","W","W","W","W","W","W","W","W","W","W","W","W","W","W","W","W","W","W","W","W","W","W","W","W","W","W","W","W","W","W","W","W","W","W","W","W","W","W","W","W","W","W","W","W","W","W","W","W","W","W","W","W","Z","Z","Z","Z","Z","Z","Z","Z","Z","Z","Z","Z","Z","Z","Z","Z","Z","Z","Z","Z","Z","Z","Z","Z","Z","Z","Z","Z","Z","Z","Z","Z","Z","Z","Z","Z","Z","Z","Z","Z","Z","Z","Z","Z","Z","Z","Z","Z","Z","Z","Z","Z","Z","Z","Z","Z","Z","Z","Z","Z","Z","Z","Z","Z","Z","Z","Z","Z","Z","Z","Z","Z","Z","Z","Z","Z","Z","Z","Z","Z","Z","Z","Z","Z","Z","Z","Z","Z","Z","Z","Z","Z","Z","Z","Z","Z","Z","Z","Z","Z","Z","Z","Z","E","E","E","E","E","E","E","E","E","E","E","E","E","E","E","E","E","E","E","E","E","E","E","E","E","E","E","E","E","E","E","E","E","E","E","E","E","E","E","E","E","E","E","E","E","E","E","E","E","E","E","E","E","E","E","E","E","E","E","E","E","E","E","E","E","E","E","E","E","E","E","E","E","E","E","E","E","E","E","E","E","E","E","E","E","E","E","E","E","E","E","E","E","E","E","E","E","E","E","E","E","E","E","E","E","E","E","E","E","E","E","E","E","E","E","E","E","E","E","E","E","E","E","E","E","E","E","E","E","E","E","E","E","E","E","E","E","E","E","E","E","E","E","E","E","E","E","E","E","E","E","E","E","E","E","E","E","E","A","A","A","A","A","A","A","A","A","A","A","A","A","A","A","A","A","A","A","A","A","A","A","A","A","A","A","A","A","A","A","A","A","A","A","A","A","A","A","A","A","A","A","A","A","A","A","A","A","A","A","A","A","A","A","A","A","A","A","A","A","A","A","A","A","A","A","A","A","A","A","A","A","A","A","A","A","A","A","A","A","A","A","A","A","A","A","A","A","A","A","A","A","A","A","A","A","A","A","A","A","A","A","A","A","A","A","A","A","A","A","A","A","A","A","A","A","A","A","A","A","A","A","A"],"t":[40,50,64,80,97,116,134,152,165,181,198,232,248,266,283,299,317,333,350,367,383,398,415,432,450,465,482,498,515,532,550,566,583,599,616,633,649,666,683,699,715,733,748,766,782,798,816,833,847,866,882,899,916,933,949,966,983,1000,1016,1033,1049,1066,1082,1099,1116,1133,1149,1166,1183,1199,1216,1233,1247,1266,1282,1299,1315,1332,1349,1366,1382,1398,1415,1432,1449,1466,1481,1501,1516,1531,1548,1564,1581,1598,1614,1630,1648,1665,1681,1699,1715,1732,1748,1765,1782,1799,1815,1831,1849,1865,1882,1898,1915,1932,1948,1965,1982,1999,2014,2032,2048,2065,2082,2099,2115,2132,2148,2165,2182,2198,2215,2232,2248,2265,2282,2298,2314,2332,2348,2365,2382,2398,2415,2431,2449,2465,2481,2497,2515,2531,2548,2565,2582,2599,2614,2632,2649,2665,2682,2698,2715,2732,2748,2765,2781,2798,2815,2832,2847,2864,2880,2899,2914,2931,2947,2963,2980,2996,3013,3030,3048,3064,3081,3097,3115,3132,3147,3164,3181,3197,3215,3231,3249,3265,3281,3298,3314,3331,3348,3365,3381,3396,3414,3431,3448,3465,3482,3498,3514,3532,3547,3564,3581,3598,3614,3630,3649,3664,3680,3698,3714,3731,3748,3763,3780,3798,3814,3831,3847,3863,3881,3898,3914,3932,3948,3964,3981,3998,4014,4031,4048,4065,4081,4097,4114,4131,4147,4165,4181,4198,4214,4230,4248,4265,4281,4298,4314,4332,4347,4366,4380,4396,4414,4429,4447,4464,4481,4497,4514,4531,4547,4564,4581,4597,4614,4631,4647,4665,4681,4696,4713,4731,4747,4764,4780,4797,4813,4830,4846,4862,4879,4896,4912,4929,4946,4963,4981,4998,5012,5031,5047,5064,5080,5097,5114,5130,5147,5163,5180,5197,5214,5231,5247,5262,5281,5297,5313,5330,5347,5363,5381,5396,5413,5429,5446,5464,5480,5497,5514,5530,5546,5564,5581,5597,5613,5630,5646,5663,5679,5696,5714,5730,5747,5763,5780,5796,5814,5830,5847,5864,5880,5897,5914,5930,5946,5963,5980,5997,6013,6030,6047,6063,6080,6097,6113,6130,6147,6163,6180,6197,6213,6230,6247,6263,6280,6297,6313,6330,6347,6364,6380,6395,6413,6430,6447,6463,6480,6497,6513,6529,6547,6564,6580,6596,6612,6630,6647,6663,6680,6697,6713,6730,6747,6763,6780,6796,6814,6830,6846,6863,6880,6897,6913,6929,6945,6963,6979,6996,7013,7029,7046,7063,7079,7097,7113,7130,7147,7163,7179,7197,7213,7229,7245,7265,7281,7296,7314,7329,7347,7363,7380,7395,7412,7429,7446,7464,7479,7497,7513,7530,7546,7562,7580,7596,7613,7629,7647,7663,7679,7696,7713,7729,7746,7762,7780,7796,7813,7829,7846,7863,7880,7896,7913,7930,7945,7963,7980,7996,8013,8029,8046,8063,8080,8096,8113,8130,8146,8162,8179,8197,8212,8229,8246,8263,8280,8296,8313,8329,8346,8362,8378,8395,8412,8428,8446,8462,8478,8496,8512,8529,8546,8562,8579,8596,8612,8629,8646,8662,8679,8696,8713,8729,8746,8763,8779,8796,8812,8829,8845,8862,8879,8896,8913,8929,8946,8962,8979,8994,9012,9028,9045,9062,9079,9097,9112,9129,9146,9162,9179,9196,9212,9229,9246,9263,9278,9295,9313,9328,9345,9361,9378,9396,9412,9428,9445,9462,9479,9496,9512,9529,9545,9563,9579,9595,9612,9628,9645,9662,9679,9695,9712,9728,9745,9761,9777,9795,9812,9829,9845,9862,9879,9895,9911,9929,9945,9962,9979,9995,10012,10028,10044,10061,10079,10095,10112,10128,10145,10164,10178,10195,10212,10228,10245,10261,10279,10295,10312,10328,10346,10362,10378,10394,10412,10427,10444,10461,10478,10495,10512,10528,10545,10561,10577,10595,10611,10627,10645,10662,10679,10694,10711,10728,10745,10762,10777,10794,10810,10828,10844,10862,10878,10894,10910,10927,10945,10961,10977,10995,11012,11028,11044,11062,11078,11096,11112,11129,11145,11161,11179,11196,11212,11229,11245,11262,11278,11295,11311,11329,11345,11361,11377,11395,11411,11428,11445,11461,11478,11495,11512,11528,11545,11561,11578,11595,11610,11628,11644,11661,11678,11694,11711,11728,11744,11761,11777,11794,11812,11830,11844,11861,11878,11894,11912,11928,11945,11961,11978,11994,12011,12027,12044,12061,12078,12095,12111,12128,12144,12161,12178,12194,12211,12228,12244,12261,12278,12294,12311,12327,12344,12362,12378,12394,12410,12427,12445,12461,12478,12495,12511,12527,12544,12561,12577,12594,12611,12628,12644,12661,12678,12694,12710,12728,12744,12761,12777,12794,12811,12828,12845,12861,12877,12894,12911,12928,12944,12961,12977,12994,13011,13027,13044,13060,13078,13094,13110,13127,13144,13161,13177,13194,13211,13226,13244,13260,13277,13294,13311,13327,13344,13361,13378,13394,13410,13426,13444,13460,13476,13494,13511,13526,13544,13561,13577,13592,13609,13626,13644,13661,13677,13694,13711,13728,13744,13760,13777,13794,13810,13827,13843,13861,13878,13894,13910,13927,13943,13960,13977,13993,14010,14027,14044,14060,14077,14094,14110,14125,14144,14161,14177,14194,14210,14227,14243,14259,14277,14294,14310,14327,14344,14359,14377,14393,14409,14427,14444,14460,14477,14494,14511,14527,14543,14560,14576,14594,14610,14627,14644,14660,14677,14693,14711,14727,14743,14760,14777,14792,14809,14827,14843,14860,14876,14893,14908,14926,14943,14960,14977,14994,15010,15025,15042,15059,15077,15094,15110,15127,15143,15159,15176,15193,15211,15226,15242,15260,15275,15295,15310,15326,15343,15360,15377,15393,15409,15425,15443,15460,15476,15492,15510,15526,15543,15560,15576,15592,15609,15627,15643,15658,15676,15693,15710,15726,15742,15760,15776,15795,15809,15827,15842,15858,15876,15893,15909,15926,15943,15960,15976,15993,16010,16026,16043,16059,16076,16093,16109,16126,16142,16160,16175,16193,16210,16226,16243,16258,16277,16292,16310,16326,16342,16359,16376,16393,16409,16425,16443,16459,16477,16493,16509,16526,16543,16560,16576,16593,16609,16625,16641,16659,16676,16693,16709,16726,16743,16760,16776,16791,16808,16827,16843,16860,16876,16893,16909,16925,16942,16958,16976,16993,17009,17025,17043,17058,17076,17092,17109,17125,17142,17158,17176,17193,17208,17225,17243,17259,17277,17292,17309,17326,17342,17359,17376,17391,17408,17425,17442,17458,17476,17493,17509,17526,17543,17559,17575,17592,17609,17626,17642,17659,17676,17692,17709,17726,17742,17759,17775,17792,17809,17825,17841,17859,17875,17893,17908,17926,17942,17959,17976,17992,18009,18026,18040,18059,18075,18092,18108,18125,18142,18158,18175,18192,18210,18226,18242,18259,18275,18292,18309,18324,18341,18358,18375,18390,18407,18426,18441,18460,18474,18492,18508,18526,18543,18559,18574,18592,18609,18627,18642,18658,18675,18692,18709,18725,18742,18759,18776,18791,18808,18824,18842,18859,18875,18891,18908,18926,18941,18959,18975,18992,19008,19024,19042,19058,19074,19092,19108,19124,19142,19158,19175,19191,19208,19225,19241,19258,19275,19292,19309,19325,19340,19358,19374,19393,19408,19423,19441,19458,19475,19492,19507,19524,19542,19558,19574,19590,19608,19625,19642,19658,19675,19691,19708,19725,19740,19758,19774,19791,19808,19824,19841,19858,19875,19891,19908,19924,19941,19957,19974,19990,20007,20024,20040,20056,20075,20091,20107,20124,20141,20157,20174,20191,20208,20225,20241,20258,20273,20291,20308,20324,20341,20358,20373,20390,20407,20424,20440,20458,20474,20490,20507,20524,20540,20558,20575,20591,20608,20625,20641,20658,20675,20691,20708,20724,20741,20758,20775,20791,20807,20824,20841,20857,20875,20891,20908,20923,20941,20957,20975,20991,21008,21025,21041,21058,21074,21091,21107,21125,21140,21158,21174,21191,21208,21223,21239,21258,21275,21289,21306,21325,21340,21358,21374,21391,21408,21424,21441,21457,21474,21490,21508,21526,21540,21557,21573,21590,21607,21624,21640,21657,21674,21690,21708,21723,21740,21757,21774,21790,21807,21824,21840,21857,21874,21891,21907,21924,21940,21957,21974,21990,22007,22023,22040,22056,22074,22090,22108,22123,22140,22158,22173,22191,22208,22223,22240,22257,22273,22290,22307,22324,22340,22357,22373,22390,22407,22423,22440,22457,22474,22490,22507,22523,22541,22556,22573,22590,22607,22623,22640,22657,22674,22690,22706,22722,22740,22757,22772,22790,22806,22824,22840,22857,22873,22890,22907,22923,22940,22956,22975,22990,23007,23023,23039,23055,23073,23090,23107,23123,23139,23157,23173,23189,23207,23223,23240,23256,23274,23289,23307,23323,23340,23355,23372,23388,23409,23422,23439,23456,23473,23490,23506,23523,23539,23556,23573,23589,23606,23622,23639,23656,23673,23690,23706,23723,23740,23756,23772,23791,23806,23823,23840,23857,23872,23890,23906,23922,23940,23956,23973,23990,24006,24023,24039,24055,24073,24089,24106,24122,24139,24155,24173,24191,24207,24223,24239,24256,24272,24290,24306,24323,24339,24356,24373,24389,24406,24422,24439,24455,24473,24489,24506,24522,24539,24556,24572,24589,24606,24622,24640,24656,24672,24689,24706,24722,24740,24756,24773,24789,24806,24823,24838,24855,24873,24889,24906,24923,24938,24955,24973,24989,25005,25023,25039,25055,25072,25089,25105,25122,25139,25156,25173,25189,25206,25222,25239,25256,25272,25289,25306,25322,25339,25355,25373,25389,25405,25422,25439,25456,25472,25489,25505,25522,25538,25555,25573,25588,25606,25622,25639,25655,25673,25689,25706,25722,25739,25756,25772,25789,25805,25823,25838,25855,25872,25889,25906,25922,25939,25956,25972,25988,26005,26022,26038,26055,26072,26088,26105,26122,26140,26155,26172,26188,26205,26222,26238,26256,26272,26288,26308,26321,26337,26354,26371,26388,26404,26420,26438,26455,26472,26488,26504,26522,26537,26555,26571,26588,26605,26621,26637,26655,26672,26689,26704,26722,26738,26755,26772,26788,26805,26822,26838,26854,26872,26888,26905,26922,26938,26955,26972,26987,27005,27022,27038,27055,27071,27088,27105,27122,27138,27155,27172,27188,27205,27222,27238,27257,27272,27288,27305,27322,27339,27355,27372,27389,27404,27420,27438,27455,27472,27488,27505,27520,27538,27555,27572,27588,27604,27622,27638,27655,27672,27688,27704,27721,27738,27754,27770,27788,27805,27821,27838,27854,27872,27888,27904,27920,27937,27953,27970,27986,28003,28020,28036,28053,28070,28086,28103,28120,28136,28153,28169,28189,28203,28222,28236,28253,28269,28286,28303,28319,28336,28353,28369,28387,28403,28420,28436,28453,28470,28486,28503,28520,28536,28553,28569,28586,28603,28619,28636,28652,28670,28686,28703,28719,28736,28752,28771,28787,28804,28820,28838,28854,28870,28887,28904,28920,28937,28954,28971,28988,29004,29021,29038,29054,29071,29086,29104,29121,29138,29154,29170,29187,29204,29220,29237,29254,29270,29287,29305,29321,29338,29353,29369,29387,29403,29421,29438,29454,29470,29487,29503,29521,29537,29554,29571,29586,29603,29621,29637,29654,29671,29687,29704,29721,29737,29754,29770,29786,29802,29821,29837,29854,29870,29887,29904,29920,29937,29954,29971,29987,30004,30021,30038,30053,30070,30087,30104,30120,30137,30153,30170,30187,30204,30220,30237,30254,30270,30287,30304,30320,30337,30354,30371,30387,30403,30420,30436,30454,30471,30487,30504,30521,30537,30554,30570,30586,30603,30620,30638,30654,30670,30688,30703,30719,30736,30753,30770,30787,30802,30819,30837,30852,30870,30886,30903,30919,30936,30954,30971,30987,31002,31020,31036,31052,31070,31087,31104,31120,31137,31153,31169,31187,31203,31220,31236,31254,31270,31286,31304,31321,31335,31353,31369,31386,31403,31419,31437,31453,31470,31487,31503,31520,31536,31553,31570,31587,31603,31620,31637,31653,31670,31687,31702,31719,31736,31753,31770,31786,31803,31820,31837,31853,31870,31887,31903,31919,31936,31952,31970,31987,32003,32020,32037,32052,32069,32086,32103,32120,32136,32153,32170,32186,32203,32220,32236,32253,32269,32286,32303,32320,32336,32351,32370,32387,32403,32418,32434,32452,32470,32487,32503,32520,32536,32553,32569,32586,32602,32619,32636,32653,32670,32687,32702,32719,32736,32753,32769,32786,32803,32818,32836,32852,32869,32887,32902,32919,32936,32952,32969,32986,33002,33019,33036,33053,33069,33085,33103,33119,33136,33153,33169,33186,33203,33219,33234,33251,33268,33285,33302,33319,33336,33352,33368,33386,33402,33420,33435,33451,33468,33485,33502,33519,33535,33552,33569,33586,33603,33618,33637,33652,33669,33687,33704,33718,33735,33753,33769,33786,33801,33819,33836,33853,33869,33886,33902,33919,33936,33952,33969,33985,34002,34020,34035,34053,34068,34085,34103,34119,34136,34152,34168,34186,34202,34219,34235,34252,34268,34285,34302,34318,34335,34352,34369,34386,34402,34418,34435,34452,34468,34485,34502,34519,34534,34551,34569,34585,34602,34619,34634,34652,34669,34685,34702,34718,34735,34750,34767,34785,34802,34818,34835,34852,34868,34885,34901,34918,34935,34950,34968,34984,35001,35018,35035,35051,35069,35085,35102,35119,35135,35152,35168,35185,35201,35218,35235,35252,35269,35285,35303,35318,35335,35351,35370,35385,35401,35418,35434,35452,35468,35486,35502,35518,35534,35551,35569,35584,35601,35618,35634,35651,35668,35685,35702,35718,35735,35751,35768,35785,35802,35818,35835,35850,35868,35885,35900,35916,35935,35950,35966,35985,36001,36018,36034,36051,36068,36084,36102,36117,36134,36151,36167,36200,36218,36235,36251,36268,36284,36301,36318,36335,36350,36367,36385,36401,36418,36434,36452,36468,36484,36501,36518,36534,36550,36567,36584,36601,36617,36635,36651,36667,36683,36701,36718,36734,36751,36768,36784,36800,36817,36835,36851,36868,36884,36901,36916,36934,36951,36969,36984,37001,37018,37034,37051,37068,37084,37101,37117,37134,37151,37168,37184,37201,37217,37234,37251,37267,37283,37299,37316,37333,37349,37366,37383,37400,37417,37434,37450,37466,37484,37500,37517,37533,37549,37566,37600,37618,37634,37650,37667,37683,37701,37718,37735,37750,37767,37784,37801,37817,37833,37850,37867,37884,37901,37918,37934,37951,37967,37984,38001,38018,38034,38050,38067,38085,38100,38117,38134,38151,38168,38184,38201,38218,38234,38249,38267,38284,38301,38317,38333,38350,38367,38384,38400,38416,38432,38450,38467,38483,38500,38517,38533,38551,38567,38583,38600,38617,38634,38650,38666,38684,38700,38716,38733,38750,38767,38784,38799,38815,38832,38849,38866,38882,38900,38916,38933,38950,38966,38983,39000,39015,39033,39050,39066,39083,39100,39116,39134,39150,39167,39183,39200,39217,39233,39251,39267,39283,39300,39317,39333,39350,39367,39385,39401,39417,39433,39450,39466,39483,39501,39517,39533,39550,39567,39583,39600,39616,39632,39649,39667,39683,39700,39717,39733,39751,39766,39783,39799,39817,39832,39850,39867,39883,39900,39916,39933,39949,39966,39983,39999,40016,40033,40049,40066,40083,40099,40116,40133,40149,40167,40183,40199,40216,40233,40250,40266,40284,40299,40317,40333,40350,40366,40383,40399,40415,40434,40450,40466,40483,40500,40516,40533,40549,40567,40582,40600,40616,40633,40649,40666,40683,40699,40716,40732,40750,40766,40783,40799,40815,40833,40849,40865,40881,40899,40916,40933,40949,40966,40983,40998,41015,41032,41049,41065,41082,41099,41116,41132,41149,41165,41182,41199,41216,41232,41250,41266,41282,41299,41316,41333,41350,41366,41382,41399,41416,41432,41449,41466,41482,41499,41516,41532,41549,41566,41583,41599,41616,41632,41649,41665,41682,41700,41716,41732,41750,41766,41783,41799,41815,41833,41850,41865,41882,41899,41916,41932,41949,41966,41983,41999,42016,42033,42049,42065,42082,42099,42116,42132,42149,42165,42182,42199,42215,42233,42249,42265,42282,42299,42315,42332,42349,42365,42382,42399,42414,42432,42449,42466,42482,42499,42517,42532,42548,42565,42582,42598,42614,42630,42649,42664,42682,42698,42715,42731,42748,42765,42782,42798,42815,42833,42848,42865,42881,42898,42915,42933,42949,42965,42983,42998,43015,43032,43049,43065,43082,43098,43115,43132,43149,43165,43182,43199,43215,43232,43248,43265,43282,43299,43316,43332,43348,43365,43380,43398,43413,43432,43448,43465,43481,43497,43515,43531,43548,43564,43581,43598,43615,43631,43648,43665,43681,43698,43715,43732,43748,43765,43782,43799,43814,43832,43848,43864,43881,43899,43915,43932,43948,43965,43982,43998,44015,44032,44048,44065,44081,44099,44114,44132,44148,44165,44181,44198,44215,44232,44248,44264,44282,44298,44315,44331,44347,44364,44381,44397,44414,44431,44448,44465,44480,44498,44515,44531,44548,44564,44581,44599,44615,44632,44648,44665,44682,44698,44714,44732,44748,44764,44781,44798,44815,44830,44846,44863,44880,44896,44914,44931,44947,44964,44980,44998,45014,45031,45047,45064,45081,45098,45114,45131,45148,45164,45182,45198,45214,45231,45248,45265,45281,45297,45314,45333,45348,45364,45381,45398,45413,45430,45448,45464,45481,45497,45514,45531,45547,45564,45581,45597,45614,45631,45648,45664,45680,45698,45714,45730,45746,45764,45779,45796,45812,45830,45846,45862,45880,45897,45913,45931,45946,45963,45980,45997,46014,46030,46047,46064,46081,46097,46114,46130,46147,46164,46180,46197,46214,46230,46247,46264,46281,46298,46314,46330,46349,46363,46381,46397,46413,46430,46447,46464,46480,46497,46514,46531,46547,46563,46580,46597,46614,46630,46646,46664,46680,46698,46716,46730,46747,46764,46780,46797,46814,46830,46846,46863,46879,46896,46912,46929,46946,46964,46979,46995,47014,47030,47047,47062,47080,47097,47114,47129,47146,47163,47179,47197,47214,47230,47247,47263,47281,47296,47313,47330,47347,47363,47381,47397,47415,47431,47446,47463,47481,47497,47514,47530,47547,47564,47579,47597,47613,47630,47645,47664,47680,47697,47714,47730,47746,47763,47779,47796,47814,47830,47847,47864,47880,47896,47914,47930,47946,47964,47980,47997,48014,48031,48046,48063,48080,48097,48114,48129,48146,48163,48181,48197,48213,48230,48246,48263,48280,48296,48313,48331,48347,48362,48379,48397,48412,48429,48447,48463,48480,48496,48513,48528,48546,48562,48578,48595,48612,48628,48647,48662,48678,48696,48711,48728,48745,48762,48779,48796,48812,48829,48846,48862,48879,48895,48913,48930,48946,48963,48980,48996,49012,49029,49046,49062,49080,49095,49111,49128,49145,49162,49178,49196,49212,49230,49246,49263,49279,49296,49313,49330,49346,49363,49379,49395,49413,49429,49445,49461,49479,49495,49512,49529,49545,49563,49580,49596,49612,49629,49646,49662,49680,49697,49712,49729,49746,49762,49779,49795,49812,49830,49846,49862,49879,49895,49912,49929,49946,49962,49979,49996,50012,50028,50045,50061,50078,50094,50111,50128,50147,50163,50179,50196,50212,50228,50244,50263,50279,50296,50312,50329,50346,50362,50379,50397,50411,50427,50445,50461,50478,50495,50513,50528,50545,50561,50578,50595,50612,50629,50645,50662,50679,50696,50713,50729,50747,50763,50779,50795,50813,50830,50846,50862,50880,50896,50911,50929,50946,50962,50979,50996,51012,51028,51046,51062,51079,51096,51112,51129,51145,51162,51179,51195,51212,51229,51244,51261,51277,51294,51313,51327,51348,51366,51378,51394,51412,51430,51445,51461,51478,51495,51511,51529,51545,51560,51577,51595,51611,51646,51662,51679,51695,51712,51728,51745,51762,51778,51796,51811,51828,51845,51862,51878,51895,51912,51929,51944,51961,51978,51995,52012,52028,52045,52062,52078,52094,52112,52128,52145,52162,52179,52195,52212,52228,52245,52262,52278,52295,52311,52329,52345,52362,52379,52395,52411,52429,52444,52462,52478,52495,52511,52528,52545,52562,52579,52595,52612,52628,52644,52661,52678,52695,52712,52728,52745,52760,52778,52795,52811,52828,52844,52861,52878,52894,52911,52926,52945,52962,52978,52995,53012,53028,53045,53061,53078,53094,53111,53127,53144,53162,53178,53195,53211,53228,53243,53262,53278,53294,53313],"hit":[null],"x":[-2.0408163265306123,-2.0408163265306123,-2.0408163265306123,-2.0408163265306123,-2.0408163265306123,-2.0408163265306123,-2.0408163265306123,-2.0408163265306123,-2.0408163265306123,-2.0408163265306123,-2.0408163265306123,-2.0408163265306123,-2.0408163265306123,-2.0408163265306123,-2.0408163265306123,-2.0408163265306123,-2.0408163265306123,-2.0408163265306123,-2.0408163265306123,-2.0408163265306123,-2.0408163265306123,-2.0408163265306123,-2.0408163265306123,-2.0408163265306123,-2.0408163265306123,-2.0408163265306123,-2.0408163265306123,-2.0408163265306123,-2.0408163265306123,-2.0408163265306123,-2.0408163265306123,-2.0408163265306123,-2.0408163265306123,-2.0408163265306123,-2.0408163265306123,-2.0408163265306123,-2.0408163265306123,-2.0408163265306123,-2.0408163265306123,-2.0408163265306123,-2.0408163265306123,-2.0408163265306123,-2.0408163265306123,-2.0408163265306123,-2.0408163265306123,-2.0408163265306123,-2.0408163265306123,-2.0408163265306123,-2.0408163265306123,-2.0408163265306123,-2.0408163265306123,-2.0408163265306123,-2.0408163265306123,-2.0408163265306123,-2.0408163265306123,-2.0408163265306123,-2.0408163265306123,-2.0408163265306123,-2.0408163265306123,-2.0408163265306123,-2.0408163265306123,-2.0408163265306123,-2.0408163265306123,-2.0408163265306123,-2.0408163265306123,-2.0408163265306123,-2.0408163265306123,-2.0408163265306123,-2.0408163265306123,-2.0408163265306123,-2.0408163265306123,-2.0408163265306123,-2.0408163265306123,-2.0408163265306123,-2.0408163265306123,-2.0408163265306123,-2.0408163265306123,-2.0408163265306123,-2.0408163265306123,-2.0408163265306123,-2.0408163265306123,-2.0408163265306123,-2.0408163265306123,-2.0408163265306123,-2.0408163265306123,-2.0408163265306123,-2.0408163265306123,-2.0408163265306123,-2.0408163265306123,-2.0408163265306123,-2.0408163265306123,-2.0408163265306123,-2.0408163265306123,-2.0408163265306123,-2.0408163265306123,-2.0408163265306123,-2.0408163265306123,-2.0408163265306123,-2.0408163265306123,-2.0408163265306123,-2.0408163265306123,-2.0408163265306123,-2.0408163265306123,-2.0408163265306123,-2.0408163265306123,-2.0408163265306123,-2.0408163265306123,-2.0408163265306123,-2.0408163265306123,-2.0408163265306123,-2.0408163265306123,-2.0408163265306123,-2.0408163265306123,-2.0408163265306123,-2.0408163265306123,-2.0408163265306123,-2.0408163265306123,-2.0408163265306123,-2.0408163265306123,-2.0408163265306123,-2.0408163265306123,-2.0408163265306123,-2.0408163265306123,-2.0408163265306123,-2.0408163265306123,-2.0408163265306123,-2.0408163265306123,-2.0408163265306123,-2.0408163265306123,-2.0408163265306123,-2.0408163265306123,-2.0408163265306123,-2.0408163265306123,-2.0408163265306123,-2.0408163265306123,-2.0408163265306123,-2.0408163265306123,-2.0408163265306123,-2.0408163265306123,-2.0408163265306123,-2.0408163265306123,-2.0408163265306123,-2.0408163265306123,-2.0408163265306123,-2.0408163265306123,-2.0408163265306123,-2.0408163265306123,-2.0408163265306123,-2.0408163265306123,-2.0408163265306123,-2.0408163265306123,-2.0408163265306123,-2.0408163265306123,-2.0408163265306123,-2.0408163265306123,-2.0408163265306123,-2.0408163265306123,-2.0408163265306123,-2.0408163265306123,-2.0408163265306123,-2.0408163265306123,-2.0408163265306123,-2.0408163265306123,-2.0408163265306123,-2.0408163265306123,-2.0408163265306123,-2.0408163265306123,-2.0408163265306123,-2.0408163265306123,-2.0408163265306123,-2.0408163265306123,-2.0408163265306123,-2.0408163265306123,-2.0408163265306123,-2.0408163265306123,-2.0408163265306123,-2.0408163265306123,-2.0408163265306123,-2.0408163265306123,-2.0408163265306123,-2.0408163265306123,-2.0408163265306123,-2.0408163265306123,-2.0408163265306123,-2.0408163265306123,-2.0408163265306123,-2.0408163265306123,-2.0408163265306123,-2.0408163265306123,-2.0408163265306123,-2.0408163265306123,-2.0408163265306123,-2.0408163265306123,-2.0408163265306123,-2.0408163265306123,-2.0408163265306123,-2.0408163265306123,-2.0408163265306123,-2.0408163265306123,-2.0408163265306123,-2.0408163265306123,-2.0408163265306123,-2.0408163265306123,-2.0408163265306123,-2.0408163265306123,-2.0408163265306123,-2.0408163265306123,-2.0408163265306123,-2.0408163265306123,-2.0408163265306123,-2.0408163265306123,-2.0408163265306123,-2.0408163265306123,-2.0408163265306123,-2.0408163265306123,-2.0408163265306123,-2.0408163265306123,-2.0408163265306123,-2.0408163265306123,-2.0408163265306123,-2.0408163265306123,-2.0408163265306123,-2.0408163265306123,-2.0408163265306123,-2.0408163265306123,-2.0408163265306123,-2.0408163265306123,-2.0408163265306123,-2.0408163265306123,-2.0408163265306123,-2.0408163265306123,-2.0408163265306123,-2.0408163265306123,-2.0408163265306123,-2.0408163265306123,-2.0408163265306123,-2.0408163265306123,-2.0408163265306123,-2.0408163265306123,-2.0408163265306123,-2.0408163265306123,-2.0408163265306123,-2.0408163265306123,-2.0408163265306123,-2.0408163265306123,-2.0408163265306123,-2.0408163265306123,-2.0408163265306123,-2.0408163265306123,-2.0408163265306123,-2.0408163265306123,-2.0408163265306123,-2.0408163265306123,-2.0408163265306123,-2.0408163265306123,-2.0408163265306123,-2.0408163265306123,-2.0408163265306123,-2.0408163265306123,-2.0408163265306123,-2.0408163265306123,-2.0408163265306123,-2.0408163265306123,-2.0408163265306123,-2.0408163265306123,-2.0408163265306123,-2.0408163265306123,-2.0408163265306123,-2.0408163265306123,-2.0408163265306123,-2.0408163265306123,-2.0408163265306123,-2.0408163265306123,-2.0408163265306123,-2.0408163265306123,-2.0408163265306123,-2.0408163265306123,-2.0408163265306123,-2.0408163265306123,-2.0408163265306123,-2.0408163265306123,-2.0408163265306123,-2.0408163265306123,-2.0408163265306123,-2.0408163265306123,-2.0408163265306123,-2.0408163265306123,-2.0408163265306123,-2.0408163265306123,-2.0408163265306123,-2.0408163265306123,-2.0408163265306123,-2.0408163265306123,-2.0408163265306123,-2.0408163265306123,-2.0408163265306123,-2.0408163265306123,-2.0408163265306123,-2.0408163265306123,-2.0408163265306123,-2.0408163265306123,-2.0408163265306123,-2.0408163265306123,-2.0408163265306123,-2.0408163265306123,-2.0408163265306123,-2.0408163265306123,-2.0408163265306123,-2.0408163265306123,-2.0408163265306123,-2.0408163265306123,-2.0408163265306123,-2.0408163265306123,-2.0408163265306123,-2.0408163265306123,-2.0408163265306123,-2.0408163265306123,-2.0408163265306123,-2.0408163265306123,-2.0408163265306123,-2.0408163265306123,-2.0408163265306123,-2.0408163265306123,-2.0408163265306123,-2.0408163265306123,-2.0408163265306123,-2.0408163265306123,-2.0408163265306123,-2.0408163265306123,-2.0408163265306123,-2.0408163265306123,-2.0408163265306123,-2.0408163265306123,-2.0408163265306123,-2.0408163265306123,-2.0408163265306123,-2.0408163265306123,-2.0408163265306123,-2.0408163265306123,-2.0408163265306123,-2.0408163265306123,-2.0408163265306123,-2.0408163265306123,-2.0408163265306123,-2.0408163265306123,-2.0408163265306123,-2.0408163265306123,-2.0408163265306123,-2.0408163265306123,-2.0408163265306123,-2.0408163265306123,-2.0408163265306123,-2.0408163265306123,-2.0408163265306123,-2.0408163265306123,-2.0408163265306123,-2.0408163265306123,-2.0408163265306123,-2.0408163265306123,-2.0408163265306123,-2.0408163265306123,-2.0408163265306123,-2.0408163265306123,-2.0408163265306123,-2.0408163265306123,-2.0408163265306123,-2.0408163265306123,-2.0408163265306123,-2.0408163265306123,-2.0408163265306123,-2.0408163265306123,-2.0408163265306123,-2.0408163265306123,-2.0408163265306123,-2.0408163265306123,-2.0408163265306123,-2.0408163265306123,-2.0408163265306123,-2.0408163265306123,-2.0408163265306123,-2.0408163265306123,-2.0408163265306123,-2.0408163265306123,-2.0408163265306123,-2.0408163265306123,-2.0408163265306123,-2.0408163265306123,-2.0408163265306123,-2.0408163265306123,-2.0408163265306123,-2.0408163265306123,-2.0408163265306123,-2.0408163265306123,-2.0408163265306123,-2.0408163265306123,-2.0408163265306123,-2.0408163265306123,-2.0408163265306123,-2.0408163265306123,-2.0408163265306123,-2.0408163265306123,-2.0408163265306123,-2.0408163265306123,-2.0408163265306123,-2.0408163265306123,-2.0408163265306123,-2.0408163265306123,-2.0408163265306123,-2.0408163265306123,-2.0408163265306123,-2.0408163265306123,-2.0408163265306123,-2.0408163265306123,1.0013606272587159,1.0013606272587159,1.0013606272587159,1.0013606272587159,1.0013606272587159,1,1,1,1,1,1,1,1,1,1,1,1,1,1,1,1,1,1,1,1,1,1,1,1,1,1,1,1,1,1,1,1,1,1,1,1,1,1,1,1,1,1,1,1,1,1,1,1,1,1,1,1,1,1,1,1,1,1,1,1,1,1,1,1,1,1,1,1,1,1,1,1,1,1,1,1,1,1,1,1,1,0.7510203666427508,0.7510203666427508,0.7482993197278912,0.7482993197278912,0.7482993197278912,0.7482993197278912,0.7482993197278912,0.7482993197278912,0.7482993197278912,0.7482993197278912,0.7482993197278912,0.7482993197278912,0.7482993197278912,0.7482993197278912,0.7482993197278912,0.7482993197278912,0.7482993197278912,0.7482993197278912,0.7482993197278912,0.7482993197278912,0.7482993197278912,0.7482993197278912,0.7482993197278912,0.7482993197278912,0.7482993197278912,0.7482993197278912,0.7482993197278912,0.7482993197278912,0.7482993197278912,0.7482993197278912,0.7482993197278912,0.7482993197278912,0.7482993197278912,0.7482993197278912,0.7482993197278912,0.7482993197278912,0.7482993197278912,0.7482993197278912,0.7482993197278912,0.7482993197278912,0.7482993197278912,0.7482993197278912,0.7482993197278912,0.7482993197278912,0.7482993197278912,0.7482993197278912,0.7482993197278912,0.7482993197278912,0.7482993197278912,0.7482993197278912,0.7482993197278912,0.7482993197278912,0.7482993197278912,0.7482993197278912,0.7482993197278912,0.7482993197278912,0.7482993197278912,0.7482993197278912,0.7482993197278912,0.7482993197278912,0.7482993197278912,0.7482993197278912,0.7482993197278912,0.7482993197278912,0.7482993197278912,0.7482993197278912,0.7482993197278912,0.7482993197278912,0.7482993197278912,0.7482993197278912,0.7482993197278912,0.7482993197278912,0.7482993197278912,0.7482993197278912,0.7482993197278912,0.7482993197278912,0.7482993197278912,0.7482993197278912,0.7482993197278912,0.7482993197278912,0.7482993197278912,0.7482993197278912,0.7482993197278912,0.7482993197278912,0.7482993197278912,0.7482993197278912,0.7482993197278912,0.7482993197278912,0.7482993197278912,0.7482993197278912,0.7482993197278912,0.7482993197278912,0.7482993197278912,0.7482993197278912,0.7482993197278912,0.7482993197278912,0.7482993197278912,0.7482993197278912,0.7482993197278912,0.7482993197278912,0.7482993197278912,0.7482993197278912,0.7482993197278912,0.7482993197278912,0.7482993197278912,0.7482993197278912,0.7482993197278912,0.7482993197278912,0.7482993197278912,0.7482993197278912,0.7482993197278912,0.7482993197278912,0.7482993197278912,0.7482993197278912,0.7482993197278912,0.7482993197278912,0.7482993197278912,0.7482993197278912,0.7482993197278912,0.7482993197278912,0.7482993197278912,0.7482993197278912,0.7482993197278912,0.7482993197278912,0.7482993197278912,0.7482993197278912,0.7482993197278912,0.7482993197278912,0.7482993197278912,0.7482993197278912,0.7482993197278912,0.7482993197278912,0.7482993197278912,0.7482993197278912,0.7482993197278912,0.7482993197278912,0.7482993197278912,0.7482993197278912,0.7482993197278912,0.7482993197278912,0.7482993197278912,0.7482993197278912,0.7482993197278912,0.7482993197278912,1.1238096068505528,1.1238096068505528,1.1238096068505528,1.1238096068505528,1.1238096068505528,1.1238096068505528,1.1238096068505528,1.1238096068505528,1.1224489795918366,1.1224489795918366,1.1224489795918366,1.1224489795918366,1.1224489795918366,1.1224489795918366,1.1224489795918366,1.1224489795918366,1.1224489795918366,1.1224489795918366,1.1224489795918366,1.1224489795918366,1.1224489795918366,1.1224489795918366,1.1224489795918366,1.1224489795918366,1.1224489795918366,1.1224489795918366,1.1224489795918366,1.1224489795918366,1.1224489795918366,1.1224489795918366,1.1224489795918366,1.1224489795918366,1.1224489795918366,1.1224489795918366,1.1224489795918366,1.1224489795918366,1.1224489795918366,1.1224489795918366,1.1224489795918366,1.1224489795918366,1.1224489795918366,1.1224489795918366,1.1224489795918366,1.1224489795918366,1.1224489795918366,1.1224489795918366,1.1224489795918366,1.1224489795918366,1.1224489795918366,1.1224489795918366,1.1224489795918366,1.1224489795918366,1.1224489795918366,1.1224489795918366,1.1224489795918366,1.1224489795918366,1.1224489795918366,1.1224489795918366,1.1224489795918366,1.1224489795918366,1.1224489795918366,1.1224489795918366,1.1224489795918366,1.1224489795918366,1.1224489795918366,1.1224489795918366,1.1224489795918366,1.1224489795918366,1.1224489795918366,1.1224489795918366,1.1224489795918366,1.1224489795918366,1.1224489795918366,1.1224489795918366,1.1224489795918366,1.1224489795918366,1.1224489795918366,1.1224489795918366,1.1224489795918366,1.1224489795918366,1.1224489795918366,1.1224489795918366,1.1224489795918366,1.1224489795918366,1.1224489795918366,1.1224489795918366,1.1224489795918366,1.1224489795918366,1.1224489795918366,1.1224489795918366,1.1224489795918366,1.1224489795918366,1.1224489795918366,1.1224489795918366,1.1224489795918366,1.1224489795918366,1.1224489795918366,1.1224489795918366,1.1224489795918366,1.1224489795918366,1.1224489795918366,1.1224489795918366,1.1224489795918366,1.1224489795918366,1.1224489795918366,1.1224489795918366,1.1224489795918366,1.1224489795918366,1.1224489795918366,1.1224489795918366,1.1224489795918366,1.1224489795918366,1.1224489795918366,1.1224489795918366,1.1224489795918366,1.1224489795918366,1.1224489795918366,1.1224489795918366,1.1224489795918366,1.1224489795918366,1.1224489795918366,1.1224489795918366,1.1224489795918366,1.1224489795918366,1.1224489795918366,1.1224489795918366,1.1224489795918366,1.1224489795918366,1.1224489795918366,1.1224489795918366,1.1224489795918366,1.1224489795918366,1.1224489795918366,1.1224489795918366,1.1224489795918366,1.1224489795918366,1.1224489795918366,1.1224489795918366,1.1224489795918366,1.1224489795918366,1.1224489795918366,1.1224489795918366,1.1224489795918366,1.1224489795918366,1.1224489795918366,1.1224489795918366,1.1224489795918366,1.1224489795918366,1.1224489795918366,1.1224489795918366,1.1224489795918366,1.1224489795918366,1.1224489795918366,1.1224489795918366,1.1224489795918366,1.1224489795918366,1.1224489795918366,1.1224489795918366,1.1224489795918366,1.1224489795918366,1.1224489795918366,1.1224489795918366,1.1224489795918366,1.1224489795918366,1.1224489795918366,1.1224489795918366,1.1224489795918366,1.1224489795918366,1.1224489795918366,1.1224489795918366,1.1224489795918366,1.1224489795918366,1.1224489795918366,1.1224489795918366,1.1224489795918366,1.1224489795918366,1.1224489795918366,1.1224489795918366,1.1224489795918366,1.1224489795918366,1.1224489795918366,1.1224489795918366,1.1224489795918366,1.1224489795918366,1.1224489795918366,1.1224489795918366,1.1224489795918366,1.1224489795918366,1.1224489795918366,1.1224489795918366,1.1224489795918366,1.1224489795918366,1.1224489795918366,1.1224489795918366,1.1224489795918366,1.1224489795918366,1.1224489795918366,1.1224489795918366,1.1224489795918366,1.1224489795918366,1.1224489795918366,1.1224489795918366,1.1224489795918366,1.1224489795918366,1.1224489795918366,1.1224489795918366,1.1224489795918366,1.1224489795918366,1.1224489795918366,1.1224489795918366,1.1224489795918366,1.1224489795918366,1.1224489795918366,1.1224489795918366,1.1224489795918366,1.1224489795918366,1.1224489795918366,1.1224489795918366,1.1224489795918366,1.1224489795918366,1.1224489795918366,1.1224489795918366,1.1224489795918366,1.1224489795918366,1.1224489795918366,1.1224489795918366,1.1224489795918366,1.1224489795918366,1.1224489795918366,1.1224489795918366,1.1224489795918366,1.1224489795918366,1.1224489795918366,1.1224489795918366,1.1224489795918366,1.1224489795918366,1.1224489795918366,1.1224489795918366,1.1224489795918366,1.1224489795918366,1.1224489795918366,1.1224489795918366,1.1224489795918366,1.1224489795918366,1.1224489795918366,1.1224489795918366,1.1224489795918366,1.1224489795918366,1.1224489795918366,1.1224489795918366,1.1224489795918366,1.1224489795918366,1.1224489795918366,1.1224489795918366,1.1224489795918366,1.1224489795918366,1.1224489795918366,1.1224489795918366,1.1224489795918366,1.1224489795918366,1.1224489795918366,1.1224489795918366,1.1224489795918366,1.1224489795918366,1.1224489795918366,1.1224489795918366,1.1224489795918366,1.1224489795918366,1.1224489795918366,1.1224489795918366,1.1224489795918366,1.1224489795918366,1.1224489795918366,1.1224489795918366,1.1224489795918366,1.1224489795918366,1.1224489795918366,1.1224489795918366,1.1224489795918366,1.1224489795918366,1.1224489795918366,1.1224489795918366,1.1224489795918366,1.1224489795918366,1.1224489795918366,1.1224489795918366,1.1224489795918366,1.1224489795918366,1.1224489795918366,1.1224489795918366,1.1224489795918366,1.1224489795918366,1.1224489795918366,1.1224489795918366,1.1224489795918366,1.1224489795918366,1.1224489795918366,1.1224489795918366,1.1224489795918366,1.1224489795918366,1.1224489795918366,1.1224489795918366,1.1224489795918366,1.1224489795918366,1.1224489795918366,1.1224489795918366,1.1224489795918366,1.1224489795918366,1.1224489795918366,1.1224489795918366,1.1224489795918366,1.1224489795918366,1.1224489795918366,1.1224489795918366,1.1224489795918366,1.1224489795918366,1.1224489795918366,1.1224489795918366,1.1224489795918366,1.1224489795918366,1.1224489795918366,1.1224489795918366,1.1224489795918366,1.1224489795918366,1.1224489795918366,1.1224489795918366,1.1224489795918366,1.1224489795918366,1.1224489795918366,1.1224489795918366,1.1224489795918366,1.1224489795918366,1.1224489795918366,1.1224489795918366,1.1224489795918366,1.1224489795918366,1.1224489795918366,1.1224489795918366,1.1224489795918366,1.1224489795918366,1.1224489795918366,1.1224489795918366,1.1224489795918366,1.1224489795918366,1.1224489795918366,1.1224489795918366,1.1224489795918366,1.1224489795918366,1.1224489795918366,1.1224489795918366,1.1224489795918366,1.1224489795918366,1.1224489795918366,1.1224489795918366,1.1224489795918366,1.1224489795918366,1.1224489795918366,1.1224489795918366,1.1224489795918366,1.1224489795918366,1.1224489795918366,1.1224489795918366,1.1224489795918366,1.1224489795918366,1.1224489795918366,1.1224489795918366,1.1224489795918366,1.1224489795918366,1.1224489795918366,1.1224489795918366,1.1224489795918366,1.1224489795918366,1.1224489795918366,1.1224489795918366,1.1224489795918366,1.1224489795918366,1.1224489795918366,1.1224489795918366,1.1224489795918366,1.1224489795918366,1.1224489795918366,1.1224489795918366,1.1224489795918366,1.1224489795918366,1.1224489795918366,1.1224489795918366,1.1224489795918366,1.1224489795918366,1.1224489795918366,1.1224489795918366,1.1224489795918366,1.1224489795918366,1.1224489795918366,1.1224489795918366,1.1224489795918366,1.1224489795918366,1.1224489795918366,1.1224489795918366,1.1224489795918366,1.1224489795918366,1.1224489795918366,1.1224489795918366,1.1224489795918366,1.1224489795918366,1.1224489795918366,1.1224489795918366,1.1224489795918366,1.1224489795918366,1.1224489795918366,1.1224489795918366,1.1224489795918366,1.1224489795918366,1.1224489795918366,1.1224489795918366,1.1224489795918366,1.1224489795918366,1.1224489795918366,1.1224489795918366,1.1224489795918366,1.1224489795918366,1.1224489795918366,1.1224489795918366,1.1224489795918366,1.1224489795918366,1.1224489795918366,1.1224489795918366,1.1224489795918366,1.1224489795918366,1.1224489795918366,1.1224489795918366,1.1224489795918366,1.1224489795918366,1.1224489795918366,1.1224489795918366,1.1224489795918366,1.1224489795918366,1.1224489795918366,1.1224489795918366,1.1224489795918366,1.1224489795918366,1.1224489795918366,1.1224489795918366,1.1224489795918366,1.1224489795918366,1.1224489795918366,1.1224489795918366,1.1224489795918366,1.1224489795918366,1.1224489795918366,1.1224489795918366,1.1224489795918366,1.1224489795918366,1.1224489795918366,1.1224489795918366,1.1224489795918366,1.1224489795918366,1.1224489795918366,1.1224489795918366,1.1224489795918366,1.1224489795918366,1.1224489795918366,1.1224489795918366,1.1224489795918366,1.1224489795918366,1.1224489795918366,1.1224489795918366,1.1224489795918366,1.1224489795918366,1.1224489795918366,1.1224489795918366,1.1224489795918366,1.1224489795918366,1.1224489795918366,1.1224489795918366,1.1224489795918366,1.1224489795918366,1.1224489795918366,1.1224489795918366,1.1224489795918366,1.1224489795918366,1.1224489795918366,1.1224489795918366,1.1224489795918366,1.1224489795918366,1.1224489795918366,1.1224489795918366,1.1224489795918366,1.1224489795918366,1.1224489795918366,1.1224489795918366,1.1224489795918366,1.1224489795918366,1.1224489795918366,1.1224489795918366,1.1224489795918366,1.1224489795918366,1.1224489795918366,1.1224489795918366,1.1224489795918366,1.1224489795918366,1.1224489795918366,1.1224489795918366,1.1224489795918366,1.1224489795918366,1.1224489795918366,1.1224489795918366,1.1224489795918366,1.1224489795918366,1.1224489795918366,1.1224489795918366,1.1224489795918366,1.1224489795918366,1.1224489795918366,1.1224489795918366,1.1224489795918366,1.1224489795918366,1.1224489795918366,1.1224489795918366,1.1224489795918366,1.1224489795918366,1.1224489795918366,1.1224489795918366,1.1224489795918366,1.1224489795918366,1.1224489795918366,1.1224489795918366,1.1224489795918366,1.1224489795918366,1.1224489795918366,1.1224489795918366,1.1224489795918366,1.1224489795918366,1.1224489795918366,1.1224489795918366,1.1224489795918366,1.1224489795918366,1.1224489795918366,1.1224489795918366,1.1224489795918366,1.1224489795918366,1.1224489795918366,1.1224489795918366,1.1224489795918366,1.1224489795918366,1.1224489795918366,1.1224489795918366,1.1224489795918366,1.1224489795918366,1.1224489795918366,1.1224489795918366,1.1224489795918366,1.1224489795918366,1.1224489795918366,1.1224489795918366,1.1224489795918366,1.1224489795918366,1.1224489795918366,1.1224489795918366,1.1224489795918366,1.1224489795918366,1.1224489795918366,1.1224489795918366,1.1224489795918366,1.1224489795918366,1.1224489795918366,1.1224489795918366,1.1224489795918366,1.1224489795918366,1.1224489795918366,1.1224489795918366,1.1224489795918366,1.1224489795918366,1.1224489795918366,1.1224489795918366,1.1224489795918366,1.1224489795918366,1.1224489795918366,1.1224489795918366,1.1224489795918366,1.1224489795918366,1.1224489795918366,1.1224489795918366,1.1224489795918366,1.1224489795918366,1.1224489795918366,1.1224489795918366,1.1224489795918366,1.1224489795918366,1.1224489795918366,1.1224489795918366,1.1224489795918366,1.1224489795918366,1.1224489795918366,1.1224489795918366,1.1224489795918366,1.1224489795918366,1.1224489795918366,1.1224489795918366,1.1224489795918366,1.1224489795918366,1.1224489795918366,1.1224489795918366,1.1224489795918366,1.1224489795918366,1.1224489795918366,1.1224489795918366,1.1224489795918366,1.1224489795918366,1.1224489795918366,1.1224489795918366,1.1224489795918366,1.1224489795918366,1.1224489795918366,1.1224489795918366,1.1224489795918366,1.1224489795918366,1.1224489795918366,1.1224489795918366,1.1224489795918366,1.1224489795918366,1.1224489795918366,1.1224489795918366,1.1224489795918366,1.1224489795918366,1.1224489795918366,1.1224489795918366,1.1224489795918366,1.1224489795918366,1.1224489795918366,1.1224489795918366,1.1224489795918366,1.1224489795918366,1.1224489795918366,1.1224489795918366,1.1224489795918366,1.1224489795918366,1.1224489795918366,1.1224489795918366,1.1224489795918366,1.1224489795918366,1.1224489795918366,1.1224489795918366,1.1224489795918366,1.1224489795918366,1.1224489795918366,1.1224489795918366,1.1224489795918366,1.1224489795918366,1.1224489795918366,1.1224489795918366,1.1224489795918366,1.1224489795918366,1.1224489795918366,1.1224489795918366,1.1224489795918366,1.1224489795918366,1.1224489795918366,1.1224489795918366,1.1224489795918366,1.1224489795918366,1.1224489795918366,1.1224489795918366,1.1224489795918366,1.1224489795918366,1.1224489795918366,1.1224489795918366,1.1224489795918366,1.1224489795918366,1.1224489795918366,1.1224489795918366,1.1224489795918366,1.1224489795918366,1.1224489795918366,1.1224489795918366,1.1224489795918366,1.1224489795918366,1.1224489795918366,1.1224489795918366,1.1224489795918366,1.1224489795918366,1.1224489795918366,1.1224489795918366,1.1224489795918366,1.1224489795918366,1.1224489795918366,1.1224489795918366,1.1224489795918366,1.1224489795918366,1.1224489795918366,1.1224489795918366,1.1224489795918366,1.1224489795918366,1.1224489795918366,1.1224489795918366,1.1224489795918366,1.1224489795918366,1.1224489795918366,1.1224489795918366,1.1224489795918366,1.1224489795918366,1.1224489795918366,1.1224489795918366,1.1224489795918366,1.1224489795918366,1.1224489795918366,1.1224489795918366,1.1224489795918366,1.1224489795918366,1.1224489795918366,1.1224489795918366,1.1224489795918366,1.1224489795918366,1.1224489795918366,1.1224489795918366,1.1224489795918366,1.1224489795918366,1.1224489795918366,1.1224489795918366,1.1224489795918366,1.1224489795918366,1.1224489795918366,1.1224489795918366,1.1224489795918366,1.1224489795918366,1.1224489795918366,1.1224489795918366,1.1224489795918366,1.1224489795918366,1.1224489795918366,1.1224489795918366,1.1224489795918366,1.1224489795918366,1.1224489795918366,1.1224489795918366,1.1224489795918366,1.1224489795918366,1.1224489795918366,1.1224489795918366,1.1224489795918366,1.1224489795918366,1.1224489795918366,1.1224489795918366,1.1224489795918366,1.1224489795918366,1.1224489795918366,1.1224489795918366,1.1224489795918366,1.1224489795918366,1.1224489795918366,1.1224489795918366,1.1224489795918366,1.1224489795918366,1.1224489795918366,1.1224489795918366,1.1224489795918366,1.1224489795918366,0.04081632653061224,0.04081632653061224,0.04081632653061224,0.04081632653061224,0.04081632653061224,0.04081632653061224,0.04081632653061224,0.04081632653061224,0.04081632653061224,0.04081632653061224,0.04081632653061224,0.04081632653061224,0.04081632653061224,0.04081632653061224,0.04081632653061224,0.04081632653061224,0.04081632653061224,0.04081632653061224,0.04081632653061224,0.04081632653061224,0.04081632653061224,0.04081632653061224,0.04081632653061224,0.04081632653061224,0.04081632653061224,0.04081632653061224,0.04081632653061224,0.04081632653061224,0.04081632653061224,0.04081632653061224,0.04081632653061224,0.04081632653061224,0.04081632653061224,0.04081632653061224,0.04081632653061224,0.04081632653061224,0.04081632653061224,0.04081632653061224,0.04081632653061224,0.04081632653061224,0.04081632653061224,0.04081632653061224,0.04081632653061224,0.04081632653061224,0.04081632653061224,0.04081632653061224,0.04081632653061224,0.04081632653061224,0.04081632653061224,0.04081632653061224,0.04081632653061224,0.04081632653061224,0.04081632653061224,0.04081632653061224,0.04081632653061224,0.04081632653061224,0.04081632653061224,0.04081632653061224,0.04081632653061224,0.04081632653061224,0.04081632653061224,0.04081632653061224,0.04081632653061224,0.04081632653061224,0.04081632653061224,0.04081632653061224,0.04081632653061224,0.04081632653061224,0.04081632653061224,0.04081632653061224,0.04081632653061224,0.04081632653061224,0.04081632653061224,0.04081632653061224,0.04081632653061224,0.04081632653061224,0.04081632653061224,0.04081632653061224,0.04081632653061224,0.04081632653061224,0.04081632653061224,0.04081632653061224,0.04081632653061224,0.04081632653061224,0.04081632653061224,0.04081632653061224,0.04081632653061224,0.04081632653061224,0.04081632653061224,0.04081632653061224,0.04081632653061224,0.04081632653061224,0.04081632653061224,0.04081632653061224,0.04081632653061224,0.04081632653061224,0.04081632653061224,0.04081632653061224,0.04081632653061224,0.04081632653061224,0.04081632653061224,0.04081632653061224,0.04081632653061224,0.04081632653061224,0.04081632653061224,0.04081632653061224,0.04081632653061224,0.04081632653061224,0.04081632653061224,0.04081632653061224,0.04081632653061224,0.04081632653061224,0.04081632653061224,0.04081632653061224,0.04081632653061224,0.04081632653061224,0.04081632653061224,0.04081632653061224,0.04081632653061224,0.04081632653061224,0.04081632653061224,0.04081632653061224,0.04081632653061224,0.04081632653061224,0.04081632653061224,0.04081632653061224,0.04081632653061224,0.04081632653061224,0.04081632653061224,0.04081632653061224,0.04081632653061224,0.04081632653061224,0.04081632653061224,0.04081632653061224,0.04081632653061224,0.04081632653061224,0.04081632653061224,0.04081632653061224,0.04081632653061224,0.04081632653061224,0.04081632653061224,0.04081632653061224,0.04081632653061224,0.04081632653061224,0.04081632653061224,0.04081632653061224,0.04081632653061224,0.04081632653061224,0.04081632653061224,0.04081632653061224,0.04081632653061224,0.04081632653061224,0.04081632653061224,0.04081632653061224,0.04081632653061224,0.04081632653061224,0.04081632653061224,0.04081632653061224,0.04081632653061224,0.04081632653061224,0.04081632653061224,0.04081632653061224,0.04081632653061224,0.04081632653061224,0.04081632653061224,0.04081632653061224,0.04081632653061224,0.04081632653061224,0.04081632653061224,0.04081632653061224,0.04081632653061224,0.04081632653061224,0.04081632653061224,0.04081632653061224,0.04081632653061224,0.04081632653061224,0.04081632653061224,0.04081632653061224,0.04081632653061224,0.16326530612244897,0.16326530612244897,0.16326530612244897,0.16326530612244897,0.16326530612244897,0.16326530612244897,0.16326530612244897,0.16326530612244897,0.16326530612244897,0.16326530612244897,0.16326530612244897,0.16326530612244897,0.16326530612244897,0.16326530612244897,0.16326530612244897,0.16326530612244897,0.16326530612244897,0.16326530612244897,0.16326530612244897,0.16326530612244897,0.16326530612244897,0.16326530612244897,0.16326530612244897,0.16326530612244897,0.16326530612244897,0.16326530612244897,0.16326530612244897,0.16326530612244897,0.16326530612244897,0.16326530612244897,0.16326530612244897,0.16326530612244897,0.16326530612244897,0.16326530612244897,0.16326530612244897,0.16326530612244897,0.16326530612244897,0.16326530612244897,0.16326530612244897,0.16326530612244897,0.16326530612244897,0.16326530612244897,0.16326530612244897,0.16326530612244897,0.16326530612244897,0.16326530612244897,0.16326530612244897,0.16326530612244897,0.16326530612244897,0.16326530612244897,0.16326530612244897,0.16326530612244897,0.16326530612244897,0.16326530612244897,0.16326530612244897,0.16326530612244897,0.16326530612244897,0.16326530612244897,0.16326530612244897,0.16326530612244897,0.16326530612244897,0.16326530612244897,0.16326530612244897,0.16326530612244897,0.16326530612244897,0.16326530612244897,0.16326530612244897,0.16326530612244897,0.16326530612244897,0.16326530612244897,0.16326530612244897,0.16326530612244897,0.16326530612244897,0.16326530612244897,0.16326530612244897,0.16326530612244897,0.16326530612244897,0.16326530612244897,0.16326530612244897,0.16326530612244897,0.16326530612244897,0.16326530612244897,0.16326530612244897,0.16326530612244897,0.16326530612244897,0.16326530612244897,0.16326530612244897,0.16326530612244897,0.16326530612244897,0.16326530612244897,0.16326530612244897,0.16326530612244897,0.16326530612244897,0.16326530612244897,0.16326530612244897,0.16326530612244897,0.16326530612244897,0.16326530612244897,0.16326530612244897,0.16326530612244897,0.16326530612244897,0.16326530612244897,0.16326530612244897,0.16326530612244897,0.16326530612244897,0.16326530612244897,0.16326530612244897,0.16326530612244897,0.16326530612244897,0.16326530612244897,0.16326530612244897,0.16326530612244897,0.16326530612244897,0.16326530612244897,0.16326530612244897,0.16326530612244897,0.16326530612244897,0.16326530612244897,0.16326530612244897,0.16326530612244897,0.16326530612244897,0.16326530612244897,0.16326530612244897,0.16326530612244897,0.16326530612244897,0.16326530612244897,0.16326530612244897,0.16326530612244897,0.16326530612244897,0.16326530612244897,0.16326530612244897,0.16326530612244897,0.16326530612244897,0.16326530612244897,0.16326530612244897,0.16326530612244897,0.16326530612244897,0.16326530612244897,0.16326530612244897,0.16326530612244897,0.16326530612244897,0.16326530612244897,0.16326530612244897,0.16326530612244897,0.16326530612244897,0.16326530612244897,0.16326530612244897,0.16326530612244897,0.16326530612244897,0.16326530612244897,0.16326530612244897,0.16326530612244897,0.16326530612244897,0.16326530612244897,0.16326530612244897,0.16326530612244897,0.16326530612244897,0.16326530612244897,0.16326530612244897,0.16326530612244897,0.16326530612244897,0.16326530612244897,0.16326530612244897,0.16326530612244897,0.16326530612244897,0.16326530612244897,0.16326530612244897,0.16326530612244897,0.16326530612244897,0.16326530612244897,0.16326530612244897,0.16326530612244897,0.16326530612244897,0.16326530612244897,0.16326530612244897,0.16326530612244897,0.16326530612244897,0.16326530612244897,0.16326530612244897,0.16326530612244897,0.16326530612244897,0.16326530612244897,0.16326530612244897,0.16326530612244897,0.16326530612244897,0.16326530612244897,0.16326530612244897,0.16326530612244897,0.16326530612244897,0.16326530612244897,0.16326530612244897,0.16326530612244897,0.16326530612244897,0.16326530612244897,0.16326530612244897,0.16326530612244897,0.16326530612244897,0.16326530612244897,0.16326530612244897,0.16326530612244897,0.16326530612244897,0.16326530612244897,0.16326530612244897,0.16326530612244897,0.16326530612244897,0.16326530612244897,0.16326530612244897,0.16326530612244897,0.16326530612244897,0.16326530612244897,0.16326530612244897,0.16326530612244897,0.16326530612244897,0.16326530612244897,0.16326530612244897,0.16326530612244897,0.16326530612244897,0.16326530612244897,0.16326530612244897,0.16326530612244897,0.16326530612244897,0.16326530612244897,0.16326530612244897,0.16326530612244897,0.16326530612244897,0.16326530612244897,0.16326530612244897,0.16326530612244897,0.16326530612244897,0.16326530612244897,0.16326530612244897,0.16326530612244897,0.16326530612244897,0.16326530612244897,0.16326530612244897,0.16326530612244897,0.16326530612244897,0.16326530612244897,0.16326530612244897,0.16326530612244897,0.16326530612244897,0.16326530612244897,0.16326530612244897,0.16326530612244897,0.16326530612244897,0.16326530612244897,0.16326530612244897,0.16326530612244897,0.16326530612244897,0.16326530612244897,0.16326530612244897,0.16326530612244897,0.16326530612244897,0.16326530612244897,0.16326530612244897,0.16326530612244897,0.16326530612244897,0.16326530612244897,0.16326530612244897,0.16326530612244897,0.16326530612244897,0.16326530612244897,0.16326530612244897,0.16326530612244897,0.16326530612244897,0.16326530612244897,0.16326530612244897,0.16326530612244897,0.16326530612244897,0.16326530612244897,0.16326530612244897,0.16326530612244897,0.16326530612244897,0.16326530612244897,0.16326530612244897,0.16326530612244897,0.16326530612244897,0.16326530612244897,0.16326530612244897,0.16326530612244897,0.16326530612244897,0.16326530612244897,0.16326530612244897,0.16326530612244897,0.16326530612244897,0.16326530612244897,0.16326530612244897,0.16326530612244897,0.16326530612244897,0.16326530612244897,0.16326530612244897,0.16326530612244897,0.16326530612244897,0.16326530612244897,0.16326530612244897,0.16326530612244897,0.16326530612244897,0.16326530612244897,0.16326530612244897,0.16326530612244897,0.16326530612244897,0.16326530612244897,0.16326530612244897,0.16326530612244897,0.16326530612244897,0.16326530612244897,0.16326530612244897,0.16326530612244897,0.16326530612244897,0.16326530612244897,0.16326530612244897,0.16326530612244897,0.16326530612244897,0.16326530612244897,0.16326530612244897,0.16326530612244897,0.16326530612244897,0.16326530612244897,0.16326530612244897,0.16326530612244897,0.16326530612244897,0.16326530612244897,0.16326530612244897,0.16326530612244897,0.16326530612244897,0.16326530612244897,0.16326530612244897,0.16326530612244897,0.16326530612244897,0.16326530612244897,0.16326530612244897,0.16326530612244897,0.16326530612244897,0.16326530612244897,0.16326530612244897,0.16326530612244897,0.16326530612244897,0.16326530612244897,0.16326530612244897,0.16326530612244897,0.16326530612244897,0.16326530612244897,0.16326530612244897,0.16326530612244897,0.16326530612244897,0.16326530612244897,0.16326530612244897,0.16326530612244897,0.16326530612244897,0.16326530612244897,0.16326530612244897,0.16326530612244897,0.16326530612244897,0.16326530612244897,0.16326530612244897,0.16326530612244897,0.16326530612244897,0.16326530612244897,0.16326530612244897,0.16326530612244897,0.16326530612244897,0.16326530612244897,0.16326530612244897,0.16326530612244897,0.16326530612244897,0.16326530612244897,0.16326530612244897,0.16326530612244897,0.16326530612244897,0.16326530612244897,0.16326530612244897,0.16326530612244897,0.16326530612244897,0.16326530612244897,0.16326530612244897,0.16326530612244897,0.16326530612244897,0.16326530612244897,0.16326530612244897,0.16326530612244897,0.16326530612244897,0.16326530612244897,0.16326530612244897,0.16326530612244897,0.16326530612244897,0.16326530612244897,0.16326530612244897,0.16326530612244897,0.16326530612244897,0.16326530612244897,0.16326530612244897,0.16326530612244897,0.16326530612244897,0.16326530612244897,0.16326530612244897,0.16326530612244897,0.16326530612244897,0.16326530612244897,0.16326530612244897,0.16326530612244897,0.16326530612244897,0.16326530612244897,0.16326530612244897,0.16326530612244897,0.16326530612244897,0.16326530612244897,0.16326530612244897,0.16326530612244897,0.16326530612244897,0.16326530612244897,0.16326530612244897,0.16326530612244897,0.16326530612244897,0.3156462169828869,0.3156462169828869,0.3156462169828869,0.3129251700680272,0.3129251700680272,0.3129251700680272,0.3129251700680272,0.3129251700680272,0.3129251700680272,0.3129251700680272,0.3129251700680272,0.3129251700680272,0.3129251700680272,0.3129251700680272,0.3129251700680272,0.3129251700680272,0.3129251700680272,0.3129251700680272,0.3129251700680272,0.3129251700680272,0.3129251700680272,0.3129251700680272,0.3129251700680272,0.3129251700680272,0.3129251700680272,0.3129251700680272,0.3129251700680272,0.3129251700680272,0.3129251700680272,0.3129251700680272,0.3129251700680272,0.3129251700680272,0.3129251700680272,0.3129251700680272,0.3129251700680272,0.3129251700680272,0.3129251700680272,0.3129251700680272,0.3129251700680272,0.3129251700680272,0.3129251700680272,0.3129251700680272,0.3129251700680272,0.3129251700680272,0.3129251700680272,0.3129251700680272,0.3129251700680272,0.3129251700680272,0.3129251700680272,0.3129251700680272,0.3129251700680272,0.3129251700680272,0.3129251700680272,0.3129251700680272,0.3129251700680272,0.3129251700680272,0.3129251700680272,0.3129251700680272,0.3129251700680272,0.3129251700680272,0.3129251700680272,0.3129251700680272,0.3129251700680272,0.3129251700680272,0.3129251700680272,0.3129251700680272,0.3129251700680272,0.3129251700680272,0.3129251700680272,0.3129251700680272,0.3129251700680272,0.3129251700680272,0.3129251700680272,0.3129251700680272,0.3129251700680272,0.3129251700680272,0.3129251700680272,0.3129251700680272,0.3129251700680272,0.3129251700680272,0.3129251700680272,0.3129251700680272,0.3129251700680272,0.3129251700680272,0.3129251700680272,0.3129251700680272,0.3129251700680272,0.3129251700680272,0.3129251700680272,0.8680272524048682,0.8680272524048682,0.8680272524048682,0.8673469387755102,0.8673469387755102,0.8673469387755102,0.8673469387755102,0.8673469387755102,0.8673469387755102,0.8673469387755102,0.8673469387755102,0.8673469387755102,0.8673469387755102,0.8673469387755102,0.8673469387755102,0.8673469387755102,0.8673469387755102,0.8673469387755102,0.8673469387755102,0.8673469387755102,0.8673469387755102,0.8673469387755102,0.8673469387755102,0.8673469387755102,0.8673469387755102,0.8673469387755102,0.8673469387755102,0.8673469387755102,0.8673469387755102,0.8673469387755102,0.8673469387755102,0.8673469387755102,0.8673469387755102,0.8673469387755102,0.8673469387755102,0.8673469387755102,0.8673469387755102,0.8673469387755102,0.8673469387755102,0.8673469387755102,0.8673469387755102,0.8673469387755102,0.8673469387755102,0.8673469387755102,0.8673469387755102,0.8673469387755102,0.8673469387755102,0.8673469387755102,0.8673469387755102,0.8673469387755102,0.8673469387755102,0.8673469387755102,0.8673469387755102,0.8673469387755102,0.8673469387755102,0.8673469387755102,0.8673469387755102,0.8673469387755102,0.8673469387755102,0.8673469387755102,0.8673469387755102,0.8673469387755102,0.8673469387755102,0.8673469387755102,0.8673469387755102,0.8673469387755102,0.8673469387755102,0.8673469387755102,0.8673469387755102,0.8673469387755102,0.8673469387755102,0.8673469387755102,0.45714294018388607,0.45714294018388607,0.45714294018388607,0.4557823129251701,0.4557823129251701,0.4557823129251701,0.4557823129251701,0.4557823129251701,0.4557823129251701,0.4557823129251701,0.4557823129251701,0.4557823129251701,0.4557823129251701,0.4557823129251701,0.4557823129251701,0.4557823129251701,0.4557823129251701,0.4557823129251701,0.4557823129251701,0.4557823129251701,0.4557823129251701,0.4557823129251701,0.4557823129251701,0.4557823129251701,0.4557823129251701,0.4557823129251701,0.4557823129251701,0.4557823129251701,0.4557823129251701,0.4557823129251701,0.4557823129251701,0.4557823129251701,0.4557823129251701,0.4557823129251701,0.4557823129251701,0.4557823129251701,0.4557823129251701,0.4557823129251701,0.4557823129251701,0.4557823129251701,0.4557823129251701,0.4557823129251701,0.4557823129251701,0.4557823129251701,0.4557823129251701,0.4557823129251701,0.4557823129251701,0.4557823129251701,0.4557823129251701,0.4557823129251701,0.4557823129251701,0.4557823129251701,0.4557823129251701,0.4557823129251701,0.4557823129251701,0.4557823129251701,0.4557823129251701,0.4557823129251701,0.4557823129251701,0.4557823129251701,0.4557823129251701,0.4557823129251701,0.4557823129251701,0.4557823129251701,0.4557823129251701,0.4557823129251701,0.4557823129251701,0.4557823129251701,0.4557823129251701,0.4557823129251701,0.4557823129251701,0.4557823129251701,0.4557823129251701,0.4557823129251701,0.4557823129251701,0.4557823129251701,0.4557823129251701,0.4557823129251701,0.4557823129251701,0.4557823129251701,0.4557823129251701,0.4557823129251701,0.05986407013977466,0.05986407013977466,0.05986407013977466,0.05986407013977466,0.05782312925170068,0.05782312925170068,0.05782312925170068,0.05782312925170068,0.05782312925170068,0.05782312925170068,0.05782312925170068,0.05782312925170068,0.05782312925170068,0.05782312925170068,0.05782312925170068,0.05782312925170068,0.05782312925170068,0.05782312925170068,0.05782312925170068,0.05782312925170068,0.05782312925170068,0.05782312925170068,0.05782312925170068,0.05782312925170068,0.05782312925170068,0.05782312925170068,0.05782312925170068,0.05782312925170068,0.05782312925170068,0.05782312925170068,0.05782312925170068,0.05782312925170068,0.05782312925170068,0.05782312925170068,0.05782312925170068,0.05782312925170068,0.05782312925170068,0.05782312925170068,0.05782312925170068,0.05782312925170068,0.05782312925170068,0.05782312925170068,0.05782312925170068,0.05782312925170068,0.05782312925170068,0.05782312925170068,0.05782312925170068,0.05782312925170068,0.05782312925170068,0.05782312925170068,0.05782312925170068,0.05782312925170068,0.05782312925170068,0.05782312925170068,0.05782312925170068,0.05782312925170068,0.05782312925170068,0.05782312925170068,0.05782312925170068,0.05782312925170068,0.05782312925170068,0.05782312925170068,0.05782312925170068,0.05782312925170068,0.05782312925170068,0.05782312925170068,0.05782312925170068,0.05782312925170068,0.05782312925170068,0.05782312925170068,0.05782312925170068,0.05782312925170068,0.05782312925170068,0.05782312925170068,0.05782312925170068,0.05782312925170068,0.05782312925170068,0.05782312925170068,0.05782312925170068,0.05782312925170068,0.05782312925170068,0.05782312925170068,0.05782312925170068,0.05782312925170068,0.05782312925170068,0.05782312925170068,0.05782312925170068,0.05782312925170068,0.05782312925170068,0.05782312925170068,0.17414970138446004,0.17414970138446004,0.17414970138446004,0.17414970138446004,0.17346938775510204,0.17346938775510204,0.17346938775510204,0.17346938775510204,0.17346938775510204,0.17346938775510204,0.17346938775510204,0.17346938775510204,0.17346938775510204,0.17346938775510204,0.17346938775510204,0.17346938775510204,0.17346938775510204,0.17346938775510204,0.17346938775510204,0.17346938775510204,0.17346938775510204,0.17346938775510204,0.17346938775510204,0.17346938775510204,0.17346938775510204,0.17346938775510204,0.17346938775510204,0.17346938775510204,0.17346938775510204,0.17346938775510204,0.17346938775510204,0.17346938775510204,0.17346938775510204,0.17346938775510204,0.17346938775510204,0.17346938775510204,0.17346938775510204,0.17346938775510204,0.17346938775510204,0.17346938775510204,0.17346938775510204,0.17346938775510204,0.17346938775510204,0.17346938775510204,0.17346938775510204,0.17346938775510204,0.17346938775510204,0.17346938775510204,0.17346938775510204,0.17346938775510204,0.17346938775510204,0.17346938775510204,0.17346938775510204,0.17346938775510204,0.17346938775510204,0.17346938775510204,0.17346938775510204,0.17346938775510204,0.17346938775510204,0.17346938775510204,0.17346938775510204,0.17346938775510204,0.17346938775510204,0.17346938775510204,0.17346938775510204,0.17346938775510204,0.17346938775510204,0.17346938775510204,0.17346938775510204,0.17346938775510204,0.17346938775510204,0.17346938775510204,0.17346938775510204,0.17346938775510204,0.17346938775510204,0.17346938775510204,0.17346938775510204,0.17346938775510204,0.17346938775510204,0.17346938775510204,0.17346938775510204,0.17346938775510204,0.17346938775510204,0.17346938775510204,0.17346938775510204,0.17346938775510204,0.17346938775510204,0.17346938775510204,0.17346938775510204,0.17346938775510204,0.17346938775510204,0.17346938775510204,0.17346938775510204,0.17346938775510204,0.17346938775510204,0.17346938775510204,0.17346938775510204,0.17346938775510204,0.17346938775510204,0.17346938775510204,0.17346938775510204,0.17346938775510204,0.17346938775510204,0.17346938775510204,0.17346938775510204,0.17346938775510204,0.17346938775510204,0.17346938775510204,0.17346938775510204,0.17346938775510204,0.17346938775510204,0.17346938775510204,0.17346938775510204,0.17346938775510204,0.17346938775510204,0.17346938775510204,0.17346938775510204,0.17346938775510204,0.17346938775510204,0.17346938775510204,0.17346938775510204,0.17346938775510204,0.17346938775510204,0.7156463415444303,0.7142857142857143,0.7142857142857143,0.7142857142857143,0.7142857142857143,0.7142857142857143,0.7142857142857143,0.7142857142857143,0.7142857142857143,0.7142857142857143,0.7142857142857143,0.7142857142857143,0.7142857142857143,0.7142857142857143,0.7142857142857143,0.7142857142857143,0.7142857142857143,0.7142857142857143,0.7142857142857143,0.7142857142857143,0.7142857142857143,0.7142857142857143,0.7142857142857143,0.7142857142857143,0.7142857142857143,0.7142857142857143,0.7142857142857143,0.7142857142857143,0.7142857142857143,0.7142857142857143,0.7142857142857143,0.7142857142857143,0.7142857142857143,0.7142857142857143,0.7142857142857143,0.7142857142857143,0.7142857142857143,0.7142857142857143,0.7142857142857143,0.7142857142857143,0.7142857142857143,0.7142857142857143,0.7142857142857143,0.7142857142857143,0.7142857142857143,0.7142857142857143,0.7142857142857143,0.7142857142857143,0.7142857142857143,0.7142857142857143,0.7142857142857143,0.7142857142857143,0.7142857142857143,0.7142857142857143,0.7142857142857143,0.7142857142857143,0.7142857142857143,0.7142857142857143,0.7142857142857143,0.7142857142857143,0.7142857142857143,0.7142857142857143,0.7142857142857143,0.7142857142857143,0.7142857142857143,0.7142857142857143,0.7142857142857143,0.7142857142857143,0.7142857142857143,0.7142857142857143,0.7142857142857143,0.7142857142857143,0.7142857142857143,0.7142857142857143,0.7142857142857143,0.7142857142857143,0.7142857142857143,0.7142857142857143,0.7142857142857143,0.7142857142857143,0.7142857142857143,0.7142857142857143,0.7142857142857143,0.7142857142857143,0.7142857142857143,0.7142857142857143,0.7142857142857143,0.7142857142857143,0.7142857142857143,0.7142857142857143,0.7142857142857143,0.7142857142857143,0.7142857142857143,0.7142857142857143,0.7142857142857143,0.7142857142857143,0.7142857142857143,0.7142857142857143,0.7142857142857143,0.7142857142857143,0.7142857142857143,0.7142857142857143,0.7142857142857143,0.7142857142857143,0.7142857142857143,0.7142857142857143,0.43265310274500424,0.43265310274500424,0.43265310274500424,0.43197278911564624,0.43197278911564624,0.43197278911564624,0.43197278911564624,0.43197278911564624,0.43197278911564624,0.43197278911564624,0.43197278911564624,0.43197278911564624,0.43197278911564624,0.43197278911564624,0.43197278911564624,0.43197278911564624,0.43197278911564624,0.43197278911564624,0.43197278911564624,0.43197278911564624,0.43197278911564624,0.43197278911564624,0.43197278911564624,0.43197278911564624,0.43197278911564624,0.43197278911564624,0.43197278911564624,0.43197278911564624,0.43197278911564624,0.43197278911564624,0.43197278911564624,0.43197278911564624,0.43197278911564624,0.43197278911564624,0.43197278911564624,0.43197278911564624,0.43197278911564624,0.43197278911564624,0.43197278911564624,0.43197278911564624,0.43197278911564624,0.43197278911564624,0.43197278911564624,0.43197278911564624,0.43197278911564624,0.43197278911564624,0.5823129666905825,0.5816326530612245,0.5816326530612245,0.5816326530612245,0.5816326530612245,0.5816326530612245,0.5816326530612245,0.5816326530612245,0.5816326530612245,0.5816326530612245,0.5816326530612245,0.5816326530612245,0.5816326530612245,0.5816326530612245,0.5816326530612245,0.5816326530612245,0.5816326530612245,0.5816326530612245,0.5816326530612245,0.5816326530612245,0.5816326530612245,0.5816326530612245,0.5816326530612245,0.5816326530612245,0.5816326530612245,0.5816326530612245,0.5816326530612245,0.5816326530612245,0.5816326530612245,0.5816326530612245,0.5816326530612245,0.5816326530612245,0.5816326530612245,0.5816326530612245,0.5816326530612245,0.5816326530612245,0.5816326530612245,0.5816326530612245,0.5816326530612245,0.5816326530612245,0.5816326530612245,0.5816326530612245,0.5816326530612245,0.5816326530612245,0.5816326530612245,0.5816326530612245,0.5816326530612245,0.5816326530612245,0.5816326530612245,0.5816326530612245,0.5816326530612245,0.5816326530612245,0.5816326530612245,0.5816326530612245,0.5816326530612245,0.5816326530612245,0.5816326530612245,0.5816326530612245,0.5816326530612245,0.5816326530612245,0.5816326530612245,0.5816326530612245,0.5816326530612245,0.5816326530612245,0.5816326530612245,0.5816326530612245,0.5816326530612245,0.5816326530612245,0.5816326530612245,0.5816326530612245,0.5816326530612245,0.5816326530612245,0.5816326530612245,0.5816326530612245,0.5816326530612245,0.5816326530612245,0.5816326530612245,0.5816326530612245,0.5816326530612245,0.5816326530612245,0.5816326530612245,0.5816326530612245,0.5816326530612245,0.5816326530612245,0.5816326530612245,0.5816326530612245,0.5816326530612245,0.16054425920758927,0.16054425920758927,0.16054425920758927,0.1598639455782313,0.1598639455782313,0.1598639455782313,0.1598639455782313,0.1598639455782313,0.1598639455782313,0.1598639455782313,0.1598639455782313,0.1598639455782313,0.1598639455782313,0.1598639455782313,0.1598639455782313,0.1598639455782313,0.1598639455782313,0.1598639455782313,0.1598639455782313,0.1598639455782313,0.1598639455782313,0.1598639455782313,0.1598639455782313,0.1598639455782313,0.1598639455782313,0.1598639455782313,0.1598639455782313,0.1598639455782313,0.1598639455782313,0.1598639455782313,0.1598639455782313,0.1598639455782313,0.1598639455782313,0.1598639455782313,0.1598639455782313,0.1598639455782313,0.1598639455782313,0.1598639455782313,0.1598639455782313,0.1598639455782313,0.1598639455782313,0.1598639455782313,0.1598639455782313,0.1598639455782313,0.1598639455782313,0.1598639455782313,0.1598639455782313,0.1598639455782313,0.1598639455782313,0.1598639455782313,0.1598639455782313,0.1598639455782313,0.1598639455782313,0.1598639455782313,0.5578231292517006,0.5578231292517006,0.5578231292517006,0.5578231292517006,0.5578231292517006,0.5578231292517006,0.5578231292517006,0.5578231292517006,0.5578231292517006,0.5578231292517006,0.5578231292517006,0.5578231292517006,0.5578231292517006,0.5578231292517006,0.5578231292517006,0.5578231292517006,0.5578231292517006,0.5578231292517006,0.5578231292517006,0.5578231292517006,0.5578231292517006,0.5578231292517006,0.5578231292517006,0.5578231292517006,0.5578231292517006,0.5578231292517006,0.5578231292517006,0.5578231292517006,0.5578231292517006,0.5578231292517006,0.5578231292517006,0.5578231292517006,0.5578231292517006,0.5578231292517006,0.5578231292517006,0.5578231292517006,0.5578231292517006,0.5578231292517006,0.5578231292517006,0.5578231292517006,0.5578231292517006,0.5578231292517006,0.5578231292517006,0.5578231292517006,0.5578231292517006,0.5578231292517006,0.5578231292517006,0.5578231292517006,0.5578231292517006,0.5578231292517006,0.5578231292517006,0.5578231292517006,0.5578231292517006,0.5578231292517006,0.5578231292517006,0.5578231292517006,0.5578231292517006,0.5578231292517006,0.5578231292517006,0.5578231292517006,0.5578231292517006,0.5578231292517006,0.5578231292517006,0.5578231292517006,0.5578231292517006,0.5578231292517006,0.5578231292517006,0.5578231292517006,0.5578231292517006,0.5578231292517006,1.0122450225207271,1.0122450225207271,1.0122450225207271,1.0122450225207271,1.0122450225207271,1.010204081632653,1.010204081632653,1.010204081632653,1.010204081632653,1.010204081632653,1.010204081632653,1.010204081632653,1.010204081632653,1.010204081632653,1.010204081632653,1.010204081632653,1.010204081632653,1.010204081632653,1.010204081632653,1.010204081632653,1.010204081632653,1.010204081632653,1.010204081632653,1.010204081632653,1.010204081632653,1.010204081632653,1.010204081632653,1.010204081632653,1.010204081632653,1.010204081632653,1.010204081632653,1.010204081632653,1.010204081632653,1.010204081632653,1.010204081632653,1.010204081632653,1.010204081632653,1.010204081632653,1.010204081632653,1.010204081632653,1.010204081632653,1.010204081632653,1.010204081632653,1.010204081632653,1.010204081632653,1.010204081632653,1.010204081632653,1.010204081632653,1.010204081632653,1.010204081632653,1.010204081632653,1.010204081632653,1.010204081632653,1.010204081632653,1.010204081632653,1.010204081632653,1.010204081632653,1.010204081632653,1.010204081632653,1.010204081632653,1.010204081632653,1.010204081632653,1.010204081632653,1.010204081632653,1.010204081632653,1.010204081632653,1.010204081632653,1.010204081632653,1.010204081632653,1.010204081632653,1.010204081632653,1.010204081632653,1.010204081632653,1.010204081632653,1.010204081632653,1.010204081632653,1.010204081632653,1.010204081632653,1.010204081632653,1.010204081632653,1.010204081632653,1.010204081632653,1.010204081632653,1.010204081632653,1.010204081632653,1.010204081632653,1.010204081632653,1.010204081632653,1.010204081632653,1.010204081632653,1.010204081632653,1.010204081632653,1.010204081632653,1.010204081632653,1.010204081632653,1.010204081632653,1.010204081632653,1.010204081632653,1.010204081632653,1.010204081632653,1.010204081632653,1.010204081632653,1.010204081632653,0.5523810354219812,0.5523810354219812,0.5523810354219812,0.5523810354219812,0.5523810354219812,0.5510204081632653,0.5510204081632653,0.5510204081632653,0.5510204081632653,0.5510204081632653,0.5510204081632653,0.5510204081632653,0.5510204081632653,0.5510204081632653,0.5510204081632653,0.5510204081632653,0.5510204081632653,0.5510204081632653,0.5510204081632653,0.5510204081632653,0.5510204081632653,0.5510204081632653,0.5510204081632653,0.5510204081632653,0.5510204081632653,0.5510204081632653,0.5510204081632653,0.5510204081632653,0.5510204081632653,0.5510204081632653,0.5510204081632653,0.5510204081632653,0.5510204081632653,0.5510204081632653,0.5510204081632653,0.5510204081632653,0.5510204081632653,0.5510204081632653,0.5510204081632653,0.5510204081632653,0.5510204081632653,0.5510204081632653,0.5510204081632653,0.5510204081632653,0.5510204081632653,0.5510204081632653,0.5510204081632653,0.5510204081632653,0.5510204081632653,0.5510204081632653,0.5510204081632653,0.5510204081632653,0.5510204081632653,0.5510204081632653,0.5510204081632653,0.5510204081632653,0.5510204081632653,0.5510204081632653,0.5510204081632653,0.5510204081632653,0.5510204081632653,0.5510204081632653,0.5510204081632653,0.5510204081632653,0.5510204081632653,0.5510204081632653,0.5510204081632653,0.5510204081632653,0.5510204081632653,0.5510204081632653,0.5510204081632653,0.5510204081632653,0.5510204081632653,0.5510204081632653,0.5510204081632653,0.5510204081632653,0.5510204081632653,0.5510204081632653,0.5510204081632653,0.5510204081632653,0.5510204081632653,0.5510204081632653,0.5510204081632653,0.5510204081632653,0.5510204081632653,0.5510204081632653,0.5510204081632653,0.5510204081632653,0.5510204081632653,0.5510204081632653,0.5510204081632653,0.5510204081632653,0.5510204081632653,0.5510204081632653,0.5510204081632653,0.5510204081632653,0.5510204081632653,0.5510204081632653,0.5510204081632653,0.5510204081632653,0.5510204081632653,0.5510204081632653,0.5510204081632653,0.5510204081632653,0.5510204081632653,0.5510204081632653,0.5510204081632653,0.5510204081632653,0.5510204081632653,0.5510204081632653,0.5510204081632653,0.5510204081632653,0.5510204081632653,0.5510204081632653,0.5510204081632653,0.5510204081632653,0.5510204081632653,0.5510204081632653,0.5510204081632653,0.5510204081632653,0.5510204081632653,0.5510204081632653,0.5510204081632653,0.5510204081632653,0.5510204081632653,0.5510204081632653,0.5510204081632653,0.5510204081632653,0.5510204081632653,0.5510204081632653,0.5510204081632653,0.5510204081632653,0.5510204081632653,0.5510204081632653,0.5510204081632653,0.5510204081632653,0.5510204081632653,0.5510204081632653,0.5510204081632653,0.5510204081632653,0.5510204081632653,0.5510204081632653,0.5510204081632653,0.5510204081632653,0.5510204081632653,0.5510204081632653,0.5510204081632653,0.5510204081632653,0.5510204081632653,0.5510204081632653,0.5510204081632653,0.5510204081632653,0.5510204081632653,0.5510204081632653,0.5510204081632653,0.5510204081632653,0.5510204081632653,0.5510204081632653,-0.008163140744579082,-0.008163140744579082,-0.008163140744579082,-0.008163140744579082,-0.01020408163265306,-0.01020408163265306,-0.01020408163265306,-0.01020408163265306,-0.01020408163265306,-0.01020408163265306,-0.01020408163265306,-0.01020408163265306,-0.01020408163265306,-0.01020408163265306,-0.01020408163265306,-0.01020408163265306,-0.01020408163265306,-0.01020408163265306,-0.01020408163265306,-0.01020408163265306,-0.01020408163265306,-0.01020408163265306,-0.01020408163265306,-0.01020408163265306,-0.01020408163265306,-0.01020408163265306,-0.01020408163265306,-0.01020408163265306,-0.01020408163265306,-0.01020408163265306,-0.01020408163265306,-0.01020408163265306,-0.01020408163265306,-0.01020408163265306,-0.01020408163265306,-0.01020408163265306,-0.01020408163265306,-0.01020408163265306,-0.01020408163265306,-0.01020408163265306,-0.01020408163265306,-0.01020408163265306,-0.01020408163265306,-0.01020408163265306,-0.01020408163265306,-0.01020408163265306,-0.01020408163265306,-0.01020408163265306,-0.01020408163265306,-0.01020408163265306,-0.01020408163265306,-0.01020408163265306,-0.01020408163265306,-0.01020408163265306,-0.01020408163265306,-0.01020408163265306,-0.01020408163265306,-0.01020408163265306,-0.01020408163265306,-0.01020408163265306,-0.01020408163265306,-0.01020408163265306,-0.01020408163265306,-0.01020408163265306,-0.01020408163265306,-0.01020408163265306,-0.01020408163265306,-0.01020408163265306,-0.01020408163265306,-0.01020408163265306,-0.01020408163265306,-0.01020408163265306,-0.01020408163265306,-0.01020408163265306,-0.01020408163265306,-0.01020408163265306,-0.01020408163265306,-0.01020408163265306,-0.01020408163265306,-0.01020408163265306,-0.01020408163265306,-0.01020408163265306,-0.01020408163265306,-0.01020408163265306,-0.01020408163265306,-0.01020408163265306,-0.01020408163265306,-0.01020408163265306,-0.01020408163265306,-0.01020408163265306,-0.01020408163265306,-0.01020408163265306,-0.01020408163265306,-0.01020408163265306,-0.01020408163265306,-0.01020408163265306,-0.01020408163265306,-0.01020408163265306,-0.01020408163265306,-0.01020408163265306,-0.01020408163265306,-0.01020408163265306,-0.01020408163265306,-0.01020408163265306,-0.01020408163265306,-0.01020408163265306,-0.01020408163265306,-0.01020408163265306,-0.01020408163265306,-0.01020408163265306,-0.01020408163265306,-0.01020408163265306,-0.01020408163265306,-0.01020408163265306,-0.01020408163265306,-0.01020408163265306,-0.01020408163265306,-0.01020408163265306,-0.01020408163265306,-0.01020408163265306,-0.01020408163265306,-0.01020408163265306,-0.01020408163265306,-0.01020408163265306],"y":[-3.8095238095238093,-3.8095238095238093,-3.8095238095238093,-3.8095238095238093,-3.8095238095238093,-3.8095238095238093,-3.8095238095238093,-3.8095238095238093,-3.8095238095238093,-3.8095238095238093,-3.8095238095238093,-3.8095238095238093,-3.8095238095238093,-3.8095238095238093,-3.8095238095238093,-3.8095238095238093,-3.8095238095238093,-3.8095238095238093,-3.8095238095238093,-3.8095238095238093,-3.8095238095238093,-3.8095238095238093,-3.8095238095238093,-3.8095238095238093,-3.8095238095238093,-3.8095238095238093,-3.8095238095238093,-3.8095238095238093,-3.8095238095238093,-3.8095238095238093,-3.8095238095238093,-3.8095238095238093,-3.8095238095238093,-3.8095238095238093,-3.8095238095238093,-3.8095238095238093,-3.8095238095238093,-3.8095238095238093,-3.8095238095238093,-3.8095238095238093,-3.8095238095238093,-3.8095238095238093,-3.8095238095238093,-3.8095238095238093,-3.8095238095238093,-3.8095238095238093,-3.8095238095238093,-3.8095238095238093,-3.8095238095238093,-3.8095238095238093,-3.8095238095238093,-3.8095238095238093,-3.8095238095238093,-3.8095238095238093,-3.8095238095238093,-3.8095238095238093,-3.8095238095238093,-3.8095238095238093,-3.8095238095238093,-3.8095238095238093,-3.8095238095238093,-3.8095238095238093,-3.8095238095238093,-3.8095238095238093,-3.8095238095238093,-3.8095238095238093,-3.8095238095238093,-3.8095238095238093,-3.8095238095238093,-3.8095238095238093,-3.8095238095238093,-3.8095238095238093,-3.8095238095238093,-3.8095238095238093,-3.8095238095238093,-3.8095238095238093,-3.8095238095238093,-3.8095238095238093,-3.8095238095238093,-3.8095238095238093,-3.8095238095238093,-3.8095238095238093,-3.8095238095238093,-3.8095238095238093,-3.8095238095238093,-3.8095238095238093,-3.8095238095238093,-3.8095238095238093,-3.8095238095238093,-3.8095238095238093,-3.8095238095238093,-3.8095238095238093,-3.8095238095238093,-3.8095238095238093,-3.8095238095238093,-3.8095238095238093,-3.8095238095238093,-3.8095238095238093,-3.8095238095238093,-3.8095238095238093,-3.8095238095238093,-3.8095238095238093,-3.8095238095238093,-3.8095238095238093,-3.8095238095238093,-3.8095238095238093,-3.8095238095238093,-3.8095238095238093,-3.8095238095238093,-3.8095238095238093,-3.8095238095238093,-3.8095238095238093,-3.8095238095238093,-3.8095238095238093,-3.8095238095238093,-3.8095238095238093,-3.8095238095238093,-3.8095238095238093,-3.8095238095238093,-3.8095238095238093,-3.8095238095238093,-3.8095238095238093,-3.8095238095238093,-3.8095238095238093,-3.8095238095238093,-3.8095238095238093,-3.8095238095238093,-3.8095238095238093,-3.8095238095238093,-3.8095238095238093,-3.8095238095238093,-3.8095238095238093,-3.8095238095238093,-3.8095238095238093,-3.8095238095238093,-3.8095238095238093,-3.8095238095238093,-3.8095238095238093,-3.8095238095238093,-3.8095238095238093,-3.8095238095238093,-3.8095238095238093,-3.8095238095238093,-3.8095238095238093,-3.8095238095238093,-3.8095238095238093,-3.8095238095238093,-3.8095238095238093,-3.8095238095238093,-3.8095238095238093,-3.8095238095238093,-3.8095238095238093,-3.8095238095238093,-3.8095238095238093,-3.8095238095238093,-3.8095238095238093,-3.8095238095238093,-3.8095238095238093,-3.8095238095238093,-3.8095238095238093,-3.8095238095238093,-3.8095238095238093,-3.8095238095238093,-3.8095238095238093,-3.8095238095238093,-3.8095238095238093,-3.8095238095238093,-3.8095238095238093,-3.8095238095238093,-3.8095238095238093,-3.8095238095238093,-3.8095238095238093,-3.8095238095238093,-3.8095238095238093,-3.8095238095238093,-3.8095238095238093,-3.8095238095238093,-3.8095238095238093,-3.8095238095238093,-3.8095238095238093,-3.8095238095238093,-3.8095238095238093,-3.8095238095238093,-3.8095238095238093,-3.8095238095238093,-3.8095238095238093,-3.8095238095238093,-3.8095238095238093,-3.8095238095238093,-3.8095238095238093,-3.8095238095238093,-3.8095238095238093,-3.8095238095238093,-3.8095238095238093,-3.8095238095238093,-3.8095238095238093,-3.8095238095238093,-3.8095238095238093,-3.809523809