[{"success":true,"trial_type":"fullscreen","trial_index":0,"time_elapsed":4014,"internal_node_id":"0.0-0.0","protocol_sum":"","subject_identifier":228,"subject_sum":[159,31,157,206,49,156,71,0,239,40,236,140,83,189,60,200,230,171,230,76,104,56,84,121,171,137,33,88,6,165,189,214],"subject_pair":114,"STUDY_ID":"669eec2e4270c76bc184a38e","PROLIFIC_PID":"666c0088634cc2e1573b49ee","SESSION_ID":"669fe68c86f8c2cac282272f","practice_instructions":1,"leaderboard_instructions":0,"bonus":0,"reveal_word":false,"self_rating":"4","confidence":"69"},{"view_history":"[{\"page_index\":0,\"viewing_time\":3161}]","rt":3161,"trial_type":"instructions","trial_index":1,"time_elapsed":7178,"internal_node_id":"0.0-1.0","protocol_sum":"","subject_identifier":228,"subject_sum":[159,31,157,206,49,156,71,0,239,40,236,140,83,189,60,200,230,171,230,76,104,56,84,121,171,137,33,88,6,165,189,214],"subject_pair":114,"STUDY_ID":"669eec2e4270c76bc184a38e","PROLIFIC_PID":"666c0088634cc2e1573b49ee","SESSION_ID":"669fe68c86f8c2cac282272f","practice_instructions":1,"leaderboard_instructions":0,"bonus":0,"reveal_word":false,"self_rating":"4","confidence":"69"},{"view_history":"[{\"page_index\":0,\"viewing_time\":5198}]","rt":5198,"trial_type":"instructions","trial_index":2,"time_elapsed":12375,"internal_node_id":"0.0-2.0-0.0","protocol_sum":"","subject_identifier":228,"subject_sum":[159,31,157,206,49,156,71,0,239,40,236,140,83,189,60,200,230,171,230,76,104,56,84,121,171,137,33,88,6,165,189,214],"subject_pair":114,"STUDY_ID":"669eec2e4270c76bc184a38e","PROLIFIC_PID":"666c0088634cc2e1573b49ee","SESSION_ID":"669fe68c86f8c2cac282272f","practice_instructions":1,"leaderboard_instructions":0,"bonus":0,"reveal_word":false,"self_rating":"4","confidence":"69"},{"rt":8677,"responses":"{\"Q0\":\"... reveal the word with as <b>few letter guesses</b> as possible\"}","question_order":"[0]","trial_type":"survey-multi-choice","trial_index":3,"time_elapsed":21054,"internal_node_id":"0.0-2.0-1.0","protocol_sum":"","subject_identifier":228,"subject_sum":[159,31,157,206,49,156,71,0,239,40,236,140,83,189,60,200,230,171,230,76,104,56,84,121,171,137,33,88,6,165,189,214],"subject_pair":114,"correct":true,"test_part":"multichoice_nonpretend","STUDY_ID":"669eec2e4270c76bc184a38e","PROLIFIC_PID":"666c0088634cc2e1573b49ee","SESSION_ID":"669fe68c86f8c2cac282272f","practice_instructions":1,"leaderboard_instructions":0,"bonus":0,"reveal_word":false,"self_rating":"4","confidence":"69"},{"view_history":"[{\"page_index\":0,\"viewing_time\":2017}]","rt":2018,"trial_type":"instructions","trial_index":4,"time_elapsed":23072,"internal_node_id":"0.0-3.0","protocol_sum":"","subject_identifier":228,"subject_sum":[159,31,157,206,49,156,71,0,239,40,236,140,83,189,60,200,230,171,230,76,104,56,84,121,171,137,33,88,6,165,189,214],"subject_pair":114,"STUDY_ID":"669eec2e4270c76bc184a38e","PROLIFIC_PID":"666c0088634cc2e1573b49ee","SESSION_ID":"669fe68c86f8c2cac282272f","practice_instructions":1,"leaderboard_instructions":0,"bonus":0,"reveal_word":false,"self_rating":"4","confidence":"69"},{"word":"ZEBRA","click_log":{"letter":["","H","E","B","Z","R","A"],"t":[0,5449,13896,20322,23667,25182,26495],"hit":[null,0,1,1,1,1,1],"asked":["","H","HE","HEB","HEBZ","HEBZR","HEBZRA"],"word_state":["_____","_____","_E___","_EB__","ZEB__","ZEBR_","ZEBRA"]},"hover_log":{"letter":["?","?","?","?","?","?","?","?","?","?","?","?","?","?","?","?","?","?","?","?","?","?","?","?","?","?","?","?","?","?","?","?","?","?","?","?","?","?","?","?","?","?","?","?","?","?","?","?","?","?","?","?","?","?","?","?","?","?","?","?","?","?","?","?","?","?","?","?","?","?","?","?","?","?","?","?","?","?","?","?","?","?","?","?","?","?","?","?","?","?","?","?","?","?","?","?","?","?","?","?","?","?","?","?","?","?","?","?","?","?","?","?","?","?","?","?","?","?","?","?","?","?","?","?","?","?","?","?","?","?","?","?","?","?","?","?","?","?","?","?","?","?","?","?","?","?","?","J","J","J","J","?","K","K","K","K","K","K","K","K","K","K","K","K","K","K","K","K","K","K","K","K","K","K","K","?","?","?","?","?","?","?","?","?","U","U","?","?","?","?","?","?","?","?","?","?","?","?","?","?","?","?","?","?","?","?","?","?","?","?","?","?","?","?","?","?","?","?","?","?","?","?","?","?","?","?","?","?","?","?","?","?","?","?","?","?","V","?","W","?","?","?","O","O","O","O","O","O","O","O","O","O","O","O","?","P","P","P","P","P","P","P","P","P","P","P","P","P","?","?","?","?","?","?","G","G","G","G","G","G","G","G","G","G","G","G","?","H","H","H","H","H","H","H","H","H","H","H","H","H","H","H","H","H","H","H","H","H","H","H","H","H","H","H","H","H","H","H","H","H","H","H","H","H","H","H","H","H","H","H","H","H","H","H","H","H","H","H","H","H","H","H","H","H","H","H","H","H","H","H","H","H","H","H","H","H","H","H","H","H","H","H","H","H","H","H","H","H","H","H","H","H","H","H","H","H","H","H","H","H","H","H","H","H","H","H","H","H","H","H","H","H","H","H","H","H","H","H","H","H","H","H","H","H","H","H","H","H","H","H","H","H","H","H","H","H","H","H","H","H","H","H","H","H","H","?","P","P","?","?","X","X","?","?","?","?","?","?","?","?","?","?","?","?","?","?","?","?","?","?","?","?","?","?","?","?","?","?","?","?","?","?","?","?","?","?","?","?","?","?","?","?","?","?","?","?","?","?","?","?","?","?","?","?","?","?","?","?","?","?","?","?","?","?","?","?","?","?","?","?","?","?","?","?","?","?","?","?","?","?","?","?","?","?","?","?","?","?","?","?","?","?","?","?","?","?","?","?","?","?","?","?","?","?","?","?","?","?","?","?","?","?","?","?","?","?","?","?","?","?","?","?","?","?","?","?","?","?","?","?","?","?","?","?","?","?","?","?","?","?","?","?","?","?","?","?","?","?","?","?","?","?","?","?","?","?","?","?","?","?","?","?","?","?","?","?","?","?","?","?","?","?","?","?","?","?","?","?","?","?","?","?","?","?","?","?","?","?","?","?","?","?","?","?","?","?","?","?","?","?","?","?","?","?","?","?","?","?","?","?","?","?","?","?","?","?","?","?","?","?","?","?","?","?","?","?","?","?","?","?","?","?","?","?","?","?","?","?","?","?","?","?","?","?","?","?","?","?","?","?","?","?","?","?","?","?","?","?","?","?","?","?","?","?","?","?","?","?","?","?","?","?","?","?","?","?","?","?","?","?","?","?","?","?","?","?","?","?","?","?","V","V","?","?","?","?","?","?","?","?","?","?","?","?","?","?","?","?","?","?","?","?","?","?","L","L","L","L","L","L","L","L","L","L","L","L","L","L","L","L","L","L","L","?","?","?","?","?","?","?","?","?","?","D","E","E","F","F","F","F","F","F","F","F","F","F","F","F","F","F","F","F","F","F","F","F","F","F","F","F","F","F","F","F","?","?","?","?","?","?","E","E","E","E","E","E","E","E","E","E","E","E","E","E","E","E","E","E","E","E","E","E","E","E","E","E","E","E","E","E","E","E","E","E","E","E","E","E","E","E","E","E","E","E","E","E","E","E","E","E","E","E","E","E","E","E","E","E","E","E","E","E","E","E","E","E","E","E","E","E","E","E","E","E","E","E","E","E","E","E","E","E","E","E","E","E","E","E","E","E","E","E","E","E","E","E","E","E","E","E","E","E","E","E","E","E","E","E","E","E","E","E","E","E","E","E","E","E","E","E","E","E","E","E","E","E","E","E","E","E","E","E","E","E","E","E","E","E","E","E","E","E","E","E","E","E","E","E","E","E","E","E","E","E","E","E","E","E","E","E","E","E","E","E","E","E","E","E","E","E","E","E","E","E","E","E","E","E","E","E","E","E","E","E","E","E","E","E","E","E","E","E","E","E","E","E","E","E","E","E","E","E","E","E","E","E","E","E","E","E","E","E","E","E","E","E","E","E","E","E","E","E","E","E","E","E","E","E","E","E","E","E","E","E","E","E","E","E","E","E","E","E","E","E","E","E","E","E","E","E","E","E","E","E","E","E","E","E","E","E","E","E","E","E","E","E","E","E","E","E","E","E","E","E","E","E","E","E","E","E","E","E","E","E","E","E","E","E","E","E","E","E","E","E","E","E","E","E","E","E","E","E","E","E","E","E","E","E","E","E","E","E","E","E","E","E","E","E","E","E","E","E","E","E","E","E","E","E","E","E","E","E","E","E","E","E","E","E","E","E","E","E","E","?","?","?","?","?","?","?","?","?","?","?","?","?","?","?","?","?","?","?","?","?","C","C","C","C","C","C","C","C","C","C","C","C","C","C","C","?","?","?","B","B","B","B","B","B","B","B","B","B","B","B","B","B","B","B","B","B","B","B","B","B","B","B","B","B","B","B","B","B","B","B","B","B","B","B","B","B","B","B","B","B","B","B","B","B","B","B","B","B","B","B","B","B","B","B","B","B","B","B","B","B","B","B","B","B","B","B","B","B","B","B","B","B","B","B","B","B","B","B","B","B","B","B","B","B","B","B","B","B","B","B","B","B","B","B","B","B","B","B","B","B","B","B","B","B","B","B","B","B","B","B","B","B","B","B","B","B","B","B","B","?","?","?","K","K","K","K","K","K","K","K","?","?","?","?","?","?","?","?","?","?","?","?","?","?","?","?","?","?","?","?","?","?","?","?","?","?","?","?","?","?","?","?","?","Z","Z","Z","Z","?","?","?","?","?","?","?","?","?","?","?","?","?","?","?","?","?","?","?","?","?","?","?","?","?","?","?","?","Z","Z","Z","Z","Z","Z","Z","Z","Z","Z","Z","Z","Z","Z","Z","Z","Z","Z","Z","Z","Z","Z","Z","Z","Z","Z","Z","Z","Z","Z","Z","Z","Z","Z","Z","Z","Z","Z","Z","Z","Z","Z","Z","Z","Z","Z","Z","Z","Z","Z","?","?","?","?","?","?","?","?","?","?","?","?","Q","?","?","?","?","?","?","?","?","R","?","R","R","R","?","?","?","?","?","?","?","?","?","?","?","?","?","?","?","?","?","?","?","?","R","R","R","R","R","R","R","R","R","R","R","R","R","R","R","R","R","R","R","R","R","R","R","R","R","R","R","R","R","R","R","R","R","R","R","R","R","R","R","R","R","R","R","R","R","R","?","Q","Q","?","P","P","O","N","?","?","?","?","?","?","?","B","B","B","B","B","B","B","B","?","?","?","?","?","?","?","A","A","A","A","A","A","A","A","A","A","A","A","A","A","A","A","A","A","A","A","A","A","A","A","A","A","A","A","A","A","A","A","A","A","A","A","A","A","A","A","A","A","A","A","A","A","A","A","A","A","A","A","A","A","A","A","A","A","A","A","A","A","A","A","A","A","A","A","A","A","A","A","A","A","A","A","A","A","A","A","A","A","A","A","A","A","A","A","A","A","A","A","A","A","A","A","A","A","A","A","A","A","A","A","A","A","A","A","A","A","A","A","A","A","A","A","A","A","A","A","A","A","A","A","A","A","A","A","A","A","A","A","A","A","A","A","A","A","A","A","A","A","A","A","A","A","A","A","A"],"t":[25,34,48,64,80,98,115,130,147,166,183,199,216,233,248,267,282,300,316,332,349,365,381,399,417,433,450,466,483,498,515,532,549,566,582,599,616,632,648,665,682,700,716,734,750,767,784,801,817,833,850,868,883,899,916,933,950,967,984,1000,1017,1033,1051,1067,1084,1099,1114,1131,1148,1165,1181,1198,1215,1232,1248,1265,1281,1298,1315,1333,1350,1367,1390,1415,1430,1447,1464,1479,1496,1513,1530,1547,1563,1580,1598,1615,1632,1648,1666,1682,1699,1716,1732,1748,1766,1782,1798,1815,1832,1848,1865,1881,1898,1915,1931,1948,1966,1982,1997,2013,2030,2048,2064,2081,2099,2114,2131,2148,2165,2181,2199,2215,2233,2249,2265,2283,2300,2315,2333,2349,2367,2381,2398,2415,2432,2447,2464,2486,2499,2516,2534,2549,2567,2582,2599,2616,2632,2649,2665,2682,2699,2716,2733,2749,2765,2782,2799,2815,2832,2849,2864,2880,2898,2914,2931,2948,2964,2982,2998,3015,3031,3048,3065,3082,3098,3114,3132,3148,3166,3181,3198,3214,3230,3247,3263,3280,3297,3314,3330,3347,3365,3381,3397,3414,3431,3447,3464,3481,3497,3514,3531,3550,3568,3583,3600,3616,3634,3648,3668,3683,3700,3715,3732,3749,3765,3782,3800,3815,3833,3847,3865,3882,3898,3915,3931,3948,3966,3981,3998,4014,4032,4048,4066,4081,4098,4114,4132,4149,4165,4182,4200,4216,4233,4250,4265,4281,4298,4313,4332,4349,4366,4383,4397,4414,4431,4448,4465,4483,4498,4516,4533,4549,4566,4583,4601,4616,4631,4647,4664,4681,4698,4713,4731,4747,4764,4781,4798,4815,4831,4847,4865,4881,4900,4916,4933,4949,4965,4981,4999,5015,5033,5049,5065,5081,5098,5116,5131,5147,5164,5181,5197,5214,5230,5248,5264,5281,5297,5314,5331,5348,5368,5382,5398,5415,5431,5448,5464,5479,5497,5513,5529,5547,5564,5580,5598,5615,5631,5648,5665,5681,5699,5713,5730,5747,5763,5780,5797,5813,5830,5847,5863,5880,5897,5914,5930,5948,5965,5982,5998,6014,6030,6047,6063,6080,6097,6113,6133,6149,6167,6182,6197,6214,6231,6246,6263,6279,6297,6313,6330,6346,6363,6379,6396,6413,6429,6446,6462,6479,6495,6512,6531,6548,6564,6581,6597,6614,6630,6648,6664,6681,6697,6714,6731,6747,6764,6781,6797,6814,6830,6847,6865,6881,6897,6914,6930,6947,6964,6980,6999,7015,7033,7048,7066,7083,7098,7115,7131,7146,7163,7180,7197,7214,7229,7247,7264,7281,7298,7314,7330,7346,7364,7379,7397,7413,7429,7445,7462,7479,7496,7515,7531,7548,7565,7581,7598,7614,7631,7647,7665,7681,7698,7715,7732,7748,7764,7781,7797,7814,7832,7847,7865,7882,7898,7915,7932,7948,7965,7981,7997,8014,8032,8048,8064,8081,8098,8114,8131,8147,8164,8182,8196,8213,8230,8246,8262,8281,8297,8314,8330,8346,8363,8381,8396,8413,8430,8446,8463,8479,8497,8513,8532,8548,8565,8582,8598,8613,8630,8648,8665,8682,8699,8713,8730,8746,8763,8780,8797,8814,8831,8848,8865,8882,8899,8914,8932,8948,8966,8982,8998,9015,9032,9047,9066,9082,9099,9115,9134,9148,9164,9183,9198,9214,9232,9247,9264,9281,9299,9315,9331,9349,9368,9384,9398,9413,9430,9447,9464,9480,9496,9513,9530,9546,9564,9579,9597,9613,9629,9647,9665,9682,9698,9714,9731,9747,9764,9781,9799,9815,9832,9849,9865,9882,9897,9915,9931,9947,9964,9981,9998,10015,10031,10047,10062,10079,10095,10112,10128,10146,10164,10179,10196,10213,10230,10246,10263,10280,10298,10314,10331,10348,10365,10381,10397,10414,10431,10448,10465,10482,10498,10515,10532,10547,10565,10581,10598,10615,10631,10648,10664,10681,10698,10715,10731,10747,10765,10781,10798,10814,10831,10848,10864,10881,10897,10914,10931,10947,10965,10981,10997,11015,11031,11047,11065,11081,11097,11114,11131,11147,11164,11181,11197,11214,11230,11246,11263,11280,11296,11313,11329,11346,11364,11380,11396,11413,11429,11447,11462,11480,11495,11513,11529,11546,11563,11579,11595,11612,11629,11645,11662,11679,11696,11713,11729,11747,11763,11780,11796,11813,11830,11847,11864,11880,11896,11913,11929,11946,11963,11982,11998,12016,12032,12048,12066,12082,12097,12115,12131,12147,12164,12182,12197,12213,12229,12247,12264,12278,12294,12312,12329,12345,12361,12380,12397,12413,12431,12447,12465,12480,12497,12514,12530,12546,12563,12579,12596,12613,12629,12646,12663,12682,12699,12714,12731,12748,12764,12781,12797,12815,12831,12846,12863,12879,12897,12914,12931,12946,12964,12979,12995,13011,13027,13045,13061,13078,13094,13111,13128,13146,13161,13179,13197,13213,13229,13246,13263,13279,13296,13312,13329,13346,13363,13382,13395,13412,13429,13445,13462,13478,13495,13512,13528,13544,13561,13579,13595,13612,13628,13644,13662,13679,13696,13715,13730,13747,13764,13780,13798,13813,13830,13846,13863,13880,13895,13912,13929,13944,13962,13978,13994,14011,14027,14045,14063,14079,14096,14113,14129,14146,14163,14179,14196,14213,14230,14247,14263,14279,14296,14313,14329,14346,14365,14379,14394,14411,14428,14445,14461,14478,14495,14511,14528,14544,14561,14578,14597,14613,14630,14647,14664,14680,14696,14713,14730,14746,14765,14780,14798,14813,14830,14847,14864,14880,14897,14913,14931,14947,14963,14981,14997,15013,15031,15047,15064,15080,15097,15112,15128,15145,15163,15178,15195,15212,15228,15246,15263,15279,15296,15312,15328,15347,15364,15381,15399,15415,15430,15447,15464,15480,15496,15513,15529,15547,15564,15580,15597,15614,15630,15646,15663,15680,15696,15713,15730,15747,15763,15780,15799,15815,15830,15845,15861,15878,15894,15912,15928,15945,15961,15978,15996,16013,16030,16047,16064,16080,16097,16114,16130,16147,16164,16180,16197,16214,16230,16246,16264,16278,16295,16312,16330,16347,16364,16380,16397,16414,16430,16446,16464,16480,16497,16513,16530,16547,16564,16580,16595,16611,16628,16644,16663,16680,16697,16713,16730,16746,16763,16780,16796,16813,16830,16847,16863,16880,16897,16913,16929,16947,16963,16980,16996,17013,17030,17047,17064,17080,17096,17112,17128,17145,17162,17178,17195,17211,17228,17245,17261,17278,17296,17312,17328,17344,17361,17380,17397,17414,17430,17444,17461,17477,17493,17511,17528,17545,17562,17578,17595,17612,17628,17645,17661,17678,17695,17712,17728,17744,17762,17779,17795,17812,17829,17847,17863,17879,17895,17912,17929,17945,17962,17979,17995,18013,18029,18045,18063,18079,18095,18112,18130,18145,18162,18178,18195,18212,18229,18245,18263,18279,18296,18313,18329,18346,18363,18379,18396,18412,18429,18445,18463,18479,18496,18512,18529,18546,18564,18578,18594,18611,18628,18646,18662,18679,18696,18715,18731,18744,18762,18778,18795,18811,18828,18845,18862,18880,18896,18912,18929,18946,18963,18979,18995,19013,19029,19046,19062,19080,19096,19112,19129,19145,19163,19179,19196,19214,19230,19247,19264,19280,19299,19314,19330,19347,19364,19379,19396,19412,19433,19446,19461,19479,19495,19512,19529,19545,19562,19578,19597,19612,19628,19645,19663,19678,19695,19711,19728,19745,19761,19777,19795,19811,19827,19845,19862,19878,19895,19912,19927,19944,19961,19979,19995,20011,20028,20044,20061,20079,20096,20113,20129,20147,20166,20177,20194,20211,20228,20245,20261,20277,20294,20311,20328,20344,20360,20377,20393,20411,20427,20444,20460,20478,20495,20512,20529,20545,20561,20578,20595,20611,20628,20646,20662,20679,20695,20711,20729,20745,20762,20779,20796,20813,20829,20846,20862,20878,20895,20912,20928,20945,20962,20978,20994,21011,21028,21045,21062,21079,21095,21112,21129,21146,21162,21180,21196,21211,21228,21245,21263,21279,21295,21312,21328,21345,21363,21379,21395,21412,21428,21443,21461,21477,21494,21511,21527,21544,21563,21577,21594,21611,21627,21643,21660,21678,21695,21711,21728,21744,21761,21778,21794,21811,21827,21845,21862,21878,21895,21912,21929,21946,21962,21979,21995,22012,22030,22045,22063,22078,22095,22113,22128,22146,22163,22179,22195,22213,22229,22245,22263,22278,22295,22312,22327,22344,22361,22377,22394,22411,22427,22443,22461,22479,22496,22512,22529,22546,22563,22579,22596,22612,22629,22645,22663,22679,22695,22712,22728,22744,22760,22778,22794,22811,22827,22845,22861,22878,22894,22910,22928,22944,22960,22977,22994,23011,23027,23044,23060,23078,23097,23114,23129,23145,23162,23179,23196,23212,23229,23245,23262,23279,23297,23312,23328,23347,23364,23379,23395,23411,23428,23444,23461,23478,23494,23511,23528,23546,23562,23579,23594,23611,23627,23644,23660,23677,23693,23710,23726,23742,23760,23776,23793,23810,23828,23845,23862,23878,23894,23912,23928,23946,23961,23980,23995,24012,24029,24046,24063,24078,24096,24111,24129,24146,24163,24179,24196,24213,24229,24246,24262,24278,24295,24312,24328,24344,24361,24378,24394,24410,24427,24444,24461,24477,24493,24511,24529,24545,24562,24578,24595,24612,24628,24645,24661,24678,24695,24711,24729,24745,24762,24780,24796,24813,24829,24845,24863,24879,24895,24912,24929,24945,24962,24978,24995,25014,25028,25044,25061,25077,25094,25111,25128,25144,25161,25177,25194,25210,25226,25242,25259,25276,25293,25309,25327,25345,25361,25379,25393,25410,25426,25444,25460,25476,25494,25511,25528,25545,25560,25578,25595,25612,25628,25644,25663,25678,25695,25710,25727,25744,25761,25778,25794,25810,25827,25844,25862,25878,25895,25911,25927,25945,25961,25977,25994,26010,26027,26045,26061,26076,26093,26110,26127,26144,26161,26177,26194,26210,26227,26243,26260,26277,26294,26310,26326,26343,26361,26377,26394,26411,26427,26444,26460,26477,26494,26512,26526,26543,26559,26576,26592,26610,26627,26644,26661,26677,26694,26710,26726,26744,26762,26777,26794,26810,26828,26844,26861,26877,26895,26911,26927,26944,26963,26978,27002,27010,27026,27043,27059,27076,27093,27111,27128,27145,27161,27178,27194,27211,27228,27245,27260,27278,27294,27311,27327,27344,27361,27379,27395,27410,27427,27443,27460,27476,27493,27510,27527,27543,27562,27578,27596,27612,27629,27643,27661,27678,27694,27711,27727,27744,27760,27777,27793,27809,27825,27842,27861,27877,27894,27911,27926,27944,27960,27978,27994,28011,28028,28043,28061,28077,28093,28111,28127,28144,28160,28178,28194,28210,28227,28244,28261,28277,28294,28311,28327,28345,28359,28376,28393,28409,28425,28442,28462,28478,28495,28516],"hit":[null],"x":[-2.3316326530612246,-2.3316326530612246,-2.3316326530612246,-2.3316326530612246,-2.3316326530612246,-2.3316326530612246,-2.3316326530612246,-2.3316326530612246,-2.3316326530612246,-2.3316326530612246,-2.3316326530612246,-2.3316326530612246,-2.3316326530612246,-2.3316326530612246,-2.3316326530612246,-2.3316326530612246,-2.3316326530612246,-2.3316326530612246,-2.3316326530612246,-2.3316326530612246,-2.3316326530612246,-2.3316326530612246,-2.3316326530612246,-2.3316326530612246,-2.3316326530612246,-2.3316326530612246,-2.3316326530612246,-2.3316326530612246,-2.3316326530612246,-2.3316326530612246,-2.3316326530612246,-2.3316326530612246,-2.3316326530612246,-2.3316326530612246,-2.3316326530612246,-2.3316326530612246,-2.3316326530612246,-2.3316326530612246,-2.3316326530612246,-2.3316326530612246,-2.3316326530612246,-2.3316326530612246,-2.3316326530612246,-2.3316326530612246,-2.3316326530612246,-2.3316326530612246,-2.3316326530612246,-2.3316326530612246,-2.3316326530612246,-2.3316326530612246,-2.3316326530612246,-2.3316326530612246,-2.3316326530612246,-2.3316326530612246,-2.3316326530612246,-2.3316326530612246,-2.3316326530612246,-2.3316326530612246,-2.3316326530612246,-2.3316326530612246,-2.3316326530612246,-2.3316326530612246,-2.3316326530612246,-2.3316326530612246,-2.3316326530612246,-2.3316326530612246,-2.3316326530612246,-2.3316326530612246,-2.3316326530612246,-2.3316326530612246,-2.3316326530612246,-2.3316326530612246,-2.3316326530612246,-2.3316326530612246,-2.3316326530612246,-2.3316326530612246,-2.3316326530612246,-2.3316326530612246,-2.3316326530612246,-2.3316326530612246,-2.3316326530612246,-2.3316326530612246,-2.3316326530612246,-2.3316326530612246,-2.3316326530612246,-2.3316326530612246,-2.3316326530612246,-2.3316326530612246,-2.3316326530612246,-2.3316326530612246,-2.3316326530612246,-2.3316326530612246,-2.3316326530612246,-2.3316326530612246,-2.3316326530612246,-2.3316326530612246,-2.3316326530612246,-2.3316326530612246,-2.3316326530612246,-2.3316326530612246,-2.3316326530612246,-2.3316326530612246,-2.3316326530612246,-2.3316326530612246,-2.3316326530612246,-2.3316326530612246,-2.3316326530612246,-2.3316326530612246,-2.3316326530612246,-2.3316326530612246,-2.3316326530612246,-2.3316326530612246,-2.3316326530612246,-2.3316326530612246,-2.3316326530612246,-2.3316326530612246,-2.3316326530612246,-2.3316326530612246,-2.3316326530612246,-2.3316326530612246,-2.3316326530612246,-2.3316326530612246,-2.3316326530612246,-2.3316326530612246,-2.3316326530612246,-2.3316326530612246,-2.3316326530612246,-2.3316326530612246,-2.3316326530612246,-2.3316326530612246,-2.3316326530612246,-2.3316326530612246,-2.3316326530612246,-2.3316326530612246,-2.3316326530612246,-2.3316326530612246,-2.3316326530612246,-2.3316326530612246,-2.3316326530612246,-2.3316326530612246,-2.3316326530612246,-2.3316326530612246,-2.3316326530612246,-2.3316326530612246,-2.3316326530612246,-2.3316326530612246,-2.3316326530612246,-0.04308390024365211,-0.019274376434128302,0.004535147375395509,0.028344671184919318,0.06235827662709619,0.09977324261349074,0.10997732424614381,0.10997732424614381,0.12358276642301455,0.13718820859988531,0.14739229023253836,0.14739229023253836,0.15759637186519143,0.15759637186519143,0.17120181404206217,0.17120181404206217,0.18480725621893293,0.18480725621893293,0.18480725621893293,0.18480725621893293,0.18480725621893293,0.18480725621893293,0.18480725621893293,0.18480725621893293,0.18480725621893293,0.18480725621893293,0.19501133785158598,0.19501133785158598,0.19501133785158598,0.19501133785158598,0.19501133785158598,0.20521541948423905,0.20521541948423905,0.21882086166110978,0.21882086166110978,0.21882086166110978,0.21882086166110978,0.23242630383798055,0.23242630383798055,0.23242630383798055,0.2426303854706336,0.2426303854706336,0.2426303854706336,0.2426303854706336,0.2426303854706336,0.2426303854706336,0.2426303854706336,0.2426303854706336,0.2426303854706336,0.2426303854706336,0.2426303854706336,0.2426303854706336,0.2426303854706336,0.2426303854706336,0.2426303854706336,0.2426303854706336,0.2426303854706336,0.2426303854706336,0.2426303854706336,0.25283446710328666,0.25283446710328666,0.25283446710328666,0.25283446710328666,0.25283446710328666,0.2664399092801574,0.2664399092801574,0.2664399092801574,0.2664399092801574,0.2664399092801574,0.2664399092801574,0.2664399092801574,0.2664399092801574,0.28004535145702814,0.28004535145702814,0.28004535145702814,0.28004535145702814,0.28004535145702814,0.28004535145702814,0.28004535145702814,0.28004535145702814,0.28004535145702814,0.28004535145702814,0.28004535145702814,0.3004535147223343,0.3276643990760758,0.3480725623413819,0.3752834466951234,0.3956916099604295,0.42290249431417104,0.4569160997563479,0.5045351473753955,0.5385487528175724,0.5759637188039669,0.6235827664230146,0.6609977324094091,0.6814058956747152,0.7290249432937629,0.7426303854706336,0.7426303854706336,0.7426303854706336,0.7426303854706336,0.7426303854706336,0.7426303854706336,0.7426303854706336,0.7426303854706336,0.7562358276475043,0.7664399092801574,0.7902494330896812,0.814058956899205,0.8242630385318581,0.8242630385318581,0.8242630385318581,0.8242630385318581,0.8242630385318581,0.8242630385318581,0.8242630385318581,0.8242630385318581,0.8242630385318581,0.8242630385318581,0.8242630385318581,0.8242630385318581,0.8242630385318581,0.8242630385318581,0.8378684807087289,0.8378684807087289,0.8378684807087289,0.8514739228855996,0.8718820861509057,0.8718820861509057,0.8854875283277764,0.8854875283277764,0.8854875283277764,0.8854875283277764,0.8990929705046472,0.8990929705046472,0.8990929705046472,0.8990929705046472,0.9092970521373003,0.9092970521373003,0.9331065759468241,0.9467120181236949,0.9569160997563478,0.9671201813890009,0.9807256235658717,0.9943310657427424,0.9943310657427424,0.9943310657427424,1.0045351473753954,1.0045351473753954,1.0045351473753954,1.0045351473753954,1.0045351473753954,1.0045351473753954,1.0045351473753954,1.0045351473753954,1.0045351473753954,1.0045351473753954,1.0045351473753954,1.0045351473753954,1.0045351473753954,1.0045351473753954,1.0045351473753954,1.0045351473753954,1.0045351473753954,1.0045351473753954,1.0045351473753954,1.0045351473753954,1.0045351473753954,1.0045351473753954,1.0045351473753954,1.0045351473753954,1.0045351473753954,1.0045351473753954,1.0045351473753954,1.0045351473753954,1.0045351473753954,1.0045351473753954,1.0045351473753954,1.0045351473753954,1.0045351473753954,1.0045351473753954,1.0045351473753954,1.0045351473753954,1.0045351473753954,1.0045351473753954,1.0045351473753954,1.0045351473753954,1.0045351473753954,1.0045351473753954,1.0045351473753954,1.0045351473753954,1.0045351473753954,1.0045351473753954,1.0045351473753954,1.0045351473753954,1.0045351473753954,1.0045351473753954,1.0045351473753954,1.0045351473753954,1.0045351473753954,1.0045351473753954,1.0045351473753954,1.0045351473753954,1.0045351473753954,1.0045351473753954,1.0045351473753954,1.0045351473753954,1.0045351473753954,1.0045351473753954,1.0045351473753954,1.0045351473753954,1.0045351473753954,1.0045351473753954,1.0045351473753954,1.0045351473753954,1.0045351473753954,1.0045351473753954,1.0045351473753954,1.0045351473753954,1.0045351473753954,1.0045351473753954,1.0045351473753954,1.0045351473753954,1.0045351473753954,1.0045351473753954,1.0045351473753954,1.0045351473753954,1.0045351473753954,1.0045351473753954,1.0045351473753954,1.0045351473753954,1.0045351473753954,1.0045351473753954,1.0045351473753954,1.0045351473753954,1.0045351473753954,1.0045351473753954,1.0045351473753954,1.0045351473753954,1.0045351473753954,1.0045351473753954,1.0045351473753954,1.0045351473753954,1.0045351473753954,1.0045351473753954,1.0045351473753954,1.0045351473753954,1.0045351473753954,1.0045351473753954,1.0045351473753954,1.0045351473753954,1.0045351473753954,1.0045351473753954,1.0045351473753954,1.0045351473753954,1.0045351473753954,1.0045351473753954,1.0045351473753954,1.0045351473753954,1.0045351473753954,1.0045351473753954,1.0045351473753954,1.0045351473753954,1.0045351473753954,1.0045351473753954,1.0045351473753954,1.0045351473753954,1.0045351473753954,1.0045351473753954,1.0045351473753954,1.0045351473753954,1.0045351473753954,1.0045351473753954,1.0045351473753954,1.0045351473753954,1.0045351473753954,0.9705215419332186,0.9603174603005655,0.9331065759468241,0.8990929705046472,0.8514739228855996,0.8174603174434227,0.7800453514570281,0.7562358276475043,0.7222222222053275,0.7086167800284567,0.6848072562189329,0.6746031745862798,0.6609977324094091,0.6371882085998853,0.6269841269672323,0.6133786847903615,0.5997732426134907,0.5895691609808377,0.5793650793481846,0.5657596371713138,0.5521541949944432,0.5521541949944432,0.5521541949944432,0.5521541949944432,0.5521541949944432,0.5521541949944432,0.5521541949944432,0.5521541949944432,0.5521541949944432,0.5521541949944432,0.5521541949944432,0.5521541949944432,0.5521541949944432,0.5521541949944432,0.5521541949944432,0.5521541949944432,0.5521541949944432,0.5521541949944432,0.5521541949944432,0.5521541949944432,0.5521541949944432,0.5521541949944432,0.5521541949944432,0.5521541949944432,0.5521541949944432,0.5521541949944432,0.5521541949944432,0.5521541949944432,0.5521541949944432,0.5521541949944432,0.5521541949944432,0.5521541949944432,0.5521541949944432,0.5521541949944432,0.5521541949944432,0.5521541949944432,0.5521541949944432,0.5521541949944432,0.5521541949944432,0.5521541949944432,0.5521541949944432,0.5521541949944432,0.5521541949944432,0.5521541949944432,0.5521541949944432,0.5521541949944432,0.5521541949944432,0.5521541949944432,0.5521541949944432,0.5521541949944432,0.5521541949944432,0.5521541949944432,0.5419501133617901,0.531746031729137,0.5181405895522663,0.5045351473753955,0.49433106574274244,0.49433106574274244,0.48412698411008936,0.48412698411008936,0.48412698411008936,0.48412698411008936,0.48412698411008936,0.48412698411008936,0.48412698411008936,0.48412698411008936,0.48412698411008936,0.48412698411008936,0.48412698411008936,0.48412698411008936,0.48412698411008936,0.48412698411008936,0.48412698411008936,0.48412698411008936,0.48412698411008936,0.48412698411008936,0.48412698411008936,0.48412698411008936,0.48412698411008936,0.48412698411008936,0.48412698411008936,0.48412698411008936,0.48412698411008936,0.48412698411008936,0.48412698411008936,0.48412698411008936,0.48412698411008936,0.48412698411008936,0.48412698411008936,0.48412698411008936,0.48412698411008936,0.48412698411008936,0.48412698411008936,0.48412698411008936,0.48412698411008936,0.48412698411008936,0.48412698411008936,0.48412698411008936,0.48412698411008936,0.48412698411008936,0.48412698411008936,0.48412698411008936,0.48412698411008936,0.48412698411008936,0.48412698411008936,0.48412698411008936,0.48412698411008936,0.48412698411008936,0.48412698411008936,0.48412698411008936,0.48412698411008936,0.48412698411008936,0.48412698411008936,0.48412698411008936,0.48412698411008936,0.48412698411008936,0.49092970519852475,0.49092970519852475,0.5181405895522663,0.5521541949944432,0.5759637188039669,0.5997732426134907,0.6235827664230146,0.6473922902325384,0.6609977324094091,0.6609977324094091,0.6609977324094091,0.6609977324094091,0.6609977324094091,0.6609977324094091,0.6609977324094091,0.6609977324094091,0.6609977324094091,0.6609977324094091,0.6609977324094091,0.6609977324094091,0.6609977324094091,0.6609977324094091,0.6609977324094091,0.6609977324094091,0.6609977324094091,0.6609977324094091,0.6609977324094091,0.6609977324094091,0.6609977324094091,0.6609977324094091,0.6473922902325384,0.6371882085998853,0.6371882085998853,0.6371882085998853,0.6371882085998853,0.6371882085998853,0.6371882085998853,0.6371882085998853,0.6371882085998853,0.6371882085998853,0.6371882085998853,0.6371882085998853,0.6371882085998853,0.6371882085998853,0.6371882085998853,0.6371882085998853,0.6371882085998853,0.6371882085998853,0.6371882085998853,0.6371882085998853,0.6371882085998853,0.6371882085998853,0.6371882085998853,0.6371882085998853,0.6371882085998853,0.6371882085998853,0.6371882085998853,0.6371882085998853,0.6371882085998853,0.6371882085998853,0.6371882085998853,0.6371882085998853,0.6371882085998853,0.6371882085998853,0.6371882085998853,0.6371882085998853,0.6371882085998853,0.6371882085998853,0.6371882085998853,0.6371882085998853,0.6371882085998853,0.6371882085998853,0.6371882085998853,0.6371882085998853,0.6371882085998853,0.6371882085998853,0.6371882085998853,0.6371882085998853,0.6371882085998853,0.6371882085998853,0.6371882085998853,0.6371882085998853,0.6371882085998853,0.6371882085998853,0.6371882085998853,0.6371882085998853,0.6371882085998853,0.6371882085998853,0.6371882085998853,0.6371882085998853,0.6371882085998853,0.6371882085998853,0.6371882085998853,0.6371882085998853,0.6371882085998853,0.6371882085998853,0.6371882085998853,0.6371882085998853,0.6371882085998853,0.6371882085998853,0.6371882085998853,0.6371882085998853,0.6371882085998853,0.6371882085998853,0.6371882085998853,0.6371882085998853,0.6371882085998853,0.6371882085998853,0.6371882085998853,0.6371882085998853,0.6371882085998853,0.6371882085998853,0.6371882085998853,0.6371882085998853,0.6371882085998853,0.6371882085998853,0.6371882085998853,0.6371882085998853,0.6371882085998853,0.6371882085998853,0.6371882085998853,0.6371882085998853,0.6371882085998853,0.6371882085998853,0.6371882085998853,0.6371882085998853,0.6371882085998853,0.6371882085998853,0.6371882085998853,0.6371882085998853,0.6371882085998853,0.6371882085998853,0.6371882085998853,0.6371882085998853,0.6371882085998853,0.6371882085998853,0.6371882085998853,0.6371882085998853,0.6371882085998853,0.6371882085998853,0.6371882085998853,0.6371882085998853,0.6371882085998853,0.6269841269672323,0.5997732426134907,0.5895691609808377,0.5657596371713138,0.5419501133617901,0.5181405895522663,0.49433106574274244,0.48412698411008936,0.47052154193321866,0.4569160997563479,0.4569160997563479,0.4569160997563479,0.4569160997563479,0.4569160997563479,0.4569160997563479,0.4467120181236948,0.4467120181236948,0.43650793649104175,0.4092970521373003,0.38888888887199413,0.3752834466951234,0.3514739228855996,0.3514739228855996,0.3514739228855996,0.3514739228855996,0.3514739228855996,0.3514739228855996,0.3514739228855996,0.3514739228855996,0.3514739228855996,0.3514739228855996,0.3514739228855996,0.3412698412529465,0.3412698412529465,0.3412698412529465,0.3412698412529465,0.3412698412529465,0.3412698412529465,0.3412698412529465,0.3412698412529465,0.3412698412529465,0.3412698412529465,0.3412698412529465,0.3412698412529465,0.3276643990760758,0.3276643990760758,0.3276643990760758,0.3276643990760758,0.3276643990760758,0.3276643990760758,0.3276643990760758,0.3276643990760758,0.3276643990760758,0.3276643990760758,0.3276643990760758,0.3276643990760758,0.3276643990760758,0.3276643990760758,0.31405895689920504,0.30385487526655197,0.30385487526655197,0.30385487526655197,0.2936507936338989,0.2936507936338989,0.2936507936338989,0.2936507936338989,0.2936507936338989,0.2936507936338989,0.31405895689920504,0.3378684807087288,0.38548752832777644,0.4569160997563479,0.5521541949944432,0.6133786847903615,0.6712018140420621,0.695011337851586,0.7086167800284567,0.7086167800284567,0.7086167800284567,0.7086167800284567,0.7086167800284567,0.7086167800284567,0.7086167800284567,0.7086167800284567,0.7086167800284567,0.7086167800284567,0.7086167800284567,0.7086167800284567,0.7086167800284567,0.7086167800284567,0.7086167800284567,0.7086167800284567,0.7086167800284567,0.7086167800284567,0.7086167800284567,0.7086167800284567,0.7086167800284567,0.7086167800284567,0.7086167800284567,0.6848072562189329,0.6746031745862798,0.6746031745862798,0.6609977324094091,0.6473922902325384,0.6371882085998853,0.6371882085998853,0.6269841269672323,0.6269841269672323,0.6133786847903615,0.6133786847903615,0.6133786847903615,0.5997732426134907,0.5997732426134907,0.5895691609808377,0.5895691609808377,0.5895691609808377,0.5793650793481846,0.5793650793481846,0.5793650793481846,0.5657596371713138,0.5657596371713138,0.5657596371713138,0.5657596371713138,0.5657596371713138,0.5657596371713138,0.5657596371713138,0.5657596371713138,0.5657596371713138,0.5657596371713138,0.5657596371713138,0.5657596371713138,0.5657596371713138,0.5657596371713138,0.5657596371713138,0.5657596371713138,0.5657596371713138,0.5657596371713138,0.5657596371713138,0.5657596371713138,0.5657596371713138,0.5657596371713138,0.5657596371713138,0.5657596371713138,0.5657596371713138,0.5657596371713138,0.5657596371713138,0.5657596371713138,0.5657596371713138,0.5657596371713138,0.5657596371713138,0.5657596371713138,0.5657596371713138,0.5657596371713138,0.5657596371713138,0.5657596371713138,0.5657596371713138,0.5657596371713138,0.5657596371713138,0.5657596371713138,0.5657596371713138,0.5657596371713138,0.5657596371713138,0.5657596371713138,0.5657596371713138,0.5657596371713138,0.5657596371713138,0.5657596371713138,0.5657596371713138,0.5657596371713138,0.5657596371713138,0.5657596371713138,0.5657596371713138,0.5657596371713138,0.5657596371713138,0.5657596371713138,0.5657596371713138,0.5657596371713138,0.5657596371713138,0.5657596371713138,0.5657596371713138,0.5657596371713138,0.5657596371713138,0.5657596371713138,0.5657596371713138,0.5657596371713138,0.5657596371713138,0.5657596371713138,0.5657596371713138,0.5657596371713138,0.5657596371713138,0.5657596371713138,0.5657596371713138,0.5657596371713138,0.5657596371713138,0.5657596371713138,0.5657596371713138,0.5657596371713138,0.5657596371713138,0.5657596371713138,0.5657596371713138,0.5657596371713138,0.5657596371713138,0.5657596371713138,0.5657596371713138,0.5657596371713138,0.5657596371713138,0.5657596371713138,0.5657596371713138,0.5657596371713138,0.5657596371713138,0.5657596371713138,0.5657596371713138,0.5657596371713138,0.5657596371713138,0.5657596371713138,0.5657596371713138,0.5657596371713138,0.5657596371713138,0.5657596371713138,0.5657596371713138,0.5657596371713138,0.5657596371713138,0.5657596371713138,0.5657596371713138,0.5657596371713138,0.5657596371713138,0.5657596371713138,0.5657596371713138,0.5657596371713138,0.5657596371713138,0.5657596371713138,0.5657596371713138,0.5657596371713138,0.5657596371713138,0.5657596371713138,0.5657596371713138,0.5657596371713138,0.5657596371713138,0.5657596371713138,0.5657596371713138,0.5657596371713138,0.5657596371713138,0.5657596371713138,0.5657596371713138,0.5657596371713138,0.5657596371713138,0.5657596371713138,0.5657596371713138,0.5657596371713138,0.5657596371713138,0.5657596371713138,0.5657596371713138,0.5657596371713138,0.5657596371713138,0.5657596371713138,0.5657596371713138,0.5657596371713138,0.5657596371713138,0.5657596371713138,0.5657596371713138,0.5657596371713138,0.5657596371713138,0.5657596371713138,0.5657596371713138,0.5657596371713138,0.5657596371713138,0.5657596371713138,0.5657596371713138,0.5657596371713138,0.5657596371713138,0.5657596371713138,0.5657596371713138,0.5657596371713138,0.5657596371713138,0.5657596371713138,0.5657596371713138,0.5657596371713138,0.5657596371713138,0.5657596371713138,0.5657596371713138,0.5657596371713138,0.5657596371713138,0.5657596371713138,0.5657596371713138,0.5657596371713138,0.5657596371713138,0.5657596371713138,0.5657596371713138,0.5657596371713138,0.5657596371713138,0.5657596371713138,0.5657596371713138,0.5657596371713138,0.5657596371713138,0.5657596371713138,0.5657596371713138,0.5657596371713138,0.5657596371713138,0.5657596371713138,0.5657596371713138,0.5657596371713138,0.5657596371713138,0.5657596371713138,0.5657596371713138,0.5657596371713138,0.5657596371713138,0.5657596371713138,0.5657596371713138,0.5657596371713138,0.5657596371713138,0.5657596371713138,0.5657596371713138,0.5657596371713138,0.5657596371713138,0.5657596371713138,0.5657596371713138,0.5657596371713138,0.5657596371713138,0.5657596371713138,0.5657596371713138,0.5657596371713138,0.5657596371713138,0.5657596371713138,0.5657596371713138,0.5657596371713138,0.5657596371713138,0.5657596371713138,0.5657596371713138,0.5657596371713138,0.5657596371713138,0.5657596371713138,0.5657596371713138,0.5657596371713138,0.5657596371713138,0.5657596371713138,0.5657596371713138,0.5657596371713138,0.5657596371713138,0.5657596371713138,0.5657596371713138,0.5657596371713138,0.5657596371713138,0.5657596371713138,0.5657596371713138,0.5657596371713138,0.5657596371713138,0.5657596371713138,0.5657596371713138,0.5657596371713138,0.5657596371713138,0.5657596371713138,0.5657596371713138,0.5657596371713138,0.5657596371713138,0.5657596371713138,0.5657596371713138,0.5657596371713138,0.5657596371713138,0.5657596371713138,0.5657596371713138,0.5657596371713138,0.5657596371713138,0.5657596371713138,0.5657596371713138,0.5657596371713138,0.5657596371713138,0.5657596371713138,0.5657596371713138,0.5657596371713138,0.5657596371713138,0.5657596371713138,0.5657596371713138,0.5657596371713138,0.5657596371713138,0.5657596371713138,0.5657596371713138,0.5657596371713138,0.5657596371713138,0.5657596371713138,0.5657596371713138,0.5657596371713138,0.5657596371713138,0.5657596371713138,0.5657596371713138,0.5657596371713138,0.5657596371713138,0.5657596371713138,0.5657596371713138,0.5657596371713138,0.5657596371713138,0.5657596371713138,0.5657596371713138,0.5657596371713138,0.5657596371713138,0.5657596371713138,0.5657596371713138,0.5657596371713138,0.5657596371713138,0.5657596371713138,0.5657596371713138,0.5657596371713138,0.5657596371713138,0.5657596371713138,0.5657596371713138,0.5657596371713138,0.5657596371713138,0.5657596371713138,0.5657596371713138,0.5657596371713138,0.5657596371713138,0.5657596371713138,0.5657596371713138,0.5657596371713138,0.5657596371713138,0.5657596371713138,0.5657596371713138,0.5657596371713138,0.5657596371713138,0.5657596371713138,0.5657596371713138,0.5657596371713138,0.5657596371713138,0.5657596371713138,0.5657596371713138,0.5657596371713138,0.5657596371713138,0.5657596371713138,0.5657596371713138,0.5657596371713138,0.5657596371713138,0.5657596371713138,0.5657596371713138,0.5657596371713138,0.5657596371713138,0.5657596371713138,0.5657596371713138,0.5657596371713138,0.5657596371713138,0.5657596371713138,0.5657596371713138,0.5657596371713138,0.5657596371713138,0.5657596371713138,0.5657596371713138,0.5657596371713138,0.5657596371713138,0.5657596371713138,0.5521541949944432,0.5419501133617901,0.531746031729137,0.5181405895522663,0.49433106574274244,0.47052154193321866,0.4569160997563479,0.4569160997563479,0.4467120181236948,0.43650793649104175,0.42290249431417104,0.42290249431417104,0.42290249431417104,0.42290249431417104,0.42290249431417104,0.42290249431417104,0.4092970521373003,0.4092970521373003,0.3990929705046472,0.3990929705046472,0.3990929705046472,0.3990929705046472,0.36167800451825266,0.3514739228855996,0.3276643990760758,0.31405895689920504,0.2936507936338989,0.28004535145702814,0.2664399092801574,0.25623582764750436,0.25623582764750436,0.24603174601485128,0.24603174601485128,0.24603174601485128,0.23242630383798055,0.23242630383798055,0.23242630383798055,0.23242630383798055,0.23242630383798055,0.23242630383798055,0.21882086166110978,0.20861678002845674,0.20861678002845674,0.19841269839580367,0.18480725621893293,0.18480725621893293,0.18480725621893293,0.18480725621893293,0.17120181404206217,0.17120181404206217,0.17120181404206217,0.17120181404206217,0.17120181404206217,0.17120181404206217,0.17120181404206217,0.17120181404206217,0.17120181404206217,0.17120181404206217,0.17120181404206217,0.17120181404206217,0.17120181404206217,0.17120181404206217,0.17120181404206217,0.17120181404206217,0.17120181404206217,0.17120181404206217,0.17120181404206217,0.17120181404206217,0.17120181404206217,0.17120181404206217,0.17120181404206217,0.17120181404206217,0.17120181404206217,0.17120181404206217,0.17120181404206217,0.17120181404206217,0.17120181404206217,0.17120181404206217,0.17120181404206217,0.17120181404206217,0.17120181404206217,0.17120181404206217,0.17120181404206217,0.17120181404206217,0.17120181404206217,0.17120181404206217,0.17120181404206217,0.17120181404206217,0.17120181404206217,0.17120181404206217,0.17120181404206217,0.17120181404206217,0.17120181404206217,0.17120181404206217,0.17120181404206217,0.17120181404206217,0.17120181404206217,0.17120181404206217,0.17120181404206217,0.17120181404206217,0.17120181404206217,0.17120181404206217,0.17120181404206217,0.17120181404206217,0.17120181404206217,0.17120181404206217,0.17120181404206217,0.17120181404206217,0.17120181404206217,0.17120181404206217,0.17120181404206217,0.17120181404206217,0.17120181404206217,0.17120181404206217,0.17120181404206217,0.17120181404206217,0.17120181404206217,0.17120181404206217,0.17120181404206217,0.17120181404206217,0.17120181404206217,0.17120181404206217,0.17120181404206217,0.17120181404206217,0.17120181404206217,0.17120181404206217,0.17120181404206217,0.17120181404206217,0.17120181404206217,0.17120181404206217,0.17120181404206217,0.17120181404206217,0.17120181404206217,0.17120181404206217,0.17120181404206217,0.17120181404206217,0.17120181404206217,0.17120181404206217,0.17120181404206217,0.17120181404206217,0.17120181404206217,0.17120181404206217,0.17120181404206217,0.17120181404206217,0.17120181404206217,0.17120181404206217,0.17120181404206217,0.17120181404206217,0.17120181404206217,0.17120181404206217,0.17120181404206217,0.17120181404206217,0.17120181404206217,0.17120181404206217,0.17120181404206217,0.17120181404206217,0.17120181404206217,0.17120181404206217,0.17120181404206217,0.17120181404206217,0.17120181404206217,0.17120181404206217,0.17120181404206217,0.17120181404206217,0.17120181404206217,0.17120181404206217,0.17120181404206217,0.17120181404206217,0.17120181404206217,0.17120181404206217,0.17120181404206217,0.17120181404206217,0.17120181404206217,0.17120181404206217,0.17120181404206217,0.17120181404206217,0.18480725621893293,0.23242630383798055,0.2664399092801574,0.3480725623413819,0.5045351473753955,0.5997732426134907,0.6712018140420621,0.8616780045182526,1.075963718803967,1.0895691609808378,1.0895691609808378,1.0895691609808378,1.0895691609808378,1.0895691609808378,1.0895691609808378,1.0895691609808378,1.0895691609808378,1.0895691609808378,1.0895691609808378,1.0895691609808378,1.0895691609808378,1.0895691609808378,1.0895691609808378,1.0895691609808378,1.0895691609808378,1.0895691609808378,1.0895691609808378,1.0895691609808378,1.0895691609808378,1.0895691609808378,1.0895691609808378,1.0657596371713138,1.0283446711849193,1.0181405895522662,0.9943310657427424,0.9603174603005655,0.9331065759468241,0.922902494314171,0.912698412681518,0.912698412681518,0.912698412681518,0.912698412681518,0.912698412681518,0.912698412681518,0.912698412681518,0.912698412681518,0.912698412681518,0.912698412681518,0.912698412681518,0.912698412681518,0.912698412681518,0.912698412681518,0.912698412681518,0.912698412681518,0.912698412681518,0.912698412681518,0.912698412681518,0.912698412681518,0.912698412681518,0.9195011337699533,0.9331065759468241,0.9331065759468241,0.9331065759468241,0.9331065759468241,0.9467120181236949,0.9467120181236949,0.9467120181236949,0.9467120181236949,0.9467120181236949,0.9467120181236949,0.9467120181236949,0.9569160997563478,0.9569160997563478,0.9569160997563478,0.9671201813890009,0.9671201813890009,0.9671201813890009,0.9807256235658717,0.9807256235658717,0.9807256235658717,0.9807256235658717,0.9807256235658717,0.9807256235658717,0.9807256235658717,0.9807256235658717,0.9807256235658717,0.9807256235658717,0.9807256235658717,0.9807256235658717,0.9807256235658717,0.9807256235658717,0.9807256235658717,0.9807256235658717,0.9807256235658717,0.9807256235658717,0.9807256235658717,0.9807256235658717,0.9807256235658717,0.9807256235658717,0.9807256235658717,0.9807256235658717,0.9807256235658717,0.9807256235658717,0.9807256235658717,0.9807256235658717,0.9807256235658717,0.9807256235658717,0.9807256235658717,0.9807256235658717,0.9807256235658717,0.9807256235658717,0.9807256235658717,0.9943310657427424,1.0045351473753954,1.0147392290080486,1.0283446711849193,1.0283446711849193,1.04195011336179,1.04195011336179,1.04195011336179,1.04195011336179,1.04195011336179,1.052154194994443,1.052154194994443,1.052154194994443,1.052154194994443,1.052154194994443,1.0623582766270963,1.0623582766270963,1.0623582766270963,1.0623582766270963,1.0623582766270963,1.075963718803967,1.0895691609808378,1.0895691609808378,1.1099773242461437,1.1099773242461437,1.1235827664230145,1.1235827664230145,1.1235827664230145,1.1371882085998852,1.1371882085998852,1.1371882085998852,1.1371882085998852,1.1371882085998852,1.1371882085998852,1.1371882085998852,1.1371882085998852,1.1371882085998852,1.1371882085998852,1.1371882085998852,1.1371882085998852,1.1371882085998852,1.1371882085998852,1.1371882085998852,1.1371882085998852,1.1371882085998852,1.1371882085998852,1.1371882085998852,1.1371882085998852,1.1371882085998852,1.1473922902325384,1.1473922902325384,1.1473922902325384,1.1473922902325384,1.1473922902325384,1.1473922902325384,1.1473922902325384,1.1473922902325384,1.1473922902325384,1.1473922902325384,1.1473922902325384,1.1473922902325384,1.1473922902325384,1.1473922902325384,1.1473922902325384,1.1473922902325384,1.1473922902325384,1.1473922902325384,1.1473922902325384,1.1473922902325384,1.1473922902325384,1.1473922902325384,1.1473922902325384,1.1473922902325384,1.1473922902325384,1.1473922902325384,1.1473922902325384,1.1473922902325384,1.1473922902325384,1.1473922902325384,1.1473922902325384,1.1473922902325384,1.1473922902325384,1.1473922902325384,1.1473922902325384,1.1473922902325384,1.1473922902325384,1.1473922902325384,1.1473922902325384,1.1473922902325384,1.1473922902325384,1.1473922902325384,1.1473922902325384,1.1371882085998852,1.1133786847903615,1.075963718803967,1.0079365079196132,0.9705215419332186,0.9331065759468241,0.8990929705046472,0.8276643990760758,0.695011337851586,0.5521541949944432,0.5045351473753955,0.4467120181236948,0.30385487526655197,0.24603174601485128,0.21882086166110978,0.19841269839580367,0.18480725621893293,0.16099773240940912,0.16099773240940912,0.16099773240940912,0.15079365077675605,0.13718820859988531,0.11337868479036149,0.10317460315770843,0.08956916098083768,0.07596371880396693,0.06575963717131388,0.05555555553866082,0.05555555553866082,0.05555555553866082,0.05555555553866082,0.05555555553866082,0.04195011336179007,0.04195011336179007,0.04195011336179007,0.04195011336179007,0.04195011336179007,0.028344671184919318,0.028344671184919318,0.028344671184919318,0.028344671184919318,0.018140589552266256,0.018140589552266256,0.018140589552266256,0.018140589552266256,0.018140589552266256,0.018140589552266256,0.018140589552266256,0.018140589552266256,0.018140589552266256,0.018140589552266256,0.018140589552266256,0.018140589552266256,0.018140589552266256,0.018140589552266256,0.018140589552266256,0.018140589552266256,0.018140589552266256,0.018140589552266256,0.018140589552266256,0.018140589552266256,0.018140589552266256,0.018140589552266256,0.018140589552266256,0.018140589552266256,0.018140589552266256,0.018140589552266256,0.018140589552266256,0.018140589552266256,0.018140589552266256,0.018140589552266256,0.018140589552266256,0.018140589552266256,0.018140589552266256,0.018140589552266256,0.018140589552266256,0.018140589552266256,0.018140589552266256,0.018140589552266256,0.018140589552266256,0.018140589552266256,0.018140589552266256,0.018140589552266256,0.018140589552266256,0.018140589552266256,0.018140589552266256,0.018140589552266256,0.018140589552266256,0.018140589552266256,0.018140589552266256,0.018140589552266256,0.018140589552266256,0.018140589552266256,0.018140589552266256,0.018140589552266256,0.018140589552266256,0.018140589552266256,0.018140589552266256,0.018140589552266256,0.018140589552266256,0.018140589552266256,0.018140589552266256,0.018140589552266256,0.018140589552266256,0.018140589552266256,0.018140589552266256,0.018140589552266256,0.018140589552266256,0.018140589552266256,0.018140589552266256,0.018140589552266256,0.018140589552266256,0.018140589552266256,0.018140589552266256,0.018140589552266256,0.018140589552266256,0.018140589552266256,0.018140589552266256,0.018140589552266256,0.018140589552266256,0.018140589552266256,0.018140589552266256,0.018140589552266256,0.018140589552266256,0.018140589552266256,0.018140589552266256,0.018140589552266256,0.018140589552266256,0.018140589552266256,0.018140589552266256,0.018140589552266256,0.018140589552266256,0.018140589552266256,0.018140589552266256,0.018140589552266256,0.018140589552266256,0.018140589552266256,0.018140589552266256,0.018140589552266256,0.018140589552266256,0.018140589552266256,0.018140589552266256,0.018140589552266256,0.018140589552266256,0.018140589552266256,0.018140589552266256,0.018140589552266256,0.018140589552266256,0.018140589552266256,0.018140589552266256,0.018140589552266256,0.018140589552266256,0.018140589552266256,0.018140589552266256,0.018140589552266256,0.018140589552266256,0.018140589552266256,0.018140589552266256,0.018140589552266256,0.018140589552266256,0.018140589552266256,0.018140589552266256,0.018140589552266256,0.018140589552266256,0.018140589552266256,0.018140589552266256,0.018140589552266256,0.018140589552266256,0.018140589552266256,0.018140589552266256,0.018140589552266256,0.018140589552266256,0.018140589552266256,0.018140589552266256,0.018140589552266256,0.018140589552266256,0.018140589552266256,0.018140589552266256,0.018140589552266256,0.018140589552266256,0.018140589552266256],"y":[-3.8095238095238093,-3.8095238095238093,-3.8095238095238093,-3.8095238095238093,-3.8095238095238093,-3.8095238095238093,-3.8095238095238093,-3.8095238095238093,-3.8095238095238093,-3.8095238095238093,-3.8095238095238093,-3.8095238095238093,-3.8095238095238093,-3.8095238095238093,-3.8095238095238093,-3.8095238095238093,-3.8095238095238093,-3.8095238095238093,-3.8095238095238093,-3.8095238095238093,-3.8095238095238093,-3.8095238095238093,-3.8095238095238093,-3.8095238095238093,-3.8095238095238093,-3.8095238095238093,-3.8095238095238093,-3.8095238095238093,-3.8095238095238093,-3.8095238095238093,-3.8095238095238093,-3.8095238095238093,-3.8095238095238093,-3.8095238095238093,-3.8095238095238093,-3.8095238095238093,-3.8095238095238093,-3.8095238095238093,-3.8095238095238093,-3.8095238095238093,-3.8095238095238093,-3.8095238095238093,-3.8095238095238093,-3.8095238095238093,-3.8095238095238093,-3.8095238095238093,-3.8095238095238093,-3.8095238095238093,-3.8095238095238093,-3.8095238095238093,-3.8095238095238093,-3.8095238095238093,-3.8095238095238093,-3.8095238095238093,-3.8095238095238093,-3.8095238095238093,-3.8095238095238093,-3.8095238095238093,-3.8095238095238093,-3.8095238095238093,-3.8095238095238093,-3.8095238095238093,-3.8095238095238093,-3.8095238095238093,-3.8095238095238093,-3.8095238095238093,-3.8095238095238093,-3.8095238095238093,-3.8095238095238093,-3.8095238095238093,-3.8095238095238093,-3.8095238095238093,-3.8095238095238093,-3.8095238095238093,-3.8095238095238093,-3.8095238095238093,-3.8095238095238093,-3.8095238095238093,-3.8095238095238093,-3.8095238095238093,-3.8095238095238093,-3.8095238095238093,-3.8095238095238093,-3.8095238095238093,-3.8095238095238093,-3.8095238095238093,-3.8095238095238093,-3.8095238095238093,-3.8095238095238093,-3.8095238095238093,-3.8095238095238093,-3.8095238095238093,-3.8095238095238093,-3.8095238095238093,-3.8095238095238093,-3.8095238095238093,-3.8095238095238093,-3.8095238095238093,-3.8095238095238093,-3.8095238095238093,-3.8095238095238093,-3.8095238095238093,-3.8095238095238093,-3.8095238095238093,-3.8095238095238093,-3.8095238095238093,-3.8095238095238093,-3.8095238095238093,-3.8095238095238093,-3.8095238095238093,-3.8095238095238093,-3.8095238095238093,-3.8095238095238093,-3.8095238095238093,-3.8095238095238093,-3.8095238095238093,-3.8095238095238093,-3.8095238095238093,-3.8095238095238093,-3.8095238095238093,-3.8095238095238093,-3.8095238095238093,-3.8095238095238093,-3.8095238095238093,-3.8095238095238093,-3.8095238095238093,-3.8095238095238093,-3.8095238095238093,-3.8095238095238093,-3.8095238095238093,-3.8095238095238093,-3.8095238095238093,-3.8095238095238093,-3.8095238095238093,-3.8095238095238093,-3.8095238095238093,-3.8095238095238093,-3.8095238095238093,-3.8095238095238093,-3.8095238095238093,-3.8095238095238093,-3.8095238095238093,-3.8095238095238093,-3.8095238095238093,-3.8095238095238093,-3.8095238095238093,-3.8095238095238093,0.5571428571428572,0.5285714285714286,0.5285714285714286,0.49047619047619045,0.4523809523809524,0.4523809523809524,0.4523809523809524,0.4523809523809524,0.4238095238095238,0.4238095238095238,0.4238095238095238,0.4238095238095238,0.4238095238095238,0.4238095238095238,0.4238095238095238,0.4238095238095238,0.4238095238095238,0.4238095238095238,0.4238095238095238,0.4238095238095238,0.4238095238095238,0.4238095238095238,0.4238095238095238,0.4238095238095238,0.4238095238095238,0.4523809523809524,0.49047619047619045,0.5476190476190477,0.5857142857142857,0.6238095238095238,0.680952380952381,0.719047619047619,0.7857142857142857,0.8142857142857143,0.8904761904761904,0.8904761904761904,0.9857142857142858,1.0238095238095237,1.0523809523809524,1.0809523809523809,1.119047619047619,1.1857142857142857,1.1857142857142857,1.1857142857142857,1.2142857142857142,1.2142857142857142,1.2142857142857142,1.2142857142857142,1.2142857142857142,1.2142857142857142,1.2142857142857142,1.2142857142857142,1.2142857142857142,1.2142857142857142,1.2142857142857142,1.2142857142857142,1.2523809523809524,1.2523809523809524,1.2523809523809524,1.2904761904761906,1.319047619047619,1.3476190476190477,1.3857142857142857,1.4238095238095239,1.4523809523809523,1.4523809523809523,1.480952380952381,1.480952380952381,1.519047619047619,1.5571428571428572,1.5571428571428572,1.5857142857142856,1.5857142857142856,1.5857142857142856,1.5857142857142856,1.5857142857142856,1.5857142857142856,1.5857142857142856,1.5857142857142856,1.5857142857142856,1.5857142857142856,1.5857142857142856,1.5857142857142856,1.5571428571428572,1.4904761904761905,1.4238095238095239,1.3285714285714285,1.2523809523809524,1.1952380952380952,1.0904761904761904,0.9857142857142858,0.8904761904761904,0.8238095238095238,0.719047619047619,0.6904761904761905,0.6238095238095238,0.5857142857142857,0.5857142857142857,0.5857142857142857,0.5571428571428572,0.5571428571428572,0.5571428571428572,0.5571428571428572,0.5571428571428572,0.5571428571428572,0.5571428571428572,0.5285714285714286,0.5285714285714286,0.4523809523809524,0.4523809523809524,0.4523809523809524,0.4523809523809524,0.4523809523809524,0.4523809523809524,0.4523809523809524,0.4523809523809524,0.4523809523809524,0.4523809523809524,0.4523809523809524,0.4523809523809524,0.3952380952380952,0.319047619047619,0.2619047619047619,0.22380952380952382,0.22380952380952382,0.18571428571428572,0.18571428571428572,0.09047619047619047,0.05238095238095238,0.05238095238095238,0.05238095238095238,0.05238095238095238,0.023809523809523808,0.023809523809523808,0.023809523809523808,-0.004761904761904762,-0.004761904761904762,-0.004761904761904762,-0.004761904761904762,-0.04285714285714286,-0.04285714285714286,-0.08095238095238096,-0.08095238095238096,-0.08095238095238096,-0.08095238095238096,-0.08095238095238096,-0.08095238095238096,-0.08095238095238096,-0.08095238095238096,-0.08095238095238096,-0.08095238095238096,-0.08095238095238096,-0.08095238095238096,-0.08095238095238096,-0.08095238095238096,-0.08095238095238096,-0.08095238095238096,-0.08095238095238096,-0.08095238095238096,-0.08095238095238096,-0.08095238095238096,-0.08095238095238096,-0.08095238095238096,-0.08095238095238096,-0.08095238095238096,-0.08095238095238096,-0.08095238095238096,-0.08095238095238096,-0.08095238095238096,-0.08095238095238096,-0.08095238095238096,-0.08095238095238096,-0.08095238095238096,-0.08095238095238096,-0.08095238095238096,-0.08095238095238096,-0.08095238095238096,-0.08095238095238096,-0.08095238095238096,-0.08095238095238096,-0.08095238095238096,-0.08095238095238096,-0.08095238095238096,-0.08095238095238096,-0.08095238095238096,-0.08095238095238096,-0.08095238095238096,-0.08095238095238096,-0.08095238095238096,-0.08095238095238096,-0.08095238095238096,-0.08095238095238096,-0.08095238095238096,-0.08095238095238096,-0.08095238095238096,-0.08095238095238096,-0.08095238095238096,-0.08095238095238096,-0.08095238095238096,-0.08095238095238096,-0.08095238095238096,-0.08095238095238096,-0.08095238095238096,-0.08095238095238096,-0.08095238095238096,-0.08095238095238096,-0.08095238095238096,-0.08095238095238096,-0.08095238095238096,-0.08095238095238096,-0.08095238095238096,-0.08095238095238096,-0.08095238095238096,-0.08095238095238096,-0.08095238095238096,-0.08095238095238096,-0.08095238095238096,-0.08095238095238096,-0.08095238095238096,-0.08095238095238096,-0.08095238095238096,-0.08095238095238096,-0.08095238095238096,-0.08095238095238096,-0.08095238095238096,-0.08095238095238096,-0.08095238095238096,-0.08095238095238096,-0.08095238095238096,-0.08095238095238096,-0.08095238095238096,-0.08095238095238096,-0.08095238095238096,-0.08095238095238096,-0.08095238095238096,-0.08095238095238096,-0.08095238095238096,-0.08095238095238096,-0.08095238095238096,-0.08095238095238096,-0.08095238095238096,-0.08095238095238096,-0.08095238095238096,-0.08095238095238096,-0.08095238095238096,-0.08095238095238096,-0.08095238095238096,-0.08095238095238096,-0.08095238095238096,-0.08095238095238096,-0.08095238095238096,-0.08095238095238096,-0.08095238095238096,-0.08095238095238096,-0.08095238095238096,-0.08095238095238096,-0.08095238095238096,-0.08095238095238096,-0.08095238095238096,-0.08095238095238096,-0.08095238095238096,-0.08095238095238096,-0.08095238095238096,-0.08095238095238096,-0.08095238095238096,-0.08095238095238096,-0.08095238095238096,-0.08095238095238096,-0.08095238095238096,-0.08095238095238096,-0.08095238095238096,-0.08095238095238096,-0.08095238095238096,-0.08095238095238096,-0.08095238095238096,-0.08095238095238096,0.05238095238095238,0.11904761904761904,0.2523809523809524,0.4142857142857143,0.5857142857142857,0.7571428571428571,0.8904761904761904,1.0238095238095237,1.1571428571428573,1.1857142857142857,1.2904761904761906,1.319047619047619,1.3857142857142857,1.4523809523809523,1.519047619047619,1.5571428571428572,1.5857142857142856,1.6523809523809523,1.6523809523809523,1.7190476190476192,1.7190476190476192,1.7190476190476192,1.7190476190476192,1.7190476190476192,1.7190476190476192,1.7190476190476192,1.7190476190476192,1.7190476190476192,1.7190476190476192,1.7190476190476192,1.7190476190476192,1.7190476190476192,1.7190476190476192,1.7190476190476192,1.7190476190476192,1.7190476190476192,1.7190476190476192,1.7190476190476192,1.7190476190476192,1.7190476190476192,1.7190476190476192,1.7190476190476192,1.7190476190476192,1.7190476190476192,1.7190476190476192,1.7190476190476192,1.7190476190476192,1.7190476190476192,1.7190476190476192,1.7190476190476192,1.7190476190476192,1.7190476190476192,1.7190476190476192,1.7190476190476192,1.7190476190476192,1.7190476190476192,1.7190476190476192,1.7190476190476192,1.7190476190476192,1.7190476190476192,1.7190476190476192,1.7190476190476192,1.7190476190476192,1.7190476190476192,1.7190476190476192,1.7190476190476192,1.7190476190476192,1.7190476190476192,1.7190476190476192,1.7190476190476192,1.7190476190476192,1.7190476190476192,1.7190476190476192,1.7190476190476192,1.7190476190476192,1.6904761904761905,1.6904761904761905,1.6904761904761905,1.6523809523809523,1.6523809523809523,1.6523809523809523,1.6523809523809523,1.6523809523809523,1.6523809523809523,1.6523809523809523,1.6523809523809523,1.6523809523809523,1.6523809523809523,1.6523809523809523,1.6523809523809523,1.6523809523809523,1.6523809523809523,1.6523809523809523,1.6523809523809523,1.6523809523809523,1.6523809523809523,1.6523809523809523,1.6523809523809523,1.6523809523809523,1.6523809523809523,1.6523809523809523,1.6523809523809523,1.6523809523809523,1.6523809523809523,1.6523809523809523,1.6523809523809523,1.6523809523809523,1.6523809523809523,1.6523809523809523,1.6523809523809523,1.6523809523809523,1.6523809523809523,1.6523809523809523,1.6523809523809523,1.6523809523809523,1.6523809523809523,1.6523809523809523,1.6523809523809523,1.6523809523809523,1.6523809523809523,1.6523809523809523,1.6523809523809523,1.6523809523809523,1.6523809523809523,1.6523809523809523,1.6523809523809523,1.6523809523809523,1.6523809523809523,1.6523809523809523,1.6523809523809523,1.6523809523809523,1.6523809523809523,1.6523809523809523,1.6523809523809523,1.6523809523809523,1.6523809523809523,1.6904761904761905,1.6904761904761905,1.7190476190476192,1.8238095238095238,1.8523809523809525,1.9190476190476191,1.9857142857142858,2.0142857142857142,2.052380952380952,2.052380952380952,2.052380952380952,2.052380952380952,2.052380952380952,2.052380952380952,2.052380952380952,2.052380952380952,2.052380952380952,2.052380952380952,2.052380952380952,2.052380952380952,2.0238095238095237,2.0238095238095237,2.0238095238095237,2.0238095238095237,2.0238095238095237,2.0238095238095237,2.0238095238095237,2.0238095238095237,2.0238095238095237,2.0238095238095237,2.0238095238095237,2.0238095238095237,2.0238095238095237,2.0238095238095237,2.0238095238095237,2.0238095238095237,2.0238095238095237,2.0238095238095237,2.0238095238095237,2.0238095238095237,2.0238095238095237,2.0238095238095237,2.052380952380952,2.052380952380952,2.052380952380952,2.052380952380952,2.052380952380952,2.052380952380952,2.052380952380952,2.052380952380952,2.052380952380952,2.052380952380952,2.052380952380952,2.052380952380952,2.052380952380952,2.052380952380952,2.052380952380952,2.052380952380952,2.052380952380952,2.052380952380952,2.052380952380952,2.052380952380952,2.052380952380952,2.052380952380952,2.052380952380952,2.052380952380952,2.052380952380952,2.052380952380952,2.052380952380952,2.052380952380952,2.052380952380952,2.052380952380952,2.052380952380952,2.052380952380952,2.052380952380952,2.052380952380952,2.052380952380952,2.052380952380952,2.052380952380952,2.052380952380952,2.052380952380952,2.052380952380952,2.052380952380952,2.052380952380952,2.052380952380952,2.052380952380952,2.052380952380952,2.052380952380952,2.052380952380952,2.052380952380952,2.052380952380952,2.052380952380952,2.052380952380952,2.052380952380952,2.052380952380952,2.052380952380952,2.052380952380952,2.052380952380952,2.052380952380952,2.052380952380952,2.052380952380952,2.052380952380952,2.052380952380952,2.052380952380952,2.052380952380952,2.052380952380952,2.052380952380952,2.052380952380952,2.052380952380952,2.052380952380952,2.052380952380952,2.052380952380952,2.052380952380952,2.052380952380952,2.052380952380952,2.052380952380952,2.052380952380952,2.052380952380952,2.052380952380952,2.052380952380952,2.052380952380952,2.052380952380952,2.052380952380952,2.052380952380952,2.052380952380952,2.052380952380952,2.052380952380952,2.052380952380952,2.052380952380952,2.052380952380952,2.052380952380952,2.052380952380952,2.052380952380952,2.052380952380952,2.052380952380952,2.052380952380952,2.052380952380952,2.052380952380952,2.052380952380952,2.052380952380952,2.052380952380952,2.052380952380952,2.052380952380952,2.0238095238095237,1.9952380952380953,1.8904761904761904,1.8238095238095238,1.6904761904761905,1.5571428571428572,1.4619047619047618,1.3857142857142857,1.3285714285714285,1.2904761904761906,1.2904761904761906,1.2523809523809524,1.2523809523809524,1.2523809523809524,1.2523809523809524,1.2523809523809524,1.2523809523809524,1.1952380952380952,1.0904761904761904,0.9857142857142858,0.8904761904761904,0.8238095238095238,0.7571428571428571,0.7571428571428571,0.7571428571428571,0.7571428571428571,0.7571428571428571,0.7571428571428571,0.719047619047619,0.6904761904761905,0.6904761904761905,0.6904761904761905,0.6619047619047619,0.6619047619047619,0.6619047619047619,0.6619047619047619,0.6238095238095238,0.6238095238095238,0.6238095238095238,0.6238095238095238,0.5857142857142857,0.5857142857142857,0.5571428571428572,0.5571428571428572,0.5571428571428572,0.5571428571428572,0.5571428571428572,0.5571428571428572,0.5571428571428572,0.5571428571428572,0.5571428571428572,0.5571428571428572,0.5571428571428572,0.5571428571428572,0.5571428571428572,0.5571428571428572,0.5571428571428572,0.5285714285714286,0.4523809523809524,0.3952380952380952,0.35714285714285715,0.319047619047619,0.2904761904761905,0.22380952380952382,0.22380952380952382,0.18571428571428572,0.18571428571428572,0.18571428571428572,0.18571428571428572,0.18571428571428572,0.15714285714285714,0.09047619047619047,-0.004761904761904762,-0.04285714285714286,-0.08095238095238096,-0.10952380952380952,-0.10952380952380952,-0.10952380952380952,-0.10952380952380952,-0.10952380952380952,-0.10952380952380952,-0.10952380952380952,-0.10952380952380952,-0.10952380952380952,-0.10952380952380952,-0.10952380952380952,-0.10952380952380952,-0.10952380952380952,-0.10952380952380952,-0.10952380952380952,-0.10952380952380952,-0.10952380952380952,-0.10952380952380952,-0.10952380952380952,-0.10952380952380952,-0.10952380952380952,-0.10952380952380952,-0.10952380952380952,-0.10952380952380952,-0.10952380952380952,-0.10952380952380952,-0.10952380952380952,-0.10952380952380952,-0.10952380952380952,-0.10952380952380952,-0.10952380952380952,-0.10952380952380952,-0.10952380952380952,-0.10952380952380952,-0.10952380952380952,-0.10952380952380952,-0.10952380952380952,-0.10952380952380952,-0.10952380952380952,-0.10952380952380952,-0.10952380952380952,-0.10952380952380952,-0.10952380952380952,-0.10952380952380952,-0.10952380952380952,-0.10952380952380952,-0.10952380952380952,-0.10952380952380952,-0.10952380952380952,-0.10952380952380952,-0.10952380952380952,-0.10952380952380952,-0.10952380952380952,-0.10952380952380952,-0.10952380952380952,-0.10952380952380952,-0.10952380952380952,-0.10952380952380952,-0.10952380952380952,-0.10952380952380952,-0.10952380952380952,-0.10952380952380952,-0.10952380952380952,-0.10952380952380952,-0.10952380952380952,-0.10952380952380952,-0.10952380952380952,-0.10952380952380952,-0.10952380952380952,-0.10952380952380952,-0.10952380952380952,-0.10952380952380952,-0.10952380952380952,-0.10952380952380952,-0.10952380952380952,-0.10952380952380952,-0.10952380952380952,-0.10952380952380952,-0.10952380952380952,-0.10952380952380952,-0.10952380952380952,-0.10952380952380952,-0.10952380952380952,-0.10952380952380952,-0.10952380952380952,-0.10952380952380952,-0.10952380952380952,-0.10952380952380952,-0.10952380952380952,-0.10952380952380952,-0.10952380952380952,-0.10952380952380952,-0.10952380952380952,-0.10952380952380952,-0.10952380952380952,-0.10952380952380952,-0.10952380952380952,-0.10952380952380952,-0.10952380952380952,-0.10952380952380952,-0.10952380952380952,-0.10952380952380952,-0.10952380952380952,-0.10952380952380952,-0.10952380952380952,-0.10952380952380952,-0.10952380952380952,-0.10952380952380952,-0.10952380952380952,-0.10952380952380952,-0.10952380952380952,-0.10952380952380952,-0.10952380952380952,-0.10952380952380952,-0.10952380952380952,-0.10952380952380952,-0.10952380952380952,-0.10952380952380952,-0.10952380952380952,-0.10952380952380952,-0.10952380952380952,-0.10952380952380952,-0.10952380952380952,-0.10952380952380952,-0.10952380952380952,-0.10952380952380952,-0.10952380952380952,-0.10952380952380952,-0.10952380952380952,-0.10952380952380952,-0.10952380952380952,-0.10952380952380952,-0.10952380952380952,-0.10952380952380952,-0.10952380952380952,-0.10952380952380952,-0.10952380952380952,-0.10952380952380952,-0.10952380952380952,-0.10952380952380952,-0.10952380952380952,-0.10952380952380952,-0.10952380952380952,-0.10952380952380952,-0.10952380952380952,-0.10952380952380952,-0.10952380952380952,-0.10952380952380952,-0.10952380952380952,-0.10952380952380952,-0.10952380952380952,-0.10952380952380952,-0.10952380952380952,-0.10952380952380952,-0.10952380952380952,-0.10952380952380952,-0.10952380952380952,-0.10952380952380952,-0.10952380952380952,-0.10952380952380952,-0.10952380952380952,-0.10952380952380952,-0.10952380952380952,-0.10952380952380952,-0.10952380952380952,-0.10952380952380952,-0.10952380952380952,-0.10952380952380952,-0.10952380952380952,-0.10952380952380952,-0.10952380952380952,-0.10952380952380952,-0.10952380952380952,-0.10952380952380952,-0.10952380952380952,-0.10952380952380952,-0.10952380952380952,-0.10952380952380952,-0.10952380952380952,-0.10952380952380952,-0.10952380952380952,-0.10952380952380952,-0.10952380952380952,-0.10952380952380952,-0.10952380952380952,-0.10952380952380952,-0.10952380952380952,-0.10952380952380952,-0.10952380952380952,-0.10952380952380952,-0.10952380952380952,-0.10952380952380952,-0.10952380952380952,-0.10952380952380952,-0.10952380952380952,-0.10952380952380952,-0.10952380952380952,-0.10952380952380952,-0.10952380952380952,-0.10952380952380952,-0.10952380952380952,-0.10952380952380952,-0.10952380952380952,-0.10952380952380952,-0.10952380952380952,-0.10952380952380952,-0.10952380952380952,-0.10952380952380952,-0.10952380952380952,-0.10952380952380952,-0.10952380952380952,-0.10952380952380952,-0.10952380952380952,-0.10952380952380952,-0.10952380952380952,-0.10952380952380952,-0.10952380952380952,-0.10952380952380952,-0.10952380952380952,-0.10952380952380952,-0.10952380952380952,-0.10952380952380952,-0.10952380952380952,-0.10952380952380952,-0.10952380952380952,-0.10952380952380952,-0.10952380952380952,-0.10952380952380952,-0.10952380952380952,-0.10952380952380952,-0.10952380952380952,-0.10952380952380952,-0.10952380952380952,-0.10952380952380952,-0.10952380952380952,-0.10952380952380952,-0.10952380952380952,-0.10952380952380952,-0.10952380952380952,-0.10952380952380952,-0.10952380952380952,-0.10952380952380952,-0.10952380952380952,-0.10952380952380952,-0.10952380952380952,-0.10952380952380952,-0.10952380952380952,-0.10952380952380952,-0.10952380952380952,-0.10952380952380952,-0.10952380952380952,-0.10952380952380952,-0.10952380952380952,-0.10952380952380952,-0.10952380952380952,-0.10952380952380952,-0.10952380952380952,-0.10952380952380952,-0.10952380952380952,-0.10952380952380952,-0.10952380952380952,-0.10952380952380952,-0.10952380952380952,-0.10952380952380952,-0.10952380952380952,-0.10952380952380952,-0.10952380952380952,-0.10952380952380952,-0.10952380952380952,-0.10952380952380952,-0.10952380952380952,-0.10952380952380952,-0.10952380952380952,-0.10952380952380952,-0.10952380952380952,-0.10952380952380952,-0.10952380952380952,-0.10952380952380952,-0.10952380952380952,-0.10952380952380952,-0.10952380952380952,-0.10952380952380952,-0.10952380952380952,-0.10952380952380952,-0.10952380952380952,-0.10952380952380952,-0.10952380952380952,-0.10952380952380952,-0.10952380952380952,-0.10952380952380952,-0.10952380952380952,-0.10952380952380952,-0.10952380952380952,-0.10952380952380952,-0.10952380952380952,-0.10952380952380952,-0.10952380952380952,-0.10952380952380952,-0.10952380952380952,-0.10952380952380952,-0.10952380952380952,-0.10952380952380952,-0.10952380952380952,-0.10952380952380952,-0.10952380952380952,-0.10952380952380952,-0.10952380952380952,-0.10952380952380952,-0.10952380952380952,-0.10952380952380952,-0.10952380952380952,-0.10952380952380952,-0.10952380952380952,-0.10952380952380952,-0.10952380952380952,-0.10952380952380952,-0.10952380952380952,-0.10952380952380952,-0.10952380952380952,-0.10952380952380952,-0.10952380952380952,-0.10952380952380952,-0.10952380952380952,-0.10952380952380952,-0.10952380952380952,-0.10952380952380952,-0.10952380952380952,-0.10952380952380952,-0.10952380952380952,-0.10952380952380952,-0.10952380952380952,-0.10952380952380952,-0.10952380952380952,-0.10952380952380952,-0.10952380952380952,-0.10952380952380952,-0.10952380952380952,-0.10952380952380952,-0.10952380952380952,-0.10952380952380952,-0.10952380952380952,-0.10952380952380952,-0.10952380952380952,-0.10952380952380952,-0.10952380952380952,-0.10952380952380952,-0.10952380952380952,-0.10952380952380952,-0.10952380952380952,-0.10952380952380952,-0.10952380952380952,-0.10952380952380952,-0.10952380952380952,-0.10952380952380952,-0.10952380952380952,-0.10952380952380952,-0.10952380952380952,-0.10952380952380952,-0.10952380952380952,-0.10952380952380952,-0.10952380952380952,-0.10952380952380952,-0.10952380952380952,-0.10952380952380952,-0.10952380952380952,-0.10952380952380952,-0.10952380952380952,-0.10952380952380952,-0.10952380952380952,-0.10952380952380952,-0.10952380952380952,-0.10952380952380952,-0.08095238095238096,-0.04285714285714286,-0.014285714285714285,0.014285714285714285,0.09047619047619047,0.11904761904761904,0.14761904761904762,0.18571428571428572,0.22380952380952382,0.22380952380952382,0.22380952380952382,0.22380952380952382,0.2523809523809524,0.2523809523809524,0.2523809523809524,0.2523809523809524,0.2523809523809524,0.2523809523809524,0.2523809523809524,0.2523809523809524,0.2523809523809524,0.2523809523809524,0.22380952380952382,0.18571428571428572,0.15714285714285714,0.12857142857142856,0.09047619047619047,0.05238095238095238,0.05238095238095238,0.023809523809523808,0.023809523809523808,-0.004761904761904762,-0.004761904761904762,-0.004761904761904762,-0.004761904761904762,-0.004761904761904762,-0.004761904761904762,-0.004761904761904762,-0.004761904761904762,-0.004761904761904762,-0.004761904761904762,-0.004761904761904762,-0.004761904761904762,-0.004761904761904762,-0.004761904761904762,-0.004761904761904762,-0.004761904761904762,-0.004761904761904762,-0.004761904761904762,-0.004761904761904762,-0.004761904761904762,-0.004761904761904762,-0.004761904761904762,-0.004761904761904762,-0.004761904761904762,-0.004761904761904762,-0.004761904761904762,-0.004761904761904762,-0.004761904761904762,-0.004761904761904762,-0.004761904761904762,-0.004761904761904762,-0.004761904761904762,-0.004761904761904762,-0.004761904761904762,-0.004761904761904762,-0.004761904761904762,-0.004761904761904762,-0.004761904761904762,-0.004761904761904762,-0.004761904761904762,-0.004761904761904762,-0.004761904761904762,-0.004761904761904762,-0.004761904761904762,-0.004761904761904762,-0.004761904761904762,-0.004761904761904762,-0.004761904761904762,-0.004761904761904762,-0.004761904761904762,-0.004761904761904762,-0.004761904761904762,-0.004761904761904762,-0.004761904761904762,-0.004761904761904762,-0.004761904761904762,-0.004761904761904762,-0.004761904761904762,-0.004761904761904762,-0.004761904761904762,-0.004761904761904762,-0.004761904761904762,-0.004761904761904762,-0.004761904761904762,-0.004761904761904762,-0.004761904761904762,-0.004761904761904762,-0.004761904761904762,-0.004761904761904762,-0.004761904761904762,-0.004761904761904762,-0.004761904761904762,-0.004761904761904762,-0.004761904761904762,-0.004761904761904762,-0.004761904761904762,-0.004761904761904762,-0.004761904761904762,-0.004761904761904762,-0.004761904761904762,-0.004761904761904762,-0.004761904761904762,-0.004761904761904762,-0.004761904761904762,-0.004761904761904762,-0.004761904761904762,-0.004761904761904762,-0.004761904761904762,-0.004761904761904762,-0.004761904761904762,-0.004761904761904762,-0.004761904761904762,-0.004761904761904762,-0.004761904761904762,-0.004761904761904762,-0.004761904761904762,-0.004761904761904762,-0.004761904761904762,-0.004761904761904762,-0.004761904761904762,-0.004761904761904762,-0.004761904761904762,-0.004761904761904762,-0.004761904761904762,-0.004761904761904762,-0.004761904761904762,-0.004761904761904762,-0.004761904761904762,-0.004761904761904762,-0.004761904761904762,-0.004761904761904762,-0.004761904761904762,-0.004761904761904762,-0.004761904761904762,-0.004761904761904762,-0.004761904761904762,-0.004761904761904762,-0.004761904761904762,-0.004761904761904762,-0.004761904761904762,-0.004761904761904762,-0.004761904761904762,-0.004761904761904762,-0.004761904761904762,-0.004761904761904762,-0.004761904761904762,-0.004761904761904762,-0.004761904761904762,-0.004761904761904762,-0.004761904761904762,-0.004761904761904762,0.014285714285714285,0.09047619047619047,0.14761904761904762,0.22380952380952382,0.319047619047619,0.38571428571428573,0.4142857142857143,0.49047619047619045,0.5190476190476191,0.5476190476190477,0.5857142857142857,0.6238095238095238,0.6238095238095238,0.6523809523809524,0.6523809523809524,0.680952380952381,0.680952380952381,0.719047619047619,0.7571428571428571,0.7857142857142857,0.7857142857142857,0.7857142857142857,0.7857142857142857,0.7857142857142857,0.7857142857142857,0.7857142857142857,0.7857142857142857,0.7857142857142857,0.7857142857142857,0.7857142857142857,0.7857142857142857,0.7857142857142857,0.7857142857142857,0.7857142857142857,0.7857142857142857,0.7857142857142857,0.7857142857142857,0.7857142857142857,0.7857142857142857,0.7857142857142857,0.7857142857142857,0.7857142857142857,0.7857142857142857,0.7857142857142857,0.7857142857142857,0.8523809523809524,0.919047619047619,0.9476190476190476,0.9476190476190476,1.0238095238095237,1.0238095238095237,1.0523809523809524,1.0809523809523809,1.0809523809523809,1.0809523809523809,1.0809523809523809,1.0809523809523809,1.0809523809523809,1.0809523809523809,1.0809523809523809,1.0809523809523809,1.0809523809523809,1.0809523809523809,1.0809523809523809,1.0809523809523809,1.0809523809523809,1.0809523809523809,1.0809523809523809,1.0809523809523809,1.0809523809523809,1.0809523809523809,1.0809523809523809,1.0809523809523809,1.061904761904762,1.061904761904762,1.061904761904762,1.061904761904762,1.061904761904762,1.0238095238095237,1.0238095238095237,1.0238095238095237,1.0238095238095237,1.0238095238095237,1.0238095238095237,1.0238095238095237,1.0238095238095237,1.0238095238095237,1.0238095238095237,1.0238095238095237,1.0238095238095237,1.0238095238095237,1.0238095238095237,1.0238095238095237,1.0238095238095237,1.0238095238095237,1.0238095238095237,1.0238095238095237,1.0238095238095237,1.0238095238095237,1.0238095238095237,1.0238095238095237,1.0238095238095237,1.0238095238095237,1.0238095238095237,1.0238095238095237,1.0238095238095237,1.0238095238095237,1.0238095238095237,1.0238095238095237,1.0238095238095237,1.0238095238095237,1.0238095238095237,1.0238095238095237,1.0238095238095237,1.0238095238095237,1.0238095238095237,1.0238095238095237,1.0238095238095237,1.0238095238095237,1.0238095238095237,1.0238095238095237,1.0238095238095237,1.0238095238095237,1.0238095238095237,0.9857142857142858,0.9857142857142858,0.9285714285714286,0.8904761904761904,0.7952380952380952,0.7571428571428571,0.719047619047619,0.6904761904761905,0.6904761904761905,0.6619047619047619,0.6619047619047619,0.6619047619047619,0.6238095238095238,0.6238095238095238,0.5857142857142857,0.5857142857142857,0.5571428571428572,0.5571428571428572,0.5571428571428572,0.5285714285714286,0.49047619047619045,0.49047619047619045,0.4523809523809524,0.4238095238095238,0.4238095238095238,0.3952380952380952,0.35714285714285715,0.35714285714285715,0.35714285714285715,0.35714285714285715,0.319047619047619,0.319047619047619,0.319047619047619,0.319047619047619,0.319047619047619,0.319047619047619,0.319047619047619,0.319047619047619,0.319047619047619,0.319047619047619,0.319047619047619,0.319047619047619,0.319047619047619,0.319047619047619,0.319047619047619,0.319047619047619,0.319047619047619,0.319047619047619,0.319047619047619,0.319047619047619,0.35714285714285715,0.35714285714285715,0.38571428571428573,0.38571428571428573,0.38571428571428573,0.38571428571428573,0.4142857142857143,0.4142857142857143,0.4142857142857143,0.4142857142857143,0.4142857142857143,0.4142857142857143,0.4142857142857143,0.4142857142857143,0.4142857142857143,0.4142857142857143,0.4142857142857143,0.4142857142857143,0.4142857142857143,0.4142857142857143,0.4142857142857143,0.4142857142857143,0.4142857142857143,0.4142857142857143,0.4142857142857143,0.4142857142857143,0.4142857142857143,0.4142857142857143,0.4142857142857143,0.4142857142857143,0.4142857142857143,0.4142857142857143,0.4142857142857143,0.4142857142857143,0.4142857142857143,0.4142857142857143,0.4142857142857143,0.4142857142857143,0.4142857142857143,0.4142857142857143,0.4142857142857143,0.4142857142857143,0.4142857142857143,0.4142857142857143,0.4142857142857143,0.4523809523809524,0.4523809523809524,0.4523809523809524,0.4523809523809524,0.4523809523809524,0.4523809523809524,0.4523809523809524,0.4238095238095238,0.3952380952380952,0.35714285714285715,0.319047619047619,0.2904761904761905,0.2619047619047619,0.22380952380952382,0.18571428571428572,0.18571428571428572,0.15714285714285714,0.15714285714285714,0.15714285714285714,0.12857142857142856,0.09047619047619047,0.05238095238095238,0.023809523809523808,-0.004761904761904762,-0.004761904761904762,-0.04285714285714286,-0.08095238095238096,-0.08095238095238096,-0.08095238095238096,-0.08095238095238096,-0.08095238095238096,-0.08095238095238096,-0.08095238095238096,-0.08095238095238096,-0.08095238095238096,-0.08095238095238096,-0.08095238095238096,-0.08095238095238096,-0.08095238095238096,-0.08095238095238096,-0.08095238095238096,-0.08095238095238096,-0.08095238095238096,-0.08095238095238096,-0.08095238095238096,-0.08095238095238096,-0.08095238095238096,-0.08095238095238096,-0.08095238095238096,-0.08095238095238096,-0.08095238095238096,-0.08095238095238096,-0.08095238095238096,-0.08095238095238096,-0.08095238095238096,-0.08095238095238096,-0.08095238095238096,-0.08095238095238096,-0.08095238095238096,-0.08095238095238096,-0.08095238095238096,-0.08095238095238096,-0.08095238095238096,-0.08095238095238096,-0.08095238095238096,-0.08095238095238096,-0.08095238095238096,-0.08095238095238096,-0.08095238095238096,-0.08095238095238096,-0.08095238095238096,-0.08095238095238096,-0.08095238095238096,-0.08095238095238096,-0.08095238095238096,-0.08095238095238096,-0.08095238095238096,-0.08095238095238096,-0.08095238095238096,-0.08095238095238096,-0.08095238095238096,-0.08095238095238096,-0.08095238095238096,-0.08095238095238096,-0.08095238095238096,-0.08095238095238096,-0.08095238095238096,-0.08095238095238096,-0.08095238095238096,-0.08095238095238096,-0.08095238095238096,-0.08095238095238096,-0.08095238095238096,-0.08095238095238096,-0.08095238095238096,-0.08095238095238096,-0.08095238095238096,-0.08095238095238096,-0.08095238095238096,-0.08095238095238096,-0.08095238095238096,-0.08095238095238096,-0.08095238095238096,-0.08095238095238096,-0.08095238095238096,-0.08095238095238096,-0.08095238095238096,-0.08095238095238096,-0.08095238095238096,-0.08095238095238096,-0.08095238095238096,-0.08095238095238096,-0.08095238095238096,-0.08095238095238096,-0.08095238095238096,-0.08095238095238096,-0.08095238095238096,-0.08095238095238096,-0.08095238095238096,-0.08095238095238096,-0.08095238095238096,-0.08095238095238096,-0.08095238095238096,-0.08095238095238096,-0.08095238095238096,-0.08095238095238096,-0.08095238095238096,-0.08095238095238096,-0.08095238095238096,-0.08095238095238096,-0.08095238095238096,-0.08095238095238096,-0.08095238095238096,-0.08095238095238096,-0.08095238095238096,-0.08095238095238096,-0.08095238095238096,-0.08095238095238096,-0.08095238095238096,-0.08095238095238096,-0.08095238095238096,-0.08095238095238096,-0.08095238095238096,-0.08095238095238096,-0.08095238095238096,-0.08095238095238096,-0.08095238095238096,-0.08095238095238096,-0.08095238095238096,-0.08095238095238096,-0.08095238095238096,-0.08095238095238096,-0.08095238095238096,-0.08095238095238096,-0.08095238095238096,-0.08095238095238096,-0.08095238095238096,-0.08095238095238096,-0.08095238095238096,-0.08095238095238096,-0.08095238095238096,-0.08095238095238096,-0.08095238095238096,-0.08095238095238096,-0.08095238095238096,-0.08095238095238096,-0.08095238095238096,-0.08095238095238096,-0.08095238095238096,-0.08095238095238096,-0.08095238095238096,-0.08095238095238096,-0.08095238095238096,-0.08095238095238096,-0.08095238095238096,-0.08095238095238096,-0.08095238095238096,-0.08095238095238096,-0.08095238095238096,-0.08095238095238096]},"final_keyboard_state":["H","E","B","Z","R","A"],"num_clicks":6,"points":14,"cheat":false,"trial_type":"Hangman","trial_index":5,"time_elapsed":51587,"internal_node_id":"0.0-4.0","protocol_sum":"","subject_identifier":228,"subject_sum":[159,31,157,206,49,156,71,0,239,40,236,140,83,189,60,200,230,171,230,76,104,56,84,121,171,137,33,88,6,165,189,214],"subject_pair":114,"STUDY_ID":"669eec2e4270c76bc184a38e","PROLIFIC_PID":"666c0088634cc2e1573b49ee","SESSION_ID":"669fe68c86f8c2cac282272f","practice_instructions":1,"leaderboard_instructions":0,"bonus":0,"reveal_word":false,"self_rating":"4","confidence":"69"},{"view_history":"[{\"page_index\":0,\"viewing_time\":3141},{\"page_index\":1,\"viewing_time\":10253}]","rt":13394,"trial_type":"instructions","trial_index":6,"time_elapsed":64984,"internal_node_id":"0.0-5.0","protocol_sum":"","subject_identifier":228,"subject_sum":[159,31,157,206,49,156,71,0,239,40,236,140,83,189,60,200,230,171,230,76,104,56,84,121,171,137,33,88,6,165,189,214],"subject_pair":114,"STUDY_ID":"669eec2e4270c76bc184a38e","PROLIFIC_PID":"666c0088634cc2e1573b49ee","SESSION_ID":"669fe68c86f8c2cac282272f","practice_instructions":1,"leaderboard_instructions":0,"bonus":0,"reveal_word":false,"self_rating":"4","confidence":"69"},{"rt":11551,"responses":"{\"Q0\":\"...from <b>a previous session</b> that is not part of the upcoming tournament.\"}","question_order":"[0]","trial_type":"survey-multi-choice","trial_index":7,"time_elapsed":76535,"internal_node_id":"0.0-6.0","protocol_sum":"","subject_identifier":228,"subject_sum":[159,31,157,206,49,156,71,0,239,40,236,140,83,189,60,200,230,171,230,76,104,56,84,121,171,137,33,88,6,165,189,214],"subject_pair":114,"correct":true,"test_part":"multichoice_leaderboard","STUDY_ID":"669eec2e4270c76bc184a38e","PROLIFIC_PID":"666c0088634cc2e1573b49ee","SESSION_ID":"669fe68c86f8c2cac282272f","practice_instructions":1,"leaderboard_instructions":0,"bonus":0,"reveal_word":false,"self_rating":"4","confidence":"69"},{"view_history":"[{\"page_index\":0,\"viewing_time\":6779}]","rt":6779,"trial_type":"instructions","trial_index":8,"time_elapsed":83314,"internal_node_id":"0.0-8.0","protocol_sum":"","subject_identifier":228,"subject_sum":[159,31,157,206,49,156,71,0,239,40,236,140,83,189,60,200,230,171,230,76,104,56,84,121,171,137,33,88,6,165,189,214],"subject_pair":114,"STUDY_ID":"669eec2e4270c76bc184a38e","PROLIFIC_PID":"666c0088634cc2e1573b49ee","SESSION_ID":"669fe68c86f8c2cac282272f","practice_instructions":1,"leaderboard_instructions":0,"bonus":0,"reveal_word":false,"self_rating":"4","confidence":"69"},{"rt":9750,"responses":"{\"Q0\":\"...players' leaderboard position (in terms of <b>points</b>) in an <b>upcoming tournament.</b>\"}","question_order":"[0]","trial_type":"survey-multi-choice","trial_index":9,"time_elapsed":93066,"internal_node_id":"0.0-9.0","protocol_sum":"","subject_identifier":228,"subject_sum":[159,31,157,206,49,156,71,0,239,40,236,140,83,189,60,200,230,171,230,76,104,56,84,121,171,137,33,88,6,165,189,214],"subject_pair":114,"correct":true,"test_part":"multichoice_tournament","STUDY_ID":"669eec2e4270c76bc184a38e","PROLIFIC_PID":"666c0088634cc2e1573b49ee","SESSION_ID":"669fe68c86f8c2cac282272f","practice_instructions":1,"leaderboard_instructions":0,"bonus":0,"reveal_word":false,"self_rating":"4","confidence":"69"},{"view_history":"[{\"page_index\":0,\"viewing_time\":7514}]","rt":7514,"trial_type":"instructions","trial_index":10,"time_elapsed":100581,"internal_node_id":"0.0-11.0","protocol_sum":"","subject_identifier":228,"subject_sum":[159,31,157,206,49,156,71,0,239,40,236,140,83,189,60,200,230,171,230,76,104,56,84,121,171,137,33,88,6,165,189,214],"subject_pair":114,"STUDY_ID":"669eec2e4270c76bc184a38e","PROLIFIC_PID":"666c0088634cc2e1573b49ee","SESSION_ID":"669fe68c86f8c2cac282272f","practice_instructions":1,"leaderboard_instructions":0,"bonus":0,"reveal_word":false,"self_rating":"4","confidence":"69"},{"view_history":"[{\"page_index\":0,\"viewing_time\":7463}]","rt":7463,"trial_type":"instructions","trial_index":11,"time_elapsed":108044,"internal_node_id":"0.0-12.0-0.0","protocol_sum":"","subject_identifier":228,"subject_sum":[159,31,157,206,49,156,71,0,239,40,236,140,83,189,60,200,230,171,230,76,104,56,84,121,171,137,33,88,6,165,189,214],"subject_pair":114,"STUDY_ID":"669eec2e4270c76bc184a38e","PROLIFIC_PID":"666c0088634cc2e1573b49ee","SESSION_ID":"669fe68c86f8c2cac282272f","practice_instructions":1,"leaderboard_instructions":0,"bonus":0,"reveal_word":false,"self_rating":"4","confidence":"69"},{"word":"THIRTY FOUR","click_log":{"letter":["","T","Y","W","H","R","I","O","U","F"],"t":[0,7141,10239,14339,21104,25087,27836,31252,33802,35719],"hit":[null,2,1,0,1,2,1,1,1,1],"asked":["","T","TY","TYW","TYWH","TYWHR","TYWHRI","TYWHRIO","TYWHRIOU","TYWHRIOUF"],"word_state":["______ ____","T___T_ ____","T___TY ____","T___TY ____","TH__TY ____","TH_RTY ___R","THIRTY ___R","THIRTY _O_R","THIRTY _OUR","THIRTY FOUR"]},"hover_log":{"letter":["?","?","?","?","?","?","?","?","?","?","?","?","?","?","?","?","?","?","?","?","?","?","?","?","?","?","?","?","?","?","?","?","?","?","?","?","?","?","?","?","?","?","?","?","?","?","?","?","?","?","?","?","?","?","?","?","?","?","?","?","?","?","?","?","?","?","?","?","?","?","?","?","?","?","?","?","?","?","?","?","?","?","?","?","?","?","?","?","?","?","?","?","?","?","?","?","?","?","?","?","?","?","?","?","?","?","?","?","?","?","?","?","?","?","?","?","?","?","?","?","?","?","?","?","?","?","?","?","?","?","?","?","?","?","?","?","?","?","?","?","?","?","?","?","?","?","?","?","?","?","?","?","?","?","?","?","?","?","?","?","?","?","?","?","?","?","?","?","?","?","?","?","?","?","?","?","?","?","?","?","?","?","?","?","?","?","?","?","?","?","?","?","?","?","?","?","?","?","?","?","?","?","?","?","?","?","?","?","?","?","?","?","?","?","?","?","?","?","?","?","?","?","?","?","?","?","?","?","?","?","?","?","?","?","?","?","?","?","?","?","?","?","?","?","?","?","?","?","?","?","?","?","?","?","?","?","?","?","?","?","?","?","?","?","?","?","?","?","?","?","?","?","?","?","?","?","?","?","?","?","?","?","?","?","?","?","?","?","?","?","?","?","?","?","?","?","?","?","?","?","?","?","?","?","?","?","?","?","?","?","?","?","?","?","?","?","?","?","?","?","?","?","?","?","?","?","?","?","?","?","?","?","?","?","?","?","?","?","?","?","?","?","?","?","?","?","?","?","?","?","?","?","?","?","?","?","?","?","?","?","?","?","?","?","?","?","?","?","?","?","?","?","?","?","?","?","?","?","?","?","?","?","?","?","?","?","?","?","?","?","?","?","?","?","?","?","?","?","?","?","?","?","?","?","?","?","?","?","?","?","?","?","?","?","?","?","?","?","?","?","?","?","?","?","?","?","?","?","?","?","?","?","?","?","?","?","?","?","?","?","?","?","?","?","?","?","?","?","?","?","?","?","?","?","?","?","?","?","?","?","?","?","?","?","?","?","?","?","?","?","?","?","?","?","?","?","?","?","?","?","?","?","?","?","?","?","?","?","?","?","?","?","?","?","?","?","?","?","?","?","?","?","?","?","?","?","?","?","?","?","?","?","?","?","?","?","?","?","?","?","?","?","?","?","?","?","?","?","?","?","?","?","?","?","?","?","?","?","?","?","?","?","?","?","?","?","?","?","?","?","?","?","?","?","?","?","?","?","?","?","?","?","?","?","?","?","?","?","?","?","?","?","?","?","?","?","?","?","?","?","?","?","?","?","?","?","?","?","?","?","?","?","?","?","?","?","?","?","?","?","?","?","?","?","?","?","?","?","?","?","?","?","?","?","?","?","?","?","?","?","?","?","?","?","?","?","?","?","?","?","?","?","?","?","?","?","?","?","?","?","?","?","?","?","?","?","?","?","?","?","?","?","?","?","?","?","?","?","?","?","?","?","?","?","?","?","?","?","?","?","?","?","?","?","?","?","?","?","?","?","?","?","?","?","?","?","?","?","?","?","?","?","?","?","?","?","?","?","?","?","?","?","?","?","?","?","?","?","?","?","?","?","?","?","?","?","?","?","?","?","?","?","?","?","?","?","?","?","?","?","?","?","?","?","?","?","?","?","?","?","?","?","?","?","?","?","?","?","?","?","?","?","?","?","?","?","?","?","?","?","?","?","?","?","?","?","?","?","?","?","?","?","?","?","?","?","?","?","?","?","?","?","?","?","?","?","?","?","?","?","?","?","?","?","?","?","?","?","?","?","?","?","?","?","?","?","?","?","?","?","?","?","?","?","?","?","?","?","?","?","?","?","?","?","?","?","?","?","?","?","?","?","?","?","?","?","?","?","?","?","?","?","?","?","?","?","?","?","?","?","?","?","?","?","?","?","?","?","?","?","?","?","?","?","?","?","?","?","?","?","?","?","?","?","?","?","?","?","?","?","?","?","?","?","?","?","?","?","?","?","?","?","?","?","?","?","?","?","?","?","?","?","?","?","?","?","?","?","?","?","?","?","?","?","?","?","?","?","?","?","?","?","?","?","?","?","?","?","?","?","?","?","?","?","?","?","?","?","?","?","?","?","?","?","?","?","?","?","?","?","?","?","?","?","?","?","?","?","?","?","?","?","?","?","?","?","?","?","?","?","?","?","?","?","?","?","?","?","?","?","?","?","?","?","?","?","?","?","?","?","?","?","?","?","?","?","?","?","?","?","?","?","?","?","?","?","?","?","?","?","?","?","?","?","?","?","?","?","?","?","?","?","?","?","?","?","?","?","?","?","?","?","?","?","?","?","?","?","?","?","?","?","?","?","?","?","?","?","?","?","?","?","?","?","?","?","?","?","?","?","?","?","?","?","?","?","?","?","?","?","?","?","?","?","?","?","?","?","?","?","?","?","?","?","?","?","?","?","?","?","?","?","?","?","?","?","?","?","?","?","?","?","?","?","?","?","?","?","?","?","?","?","?","?","?","?","?","?","?","?","?","?","?","?","?","?","?","?","?","?","?","?","?","?","?","?","?","?","?","?","?","?","?","?","?","?","?","?","?","?","?","?","?","?","?","?","?","?","?","?","?","?","?","?","?","?","?","?","?","?","?","?","?","?","?","?","?","?","?","?","?","?","?","?","?","?","?","?","?","?","?","?","?","?","?","?","?","?","?","?","?","?","?","?","?","?","?","?","?","?","?","?","?","?","?","?","?","?","?","?","?","?","?","?","?","?","?","?","?","?","?","?","?","?","?","?","?","?","?","?","?","?","?","?","?","?","?","?","?","?","?","?","?","?","?","?","?","?","?","?","?","?","?","?","?","?","?","?","?","?","?","?","?","?","?","?","?","?","?","?","?","?","?","?","?","?","?","?","?","?","?","?","S","?","?","?","?","?","?","?","?","?","?","?","?","?","?","?","?","?","?","?","?","?","?","?","?","?","S","?","?","?","?","?","?","?","?","?","?","?","?","?","?","?","?","?","?","?","?","?","?","?","?","?","S","?","?","?","?","?","?","?","?","?","?","?","?","?","?","?","?","?","?","?","?","?","?","?","?","?","?","?","?","?","?","?","?","?","?","?","?","?","?","?","?","?","?","?","?","?","?","?","?","?","?","?","?","?","?","?","?","?","?","?","?","?","?","?","?","?","?","?","?","?","?","?","?","?","?","?","?","?","?","?","?","?","?","?","?","?","?","?","?","?","?","?","?","?","?","?","?","?","?","?","?","?","?","?","?","?","?","?","?","?","?","?","?","?","?","?","?","?","?","?","?","?","?","?","?","?","?","?","?","?","?","?","?","?","?","?","?","?","?","?","?","?","?","?","?","?","?","?","?","?","?","?","?","?","?","?","?","?","?","?","?","?","?","?","?","?","?","?","?","?","?","?","?","?","?","?","?","?","?","?","?","?","?","?","?","?","?","?","?","?","?","?","?","?","?","?","?","?","?","?","?","?","?","?","?","?","?","?","?","?","?","?","?","?","?","?","?","?","?","?","?","?","?","?","?","?","?","?","?","?","?","?","?","?","?","?","?","?","?","?","?","?","?","?","?","?","?","?","?","?","?","?","?","?","?","?","?","?","?","?","?","?","?","?","?","?","?","?","?","?","?","?","?","?","?","?","?","?","?","?","?","?","?","?","?","?","?","?","?","?","?","?","?","?","?","?","?","?","?","?","?","?","?","?","?","?","?","?","?","?","?","?","?","?","?","?","?","?","?","?","?","?","?","?","?","?","?","?","?","?","?","?","?","?","?","?","?","?","?","?","?","?","?","?","?","?","?","?","?","?","?","?","?","?","?","?","?","?","?","?","?","?","?","?","?","?","?","?","?","?","?","?","?","?","?","?","?","?","?","?","?","?","?","?","?","?","?","?","?","?","?","?","?","?","?","?","?","?","?","?","?","?","?","?","?","?","?","?","?","?","?","?","?","?","?","?","?","?","?","?","?","?","?","?","?","?","?","?","?","?","?","?","?","?","?","?","?","?","?","?","?","?","?","?","?","?","?","?","?","?","?","?","?","?","?","?","?","?","?","?","?","?","?","?","?","?","?","?","?","?","?","?","?","?","?","?","?","?","?","?","?","?","?","?","?","?","?","?","?","?","?","?","?","?","?","?","?","?","?","?","?","?","?","?","?","?","?","?","?","?","?","?","?","?","?","?","?","?","?","?","?","?","?","?","?","?","?","?","?","?","?","?","?","?","?","?","?","?","?","?","?","?","?","?","?","?","?","?","?","?","?","?","?","?","?","?","?","?","?","?","?","?","?","?","?","?","?","?","?","?","?","?","?","?","?","?","?","?","?","?","?","?","?","?",