"success","trial_type","trial_index","time_elapsed","internal_node_id","protocol_sum","subject_identifier","subject_sum","subject_pair","STUDY_ID","PROLIFIC_PID","SESSION_ID","practice_instructions","leaderboard_instructions","bonus","reveal_word","self_rating","confidence","view_history","rt","responses","question_order","correct","test_part","word","final_keyboard_state","num_clicks","points","cheat","response","position_RT","position","player","i_game","true_position","distance","last_word","stimulus","confidence_slider_self_response"
"true","fullscreen",0,5259,"0.0-0.0",NA,21,"74,68,220,21,54,66,4,168,15,232,14,144,57,69,92,193,96,130,129,130,15,226,178,79,30,82,51,173,230,175,29,213",10,"669a58f4f17d67c0aba4c4d3","5589565cfdf99b6bd06016dc","669a5eba8f75d5d46fa21d4a",1,0,0,"true",4,18,"",NA,"","","","","","",NA,NA,"","",NA,NA,NA,NA,NA,NA,"","",NA
"","instructions",1,9497,"0.0-1.0",NA,21,"74,68,220,21,54,66,4,168,15,232,14,144,57,69,92,193,96,130,129,130,15,226,178,79,30,82,51,173,230,175,29,213",10,"669a58f4f17d67c0aba4c4d3","5589565cfdf99b6bd06016dc","669a5eba8f75d5d46fa21d4a",1,0,0,"true",4,18,"[{""page_index"":0,""viewing_time"":4237.100000008941}]",4237.5,"","","","","","",NA,NA,"","",NA,NA,NA,NA,NA,NA,"","",NA
"","instructions",2,36889,"0.0-2.0-0.0",NA,21,"74,68,220,21,54,66,4,168,15,232,14,144,57,69,92,193,96,130,129,130,15,226,178,79,30,82,51,173,230,175,29,213",10,"669a58f4f17d67c0aba4c4d3","5589565cfdf99b6bd06016dc","669a5eba8f75d5d46fa21d4a",1,0,0,"true",4,18,"[{""page_index"":0,""viewing_time"":27391}]",27391.299999997,"","","","","","",NA,NA,"","",NA,NA,NA,NA,NA,NA,"","",NA
"","survey-multi-choice",3,44353,"0.0-2.0-1.0",NA,21,"74,68,220,21,54,66,4,168,15,232,14,144,57,69,92,193,96,130,129,130,15,226,178,79,30,82,51,173,230,175,29,213",10,"669a58f4f17d67c0aba4c4d3","5589565cfdf99b6bd06016dc","669a5eba8f75d5d46fa21d4a",1,0,0,"true",4,18,"",7463.5,"{""Q0"":""... reveal the word with as <b>few letter guesses</b> as possible""}","[0]","true","multichoice_nonpretend","","",NA,NA,"","",NA,NA,NA,NA,NA,NA,"","",NA
"","instructions",4,46233,"0.0-3.0",NA,21,"74,68,220,21,54,66,4,168,15,232,14,144,57,69,92,193,96,130,129,130,15,226,178,79,30,82,51,173,230,175,29,213",10,"669a58f4f17d67c0aba4c4d3","5589565cfdf99b6bd06016dc","669a5eba8f75d5d46fa21d4a",1,0,0,"true",4,18,"[{""page_index"":0,""viewing_time"":1878.5999999940395}]",1878.79999999702,"","","","","","",NA,NA,"","",NA,NA,NA,NA,NA,NA,"","",NA
"","Hangman",5,99552,"0.0-4.0",NA,21,"74,68,220,21,54,66,4,168,15,232,14,144,57,69,92,193,96,130,129,130,15,226,178,79,30,82,51,173,230,175,29,213",10,"669a58f4f17d67c0aba4c4d3","5589565cfdf99b6bd06016dc","669a5eba8f75d5d46fa21d4a",1,0,0,"true",4,18,"",NA,"","","","","ZEBRA","A,E,H,N,S,T,C,O,R,P,L,F,W,J,B,Z",16,4,"false","",NA,NA,NA,NA,NA,NA,"","",NA
"","instructions",6,119697,"0.0-5.0",NA,21,"74,68,220,21,54,66,4,168,15,232,14,144,57,69,92,193,96,130,129,130,15,226,178,79,30,82,51,173,230,175,29,213",10,"669a58f4f17d67c0aba4c4d3","5589565cfdf99b6bd06016dc","669a5eba8f75d5d46fa21d4a",1,0,0,"true",4,18,"[{""page_index"":0,""viewing_time"":2543.5},{""page_index"":1,""viewing_time"":17599.90000000596}]",20143.900000006,"","","","","","",NA,NA,"","",NA,NA,NA,NA,NA,NA,"","",NA
"","survey-multi-choice",7,132857,"0.0-6.0",NA,21,"74,68,220,21,54,66,4,168,15,232,14,144,57,69,92,193,96,130,129,130,15,226,178,79,30,82,51,173,230,175,29,213",10,"669a58f4f17d67c0aba4c4d3","5589565cfdf99b6bd06016dc","669a5eba8f75d5d46fa21d4a",1,0,0,"true",4,18,"",13159.200000003,"{""Q0"":""...from <b>a previous session</b> that is part of the upcoming tournament.""}","[0]","false","multichoice_leaderboard","","",NA,NA,"","",NA,NA,NA,NA,NA,NA,"","",NA
"","instructions",8,135201,"0.0-7.0-0.0",NA,21,"74,68,220,21,54,66,4,168,15,232,14,144,57,69,92,193,96,130,129,130,15,226,178,79,30,82,51,173,230,175,29,213",10,"669a58f4f17d67c0aba4c4d3","5589565cfdf99b6bd06016dc","669a5eba8f75d5d46fa21d4a",1,0,0,"true",4,18,"[{""page_index"":0,""viewing_time"":2343.1000000089407}]",2343.20000000298,"","","","","","",NA,NA,"","",NA,NA,NA,NA,NA,NA,"","",NA
"","survey-multi-choice",9,150817,"0.0-7.0-1.0",NA,21,"74,68,220,21,54,66,4,168,15,232,14,144,57,69,92,193,96,130,129,130,15,226,178,79,30,82,51,173,230,175,29,213",10,"669a58f4f17d67c0aba4c4d3","5589565cfdf99b6bd06016dc","669a5eba8f75d5d46fa21d4a",1,0,0,"true",4,18,"",15615.5,"{""Q0"":""...from <b>a previous session</b> that is not part of the upcoming tournament.""}","[0]","true","multichoice_leaderboard","","",NA,NA,"","",NA,NA,NA,NA,NA,NA,"","",NA
"","instructions",10,164897,"0.0-8.0",NA,21,"74,68,220,21,54,66,4,168,15,232,14,144,57,69,92,193,96,130,129,130,15,226,178,79,30,82,51,173,230,175,29,213",10,"669a58f4f17d67c0aba4c4d3","5589565cfdf99b6bd06016dc","669a5eba8f75d5d46fa21d4a",1,0,0,"true",4,18,"[{""page_index"":0,""viewing_time"":14078.59999999404}]",14078.799999997,"","","","","","",NA,NA,"","",NA,NA,NA,NA,NA,NA,"","",NA
"","survey-multi-choice",11,179858,"0.0-9.0",NA,21,"74,68,220,21,54,66,4,168,15,232,14,144,57,69,92,193,96,130,129,130,15,226,178,79,30,82,51,173,230,175,29,213",10,"669a58f4f17d67c0aba4c4d3","5589565cfdf99b6bd06016dc","669a5eba8f75d5d46fa21d4a",1,0,0,"true",4,18,"",14959.700000003,"{""Q0"":""...players' leaderboard position (in terms of <b>points</b>) in an <b>upcoming tournament.</b>""}","[0]","true","multichoice_tournament","","",NA,NA,"","",NA,NA,NA,NA,NA,NA,"","",NA
"","instructions",12,194929,"0.0-11.0",NA,21,"74,68,220,21,54,66,4,168,15,232,14,144,57,69,92,193,96,130,129,130,15,226,178,79,30,82,51,173,230,175,29,213",10,"669a58f4f17d67c0aba4c4d3","5589565cfdf99b6bd06016dc","669a5eba8f75d5d46fa21d4a",1,0,0,"true",4,18,"[{""page_index"":0,""viewing_time"":15070.60000000894}]",15070.700000003,"","","","","","",NA,NA,"","",NA,NA,NA,NA,NA,NA,"","",NA
"","instructions",13,224193,"0.0-12.0-0.0",NA,21,"74,68,220,21,54,66,4,168,15,232,14,144,57,69,92,193,96,130,129,130,15,226,178,79,30,82,51,173,230,175,29,213",10,"669a58f4f17d67c0aba4c4d3","5589565cfdf99b6bd06016dc","669a5eba8f75d5d46fa21d4a",1,0,0,"true",4,18,"[{""page_index"":0,""viewing_time"":29263.29999999702}]",29263.5,"","","","","","",NA,NA,"","",NA,NA,NA,NA,NA,NA,"","",NA
"","type-this",14,232911,"0.0-12.0-1.0",NA,21,"74,68,220,21,54,66,4,168,15,232,14,144,57,69,92,193,96,130,129,130,15,226,178,79,30,82,51,173,230,175,29,213",10,"669a58f4f17d67c0aba4c4d3","5589565cfdf99b6bd06016dc","669a5eba8f75d5d46fa21d4a",1,0,0,"true",4,18,"",8214.90000000596,"KENTUCKY","","","","","",NA,NA,"","KENTUCKY",NA,NA,NA,NA,NA,NA,"","",NA
"","Hangman_replay",15,291142,"0.0-12.0-2.0",NA,21,"74,68,220,21,54,66,4,168,15,232,14,144,57,69,92,193,96,130,129,130,15,226,178,79,30,82,51,173,230,175,29,213",10,"669a58f4f17d67c0aba4c4d3","5589565cfdf99b6bd06016dc","669a5eba8f75d5d46fa21d4a",1,0,0,"true",4,18,"",NA,"","","","","KENTUCKY","A,I,E,K,N,T,U,C,Y",9,13,"false","",NA,NA,NA,NA,NA,NA,"","",NA
"","instructions",16,294825,"0.0-12.0-3.0",NA,21,"74,68,220,21,54,66,4,168,15,232,14,144,57,69,92,193,96,130,129,130,15,226,178,79,30,82,51,173,230,175,29,213",10,"669a58f4f17d67c0aba4c4d3","5589565cfdf99b6bd06016dc","669a5eba8f75d5d46fa21d4a",1,0,0,"true",4,18,"[{""page_index"":0,""viewing_time"":3682.4000000059605}]",3682.70000000298,"","","","","","",NA,NA,"","",NA,NA,NA,NA,NA,NA,"","",NA
"","Guess_leaderboard",17,307157,"0.0-12.0-4.0",NA,21,"74,68,220,21,54,66,4,168,15,232,14,144,57,69,92,193,96,130,129,130,15,226,178,79,30,82,51,173,230,175,29,213",10,"669a58f4f17d67c0aba4c4d3","5589565cfdf99b6bd06016dc","669a5eba8f75d5d46fa21d4a",1,0,0,"true",4,18,"",NA,"","","","","KENTUCKY","",NA,NA,"","",11564.599999994,35,5,0,8,27,"","",NA
"","instructions",18,317576,"0.0-12.0-0.1",NA,21,"74,68,220,21,54,66,4,168,15,232,14,144,57,69,92,193,96,130,129,130,15,226,178,79,30,82,51,173,230,175,29,213",10,"669a58f4f17d67c0aba4c4d3","5589565cfdf99b6bd06016dc","669a5eba8f75d5d46fa21d4a",1,0,0,"true",4,18,"[{""page_index"":0,""viewing_time"":10418.09999999404}]",10418.200000003,"","","","","","",NA,NA,"","",NA,NA,NA,NA,NA,NA,"","",NA
"","type-this",19,322933,"0.0-12.0-1.1",NA,21,"74,68,220,21,54,66,4,168,15,232,14,144,57,69,92,193,96,130,129,130,15,226,178,79,30,82,51,173,230,175,29,213",10,"669a58f4f17d67c0aba4c4d3","5589565cfdf99b6bd06016dc","669a5eba8f75d5d46fa21d4a",1,0,0,"true",4,18,"",4855.19999998808,"SHAKIRA","","","","","",NA,NA,"","SHAKIRA",NA,NA,NA,NA,NA,NA,"","",NA
"","Hangman_replay",20,355994,"0.0-12.0-2.1",NA,21,"74,68,220,21,54,66,4,168,15,232,14,144,57,69,92,193,96,130,129,130,15,226,178,79,30,82,51,173,230,175,29,213",10,"669a58f4f17d67c0aba4c4d3","5589565cfdf99b6bd06016dc","669a5eba8f75d5d46fa21d4a",1,0,0,"true",4,18,"",NA,"","","","","SHAKIRA","E,A,S,H,K,I,R",7,14,"false","",NA,NA,NA,NA,NA,NA,"","",NA
"","instructions",21,357769,"0.0-12.0-3.1",NA,21,"74,68,220,21,54,66,4,168,15,232,14,144,57,69,92,193,96,130,129,130,15,226,178,79,30,82,51,173,230,175,29,213",10,"669a58f4f17d67c0aba4c4d3","5589565cfdf99b6bd06016dc","669a5eba8f75d5d46fa21d4a",1,0,0,"true",4,18,"[{""page_index"":0,""viewing_time"":1774.5999999940395}]",1774.89999999106,"","","","","","",NA,NA,"","",NA,NA,NA,NA,NA,NA,"","",NA
"","Guess_leaderboard",22,361409,"0.0-12.0-4.1",NA,21,"74,68,220,21,54,66,4,168,15,232,14,144,57,69,92,193,96,130,129,130,15,226,178,79,30,82,51,173,230,175,29,213",10,"669a58f4f17d67c0aba4c4d3","5589565cfdf99b6bd06016dc","669a5eba8f75d5d46fa21d4a",1,0,0,"true",4,18,"",NA,"","","","","SHAKIRA","",NA,NA,"","",2886.40000000596,15,11,1,19,4,"","",NA
"","instructions",23,383049,"0.0-12.0-0.2",NA,21,"74,68,220,21,54,66,4,168,15,232,14,144,57,69,92,193,96,130,129,130,15,226,178,79,30,82,51,173,230,175,29,213",10,"669a58f4f17d67c0aba4c4d3","5589565cfdf99b6bd06016dc","669a5eba8f75d5d46fa21d4a",1,0,0,"true",4,18,"[{""page_index"":0,""viewing_time"":21639}]",21639.200000003,"","","","","","",NA,NA,"","",NA,NA,NA,NA,NA,NA,"","",NA
"","type-this",24,389110,"0.0-12.0-1.2",NA,21,"74,68,220,21,54,66,4,168,15,232,14,144,57,69,92,193,96,130,129,130,15,226,178,79,30,82,51,173,230,175,29,213",10,"669a58f4f17d67c0aba4c4d3","5589565cfdf99b6bd06016dc","669a5eba8f75d5d46fa21d4a",1,0,0,"true",4,18,"",5559.5,"THIRTY FOUR","","","","","",NA,NA,"","THIRTY FOUR",NA,NA,NA,NA,NA,NA,"","",NA
"","Hangman_replay",25,432646,"0.0-12.0-2.2",NA,21,"74,68,220,21,54,66,4,168,15,232,14,144,57,69,92,193,96,130,129,130,15,226,178,79,30,82,51,173,230,175,29,213",10,"669a58f4f17d67c0aba4c4d3","5589565cfdf99b6bd06016dc","669a5eba8f75d5d46fa21d4a",1,0,0,"true",4,18,"",NA,"","","","","THIRTY FOUR","E,A,S,N,I,R,T,H,Y,F,O,U",12,11,"false","",NA,NA,NA,NA,NA,NA,"","",NA
"","instructions",26,436177,"0.0-12.0-3.2",NA,21,"74,68,220,21,54,66,4,168,15,232,14,144,57,69,92,193,96,130,129,130,15,226,178,79,30,82,51,173,230,175,29,213",10,"669a58f4f17d67c0aba4c4d3","5589565cfdf99b6bd06016dc","669a5eba8f75d5d46fa21d4a",1,0,0,"true",4,18,"[{""page_index"":0,""viewing_time"":3530.2000000029802}]",3530.5,"","","","","","",NA,NA,"","",NA,NA,NA,NA,NA,NA,"","",NA
"","Guess_leaderboard",27,441727,"0.0-12.0-4.2",NA,21,"74,68,220,21,54,66,4,168,15,232,14,144,57,69,92,193,96,130,129,130,15,226,178,79,30,82,51,173,230,175,29,213",10,"669a58f4f17d67c0aba4c4d3","5589565cfdf99b6bd06016dc","669a5eba8f75d5d46fa21d4a",1,0,0,"true",4,18,"",NA,"","","","","THIRTY FOUR","",NA,NA,"","",4781,81,81,2,65,16,"","",NA
"","instructions",28,454497,"0.0-12.0-0.3",NA,21,"74,68,220,21,54,66,4,168,15,232,14,144,57,69,92,193,96,130,129,130,15,226,178,79,30,82,51,173,230,175,29,213",10,"669a58f4f17d67c0aba4c4d3","5589565cfdf99b6bd06016dc","669a5eba8f75d5d46fa21d4a",1,0,0,"true",4,18,"[{""page_index"":0,""viewing_time"":12768.20000000298}]",12768.3000000119,"","","","","","",NA,NA,"","",NA,NA,NA,NA,NA,NA,"","",NA
"","type-this",29,460853,"0.0-12.0-1.3",NA,21,"74,68,220,21,54,66,4,168,15,232,14,144,57,69,92,193,96,130,129,130,15,226,178,79,30,82,51,173,230,175,29,213",10,"669a58f4f17d67c0aba4c4d3","5589565cfdf99b6bd06016dc","669a5eba8f75d5d46fa21d4a",1,0,0,"true",4,18,"",5855,"NECTARINE","","","","","",NA,NA,"","NECTARINE",NA,NA,NA,NA,NA,NA,"","",NA
"","Hangman_replay",30,480746,"0.0-12.0-2.3",NA,21,"74,68,220,21,54,66,4,168,15,232,14,144,57,69,92,193,96,130,129,130,15,226,178,79,30,82,51,173,230,175,29,213",10,"669a58f4f17d67c0aba4c4d3","5589565cfdf99b6bd06016dc","669a5eba8f75d5d46fa21d4a",1,0,0,"true",4,18,"",NA,"","","","","NECTARINE","B,A,N,R,S,T,L,E,C,I",10,12,"false","",NA,NA,NA,NA,NA,NA,"","",NA
"","instructions",31,482457,"0.0-12.0-3.3",NA,21,"74,68,220,21,54,66,4,168,15,232,14,144,57,69,92,193,96,130,129,130,15,226,178,79,30,82,51,173,230,175,29,213",10,"669a58f4f17d67c0aba4c4d3","5589565cfdf99b6bd06016dc","669a5eba8f75d5d46fa21d4a",1,0,0,"true",4,18,"[{""page_index"":0,""viewing_time"":1709.5999999940395}]",1709.79999999702,"","","","","","",NA,NA,"","",NA,NA,NA,NA,NA,NA,"","",NA
"","Guess_leaderboard",32,489978,"0.0-12.0-4.3",NA,21,"74,68,220,21,54,66,4,168,15,232,14,144,57,69,92,193,96,130,129,130,15,226,178,79,30,82,51,173,230,175,29,213",10,"669a58f4f17d67c0aba4c4d3","5589565cfdf99b6bd06016dc","669a5eba8f75d5d46fa21d4a",1,0,0,"true",4,18,"",NA,"","","","","NECTARINE","",NA,NA,"","",6758.70000000298,33,33,3,72,39,"","",NA
"","instructions",33,496448,"0.0-12.0-0.4",NA,21,"74,68,220,21,54,66,4,168,15,232,14,144,57,69,92,193,96,130,129,130,15,226,178,79,30,82,51,173,230,175,29,213",10,"669a58f4f17d67c0aba4c4d3","5589565cfdf99b6bd06016dc","669a5eba8f75d5d46fa21d4a",1,0,0,"true",4,18,"[{""page_index"":0,""viewing_time"":6469.20000000298}]",6469.40000000596,"","","","","","",NA,NA,"","",NA,NA,NA,NA,NA,NA,"","",NA
"","type-this",34,501127,"0.0-12.0-1.4",NA,21,"74,68,220,21,54,66,4,168,15,232,14,144,57,69,92,193,96,130,129,130,15,226,178,79,30,82,51,173,230,175,29,213",10,"669a58f4f17d67c0aba4c4d3","5589565cfdf99b6bd06016dc","669a5eba8f75d5d46fa21d4a",1,0,0,"true",4,18,"",4175.20000000298,"THUMB","","","","","",NA,NA,"","THUMB",NA,NA,NA,NA,NA,NA,"","",NA
"","Hangman_replay",35,552982,"0.0-12.0-2.4",NA,21,"74,68,220,21,54,66,4,168,15,232,14,144,57,69,92,193,96,130,129,130,15,226,178,79,30,82,51,173,230,175,29,213",10,"669a58f4f17d67c0aba4c4d3","5589565cfdf99b6bd06016dc","669a5eba8f75d5d46fa21d4a",1,0,0,"true",4,18,"",NA,"","","","","THUMB","A,I,E,O,U,T,R,H,M,B",10,10,"false","",NA,NA,NA,NA,NA,NA,"","",NA
"","instructions",36,560249,"0.0-12.0-3.4",NA,21,"74,68,220,21,54,66,4,168,15,232,14,144,57,69,92,193,96,130,129,130,15,226,178,79,30,82,51,173,230,175,29,213",10,"669a58f4f17d67c0aba4c4d3","5589565cfdf99b6bd06016dc","669a5eba8f75d5d46fa21d4a",1,0,0,"true",4,18,"[{""page_index"":0,""viewing_time"":7265.9000000059605}]",7266.29999999702,"","","","","","",NA,NA,"","",NA,NA,NA,NA,NA,NA,"","",NA
"","Guess_leaderboard",37,568897,"0.0-12.0-4.4",NA,21,"74,68,220,21,54,66,4,168,15,232,14,144,57,69,92,193,96,130,129,130,15,226,178,79,30,82,51,173,230,175,29,213",10,"669a58f4f17d67c0aba4c4d3","5589565cfdf99b6bd06016dc","669a5eba8f75d5d46fa21d4a",1,0,0,"true",4,18,"",NA,"","","","","THUMB","",NA,NA,"","",7892.79999999702,81,84,4,28,53,"","",NA
"","survey-text",38,574953,"0.0-13.0",NA,21,"74,68,220,21,54,66,4,168,15,232,14,144,57,69,92,193,96,130,129,130,15,226,178,79,30,82,51,173,230,175,29,213",10,"669a58f4f17d67c0aba4c4d3","5589565cfdf99b6bd06016dc","669a5eba8f75d5d46fa21d4a",1,0,0,"true",4,18,"",6054.80000001192,"{""Q0"":""THUMB""}","","","","","",NA,NA,"","",NA,NA,NA,NA,NA,NA,"thumb","",NA
"","survey-multi-choice",39,590393,"0.0-14.0",NA,21,"74,68,220,21,54,66,4,168,15,232,14,144,57,69,92,193,96,130,129,130,15,226,178,79,30,82,51,173,230,175,29,213",10,"669a58f4f17d67c0aba4c4d3","5589565cfdf99b6bd06016dc","669a5eba8f75d5d46fa21d4a",1,0,0,"true",4,18,"",15438.900000006,"{""Q0"":""4. I would be <b>fourth</b> out of the six of us.""}","[0]","","self-rating","","",NA,NA,"","",NA,4,NA,NA,NA,NA,"","",NA
"","html-slider-response",40,595833,"0.0-15.0",NA,21,"74,68,220,21,54,66,4,168,15,232,14,144,57,69,92,193,96,130,129,130,15,226,178,79,30,82,51,173,230,175,29,213",10,"669a58f4f17d67c0aba4c4d3","5589565cfdf99b6bd06016dc","669a5eba8f75d5d46fa21d4a",1,0,0,"true",4,18,"",5438.29999999702,"","","","","","",NA,NA,"","18",NA,NA,NA,NA,NA,NA,"","<p>Overall, how confident were you in your answer to this last question?</p>",18
"","survey-text",41,619793,"0.0-16.0",NA,21,"74,68,220,21,54,66,4,168,15,232,14,144,57,69,92,193,96,130,129,130,15,226,178,79,30,82,51,173,230,175,29,213",10,"669a58f4f17d67c0aba4c4d3","5589565cfdf99b6bd06016dc","669a5eba8f75d5d46fa21d4a",1,0,0,"true",4,18,"",23958.5,"{""Q0"":""I think to evaluate my performance compared to others?""}","","","","","",NA,NA,"","",NA,NA,NA,NA,NA,NA,"","",NA
"","survey-text",42,635760,"0.0-17.0",NA,21,"74,68,220,21,54,66,4,168,15,232,14,144,57,69,92,193,96,130,129,130,15,226,178,79,30,82,51,173,230,175,29,213",10,"669a58f4f17d67c0aba4c4d3","5589565cfdf99b6bd06016dc","669a5eba8f75d5d46fa21d4a",1,0,0,"true",4,18,"",15966.700000003,"{""Q0"":""I wish I could have played.  I enjoyed this task.  Thank you. ""}","","","","","",NA,NA,"","",NA,NA,NA,NA,NA,NA,"","",NA
"","instructions",43,645712,"0.0-18.0",NA,21,"74,68,220,21,54,66,4,168,15,232,14,144,57,69,92,193,96,130,129,130,15,226,178,79,30,82,51,173,230,175,29,213",10,"669a58f4f17d67c0aba4c4d3","5589565cfdf99b6bd06016dc","669a5eba8f75d5d46fa21d4a",1,0,0,"true",4,18,"[{""page_index"":0,""viewing_time"":9951.29999999702}]",9951.39999999106,"","","","","","",NA,NA,"","",NA,NA,NA,NA,NA,NA,"","",NA
