[{"success":true,"trial_type":"fullscreen","trial_index":0,"time_elapsed":3157,"internal_node_id":"0.0-0.0","protocol_sum":"","subject_identifier":107,"subject_sum":[40,88,220,209,5,125,62,174,127,125,95,120,33,103,226,75,97,21,60,1,85,20,80,166,40,206,231,34,80,159,101,41],"subject_pair":53,"STUDY_ID":"669a702db1122fc5150a13ce","PROLIFIC_PID":"65a4333efc75f965e7fc0cb5","SESSION_ID":"669a8fa0dcf74dbfa31e26e7","practice_instructions":1,"leaderboard_instructions":1,"bonus":0,"reveal_word":true,"self_rating":"5","confidence":"61"},{"view_history":"[{\"page_index\":0,\"viewing_time\":9817.89999999851}]","rt":9818.19999999553,"trial_type":"instructions","trial_index":1,"time_elapsed":12975,"internal_node_id":"0.0-1.0","protocol_sum":"","subject_identifier":107,"subject_sum":[40,88,220,209,5,125,62,174,127,125,95,120,33,103,226,75,97,21,60,1,85,20,80,166,40,206,231,34,80,159,101,41],"subject_pair":53,"STUDY_ID":"669a702db1122fc5150a13ce","PROLIFIC_PID":"65a4333efc75f965e7fc0cb5","SESSION_ID":"669a8fa0dcf74dbfa31e26e7","practice_instructions":1,"leaderboard_instructions":1,"bonus":0,"reveal_word":true,"self_rating":"5","confidence":"61"},{"view_history":"[{\"page_index\":0,\"viewing_time\":8581.70000000298}]","rt":8581.90000000596,"trial_type":"instructions","trial_index":2,"time_elapsed":21558,"internal_node_id":"0.0-2.0-0.0","protocol_sum":"","subject_identifier":107,"subject_sum":[40,88,220,209,5,125,62,174,127,125,95,120,33,103,226,75,97,21,60,1,85,20,80,166,40,206,231,34,80,159,101,41],"subject_pair":53,"STUDY_ID":"669a702db1122fc5150a13ce","PROLIFIC_PID":"65a4333efc75f965e7fc0cb5","SESSION_ID":"669a8fa0dcf74dbfa31e26e7","practice_instructions":1,"leaderboard_instructions":1,"bonus":0,"reveal_word":true,"self_rating":"5","confidence":"61"},{"rt":7217.60000000149,"responses":"{\"Q0\":\"... reveal the word with as <b>few letter guesses</b> as possible\"}","question_order":"[0]","trial_type":"survey-multi-choice","trial_index":3,"time_elapsed":28777,"internal_node_id":"0.0-2.0-1.0","protocol_sum":"","subject_identifier":107,"subject_sum":[40,88,220,209,5,125,62,174,127,125,95,120,33,103,226,75,97,21,60,1,85,20,80,166,40,206,231,34,80,159,101,41],"subject_pair":53,"correct":true,"test_part":"multichoice_nonpretend","STUDY_ID":"669a702db1122fc5150a13ce","PROLIFIC_PID":"65a4333efc75f965e7fc0cb5","SESSION_ID":"669a8fa0dcf74dbfa31e26e7","practice_instructions":1,"leaderboard_instructions":1,"bonus":0,"reveal_word":true,"self_rating":"5","confidence":"61"},{"view_history":"[{\"page_index\":0,\"viewing_time\":829.1000000014901}]","rt":829.3999999985099,"trial_type":"instructions","trial_index":4,"time_elapsed":29606,"internal_node_id":"0.0-3.0","protocol_sum":"","subject_identifier":107,"subject_sum":[40,88,220,209,5,125,62,174,127,125,95,120,33,103,226,75,97,21,60,1,85,20,80,166,40,206,231,34,80,159,101,41],"subject_pair":53,"STUDY_ID":"669a702db1122fc5150a13ce","PROLIFIC_PID":"65a4333efc75f965e7fc0cb5","SESSION_ID":"669a8fa0dcf74dbfa31e26e7","practice_instructions":1,"leaderboard_instructions":1,"bonus":0,"reveal_word":true,"self_rating":"5","confidence":"61"},{"word":"ZEBRA","click_log":{"letter":["","A","E","F","H","R","N","M","L","K","Z","B"],"t":[0,2955.10000000149,6045.60000000149,10039.39999999851,25502.39999999851,26324.5,32987,34224.89999999851,36319.20000000298,36860.89999999851,40627.39999999851,41207.5],"hit":[null,1,1,0,0,1,0,0,0,0,1,1],"asked":["","A","AE","AEF","AEFH","AEFHR","AEFHRN","AEFHRNM","AEFHRNML","AEFHRNMLK","AEFHRNMLKZ","AEFHRNMLKZB"],"word_state":["_____","____A","_E__A","_E__A","_E__A","_E_RA","_E_RA","_E_RA","_E_RA","_E_RA","ZE_RA","ZEBRA"]},"hover_log":{"letter":["?","?","?","?","?","?","?","?","?","?","?","?","?","?","?","?","?","?","?","J","J","J","J","J","J","J","J","J","J","J","J","J","J","J","J","J","J","J","J","J","?","?","?","?","?","?","?","?","?","?","?","?","?","?","?","?","?","?","?","?","?","?","?","?","?","?","?","?","?","?","?","?","?","?","?","?","?","?","?","?","?","?","?","?","?","?","?","?","?","?","?","?","?","?","?","?","?","?","?","?","?","?","?","?","?","?","?","?","?","?","?","?","?","?","?","?","?","?","?","?","?","?","?","?","?","?","?","?","?","?","?","?","?","?","?","?","?","?","?","?","?","?","?","?","?","?","?","?","J","J","J","J","J","J","J","J","J","?","?","?","?","?","?","?","?","?","?","?","?","?","?","?","?","?","?","?","?","?","?","?","?","?","?","?","?","?","?","?","?","?","?","?","?","?","?","?","?","?","?","?","?","?","?","?","?","?","?","?","?","?","?","?","?","?","?","?","A","A","A","A","A","A","A","A","A","A","A","A","A","A","A","A","A","A","A","A","A","A","A","A","A","A","A","A","A","A","A","A","A","A","A","A","A","A","A","A","A","A","A","A","A","A","A","A","A","A","A","A","A","A","A","A","A","A","A","A","A","A","A","A","A","A","A","A","A","A","A","A","A","A","A","A","A","A","A","A","A","A","A","A","A","A","A","A","A","?","?","?","?","?","?","K","?","?","?","?","?","?","?","?","?","?","?","?","?","?","?","?","?","?","?","?","?","?","?","?","?","?","?","?","?","?","?","?","?","?","?","?","?","?","?","?","?","?","?","?","?","?","?","?","?","?","?","?","?","?","?","?","?","?","?","?","?","?","?","?","?","?","?","?","?","?","?","?","T","T","T","T","T","T","T","T","T","T","T","T","T","T","T","T","T","T","T","T","T","T","T","T","?","?","?","?","?","?","?","?","?","?","?","?","M","M","M","M","M","M","M","M","M","M","M","M","M","M","M","M","M","M","M","M","M","M","M","M","M","M","M","M","M","M","M","M","M","M","M","M","M","M","M","M","M","M","M","M","M","?","?","?","?","?","?","E","E","E","E","E","E","E","E","E","E","E","E","E","E","E","E","E","E","E","E","E","E","E","E","E","E","E","E","E","E","E","E","E","E","E","E","E","E","E","E","E","E","E","E","E","E","E","E","E","?","?","?","?","?","?","?","?","?","?","?","?","?","?","?","?","?","?","?","?","?","?","?","?","?","?","?","?","?","?","?","?","?","?","?","?","?","?","?","?","?","?","?","?","?","?","?","?","?","?","?","?","?","?","?","?","?","?","?","?","?","?","?","?","?","?","?","?","?","?","?","?","?","?","?","?","?","?","?","?","?","?","?","?","?","?","?","?","?","?","?","?","?","?","?","?","?","?","?","?","?","?","?","?","?","?","?","?","?","?","?","?","?","?","?","?","?","?","?","?","?","?","?","?","?","?","?","?","?","?","?","?","?","?","?","?","?","?","E","E","E","?","?","?","?","?","?","?","?","?","?","?","?","?","?","?","?","?","?","?","?","?","?","?","?","?","?","?","?","?","?","?","?","?","?","?","?","?","?","?","?","?","?","?","?","?","?","?","?","?","?","?","?","?","?","?","?","?","?","?","?","?","?","?","?","?","?","?","?","?","?","?","?","?","F","F","F","F","F","F","F","?","?","?","?","?","?","?","?","?","?","?","?","?","?","?","?","?","?","?","?","?","?","?","?","?","?","?","?","?","F","F","F","F","F","F","F","F","F","F","F","F","F","F","F","F","F","F","F","F","F","F","F","F","F","F","F","F","F","F","F","F","F","F","F","F","F","F","F","F","F","F","F","F","F","F","F","F","F","F","F","F","F","F","F","F","F","?","?","?","?","?","O","O","O","O","?","?","?","?","?","?","?","Y","Y","?","?","?","?","?","?","?","?","?","?","?","?","?","?","?","?","?","?","?","?","?","?","?","?","?","N","O","O","O","O","O","?","N","N","?","M","M","M","?","?","?","?","?","?","?","N","?","?","?","?","?","?","?","?","?","?","?","?","?","?","?","Q","?","?","?","?","?","?","?","O","?","?","?","?","?","?","?","?","?","?","?","?","?","?","?","?","?","?","?","?","?","?","?","?","?","?","?","?","?","?","?","?","?","?","?","?","?","?","?","?","?","?","?","?","?","?","?","?","?","?","?","?","?","?","?","?","?","?","?","?","?","?","?","?","?","?","?","?","?","?","?","?","?","?","?","?","?","?","?","?","?","?","?","?","?","?","?","?","?","?","?","?","?","?","?","?","?","?","?","?","?","?","?","?","?","?","?","?","?","?","?","?","?","?","?","?","?","?","?","?","?","?","?","?","?","?","?","?","?","?","?","?","?","?","?","?","?","?","?","?","?","?","?","?","?","?","?","?","?","?","?","?","?","?","?","?","?","?","?","?","?","?","?","?","?","?","?","?","?","?","?","?","?","?","?","?","?","?","?","?","?","?","?","?","?","?","?","?","?","?","?","?","?","?","?","?","?","?","?","?","?","?","?","?","?","?","?","?","?","?","?","?","?","?","?","?","?","?","?","?","?","?","?","?","?","?","?","?","?","?","?","?","?","?","?","?","?","?","?","?","?","?","?","?","?","?","?","?","?","?","?","?","?","?","?","?","?","?","?","?","?","?","?","?","?","?","?","?","?","?","?","?","?","?","?","?","?","?","?","?","?","?","?","?","?","?","?","?","?","?","?","?","?","?","?","?","?","?","?","?","?","?","?","?","?","?","?","?","?","?","?","?","?","?","?","?","?","?","?","?","?","?","?","?","?","?","?","?","?","?","?","?","?","?","?","?","?","?","?","?","?","?","?","?","?","?","?","?","?","?","?","?","?","?","?","?","?","?","?","?","?","?","?","?","?","?","?","?","?","?","?","?","?","?","?","?","?","?","?","?","?","?","?","?","?","?","?","?","?","?","?","?","?","?","?","?","?","?","?","?","?","?","?","?","?","?","?","?","?","?","?","?","?","?","?","?","?","?","?","?","?","?","?","?","?","?","?","?","?","?","?","?","?","?","?","?","?","?","?","?","?","?","?","?","?","?","?","?","?","?","?","?","?","?","?","?","?","?","?","?","?","?","?","?","?","?","?","?","?","?","?","?","?","?","?","?","?","?","?","?","?","?","?","?","?","?","?","?","?","?","?","?","?","?","?","?","?","?","?","?","?","?","?","?","?","?","?","?","?","?","?","?","?","?","?","?","?","?","?","?","?","?","?","?","?","?","?","?","?","?","?","?","?","?","?","?","?","?","?","?","?","?","?","?","?","?","?","?","?","?","?","?","?","?","?","?","?","?","?","?","?","?","?","?","?","?","?","?","?","?","?","?","?","?","?","?","?","?","?","?","?","?","?","?","?","?","?","?","?","?","G","G","G","G","?","H","H","H","H","H","H","H","H","H","H","H","H","H","H","H","H","H","H","H","H","?","?","?","?","?","?","?","?","?","?","?","?","Q","Q","Q","Q","Q","Q","Q","Q","Q","Q","Q","Q","Q","Q","Q","Q","Q","Q","?","?","H","H","H","H","H","H","H","H","H","H","H","H","H","H","H","H","H","H","H","H","H","H","?","?","?","?","R","R","?","?","?","?","?","?","?","?","?","?","?","?","?","?","?","?","?","?","?","?","?","?","?","W","W","?","?","?","?","?","V","?","?","?","?","?","?","?","?","?","?","?","?","?","?","?","?","?","?","?","?","?","?","?","?","?","?","?","?","?","?","?","?","?","?","?","K","K","K","K","K","K","K","K","K","K","?","?","L","L","?","?","M","?","?","?","?","?","?","?","?","?","?","?","?","?","?","?","?","?","?","?","?","?","?","?","?","?","?","?","?","?","?","?","?","?","?","?","?","?","?","?","G","G","G","G","G","G","G","G","G","G","G","G","G","G","G","G","G","?","?","?","H","H","H","H","H","H","H","H","H","H","H","H","H","H","H","H","H","H","H","H","H","H","H","H","H","H","H","H","H","H","H","H","H","H","H","H","H","H","H","H","H","H","H","H","H","H","H","H","H","H","H","H","H","H","H","H","H","H","H","H","H","H","H","H","H","H","H","H","H","H","H","H","H","H","H","H","H","H","H","H","H","H","H","H","H","H","H","H","H","H","H","H","H","H","H","H","H","H","H","H","H","H","H","H","H","H","H","H","H","H","H","H","H","H","H","H","H","H","H","H","H","H","H","H","H","H","H","H","H","H","H","H","H","H","H","H","H","H","H","H","H","H","H","H","H","H","H","H","H","H","H","H","H","H","H","H","H","H","H","H","H","H","H","H","H","H","H","H","H","H","H","H","H","H","H","H","H","H","H","H","H","H","H","H","H","H","H","H","H","H","H","H","H","H","H","H","H","H","H","H","H","H","H","H","H","H","H","H","H","?","?","?","?","?","?","?","?","?","?","?","?","?","?","?","?","?","?","?","?","?","?","?","?","?","?","?","?","?","?","?","?","?","?","?","?","?","?","?","?","?","?","?","?","?","?","?","?","?","?","?","?","?","?","?","?","H","H","H","H","H","H","H","H","H","H","H","H","H","H","H","H","H","H","H","H","H","H","H","H","H","H","H","H","H","H","H","H","H","H","H","H","H","H","H","H","H","H","H","H","H","H","H","H","H","H","H","H","H","H","H","H","H","H","H","H","H","H","?","?","?","?","?","?","?","?","?","?","?","?","?","?","R","R","R","R","R","?","?","?","?","?","?","?","?","?","?","R","R","R","R","R","R","R","R","R","R","R","R","R","R","R","R","R","R","R","R","R","R","R","R","R","R","R","R","R","R","R","R","R","R","R","R","R","R","R","R","R","R","R","R","R","R","R","R","R","R","R","R","R","R","R","R","R","R","R","R","R","R","R","R","R","R","R","R","R","R","R","R","R","R","R","R","R","R","R","R","R","R","R","R","R","R","R","R","R","R","R","R","R","R","R","R","R","R","R","R","R","R","R","R","R","R","R","R","R","R","R","R","R","R","R","R","R","R","R","R","R","R","R","R","R","R","R","R","R","R","R","R","R","R","R","R","R","R","R","R","R","R","R","R","R","R","R","R","R","R","R","R","R","R","R","R","R","R","R","R","R","R","R","R","R","R","R","R","R","R","R","R","R","R","R","R","R","R","R","R","R","R","R","R","R","R","R","R","R","R","R","R","R","R","R","R","R","R","R","R","R","R","R","R","R","R","R","R","R","R","R","R","R","R","R","R","R","R","R","R","R","R","R","R","R","R","R","R","R","R","R","R","R","R","R","R","R","R","R","R","R","R","R","R","R","R","R","R","R","R","R","R","R","R","R","R","R","R","R","R","R","R","R","R","R","R","R","R","R","R","R","R","R","R","R","R","R","R","R","R","R","R","R","R","R","R","R","R","R","R","R","R","R","R","R","R","R","R","R","R","R","R","R","R","R","R","R","R","R","R","R","R","R","R","R","R","R","R","R","R","R","R","R","R","R","R","R","R","R","R","R","R","R","R","R","R","R","R","R","R","R","R","R","R","R","R","R","R","R","R","R","R","R","R","R","R","R","R","R","R","R","R","R","R","R","R","R","R","R","R","R","R","R","R","R","R","R","R","R","R","R","R","R","R","R","R","R","R","R","R","R","R","R","R","R","R","R","R","R","R","R","R","R","R","R","R","R","R","R","R","R","R","R","R","R","R","R","R","R","R","R","R","R","R","R","R","R","R","R","R","R","R","R","R","R","R","R","R","R","R","R","R","R","R","R","R","R","R","R","R","R","R","R","R","R","R","R","R","R","R","R","R","R","R","R","R","R","R","R","R","R","Q","?","?","?","?","?","?","?","?","?","?","?","?","?","?","?","?","?","?","?","?","?","?","?","?","?","?","?","?","?","?","?","?","?","?","E","E","?","?","?","?","?","?","?","?","N","N","N","N","N","N","N","N","N","N","N","N","N","N","N","N","N","N","N","N","N","N","N","N","N","N","N","N","N","N","N","N","N","N","N","N","N","N","N","N","N","N","N","N","N","N","N","N","N","N","N","N","N","N","N","N","N","N","N","N","N","N","N","N","N","N","N","N","N","N","N","N","N","N","N","?","M","M","M","M","M","M","M","M","M","?","?","?","?","?","?","?","?","?","?","?","?","?","?","?","?","?","?","?","?","?","?","?","?","?","?","?","?","?","?","?","?","?","?","?","?","M","M","M","M","M","M","M","M","M","M","M","M","M","M","M","M","M","M","M","M","M","M","M","M","M","M","M","M","M","M","M","M","M","M","M","M","M","M","?","?","?","?","?","?","?","?","?","L","L","L","L","L","L","L","L","L","L","?","?","?","?","?","?","?","?","?","?","?","?","?","?","?","?","?","?","?","?","?","?","?","?","?","?","?","?","?","?","?","?","?","?","?","?","?","?","?","?","?","?","?","?","?","?","?","?","?","?","?","?","?","?","?","?","?","?","?","?","?","?","?","?","?","?","?","?","?","?","?","?","?","?","?","?","?","?","?","?","?","?","?","?","?","?","?","?","?","M","M","M","M","M","M","M","M","M","M","M","M","M","?","?","?","?","?","?","?","L","L","L","L","L","L","L","L","L","L","L","L","L","L","L","L","L","L","L","L","L","L","L","L","L","L","L","L","L","L","L","L","L","L","L","L","L","L","L","L","L","L","L","L","?","?","?","K","K","K","K","K","K","K","K","K","K","K","K","K","K","K","K","K","K","K","K","K","K","K","K","?","?","?","?","U","U","?","?","?","?","?","?","?","?","?","?","?","?","?","?","?","?","?","?","?","?","?","?","?","?","?","?","?","?","?","?","?","V","V","V","V","V","V","V","V","V","V","V","V","V","V","V","V","V","V","V","V","V","V","V","V","V","V","V","V","?","?","W","W","W","W","W","W","W","X","X","X","X","X","X","X","X","X","X","X","X","X","X","X","X","X","X","X","X","X","X","X","X","X","X","X","X","X","X","X","X","X","X","X","X","X","X","X","X","X","X","X","X","X","X","X","X","?","?","?","?","?","?","?","?","?","?","?","?","?","?","?","?","?","?","?","?","?","?","?","?","?","?","?","?","?","?","?","?","?","?","?","?","?","?","?","?","?","?","?","?","?","?","?","?","?","?","?","?","?","?","?","?","?","?","?","?","?","?","?","?","?","?","?","?","?","?","?","?","?","?","?","?","?","?","?","?","?","?","?","?","?","?","?","?","?","?","W","W","W","W","W","W","W","W","W","W","?","?","?","?","?","?","?","?","?","?","?","?","?","?","?","?","?","?","?","?","?","?","?","?","?","?","?","?","?","?","?","?","?","?","?","?","?","?","?","?","?","?","?","Z","Z","Z","Z","Z","Z","Z","Z","Z","Z","Z","Z","Z","Z","Z","Z","Z","Z","Z","Z","Z","Z","Z","Z","Z","Z","Z","Z","Z","Z","Z","Z","Z","Z","Z","Z","Z","?","Y","?","?","?","?","N","N","M","?","?","?","?","?","?","B","B","B","B","B","B","B","B","B","B","B","B","B","B","B","B","B","B","B","B","B","B","B","B","B","B","B","B","B","B","B","B","B","B","B","B","B","B","B","B","B","B","B","?","?","?","?","K","K","K","?","?","T","T","T","?","?","?","?","?","?","?","?","?","?","?","?","?","?","?","?","?","?","?","?","?","?","?","?","?","?","?","?","?","?","?","?","?","?","?","?","?","?","?","?","?","?","?","?","?","?","?","?","?","?","?","?","?","?","?","?","?","?","?","?","?","?","?","?","?","?","?","?","?","?","?","?","?","?","?","?","?","?","?","?","?","?","?","?","?","?","?","?","?","?","?","?","?","?","?","?","?","?","?","?","?","?","?","?","?","?","?","?","?","?","?","?","?","?","?","?","?","?","?","?","?","?","?","?","?","?","?","?","?","?","?","?","?","?","?","?"],"t":[18,25,38,50,62,74,86,98,110,122,134,146,158,171,183,195,207,219,231,244,256,274,286,298,310,322,335,346,359,371,383,395,407,419,431,443,455,468,480,492,504,517,534,546,558,571,583,595,607,619,631,643,656,668,686,698,710,722,734,746,759,771,783,795,807,819,831,843,856,868,880,892,905,922,935,953,965,977,989,1001,1013,1025,1037,1049,1062,1074,1086,1098,1110,1122,1134,1146,1159,1171,1183,1195,1208,1219,1231,1243,1255,1268,1280,1292,1304,1316,1328,1340,1352,1365,1377,1389,1401,1413,1425,1437,1449,1462,1473,1486,1498,1510,1522,1534,1547,1559,1572,1589,1601,1613,1625,1637,1649,1661,1674,1686,1704,1716,1728,1740,1752,1765,1777,1789,1801,1813,1825,1837,1849,1862,1874,1886,1898,1911,1922,1935,1947,1965,1977,1989,2001,2013,2026,2037,2050,2062,2074,2086,2098,2110,2122,2135,2147,2159,2171,2183,2195,2207,2219,2231,2243,2256,2268,2280,2292,2304,2316,2329,2347,2358,2371,2383,2395,2407,2419,2435,2449,2462,2474,2486,2498,2510,2522,2534,2547,2559,2571,2583,2595,2607,2619,2631,2644,2656,2668,2680,2692,2704,2716,2728,2740,2753,2765,2777,2789,2801,2813,2826,2838,2850,2862,2874,2886,2898,2910,2923,2934,2947,2959,2971,2983,2995,3007,3019,3032,3046,3062,3074,3086,3098,3110,3122,3134,3147,3160,3177,3189,3201,3213,3225,3237,3250,3262,3274,3286,3298,3310,3323,3340,3353,3365,3378,3395,3407,3419,3431,3444,3456,3468,3480,3492,3504,3516,3529,3540,3553,3565,3577,3589,3601,3613,3625,3638,3650,3662,3674,3686,3698,3710,3723,3735,3747,3759,3771,3783,3795,3807,3819,3831,3844,3856,3869,3886,3898,3910,3922,3934,3947,3959,3971,3983,3995,4007,4019,4031,4044,4056,4068,4080,4092,4104,4116,4130,4147,4159,4171,4183,4195,4207,4219,4231,4243,4256,4268,4280,4293,4304,4316,4329,4340,4353,4365,4377,4389,4401,4414,4426,4438,4450,4462,4474,4486,4498,4510,4522,4535,4547,4559,4571,4583,4595,4607,4619,4631,4643,4656,4668,4680,4692,4704,4716,4728,4741,4753,4765,4777,4789,4801,4813,4826,4838,4850,4862,4874,4886,4898,4910,4923,4935,4947,4959,4971,4984,4996,5007,5019,5032,5044,5056,5068,5080,5092,5104,5116,5128,5141,5153,5165,5177,5189,5201,5213,5225,5238,5250,5262,5274,5286,5298,5310,5323,5341,5354,5371,5383,5395,5407,5419,5432,5444,5456,5470,5486,5498,5510,5522,5535,5547,5559,5571,5583,5595,5607,5619,5632,5644,5656,5668,5680,5692,5704,5717,5735,5747,5759,5771,5783,5795,5807,5819,5832,5844,5857,5874,5886,5898,5910,5922,5935,5947,5959,5971,5984,6001,6014,6026,6044,6056,6068,6080,6092,6104,6117,6129,6141,6153,6165,6177,6189,6201,6214,6226,6238,6250,6262,6274,6287,6298,6310,6322,6335,6347,6359,6371,6383,6395,6407,6420,6432,6444,6456,6468,6480,6492,6506,6523,6535,6548,6560,6573,6589,6601,6613,6626,6638,6650,6662,6678,6692,6704,6717,6736,6753,6766,6783,6795,6807,6820,6832,6844,6856,6868,6880,6892,6905,6923,6935,6947,6959,6971,6983,6996,7008,7020,7032,7044,7063,7074,7087,7099,7111,7129,7141,7153,7165,7177,7189,7201,7213,7226,7238,7250,7262,7274,7286,7298,7310,7323,7335,7347,7359,7371,7383,7395,7408,7420,7432,7445,7462,7474,7486,7498,7511,7523,7535,7547,7559,7571,7583,7595,7607,7619,7632,7644,7656,7668,7680,7693,7704,7717,7729,7741,7753,7765,7777,7789,7801,7814,7827,7839,7852,7868,7880,7892,7904,7918,7935,7948,7965,7977,7989,8001,8014,8027,8044,8056,8068,8080,8092,8105,8117,8135,8147,8159,8171,8183,8195,8208,8220,8232,8244,8256,8268,8280,8292,8304,8317,8329,8341,8353,8365,8377,8389,8402,8414,8426,8438,8450,8462,8474,8486,8498,8511,8523,8535,8547,8559,8571,8583,8595,8608,8620,8632,8644,8656,8668,8680,8692,8704,8717,8729,8741,8754,8771,8783,8795,8808,8820,8832,8844,8856,8868,8880,8892,8904,8917,8929,8941,8953,8965,8977,8989,9002,9014,9026,9038,9050,9062,9074,9087,9099,9111,9123,9135,9147,9159,9171,9184,9196,9208,9220,9232,9244,9256,9268,9280,9292,9305,9318,9335,9347,9359,9371,9384,9402,9414,9426,9438,9450,9464,9480,9492,9505,9524,9541,9554,9571,9583,9596,9608,9620,9632,9644,9656,9668,9680,9692,9705,9717,9729,9741,9754,9771,9783,9796,9808,9820,9832,9844,9856,9868,9880,9893,9905,9917,9929,9941,9953,9965,9977,9989,10002,10014,10026,10038,10050,10062,10074,10086,10099,10111,10123,10135,10147,10159,10171,10184,10196,10208,10220,10232,10244,10256,10268,10281,10293,10305,10317,10329,10341,10353,10365,10377,10390,10402,10414,10426,10438,10450,10462,10474,10488,10505,10517,10529,10541,10553,10565,10578,10590,10602,10614,10626,10638,10650,10662,10674,10687,10698,10711,10723,10735,10747,10759,10771,10784,10796,10808,10827,10845,10863,10875,10887,10899,10911,10923,10935,10947,10959,10972,10984,10996,11008,11020,11032,11044,11056,11070,11086,11099,11117,11129,11141,11153,11165,11177,11190,11202,11214,11226,11238,11250,11262,11275,11286,11299,11311,11323,11335,11347,11359,11372,11384,11396,11408,11420,11432,11444,11456,11468,11480,11493,11505,11517,11529,11541,11553,11565,11577,11590,11602,11614,11626,11638,11650,11662,11675,11687,11705,11718,11735,11748,11765,11778,11790,11802,11814,11826,11838,11850,11862,11874,11886,11899,11911,11923,11935,11947,11959,11971,11984,11996,12008,12020,12032,12044,12056,12069,12080,12093,12105,12118,12135,12147,12159,12171,12184,12196,12208,12220,12232,12244,12256,12269,12281,12293,12305,12317,12329,12341,12353,12365,12377,12390,12402,12414,12426,12438,12450,12462,12475,12487,12499,12511,12524,12541,12553,12566,12584,12596,12608,12620,12632,12644,12656,12668,12681,12693,12705,12717,12729,12741,12753,12766,12784,12796,12808,12820,12832,12844,12856,12868,12881,12893,12905,12917,12929,12941,12953,12966,12978,12990,13002,13015,13032,13044,13056,13068,13081,13093,13105,13118,13135,13148,13166,13178,13190,13202,13214,13226,13238,13251,13263,13275,13287,13299,13311,13323,13335,13347,13359,13372,13390,13402,13414,13426,13438,13450,13463,13475,13494,13506,13523,13535,13547,13559,13572,13584,13596,13608,13620,13632,13644,13657,13669,13680,13693,13705,13717,13729,13741,13753,13765,13778,13790,13802,13814,13826,13838,13850,13863,13877,13893,13905,13917,13929,13941,13953,13966,13979,13996,14008,14020,14032,14044,14056,14069,14081,14093,14105,14117,14129,14141,14154,14165,14178,14190,14202,14214,14226,14238,14251,14262,14275,14287,14299,14311,14323,14335,14347,14360,14372,14384,14396,14408,14420,14432,14444,14457,14469,14481,14493,14505,14517,14529,14541,14555,14572,14584,14596,14608,14620,14632,14644,14656,14669,14681,14693,14706,14718,14736,14754,14766,14778,14790,14802,14814,14826,14838,14851,14863,14875,14893,14905,14917,14929,14941,14953,14966,14978,14990,15002,15014,15026,15038,15050,15063,15075,15087,15099,15111,15124,15142,15154,15166,15178,15190,15205,15221,15238,15250,15263,15275,15287,15299,15311,15323,15336,15347,15360,15372,15384,15396,15408,15420,15432,15445,15463,15476,15493,15505,15517,15529,15541,15553,15566,15578,15590,15602,15614,15626,15638,15651,15663,15675,15687,15699,15711,15723,15735,15747,15760,15772,15784,15796,15808,15820,15832,15844,15857,15869,15881,15894,15911,15923,15935,15947,15960,15972,15984,15996,16008,16020,16032,16044,16057,16069,16081,16093,16105,16117,16129,16141,16154,16166,16178,16190,16202,16214,16226,16239,16251,16264,16281,16293,16305,16317,16329,16341,16354,16366,16378,16390,16402,16414,16426,16438,16451,16463,16476,16493,16506,16523,16535,16548,16560,16572,16584,16596,16608,16620,16632,16645,16657,16669,16681,16693,16705,16718,16730,16742,16754,16766,16778,16790,16802,16814,16826,16839,16851,16863,16875,16887,16899,16911,16923,16935,16948,16959,16972,16984,16996,17008,17020,17032,17045,17057,17069,17081,17093,17105,17118,17129,17142,17155,17172,17184,17196,17208,17220,17232,17245,17257,17269,17281,17293,17305,17317,17329,17342,17354,17366,17378,17390,17402,17414,17427,17439,17451,17464,17481,17494,17506,17517,17530,17542,17554,17566,17578,17590,17602,17614,17626,17638,17651,17663,17675,17687,17699,17711,17723,17735,17748,17760,17772,17784,17796,17810,17826,17838,17851,17863,17875,17887,17899,17912,17924,17936,17948,17966,17978,17990,18002,18014,18026,18039,18051,18063,18075,18087,18099,18111,18124,18137,18154,18172,18185,18202,18214,18227,18239,18251,18263,18275,18287,18299,18311,18323,18336,18348,18360,18372,18384,18396,18408,18421,18433,18445,18457,18469,18481,18493,18506,18518,18530,18542,18554,18566,18578,18590,18602,18614,18627,18639,18651,18663,18675,18687,18699,18711,18724,18736,18748,18760,18772,18784,18796,18808,18820,18833,18845,18857,18869,18881,18893,18905,18917,18930,18942,18954,18966,18978,18990,19002,19014,19028,19045,19057,19069,19081,19093,19105,19117,19130,19142,19155,19172,19184,19196,19208,19220,19233,19245,19257,19269,19281,19293,19305,19317,19330,19342,19354,19366,19378,19390,19402,19414,19427,19439,19451,19463,19475,19487,19499,19511,19523,19536,19548,19560,19572,19584,19597,19614,19627,19639,19651,19663,19675,19687,19699,19711,19724,19736,19748,19760,19772,19784,19796,19809,19821,19833,19845,19857,19869,19881,19893,19905,19918,19930,19942,19954,19967,19984,19996,20008,20021,20033,20051,20063,20075,20087,20099,20111,20124,20136,20148,20161,20172,20184,20196,20209,20220,20233,20245,20257,20269,20281,20293,20305,20317,20330,20342,20354,20366,20378,20390,20402,20415,20427,20439,20452,20469,20481,20493,20507,20524,20536,20548,20560,20572,20584,20596,20608,20621,20633,20645,20657,20669,20681,20693,20706,20718,20730,20742,20754,20766,20778,20790,20803,20815,20827,20839,20851,20863,20875,20887,20899,20912,20924,20937,20954,20966,20978,20990,21002,21014,21027,21039,21051,21063,21075,21087,21099,21111,21124,21136,21148,21160,21173,21184,21196,21209,21221,21233,21245,21257,21269,21283,21300,21318,21330,21342,21354,21366,21378,21390,21403,21415,21427,21439,21451,21463,21475,21487,21500,21518,21530,21542,21554,21566,21578,21590,21602,21615,21627,21639,21651,21663,21675,21687,21699,21712,21724,21736,21748,21760,21772,21784,21796,21809,21821,21833,21845,21857,21869,21881,21894,21905,21918,21930,21942,21954,21966,21978,21990,22003,22015,22027,22039,22051,22063,22075,22087,22100,22112,22124,22136,22148,22160,22172,22184,22196,22209,22221,22233,22245,22257,22269,22282,22293,22306,22318,22330,22342,22354,22366,22378,22390,22403,22415,22427,22439,22451,22463,22475,22487,22500,22512,22524,22536,22548,22560,22572,22584,22597,22609,22621,22633,22645,22657,22669,22681,22693,22706,22718,22730,22742,22754,22766,22778,22790,22802,22815,22827,22839,22851,22864,22876,22887,22900,22912,22924,22937,22954,22967,22978,22990,23003,23016,23033,23045,23057,23069,23081,23094,23105,23119,23136,23148,23160,23172,23184,23197,23215,23227,23239,23251,23263,23276,23294,23306,23318,23330,23342,23354,23366,23378,23390,23403,23416,23433,23445,23457,23469,23482,23494,23512,23525,23536,23548,23560,23573,23585,23597,23609,23621,23633,23647,23658,23675,23688,23700,23712,23724,23737,23754,23766,23779,23791,23803,23815,23833,23845,23857,23869,23881,23894,23906,23918,23930,23942,23954,23967,23985,23997,24009,24021,24033,24045,24059,24075,24088,24100,24112,24124,24136,24148,24160,24172,24185,24197,24209,24221,24233,24245,24257,24269,24281,24294,24306,24319,24331,24348,24360,24372,24384,24397,24409,24421,24433,24445,24457,24469,24482,24494,24506,24518,24530,24544,24560,24572,24584,24597,24609,24621,24633,24645,24657,24669,24682,24694,24712,24724,24736,24748,24760,24772,24785,24797,24809,24821,24833,24845,24857,24869,24881,24894,24906,24918,24930,24942,24954,24967,24979,24991,25003,25015,25027,25039,25051,25063,25076,25088,25100,25112,25124,25136,25148,25160,25172,25185,25197,25209,25221,25233,25246,25264,25275,25288,25300,25312,25324,25337,25354,25367,25379,25391,25404,25421,25433,25445,25457,25469,25482,25495,25512,25524,25536,25549,25566,25579,25591,25603,25615,25627,25639,25651,25663,25675,25688,25700,25712,25724,25736,25748,25760,25773,25785,25797,25809,25821,25833,25845,25857,25869,25882,25894,25912,25925,25936,25948,25960,25973,25985,25997,26009,26021,26033,26045,26057,26070,26082,26094,26106,26118,26130,26142,26154,26166,26179,26191,26203,26215,26227,26239,26251,26263,26276,26288,26300,26312,26324,26336,26348,26360,26373,26385,26397,26411,26427,26439,26451,26463,26476,26488,26500,26512,26524,26536,26548,26560,26573,26586,26603,26616,26633,26645,26657,26669,26682,26694,26706,26718,26730,26742,26755,26773,26786,26798,26815,26827,26840,26857,26870,26882,26894,26907,26924,26937,26955,26967,26979,26991,27003,27015,27027,27039,27051,27063,27076,27088,27100,27112,27124,27136,27148,27160,27173,27186,27199,27217,27233,27245,27257,27270,27282,27294,27306,27318,27330,27342,27354,27367,27379,27391,27403,27415,27427,27439,27451,27464,27476,27488,27500,27512,27525,27542,27556,27573,27586,27603,27615,27627,27639,27652,27665,27682,27695,27712,27724,27736,27748,27760,27773,27785,27797,27809,27821,27833,27845,27857,27870,27882,27894,27906,27918,27930,27942,27955,27967,27979,27991,28003,28015,28028,28040,28052,28064,28076,28088,28100,28112,28125,28137,28149,28161,28173,28185,28198,28215,28228,28246,28259,28276,28288,28300,28312,28325,28336,28349,28361,28373,28385,28397,28409,28421,28433,28445,28458,28470,28482,28494,28506,28518,28530,28543,28556,28567,28585,28597,28609,28621,28634,28652,28664,28677,28694,28707,28718,28730,28742,28755,28768,28781,28798,28815,28827,28839,28852,28865,28882,28894,28906,28919,28930,28942,28955,28967,28979,28991,29003,29017,29034,29046,29058,29070,29082,29094,29106,29118,29130,29143,29155,29167,29179,29197,29209,29221,29233,29246,29258,29270,29282,29294,29307,29318,29330,29343,29355,29367,29379,29391,29403,29415,29427,29440,29452,29464,29476,29488,29500,29512,29525,29537,29549,29561,29573,29585,29597,29609,29621,29633,29646,29658,29670,29682,29694,29706,29718,29730,29743,29756,29773,29785,29797,29809,29821,29833,29846,29858,29870,29882,29894,29906,29918,29930,29943,29955,29970,29985,29997,30009,30021,30033,30046,30058,30070,30082,30094,30106,30118,30131,30143,30155,30167,30179,30191,30203,30215,30228,30240,30252,30264,30276,30288,30300,30312,30325,30337,30349,30361,30373,30388,30403,30416,30427,30440,30452,30464,30476,30488,30500,30512,30525,30543,30556,30567,30581,30597,30610,30628,30640,30652,30664,30676,30688,30700,30712,30725,30737,30750,30767,30779,30791,30803,30815,30828,30840,30852,30864,30876,30888,30900,30912,30925,30937,30949,30961,30973,30985,30998,31009,31021,31034,31046,31058,31070,31082,31094,31106,31118,31131,31143,31155,31167,31179,31191,31203,31216,31228,31240,31252,31264,31276,31288,31300,31312,31325,31337,31349,31361,31373,31385,31397,31409,31421,31434,31446,31459,31476,31488,31500,31512,31524,31537,31549,31561,31573,31586,31598,31615,31628,31640,31652,31664,31677,31695,31706,31718,31731,31743,31755,31767,31779,31791,31803,31816,31834,31846,31864,31876,31888,31900,31913,31925,31937,31949,31961,31973,31987,32003,32016,32028,32040,32052,32064,32076,32088,32100,32113,32125,32137,32149,32161,32173,32185,32197,32210,32221,32234,32246,32258,32270,32282,32294,32306,32318,32331,32343,32355,32367,32379,32391,32403,32416,32428,32440,32452,32464,32476,32488,32500,32513,32525,32537,32549,32561,32573,32585,32597,32609,32622,32635,32652,32664,32676,32688,32700,32712,32725,32737,32749,32761,32773,32785,32797,32809,32822,32834,32852,32864,32877,32889,32906,32918,32931,32943,32955,32967,32980,32998,33010,33022,33034,33046,33058,33071,33088,33100,33112,33125,33137,33156,33167,33179,33192,33204,33216,33234,33246,33258,33270,33282,33294,33307,33319,33331,33344,33361,33373,33386,33403,33416,33428,33440,33452,33465,33476,33488,33500,33513,33525,33537,33549,33561,33573,33585,33597,33610,33622,33634,33646,33658,33670,33682,33694,33707,33719,33731,33743,33755,33767,33779,33791,33804,33822,33834,33846,33858,33870,33882,33894,33907,33919,33931,33943,33955,33967,33979,33995,34010,34022,34034,34046,34058,34070,34082,34095,34107,34119,34131,34143,34155,34167,34179,34191,34204,34216,34228,34240,34252,34265,34276,34288,34301,34312,34325,34338,34355,34367,34379,34391,34404,34416,34428,34440,34452,34464,34476,34488,34501,34513,34525,34537,34549,34561,34573,34585,34598,34610,34622,34634,34646,34658,34670,34682,34695,34707,34719,34731,34743,34755,34767,34780,34791,34804,34816,34828,34840,34852,34864,34876,34889,34900,34913,34925,34937,34949,34961,34973,34985,34998,35010,35022,35035,35052,35064,35076,35088,35101,35113,35125,35137,35149,35161,35173,35185,35198,35210,35222,35234,35246,35258,35270,35282,35295,35307,35319,35331,35344,35361,35373,35386,35398,35410,35422,35434,35446,35458,35470,35482,35495,35508,35525,35537,35549,35561,35574,35586,35598,35610,35622,35634,35646,35659,35670,35682,35695,35707,35719,35731,35744,35761,35773,35786,35798,35810,35822,35834,35846,35858,35870,35883,35895,35907,35919,35931,35943,35955,35967,35979,35991,36004,36016,36028,36040,36052,36064,36076,36088,36101,36113,36125,36137,36149,36161,36174,36186,36198,36210,36222,36234,36246,36258,36270,36282,36295,36307,36319,36331,36343,36355,36367,36379,36392,36404,36416,36428,36440,36452,36468,36483,36495,36507,36519,36531,36543,36555,36567,36580,36592,36604,36616,36628,36640,36652,36664,36679,36695,36707,36719,36731,36744,36761,36774,36786,36804,36816,36828,36840,36852,36864,36877,36895,36907,36919,36931,36943,36955,36967,36979,36992,37004,37016,37028,37040,37052,37064,37076,37089,37101,37113,37125,37137,37149,37161,37174,37186,37198,37210,37222,37234,37246,37258,37270,37283,37295,37307,37319,37331,37343,37356,37368,37381,37398,37410,37422,37434,37446,37458,37471,37482,37495,37507,37519,37531,37543,37555,37567,37580,37592,37604,37616,37628,37640,37652,37665,37677,37689,37701,37713,37725,37737,37749,37762,37774,37786,37798,37810,37822,37834,37846,37858,37871,37883,37895,37907,37919,37931,37943,37955,37967,37979,37992,38004,38016,38028,38040,38052,38064,38077,38089,38101,38113,38125,38138,38155,38167,38180,38192,38204,38216,38228,38240,38252,38264,38277,38295,38307,38319,38331,38344,38356,38367,38380,38392,38404,38416,38428,38440,38452,38464,38477,38489,38501,38513,38525,38537,38549,38561,38574,38586,38598,38610,38622,38634,38646,38658,38671,38683,38695,38707,38719,38731,38743,38755,38767,38780,38792,38804,38817,38828,38840,38852,38865,38877,38889,38901,38913,38925,38937,38949,38961,38974,38986,38998,39010,39022,39034,39046,39058,39071,39083,39095,39107,39119,39131,39143,39155,39168,39180,39192,39204,39216,39228,39240,39252,39265,39277,39295,39307,39319,39331,39343,39355,39368,39380,39393,39410,39422,39434,39446,39458,39471,39483,39495,39507,39519,39531,39543,39555,39567,39580,39592,39604,39616,39628,39640,39652,39665,39677,39689,39701,39713,39725,39737,39749,39762,39774,39786,39798,39810,39822,39834,39847,39859,39871,39883,39895,39907,39919,39931,39944,39956,39968,39980,39992,40004,40016,40028,40040,40053,40065,40077,40089,40101,40113,40125,40137,40149,40162,40174,40186,40198,40210,40222,40234,40247,40258,40271,40283,40295,40307,40319,40331,40344,40356,40368,40380,40392,40404,40418,40434,40446,40458,40471,40483,40495,40507,40519,40531,40543,40555,40568,40580,40592,40604,40616,40628,40640,40652,40665,40677,40689,40701,40713,40725,40739,40756,40768,40780,40792,40804,40816,40828,40840,40852,40865,40877,40889,40901,40913,40926,40938,40949,40962,40974,40986,40998,41010,41022,41034,41047,41059,41071,41083,41095,41107,41120,41131,41144,41156,41168,41180,41192,41204,41218,41228,41241,41253,41265,41277,41289,41301,41313,41325,41337,41350,41362,41374,41386,41398,41410,41422,41434,41446,41459,41471,41483,41495,41507,41519,41531,41544,41556,41570,41586,41598,41610,41622,41634,41647,41659,41671,41683,41695,41707,41719,41733,41750,41762,41774,41786,41798,41810,41822,41835,41847,41859,41871,41883,41895,41907,41919,41931,41943,41956,41968,41980,41992,42004,42016,42028,42041,42053,42065,42077,42089,42101,42113,42125,42137,42150,42162,42174,42186,42198,42210,42223,42234,42247,42259,42271,42283,42295,42307,42320,42331,42344,42356,42368,42380,42392,42404,42422,42435,42447,42459,42471,42483,42495,42507,42519,42532,42544,42556,42568,42580,42592,42604,42616,42629,42641,42653,42665,42677,42689,42701,42713,42725,42738,42750,42762,42774,42786,42798,42810,42822,42834,42847,42859,42871,42883,42895,42907,42920,42932,42944,42956,42968,42980,42992,43004,43016,43028,43041,43053,43065,43077,43089,43101,43113,43125,43138,43150,43164,43180,43192,43204,43218],"hit":[null],"x":[-2.0408163265306123,-2.0408163265306123,-2.0408163265306123,-2.0408163265306123,-2.0408163265306123,-2.0408163265306123,-2.0408163265306123,-2.0408163265306123,-2.0408163265306123,-2.0408163265306123,-2.0408163265306123,-2.0408163265306123,-2.0408163265306123,-2.0408163265306123,-2.0408163265306123,-2.0408163265306123,-2.0408163265306123,-2.0408163265306123,-2.0408163265306123,-0.013605442176870748,-0.013605442176870748,-0.017006802721088437,-0.02040816326530612,-0.027210884353741496,-0.027210884353741496,-0.027210884353741496,-0.027210884353741496,-0.030612244897959183,-0.030612244897959183,-0.030612244897959183,-0.030612244897959183,-0.030612244897959183,-0.030612244897959183,-0.030612244897959183,-0.034013605442176874,-0.03741496598639456,-0.04081632653061224,-0.04081632653061224,-0.047619047619047616,-0.047619047619047616,-0.05442176870748299,-0.05442176870748299,-0.05442176870748299,-0.05442176870748299,-0.05442176870748299,-0.05442176870748299,-0.05442176870748299,-0.05442176870748299,-0.05442176870748299,-0.05442176870748299,-0.05782312925170068,-0.061224489795918366,-0.061224489795918366,-0.06462585034013606,-0.06462585034013606,-0.06462585034013606,-0.06462585034013606,-0.06462585034013606,-0.06462585034013606,-0.06462585034013606,-0.06462585034013606,-0.06462585034013606,-0.06462585034013606,-0.06462585034013606,-0.06462585034013606,-0.06462585034013606,-0.06462585034013606,-0.06462585034013606,-0.06462585034013606,-0.06462585034013606,-0.06462585034013606,-0.06462585034013606,-0.06462585034013606,-0.06462585034013606,-0.06462585034013606,-0.06462585034013606,-0.06462585034013606,-0.06462585034013606,-0.06462585034013606,-0.06462585034013606,-0.06462585034013606,-0.06462585034013606,-0.06462585034013606,-0.06462585034013606,-0.06462585034013606,-0.06802721088435375,-0.06802721088435375,-0.06802721088435375,-0.06802721088435375,-0.06802721088435375,-0.06802721088435375,-0.06802721088435375,-0.06802721088435375,-0.07142857142857142,-0.07142857142857142,-0.07142857142857142,-0.07142857142857142,-0.07142857142857142,-0.07142857142857142,-0.07142857142857142,-0.07142857142857142,-0.07142857142857142,-0.07142857142857142,-0.07142857142857142,-0.07142857142857142,-0.07142857142857142,-0.07142857142857142,-0.07142857142857142,-0.07142857142857142,-0.07142857142857142,-0.07142857142857142,-0.07142857142857142,-0.07142857142857142,-0.0782312925170068,-0.0782312925170068,-0.0782312925170068,-0.08163265306122448,-0.08163265306122448,-0.08503401360544217,-0.08503401360544217,-0.08503401360544217,-0.08503401360544217,-0.08503401360544217,-0.08503401360544217,-0.08503401360544217,-0.08503401360544217,-0.08503401360544217,-0.08503401360544217,-0.08503401360544217,-0.08503401360544217,-0.08503401360544217,-0.08503401360544217,-0.08503401360544217,-0.08503401360544217,-0.08503401360544217,-0.08503401360544217,-0.08503401360544217,-0.08503401360544217,-0.08503401360544217,-0.08503401360544217,-0.08503401360544217,-0.08503401360544217,-0.08503401360544217,-0.08163265306122448,-0.0782312925170068,-0.07142857142857142,-0.06802721088435375,-0.061224489795918366,-0.05102040816326531,-0.04421768707482993,-0.04081632653061224,-0.04081632653061224,-0.03741496598639456,-0.034013605442176874,-0.030612244897959183,-0.030612244897959183,-0.027210884353741496,-0.027210884353741496,-0.023809523809523808,-0.023809523809523808,-0.023809523809523808,-0.023809523809523808,-0.023809523809523808,-0.023809523809523808,-0.023809523809523808,-0.023809523809523808,-0.023809523809523808,-0.023809523809523808,-0.023809523809523808,-0.023809523809523808,-0.023809523809523808,-0.023809523809523808,-0.023809523809523808,-0.023809523809523808,-0.023809523809523808,-0.023809523809523808,-0.023809523809523808,-0.023809523809523808,-0.023809523809523808,-0.023809523809523808,-0.023809523809523808,-0.023809523809523808,-0.023809523809523808,-0.023809523809523808,-0.023809523809523808,-0.023809523809523808,-0.023809523809523808,-0.023809523809523808,-0.027210884353741496,-0.027210884353741496,-0.027210884353741496,-0.027210884353741496,-0.027210884353741496,-0.027210884353741496,-0.027210884353741496,-0.027210884353741496,-0.027210884353741496,-0.027210884353741496,-0.027210884353741496,-0.027210884353741496,-0.027210884353741496,-0.027210884353741496,-0.027210884353741496,-0.027210884353741496,-0.027210884353741496,-0.027210884353741496,-0.027210884353741496,-0.027210884353741496,-0.027210884353741496,-0.027210884353741496,-0.027210884353741496,-0.027210884353741496,-0.027210884353741496,-0.027210884353741496,-0.027210884353741496,-0.027210884353741496,-0.027210884353741496,-0.027210884353741496,-0.02040816326530612,-0.017006802721088437,-0.013605442176870748,-0.01020408163265306,-0.01020408163265306,-0.01020408163265306,-0.01020408163265306,-0.01020408163265306,-0.01020408163265306,-0.01020408163265306,-0.01020408163265306,-0.01020408163265306,-0.01020408163265306,-0.01020408163265306,-0.01020408163265306,-0.01020408163265306,-0.01020408163265306,-0.01020408163265306,-0.01020408163265306,-0.01020408163265306,-0.01020408163265306,-0.01020408163265306,-0.01020408163265306,-0.01020408163265306,-0.01020408163265306,-0.01020408163265306,-0.01020408163265306,-0.01020408163265306,-0.01020408163265306,-0.01020408163265306,-0.01020408163265306,-0.01020408163265306,-0.01020408163265306,-0.01020408163265306,-0.01020408163265306,-0.01020408163265306,-0.01020408163265306,-0.01020408163265306,-0.01020408163265306,-0.01020408163265306,-0.01020408163265306,-0.01020408163265306,-0.01020408163265306,-0.01020408163265306,-0.01020408163265306,-0.01020408163265306,-0.01020408163265306,-0.01020408163265306,-0.01020408163265306,-0.013605442176870748,-0.013605442176870748,-0.013605442176870748,-0.013605442176870748,-0.013605442176870748,-0.013605442176870748,-0.013605442176870748,-0.013605442176870748,-0.013605442176870748,-0.013605442176870748,-0.013605442176870748,-0.013605442176870748,-0.013605442176870748,-0.013605442176870748,-0.013605442176870748,-0.013605442176870748,-0.013605442176870748,-0.013605442176870748,-0.013605442176870748,-0.013605442176870748,-0.013605442176870748,-0.013605442176870748,-0.013605442176870748,-0.013605442176870748,-0.013605442176870748,-0.013605442176870748,-0.013605442176870748,-0.013605442176870748,-0.013605442176870748,-0.013605442176870748,-0.013605442176870748,-0.013605442176870748,-0.013605442176870748,-0.01020408163265306,-0.006802721088435374,0,0,0.003401360544217687,0.006802721088435374,0.013605442176870748,0.027210884353741496,0.04081632653061224,0.06462585034013606,0.07142857142857142,0.09183673469387756,0.09863945578231292,0.10204081632653061,0.1054421768707483,0.10884353741496598,0.10884353741496598,0.10884353741496598,0.10884353741496598,0.10884353741496598,0.10884353741496598,0.10884353741496598,0.10884353741496598,0.10884353741496598,0.10884353741496598,0.10884353741496598,0.10884353741496598,0.10884353741496598,0.10884353741496598,0.10884353741496598,0.10884353741496598,0.11224489795918367,0.11224489795918367,0.11564625850340136,0.11564625850340136,0.11564625850340136,0.11564625850340136,0.11564625850340136,0.11564625850340136,0.11564625850340136,0.11564625850340136,0.11564625850340136,0.11564625850340136,0.11564625850340136,0.11564625850340136,0.11564625850340136,0.11564625850340136,0.11564625850340136,0.11564625850340136,0.11564625850340136,0.11564625850340136,0.11564625850340136,0.11564625850340136,0.11564625850340136,0.11564625850340136,0.11564625850340136,0.11564625850340136,0.11564625850340136,0.11564625850340136,0.11564625850340136,0.11564625850340136,0.11564625850340136,0.11564625850340136,0.11564625850340136,0.11564625850340136,0.11564625850340136,0.11564625850340136,0.11564625850340136,0.11564625850340136,0.11564625850340136,0.11564625850340136,0.11564625850340136,0.11564625850340136,0.11564625850340136,0.11564625850340136,0.11564625850340136,0.11564625850340136,0.11564625850340136,0.11564625850340136,0.11564625850340136,0.11564625850340136,0.11564625850340136,0.11564625850340136,0.11564625850340136,0.11564625850340136,0.11904761904761904,0.12244897959183673,0.12244897959183673,0.12244897959183673,0.12585034013605442,0.1292517006802721,0.1292517006802721,0.1326530612244898,0.1360544217687075,0.1360544217687075,0.1360544217687075,0.1360544217687075,0.1360544217687075,0.1360544217687075,0.1360544217687075,0.1360544217687075,0.1360544217687075,0.1360544217687075,0.1360544217687075,0.1360544217687075,0.1360544217687075,0.1360544217687075,0.16326530612244897,0.1870748299319728,0.21768707482993196,0.22789115646258504,0.24829931972789115,0.2585034013605442,0.2857142857142857,0.30612244897959184,0.3163265306122449,0.336734693877551,0.3469387755102041,0.3673469387755102,0.37755102040816324,0.391156462585034,0.3945578231292517,0.3945578231292517,0.3979591836734694,0.3979591836734694,0.3979591836734694,0.3979591836734694,0.3979591836734694,0.3979591836734694,0.3979591836734694,0.3979591836734694,0.41496598639455784,0.41836734693877553,0.4217687074829932,0.42517006802721086,0.42517006802721086,0.43537414965986393,0.43537414965986393,0.4387755102040816,0.445578231292517,0.4489795918367347,0.4489795918367347,0.4489795918367347,0.4489795918367347,0.4489795918367347,0.4489795918367347,0.4489795918367347,0.4489795918367347,0.4489795918367347,0.4489795918367347,0.4489795918367347,0.4489795918367347,0.4489795918367347,0.4489795918367347,0.4489795918367347,0.4489795918367347,0.4489795918367347,0.4489795918367347,0.4489795918367347,0.4489795918367347,0.4489795918367347,0.4489795918367347,0.46258503401360546,0.46938775510204084,0.48639455782312924,0.4931972789115646,0.5170068027210885,0.5238095238095238,0.54421768707483,0.5578231292517006,0.5578231292517006,0.564625850340136,0.5680272108843537,0.5714285714285714,0.5748299319727891,0.5782312925170068,0.5782312925170068,0.5816326530612245,0.5850340136054422,0.5850340136054422,0.5850340136054422,0.5850340136054422,0.5850340136054422,0.5850340136054422,0.5850340136054422,0.5850340136054422,0.5850340136054422,0.5850340136054422,0.5850340136054422,0.5850340136054422,0.5850340136054422,0.5850340136054422,0.5850340136054422,0.5850340136054422,0.5850340136054422,0.5850340136054422,0.5850340136054422,0.5850340136054422,0.5850340136054422,0.5850340136054422,0.5782312925170068,0.5782312925170068,0.5782312925170068,0.5782312925170068,0.5782312925170068,0.5782312925170068,0.5782312925170068,0.5782312925170068,0.5782312925170068,0.5748299319727891,0.5714285714285714,0.5714285714285714,0.5714285714285714,0.5714285714285714,0.5714285714285714,0.5680272108843537,0.5680272108843537,0.5680272108843537,0.564625850340136,0.564625850340136,0.564625850340136,0.564625850340136,0.5578231292517006,0.5578231292517006,0.5544217687074829,0.5476190476190477,0.5476190476190477,0.5476190476190477,0.5476190476190477,0.5476190476190477,0.5476190476190477,0.5476190476190477,0.5476190476190477,0.5476190476190477,0.5476190476190477,0.5476190476190477,0.5476190476190477,0.5476190476190477,0.5476190476190477,0.5476190476190477,0.5476190476190477,0.5476190476190477,0.5476190476190477,0.5476190476190477,0.5476190476190477,0.5476190476190477,0.5476190476190477,0.5476190476190477,0.5476190476190477,0.5476190476190477,0.5476190476190477,0.5476190476190477,0.5476190476190477,0.5476190476190477,0.5476190476190477,0.5476190476190477,0.5476190476190477,0.5476190476190477,0.5476190476190477,0.5476190476190477,0.5476190476190477,0.5476190476190477,0.5476190476190477,0.5476190476190477,0.5476190476190477,0.5476190476190477,0.5476190476190477,0.5476190476190477,0.5476190476190477,0.5476190476190477,0.5476190476190477,0.5476190476190477,0.5476190476190477,0.5476190476190477,0.5476190476190477,0.5476190476190477,0.5476190476190477,0.5476190476190477,0.5476190476190477,0.5476190476190477,0.5476190476190477,0.5476190476190477,0.5476190476190477,0.5476190476190477,0.5476190476190477,0.5476190476190477,0.5476190476190477,0.5476190476190477,0.5476190476190477,0.5476190476190477,0.5476190476190477,0.5476190476190477,0.5476190476190477,0.5476190476190477,0.5476190476190477,0.5476190476190477,0.5476190476190477,0.5476190476190477,0.5476190476190477,0.5476190476190477,0.54421768707483,0.54421768707483,0.54421768707483,0.54421768707483,0.54421768707483,0.54421768707483,0.54421768707483,0.54421768707483,0.54421768707483,0.54421768707483,0.54421768707483,0.54421768707483,0.54421768707483,0.54421768707483,0.54421768707483,0.54421768707483,0.54421768707483,0.54421768707483,0.54421768707483,0.54421768707483,0.54421768707483,0.54421768707483,0.54421768707483,0.54421768707483,0.54421768707483,0.54421768707483,0.54421768707483,0.54421768707483,0.54421768707483,0.54421768707483,0.54421768707483,0.54421768707483,0.54421768707483,0.54421768707483,0.54421768707483,0.54421768707483,0.54421768707483,0.54421768707483,0.54421768707483,0.54421768707483,0.54421768707483,0.54421768707483,0.54421768707483,0.5408163265306123,0.5340136054421769,0.5306122448979592,0.5272108843537415,0.5238095238095238,0.5204081632653061,0.5204081632653061,0.5204081632653061,0.5204081632653061,0.5204081632653061,0.5204081632653061,0.5204081632653061,0.5204081632653061,0.5204081632653061,0.5238095238095238,0.5476190476190477,0.5578231292517006,0.564625850340136,0.564625850340136,0.54421768707483,0.5306122448979592,0.47619047619047616,0.43537414965986393,0.32653061224489793,0.23129251700680273,0.05102040816326531,0,-0.027210884353741496,-0.023809523809523808,-0.006802721088435374,0.08503401360544217,0.19047619047619047,0.4489795918367347,0.5680272108843537,0.7721088435374149,0.8163265306122449,0.8163265306122449,0.8129251700680272,0.8027210884353742,0.782312925170068,0.7755102040816326,0.7755102040816326,0.7755102040816326,0.7755102040816326,0.7755102040816326,0.7755102040816326,0.7755102040816326,0.7755102040816326,0.7755102040816326,0.7619047619047619,0.7482993197278912,0.7482993197278912,0.7482993197278912,0.7482993197278912,0.7517006802721088,0.7517006802721088,0.7585034013605442,0.7585034013605442,0.7585034013605442,0.7585034013605442,0.7142857142857143,0.6836734693877551,0.6122448979591837,0.5306122448979592,0.4897959183673469,0.4523809523809524,0.4523809523809524,0.4523809523809524,0.45918367346938777,0.4965986394557823,0.5204081632653061,0.5816326530612245,0.6020408163265306,0.6122448979591837,0.6156462585034014,0.6156462585034014,0.6122448979591837,0.6122448979591837,0.6122448979591837,0.6122448979591837,0.6122448979591837,0.6122448979591837,0.608843537414966,0.6054421768707483,0.5986394557823129,0.5986394557823129,0.5986394557823129,0.6020408163265306,0.6122448979591837,0.6326530612244898,0.6428571428571429,0.6598639455782312,0.6666666666666666,0.6666666666666666,0.6666666666666666,0.6666666666666666,0.6666666666666666,0.6632653061224489,0.6530612244897959,0.6496598639455783,0.6360544217687075,0.6224489795918368,0.608843537414966,0.6054421768707483,0.6054421768707483,0.6054421768707483,0.6190476190476191,0.6224489795918368,0.6292517006802721,0.6292517006802721,0.6292517006802721,0.6292517006802721,0.6292517006802721,0.6258503401360545,0.6258503401360545,0.6258503401360545,0.6258503401360545,0.6258503401360545,0.6258503401360545,0.6258503401360545,0.6326530612244898,0.6462585034013606,0.6530612244897959,0.6666666666666666,0.6666666666666666,0.6666666666666666,0.6666666666666666,0.6700680272108843,0.673469387755102,0.6768707482993197,0.6768707482993197,0.6802721088435374,0.6836734693877551,0.6836734693877551,0.6836734693877551,0.6836734693877551,0.6836734693877551,0.6836734693877551,0.6836734693877551,0.6836734693877551,0.6836734693877551,0.6836734693877551,0.6836734693877551,0.6836734693877551,0.6836734693877551,0.6836734693877551,0.6870748299319728,0.6938775510204082,0.6938775510204082,0.6938775510204082,0.6938775510204082,0.6938775510204082,0.6938775510204082,0.6938775510204082,0.6938775510204082,0.6938775510204082,0.6938775510204082,0.6938775510204082,0.6938775510204082,0.6938775510204082,0.6938775510204082,0.6938775510204082,0.6938775510204082,0.6938775510204082,0.6938775510204082,0.6938775510204082,0.6938775510204082,0.6938775510204082,0.6938775510204082,0.6938775510204082,0.6938775510204082,0.6938775510204082,0.6938775510204082,0.6938775510204082,0.6938775510204082,0.6938775510204082,0.6938775510204082,0.6938775510204082,0.6938775510204082,0.6938775510204082,0.6938775510204082,0.6938775510204082,0.6972789115646258,0.7006802721088435,0.7006802721088435,0.7040816326530612,0.7074829931972789,0.7108843537414966,0.717687074829932,0.7244897959183674,0.7346938775510204,0.7517006802721088,0.7585034013605442,0.7721088435374149,0.7755102040816326,0.7891156462585034,0.7993197278911565,0.8163265306122449,0.8197278911564626,0.8231292517006803,0.8231292517006803,0.8027210884353742,0.7789115646258503,0.7006802721088435,0.6360544217687075,0.5306122448979592,0.41836734693877553,0.37755102040816324,0.35374149659863946,0.35374149659863946,0.38095238095238093,0.3945578231292517,0.42857142857142855,0.4489795918367347,0.47619047619047616,0.5068027210884354,0.5170068027210885,0.5306122448979592,0.5306122448979592,0.5272108843537415,0.5170068027210885,0.5034013605442177,0.4965986394557823,0.4897959183673469,0.4897959183673469,0.4897959183673469,0.4965986394557823,0.5748299319727891,0.6666666666666666,0.7346938775510204,0.7414965986394558,0.7346938775510204,0.7210884353741497,0.6462585034013606,0.6054421768707483,0.5136054421768708,0.48639455782312924,0.46938775510204084,0.46938775510204084,0.47278911564625853,0.48639455782312924,0.4897959183673469,0.4897959183673469,0.4897959183673469,0.4897959183673469,0.4897959183673469,0.4931972789115646,0.5714285714285714,0.6530612244897959,0.9251700680272109,1.0442176870748299,1.3061224489795917,1.4149659863945578,1.4285714285714286,1.4319727891156462,1.4319727891156462,1.4319727891156462,1.4319727891156462,1.4319727891156462,1.4285714285714286,1.3775510204081634,1.2925170068027212,1.2244897959183674,1.0204081632653061,0.9285714285714286,0.7448979591836735,0.6836734693877551,0.6122448979591837,0.608843537414966,0.608843537414966,0.6258503401360545,0.7210884353741497,0.9897959183673469,1.1326530612244898,1.4421768707482994,1.564625850340136,1.6870748299319729,1.7006802721088434,1.7006802721088434,1.7006802721088434,1.6972789115646258,1.6870748299319729,1.6666666666666667,1.6598639455782314,1.6428571428571428,1.6326530612244898,1.6258503401360545,1.6122448979591837,1.6020408163265305,1.5850340136054422,1.5782312925170068,1.564625850340136,1.564625850340136,1.564625850340136,1.564625850340136,1.564625850340136,1.564625850340136,1.564625850340136,1.564625850340136,1.564625850340136,1.564625850340136,1.564625850340136,1.564625850340136,1.564625850340136,1.564625850340136,1.564625850340136,1.564625850340136,1.564625850340136,1.564625850340136,1.564625850340136,1.564625850340136,1.564625850340136,1.564625850340136,1.564625850340136,1.5272108843537415,1.5,1.4557823129251701,1.4489795918367347,1.4489795918367347,1.4591836734693877,1.534013605442177,1.6802721088435375,1.7448979591836735,1.836734693877551,1.8605442176870748,1.8673469387755102,1.8673469387755102,1.8673469387755102,1.8673469387755102,1.8673469387755102,1.8673469387755102,1.8639455782312926,1.8503401360544218,1.8197278911564625,1.816326530612245,1.816326530612245,1.816326530612245,1.816326530612245,1.816326530612245,1.816326530612245,1.816326530612245,1.816326530612245,1.816326530612245,1.816326530612245,1.816326530612245,1.816326530612245,1.8061224489795917,1.7993197278911566,1.7925170068027212,1.7891156462585034,1.7789115646258504,1.7551020408163265,1.7380952380952381,1.6938775510204083,1.6666666666666667,1.619047619047619,1.6020408163265305,1.5850340136054422,1.5782312925170068,1.5782312925170068,1.5782312925170068,1.5782312925170068,1.5782312925170068,1.5782312925170068,1.5782312925170068,1.5782312925170068,1.5714285714285714,1.5272108843537415,1.4591836734693877,1.41156462585034,1.2789115646258504,1.1734693877551021,0.9591836734693877,0.8299319727891157,0.5850340136054422,0.4897959183673469,0.3435374149659864,0.2789115646258503,0.20068027210884354,0.17006802721088435,0.1326530612244898,0.11224489795918367,0.10884353741496598,0.10884353741496598,0.10884353741496598,0.10884353741496598,0.10884353741496598,0.10884353741496598,0.10884353741496598,0.10884353741496598,0.10884353741496598,0.1326530612244898,0.15306122448979592,0.20068027210884354,0.21768707482993196,0.24829931972789115,0.2585034013605442,0.2585034013605442,0.2585034013605442,0.2585034013605442,0.2585034013605442,0.2585034013605442,0.272108843537415,0.2891156462585034,0.336734693877551,0.35374149659863946,0.3707482993197279,0.3741496598639456,0.3741496598639456,0.3741496598639456,0.3741496598639456,0.3741496598639456,0.37755102040816324,0.4217687074829932,0.46258503401360546,0.46938775510204084,0.46938775510204084,0.46938775510204084,0.46938775510204084,0.46938775510204084,0.46938775510204084,0.46938775510204084,0.46938775510204084,0.46938775510204084,0.46938775510204084,0.46938775510204084,0.46938775510204084,0.46938775510204084,0.46938775510204084,0.46938775510204084,0.46938775510204084,0.46938775510204084,0.46938775510204084,0.46938775510204084,0.47278911564625853,0.4931972789115646,0.564625850340136,0.9149659863945578,0.9931972789115646,1.08843537414966,1.08843537414966,1.0816326530612246,1.0680272108843538,1.0272108843537415,1.0068027210884354,0.9659863945578231,0.9251700680272109,0.9115646258503401,0.8979591836734694,0.8979591836734694,0.9115646258503401,0.9183673469387755,0.9285714285714286,0.9285714285714286,0.9285714285714286,0.9285714285714286,0.9285714285714286,0.9285714285714286,0.9285714285714286,0.9285714285714286,0.9285714285714286,0.9285714285714286,0.9285714285714286,0.9285714285714286,0.9285714285714286,0.9285714285714286,0.9285714285714286,0.9285714285714286,0.9285714285714286,0.9285714285714286,0.9285714285714286,0.9285714285714286,0.9285714285714286,0.9251700680272109,0.9251700680272109,0.9217687074829932,0.9183673469387755,0.9149659863945578,0.9149659863945578,0.9149659863945578,0.9149659863945578,0.9149659863945578,0.9149659863945578,0.9149659863945578,0.9149659863945578,0.9149659863945578,0.9149659863945578,0.9149659863945578,0.9149659863945578,0.9149659863945578,0.9013605442176871,0.8707482993197279,0.7925170068027211,0.7585034013605442,0.7074829931972789,0.6972789115646258,0.6972789115646258,0.6972789115646258,0.6972789115646258,0.6972789115646258,0.6972789115646258,0.6972789115646258,0.6972789115646258,0.6972789115646258,0.6972789115646258,0.6904761904761905,0.5782312925170068,0.4897959183673469,0.2789115646258503,0.17687074829931973,-0.003401360544217687,-0.06802721088435375,-0.13945578231292516,-0.14965986394557823,-0.14965986394557823,-0.14965986394557823,-0.14965986394557823,-0.14965986394557823,-0.14965986394557823,-0.14965986394557823,-0.14965986394557823,-0.14965986394557823,-0.14965986394557823,-0.14965986394557823,-0.14965986394557823,-0.14965986394557823,-0.14965986394557823,-0.14965986394557823,-0.14965986394557823,-0.14965986394557823,-0.14965986394557823,-0.14965986394557823,-0.14965986394557823,-0.14965986394557823,-0.14965986394557823,-0.14965986394557823,-0.14965986394557823,-0.14965986394557823,-0.14965986394557823,-0.14965986394557823,-0.14965986394557823,-0.14965986394557823,-0.14965986394557823,-0.14965986394557823,-0.14965986394557823,-0.14965986394557823,-0.14965986394557823,-0.14965986394557823,-0.14965986394557823,-0.14965986394557823,-0.14965986394557823,-0.14965986394557823,-0.14965986394557823,-0.14965986394557823,-0.14965986394557823,-0.14965986394557823,-0.14965986394557823,-0.14965986394557823,-0.14965986394557823,-0.14965986394557823,-0.14965986394557823,-0.14965986394557823,-0.14965986394557823,-0.14965986394557823,-0.14965986394557823,-0.14965986394557823,-0.14965986394557823,-0.14965986394557823,-0.14965986394557823,-0.14965986394557823,-0.14965986394557823,-0.14965986394557823,-0.14965986394557823,-0.14965986394557823,-0.14965986394557823,-0.14965986394557823,-0.14965986394557823,-0.14965986394557823,-0.14965986394557823,-0.14965986394557823,-0.14965986394557823,-0.14965986394557823,-0.14965986394557823,-0.14965986394557823,-0.14965986394557823,-0.14965986394557823,-0.14965986394557823,-0.14965986394557823,-0.14965986394557823,-0.14965986394557823,-0.14965986394557823,-0.14965986394557823,-0.14965986394557823,-0.14965986394557823,-0.14965986394557823,-0.14965986394557823,-0.08503401360544217,-0.05442176870748299,0.01020408163265306,0.04421768707482993,0.11904761904761904,0.14625850340136054,0.17687074829931973,0.19047619047619047,0.2108843537414966,0.22789115646258504,0.23809523809523808,0.25510204081632654,0.2585034013605442,0.2755102040816326,0.2789115646258503,0.2857142857142857,0.2857142857142857,0.30272108843537415,0.3129251700680272,0.32653061224489793,0.336734693877551,0.336734693877551,0.3401360544217687,0.3401360544217687,0.3469387755102041,0.35374149659863946,0.3673469387755102,0.38095238095238093,0.3945578231292517,0.4013605442176871,0.40476190476190477,0.41156462585034015,0.41496598639455784,0.41836734693877553,0.4217687074829932,0.4217687074829932,0.4217687074829932,0.4217687074829932,0.4217687074829932,0.4217687074829932,0.4217687074829932,0.4217687074829932,0.4217687074829932,0.4217687074829932,0.4217687074829932,0.4217687074829932,0.4217687074829932,0.4217687074829932,0.4217687074829932,0.4217687074829932,0.42517006802721086,0.43197278911564624,0.43537414965986393,0.4387755102040816,0.4421768707482993,0.445578231292517,0.4489795918367347,0.4489795918367347,0.4489795918367347,0.4489795918367347,0.4489795918367347,0.4489795918367347,0.4489795918367347,0.4387755102040816,0.391156462585034,0.36054421768707484,0.35034013605442177,0.3401360544217687,0.3401360544217687,0.3401360544217687,0.3401360544217687,0.3401360544217687,0.3401360544217687,0.3401360544217687,0.3401360544217687,0.3401360544217687,0.3401360544217687,0.3401360544217687,0.3401360544217687,0.3401360544217687,0.3401360544217687,0.3401360544217687,0.3401360544217687,0.3469387755102041,0.3843537414965986,0.41156462585034015,0.46598639455782315,0.4897959183673469,0.5476190476190477,0.5816326530612245,0.6326530612244898,0.6496598639455783,0.6802721088435374,0.6904761904761905,0.6938775510204082,0.6972789115646258,0.6972789115646258,0.6972789115646258,0.6972789115646258,0.6938775510204082,0.6938775510204082,0.6768707482993197,0.6666666666666666,0.6428571428571429,0.6292517006802721,0.5884353741496599,0.564625850340136,0.5238095238095238,0.5034013605442177,0.48299319727891155,0.46598639455782315,0.4557823129251701,0.4387755102040816,0.42857142857142855,0.40816326530612246,0.3979591836734694,0.38095238095238093,0.3741496598639456,0.36054421768707484,0.35374149659863946,0.35374149659863946,0.35374149659863946,0.35034013605442177,0.35034013605442177,0.35034013605442177,0.35034013605442177,0.35034013605442177,0.35034013605442177,0.35034013605442177,0.35034013605442177,0.35034013605442177,0.35034013605442177,0.35034013605442177,0.35034013605442177,0.35034013605442177,0.35034013605442177,0.35034013605442177,0.35034013605442177,0.35374149659863946,0.35374149659863946,0.36394557823129253,0.3707482993197279,0.38095238095238093,0.3979591836734694,0.40476190476190477,0.4217687074829932,0.43197278911564624,0.445578231292517,0.4489795918367347,0.45918367346938777,0.46258503401360546,0.46938775510204084,0.47278911564625853,0.47619047619047616,0.47619047619047616,0.47619047619047616,0.47619047619047616,0.47619047619047616,0.47619047619047616,0.47619047619047616,0.47619047619047616,0.47619047619047616,0.47619047619047616,0.47619047619047616,0.47619047619047616,0.47619047619047616,0.47619047619047616,0.47619047619047616,0.47619047619047616,0.47959183673469385,0.5034013605442177,0.5170068027210885,0.5170068027210885,0.5170068027210885,0.5170068027210885,0.5170068027210885,0.5170068027210885,0.5170068027210885,0.5170068027210885,0.5170068027210885,0.5136054421768708,0.5068027210884354,0.5034013605442177,0.5034013605442177,0.5,0.5,0.5,0.4965986394557823,0.4965986394557823,0.4965986394557823,0.4965986394557823,0.4965986394557823,0.4897959183673469,0.48639455782312924,0.47959183673469385,0.47959183673469385,0.47278911564625853,0.47278911564625853,0.45918367346938777,0.445578231292517,0.43197278911564624,0.4217687074829932,0.40816326530612246,0.3979591836734694,0.3945578231292517,0.391156462585034,0.391156462585034,0.391156462585034,0.391156462585034,0.391156462585034,0.391156462585034,0.391156462585034,0.391156462585034,0.391156462585034,0.391156462585034,0.391156462585034,0.391156462585034,0.3945578231292517,0.41836734693877553,0.4421768707482993,0.46258503401360546,0.5068027210884354,0.5238095238095238,0.5714285714285714,0.5884353741496599,0.6462585034013606,0.6666666666666666,0.7210884353741497,0.7482993197278912,0.7857142857142857,0.8163265306122449,0.8231292517006803,0.8435374149659864,0.8537414965986394,0.8673469387755102,0.8707482993197279,0.8775510204081632,0.8775510204081632,0.8775510204081632,0.8775510204081632,0.8775510204081632,0.8775510204081632,0.8775510204081632,0.8775510204081632,0.8775510204081632,0.8775510204081632,0.8775510204081632,0.8707482993197279,0.8605442176870748,0.8299319727891157,0.7891156462585034,0.7721088435374149,0.7482993197278912,0.7414965986394558,0.7380952380952381,0.7380952380952381,0.7380952380952381,0.7380952380952381,0.7380952380952381,0.7414965986394558,0.7482993197278912,0.7482993197278912,0.7619047619047619,0.7789115646258503,0.7891156462585034,0.8231292517006803,0.8401360544217688,0.8707482993197279,0.8843537414965986,0.9115646258503401,0.9251700680272109,0.9455782312925171,0.9625850340136054,0.9693877551020408,0.9727891156462585,0.9761904761904762,0.9795918367346939,0.9795918367346939,0.9795918367346939,0.9829931972789115,0.9829931972789115,0.9863945578231292,0.9897959183673469,0.9897959183673469,0.9897959183673469,0.9897959183673469,0.9897959183673469,0.9897959183673469,0.9897959183673469,0.9897959183673469,0.9897959183673469,0.9931972789115646,0.9931972789115646,0.9931972789115646,0.9931972789115646,0.9931972789115646,0.9931972789115646,0.9931972789115646,0.9931972789115646,0.9965986394557823,1.0034013605442176,1.0136054421768708,1.0170068027210883,1.0204081632653061,1.0238095238095237,1.0238095238095237,1.0238095238095237,1.0238095238095237,1.0238095238095237,1.0238095238095237,1.0238095238095237,1.0238095238095237,1.0238095238095237,1.0238095238095237,1.0238095238095237,1.0238095238095237,1.0238095238095237,1.0238095238095237,1.0238095238095237,1.0238095238095237,1.0238095238095237,1.0170068027210883,0.9931972789115646,0.9761904761904762,0.9727891156462585,0.9693877551020408,0.9693877551020408,0.9693877551020408,0.9693877551020408,0.9693877551020408,0.9693877551020408,0.9693877551020408,0.9693877551020408,0.9693877551020408,0.9693877551020408,0.9693877551020408,0.9693877551020408,0.9693877551020408,0.9693877551020408,0.9693877551020408,0.9693877551020408,0.9693877551020408,0.9863945578231292,0.9931972789115646,1.0068027210884354,1.0204081632653061,1.034013605442177,1.0612244897959184,1.0782312925170068,1.1020408163265305,1.1122448979591837,1.1156462585034013,1.119047619047619,1.119047619047619,1.119047619047619,1.119047619047619,1.119047619047619,1.119047619047619,1.119047619047619,1.1156462585034013,1.1054421768707483,1.098639455782313,1.0816326530612246,1.0612244897959184,1.0272108843537415,1,0.9319727891156463,0.8979591836734694,0.8027210884353742,0.7721088435374149,0.7244897959183674,0.7006802721088435,0.6530612244897959,0.6258503401360545,0.5816326530612245,0.5612244897959183,0.5272108843537415,0.5034013605442177,0.4897959183673469,0.47278911564625853,0.45918367346938777,0.42517006802721086,0.40816326530612246,0.3707482993197279,0.35714285714285715,0.336734693877551,0.3163265306122449,0.30612244897959184,0.282312925170068,0.272108843537415,0.25510204081632654,0.24489795918367346,0.24489795918367346,0.24489795918367346,0.24489795918367346,0.24149659863945577,0.23469387755102042,0.23129251700680273,0.22789115646258504,0.22789115646258504,0.22448979591836735,0.21768707482993196,0.21428571428571427,0.21428571428571427,0.21428571428571427,0.21428571428571427,0.21428571428571427,0.2108843537414966,0.20408163265306123,0.20068027210884354,0.19727891156462585,0.19387755102040816,0.19047619047619047,0.19047619047619047,0.19047619047619047,0.19047619047619047,0.1870748299319728,0.17687074829931973,0.1598639455782313,0.14965986394557823,0.14965986394557823,0.14965986394557823,0.1564625850340136,0.16326530612244897,0.17687074829931973,0.1836734693877551,0.19727891156462585,0.20408163265306123,0.22789115646258504,0.2585034013605442,0.282312925170068,0.3401360544217687,0.3707482993197279,0.42857142857142855,0.4523809523809524,0.48639455782312924,0.5,0.5204081632653061,0.5306122448979592,0.5544217687074829,0.5578231292517006,0.5748299319727891,0.5782312925170068,0.5816326530612245,0.5816326530612245,0.5850340136054422,0.5850340136054422,0.5884353741496599,0.5918367346938775,0.5952380952380952,0.5952380952380952,0.5952380952380952,0.5986394557823129,0.5986394557823129,0.5986394557823129,0.6054421768707483,0.6258503401360545,0.6326530612244898,0.6530612244897959,0.6700680272108843,0.6802721088435374,0.6972789115646258,0.7074829931972789,0.7278911564625851,0.7414965986394558,0.7653061224489796,0.7755102040816326,0.7993197278911565,0.8027210884353742,0.8197278911564626,0.826530612244898,0.826530612244898,0.8299319727891157,0.8299319727891157,0.8299319727891157,0.8333333333333334,0.8333333333333334,0.8333333333333334,0.8333333333333334,0.8333333333333334,0.8333333333333334,0.8333333333333334,0.8333333333333334,0.8333333333333334,0.8333333333333334,0.8435374149659864,0.8605442176870748,0.8639455782312925,0.8809523809523809,0.8843537414965986,0.9081632653061225,0.9183673469387755,0.9455782312925171,0.9625850340136054,0.9693877551020408,0.9863945578231292,0.9897959183673469,1,1,1.0068027210884354,1.0068027210884354,1.0068027210884354,1.0068027210884354,1.0068027210884354,1.0068027210884354,1.0068027210884354,1.0068027210884354,1.0068027210884354,1.0068027210884354,1.0068027210884354,1.0068027210884354,1.0068027210884354,1.0068027210884354,1.0068027210884354,1.0068027210884354,1.0068027210884354,1.0068027210884354,1.0068027210884354,1.0068027210884354,1.0068027210884354,1.0068027210884354,1.0068027210884354,1.0068027210884354,1.0068027210884354,1.0068027210884354,1.0068027210884354,1.0068027210884354,1.0068027210884354,1.0068027210884354,1.0068027210884354,1.0068027210884354,1.0068027210884354,1.0068027210884354,1.0068027210884354,1.0068027210884354,1.0068027210884354,1.0068027210884354,1.0068027210884354,1.0068027210884354,1.0068027210884354,1.0068027210884354,1.0068027210884354,1.0068027210884354,1.0068027210884354,1.0068027210884354,1.0068027210884354,1.0068027210884354,0.9863945578231292,0.9659863945578231,0.9659863945578231,0.9659863945578231,0.9659863945578231,0.9659863945578231,0.9659863945578231,0.9659863945578231,0.9659863945578231,0.9659863945578231,0.9659863945578231,0.9659863945578231,0.9659863945578231,0.9659863945578231,0.9659863945578231,0.9659863945578231,0.9659863945578231,0.9659863945578231,0.9659863945578231,0.9659863945578231,0.9659863945578231,0.9659863945578231,0.9659863945578231,0.9659863945578231,0.9659863945578231,0.9659863945578231,0.9659863945578231,0.9659863945578231,0.9659863945578231,0.9659863945578231,0.9659863945578231,0.9659863945578231,0.9659863945578231,0.9659863945578231,0.9659863945578231,0.9659863945578231,0.9659863945578231,0.9659863945578231,0.9659863945578231,0.9659863945578231,0.9659863945578231,0.9659863945578231,0.9659863945578231,0.9659863945578231,0.9659863945578231,0.9659863945578231,0.9659863945578231,0.9659863945578231,0.9659863945578231,0.9659863945578231,0.9659863945578231,0.9659863945578231,0.9659863945578231,0.9659863945578231,0.9659863945578231,0.9659863945578231,0.9659863945578231,0.9659863945578231,0.9659863945578231,0.9659863945578231,0.9659863945578231,0.9659863945578231,0.9659863945578231,0.9659863945578231,0.9659863945578231,0.9659863945578231,0.9659863945578231,0.9659863945578231,0.9659863945578231,0.9659863945578231,0.9659863945578231,0.9659863945578231,0.9659863945578231,0.9659863945578231,0.9659863945578231,0.9659863945578231,0.9659863945578231,0.9659863945578231,0.9659863945578231,0.9659863945578231,0.9659863945578231,0.9659863945578231,0.9659863945578231,0.9659863945578231,0.9659863945578231,0.9659863945578231,0.9659863945578231,0.9659863945578231,0.9659863945578231,0.9659863945578231,0.9659863945578231,0.9659863945578231,0.9659863945578231,0.9659863945578231,0.9659863945578231,0.9659863945578231,0.9659863945578231,0.9659863945578231,0.9659863945578231,0.9659863945578231,0.9659863945578231,0.9659863945578231,0.9659863945578231,0.9659863945578231,0.9659863945578231,0.9659863945578231,0.9659863945578231,0.9659863945578231,0.9659863945578231,0.9659863945578231,0.9659863945578231,0.9659863945578231,0.9659863945578231,0.9659863945578231,0.9659863945578231,0.9659863945578231,0.9659863945578231,0.9659863945578231,0.9659863945578231,0.9659863945578231,0.9659863945578231,0.9659863945578231,0.9659863945578231,0.9659863945578231,0.9659863945578231,0.9659863945578231,0.9659863945578231,0.9659863945578231,0.9659863945578231,0.9659863945578231,0.9659863945578231,0.9659863945578231,0.9659863945578231,0.9659863945578231,0.9659863945578231,0.9659863945578231,0.9659863945578231,0.9659863945578231,0.9659863945578231,0.9659863945578231,0.9659863945578231,0.9659863945578231,0.9659863945578231,0.9659863945578231,0.9659863945578231,0.9659863945578231,0.9659863945578231,0.9659863945578231,0.9659863945578231,0.9659863945578231,0.9659863945578231,0.9659863945578231,0.9625850340136054,0.95578231292517,0.9523809523809523,0.9489795918367347,0.9455782312925171,0.9387755102040817,0.9387755102040817,0.9387755102040817,0.9387755102040817,0.9387755102040817,0.9387755102040817,0.9387755102040817,0.9387755102040817,0.9523809523809523,0.9693877551020408,0.9795918367346939,0.9829931972789115,0.9863945578231292,0.9931972789115646,0.9931972789115646,1.0034013605442176,1.0068027210884354,1.0068027210884354,1.0068027210884354,1.0068027210884354,1.010204081632653,1.010204081632653,1.010204081632653,1.010204081632653,1.010204081632653,1.010204081632653,1.010204081632653,1.010204081632653,1.010204081632653,1.010204081632653,1.010204081632653,1.010204081632653,1.010204081632653,1.010204081632653,1.010204081632653,1.010204081632653,1.010204081632653,1.010204081632653,1.010204081632653,1.010204081632653,1.010204081632653,1.010204081632653,1.010204081632653,1.010204081632653,1.010204081632653,1.010204081632653,1.010204081632653,1.010204081632653,1.010204081632653,1.010204081632653,1.010204081632653,1.0068027210884354,1.0068027210884354,1.0068027210884354,1.0068027210884354,1.0068027210884354,1.0136054421768708,1.0170068027210883,1.0204081632653061,1.0238095238095237,1.0238095238095237,1.0272108843537415,1.0272108843537415,1.0272108843537415,1.0272108843537415,1.0272108843537415,1.0272108843537415,1.0272108843537415,1.0272108843537415,1.0272108843537415,1.0272108843537415,1.0272108843537415,1.0272108843537415,1.0272108843537415,1.0272108843537415,1.0272108843537415,1.0238095238095237,1.0204081632653061,1.0204081632653061,1.0170068027210883,1.0136054421768708,1.0136054421768708,1.0136054421768708,1.0136054421768708,1.0136054421768708,1.0136054421768708,1.0136054421768708,1.0136054421768708,1.0136054421768708,1.0136054421768708,1.0136054421768708,1.0136054421768708,1.0136054421768708,1.0136054421768708,1.0136054421768708,1.0136054421768708,1.0136054421768708,1.0136054421768708,1.0136054421768708,1.0136054421768708,1.0136054421768708,1.0136054421768708,1.0136054421768708,1.0136054421768708,1.0136054421768708,1.0136054421768708,1.0136054421768708,1.0136054421768708,1.0136054421768708,1.0136054421768708,1.0136054421768708,1.0136054421768708,1.0136054421768708,1.0136054421768708,1.0136054421768708,1.0238095238095237,1.030612244897959,1.034013605442177,1.0408163265306123,1.054421768707483,1.0578231292517006,1.0612244897959184,1.0612244897959184,1.064625850340136,1.0680272108843538,1.0714285714285714,1.0748299319727892,1.0748299319727892,1.0782312925170068,1.0782312925170068,1.08843537414966,1.098639455782313,1.1122448979591837,1.1156462585034013,1.119047619047619,1.1224489795918366,1.1258503401360545,1.1258503401360545,1.1258503401360545,1.1258503401360545,1.1258503401360545,1.1258503401360545,1.1258503401360545,1.1258503401360545,1.1258503401360545,1.129251700680272,1.1326530612244898,1.1360544217687074,1.1360544217687074,1.1394557823129252,1.1394557823129252,1.1394557823129252,1.1394557823129252,1.1394557823129252,1.1394557823129252,1.1394557823129252,1.1394557823129252,1.1394557823129252,1.1394557823129252,1.1394557823129252,1.1394557823129252,1.1394557823129252,1.1394557823129252,1.1394557823129252,1.1394557823129252,1.1394557823129252,1.1394557823129252,1.1394557823129252,1.1394557823129252,1.1394557823129252,1.1394557823129252,1.1394557823129252,1.1394557823129252,1.1394557823129252,1.1394557823129252,1.1394557823129252,1.1394557823129252,1.1394557823129252,1.1394557823129252,1.1394557823129252,1.1394557823129252,1.1394557823129252,1.1394557823129252,1.1394557823129252,1.1394557823129252,1.1394557823129252,1.1394557823129252,1.1394557823129252,1.1394557823129252,1.1394557823129252,1.1394557823129252,1.1394557823129252,1.1394557823129252,1.1394557823129252,1.1394557823129252,1.1394557823129252,1.1394557823129252,1.1394557823129252,1.1394557823129252,1.1394557823129252,1.1394557823129252,1.1394557823129252,1.1394557823129252,1.1394557823129252,1.1394557823129252,1.1394557823129252,1.1394557823129252,1.1394557823129252,1.1360544217687074,1.1360544217687074,1.1360544217687074,1.1360544217687074,1.1360544217687074,1.1360544217687074,1.1360544217687074,1.1360544217687074,1.1360544217687074,1.1360544217687074,1.1360544217687074,1.1360544217687074,1.1360544217687074,1.1360544217687074,1.1360544217687074,1.1360544217687074,1.1360544217687074,1.1360544217687074,1.1360544217687074,1.1360544217687074,1.1360544217687074,1.1360544217687074,1.1360544217687074,1.1360544217687074,1.1360544217687074,1.1360544217687074,1.1360544217687074,1.1360544217687074,1.1360544217687074,1.1360544217687074,1.1360544217687074,1.1360544217687074,1.1360544217687074,1.1360544217687074,1.1360544217687074,1.1360544217687074,1.1360544217687074,1.1360544217687074,1.1360544217687074,1.1360544217687074,1.1360544217687074,1.1360544217687074,1.1360544217687074,1.1360544217687074,1.1360544217687074,1.1360544217687074,1.1360544217687074,1.1360544217687074,1.1360544217687074,1.1360544217687074,1.1360544217687074,1.1360544217687074,1.1360544217687074,1.1360544217687074,1.1360544217687074,1.1360544217687074,1.1360544217687074,1.1360544217687074,1.1360544217687074,1.1360544217687074,1.1360544217687074,1.1360544217687074,1.1360544217687074,1.1360544217687074,1.1360544217687074,1.1360544217687074,1.1360544217687074,1.1360544217687074,1.1360544217687074,1.1360544217687074,1.1360544217687074,1.1360544217687074,1.1360544217687074,1.1360544217687074,1.1360544217687074,1.1360544217687074,1.1360544217687074,1.1360544217687074,1.1360544217687074,1.1360544217687074,1.1360544217687074,1.1360544217687074,1.1360544217687074,1.129251700680272,1.129251700680272,1.1258503401360545,1.1258503401360545,1.1258503401360545,1.1258503401360545,1.1258503401360545,1.1258503401360545,1.1258503401360545,1.1258503401360545,1.1258503401360545,1.1258503401360545,1.1258503401360545,1.1258503401360545,1.1258503401360545,1.1258503401360545,1.1258503401360545,1.1258503401360545,1.1258503401360545,1.1258503401360545,1.1258503401360545,1.1258503401360545,1.1258503401360545,1.1258503401360545,1.1258503401360545,1.1258503401360545,1.1258503401360545,1.1258503401360545,1.1258503401360545,1.1258503401360545,1.1258503401360545,1.1258503401360545,1.1258503401360545,1.1258503401360545,1.1258503401360545,1.1258503401360545,1.1258503401360545,1.1258503401360545,1.1258503401360545,1.1258503401360545,1.1258503401360545,1.1258503401360545,1.1258503401360545,1.1258503401360545,1.1258503401360545,1.1258503401360545,1.1258503401360545,1.1258503401360545,1.1258503401360545,1.1258503401360545,1.1258503401360545,1.1258503401360545,1.1258503401360545,1.1258503401360545,1.1258503401360545,1.1258503401360545,1.1258503401360545,1.1258503401360545,1.1258503401360545,1.1258503401360545,1.1258503401360545,1.1258503401360545,1.1258503401360545,1.1258503401360545,1.1258503401360545,1.1258503401360545,1.1258503401360545,1.1258503401360545,1.1258503401360545,1.1258503401360545,1.1258503401360545,1.1258503401360545,1.1258503401360545,1.1258503401360545,1.1258503401360545,1.1258503401360545,1.1258503401360545,1.1258503401360545,1.1258503401360545,1.1258503401360545,1.1258503401360545,1.1258503401360545,1.1258503401360545,1.1258503401360545,1.1258503401360545,1.1258503401360545,1.1258503401360545,1.1258503401360545,1.1258503401360545,1.1258503401360545,1.1258503401360545,1.1258503401360545,1.1258503401360545,1.1258503401360545,1.1258503401360545,1.1258503401360545,1.1258503401360545,1.1258503401360545,1.1258503401360545,1.1258503401360545,1.1258503401360545,1.1258503401360545,1.1258503401360545,1.1258503401360545,1.1258503401360545,1.1258503401360545,1.1258503401360545,1.1258503401360545,1.1258503401360545,1.1258503401360545,1.1258503401360545,1.1258503401360545,1.1258503401360545,1.1258503401360545,1.1258503401360545,1.1258503401360545,1.1258503401360545,1.1258503401360545,1.1258503401360545,1.1258503401360545,1.1258503401360545,1.1258503401360545,1.1258503401360545,1.1258503401360545,1.1258503401360545,1.1258503401360545,1.1258503401360545,1.1258503401360545,1.1258503401360545,1.1258503401360545,1.1258503401360545,1.1258503401360545,1.1258503401360545,1.1258503401360545,1.1258503401360545,1.1258503401360545,1.1258503401360545,1.1258503401360545,1.1258503401360545,1.1258503401360545,1.1258503401360545,1.1258503401360545,1.1258503401360545,1.1258503401360545,1.1258503401360545,1.1258503401360545,1.1258503401360545,1.1258503401360545,1.1258503401360545,1.1258503401360545,1.1258503401360545,1.1258503401360545,1.1258503401360545,1.1258503401360545,1.1258503401360545,1.1258503401360545,1.1258503401360545,1.1258503401360545,1.1258503401360545,1.1258503401360545,1.1258503401360545,1.1258503401360545,1.1258503401360545,1.1258503401360545,1.1258503401360545,1.1258503401360545,1.1258503401360545,1.1258503401360545,1.1258503401360545,1.1258503401360545,1.1258503401360545,1.1258503401360545,1.1258503401360545,1.1258503401360545,1.1258503401360545,1.1258503401360545,1.1258503401360545,1.1258503401360545,1.1258503401360545,1.1258503401360545,1.1258503401360545,1.1258503401360545,1.1258503401360545,1.1258503401360545,1.1258503401360545,1.1258503401360545,1.1258503401360545,1.1258503401360545,1.1258503401360545,1.1258503401360545,1.1258503401360545,1.1258503401360545,1.1258503401360545,1.1258503401360545,1.1258503401360545,1.1258503401360545,1.1258503401360545,1.1258503401360545,1.1258503401360545,1.1258503401360545,1.1258503401360545,1.1258503401360545,1.1258503401360545,1.1258503401360545,1.1258503401360545,1.1258503401360545,1.1258503401360545,1.1258503401360545,1.1258503401360545,1.1258503401360545,1.1258503401360545,1.1258503401360545,1.1258503401360545,1.1258503401360545,1.1258503401360545,1.1258503401360545,1.1258503401360545,1.1258503401360545,1.1258503401360545,1.1258503401360545,1.1258503401360545,1.1258503401360545,1.1258503401360545,1.1258503401360545,1.1258503401360545,1.1258503401360545,1.1258503401360545,1.1258503401360545,1.1258503401360545,1.1258503401360545,1.1258503401360545,1.1258503401360545,1.1258503401360545,1.1258503401360545,1.1258503401360545,1.1258503401360545,1.1258503401360545,1.1258503401360545,1.1258503401360545,1.1258503401360545,1.1258503401360545,1.1258503401360545,1.1258503401360545,1.1258503401360545,1.1258503401360545,1.1258503401360545,1.1258503401360545,1.1258503401360545,1.1258503401360545,1.1258503401360545,1.1258503401360545,1.1258503401360545,1.1258503401360545,1.1258503401360545,1.1258503401360545,1.1258503401360545,1.1258503401360545,1.1258503401360545,1.1258503401360545,1.1258503401360545,1.1258503401360545,1.1258503401360545,1.1258503401360545,1.1258503401360545,1.1258503401360545,1.1258503401360545,1.1258503401360545,1.1258503401360545,1.1258503401360545,1.1258503401360545,1.1258503401360545,1.1258503401360545,1.1258503401360545,1.1258503401360545,1.1258503401360545,1.1258503401360545,1.1258503401360545,1.1258503401360545,1.1258503401360545,1.1258503401360545,1.1258503401360545,1.1258503401360545,1.1258503401360545,1.1258503401360545,1.1258503401360545,1.1258503401360545,1.1258503401360545,1.1258503401360545,1.1258503401360545,1.1258503401360545,1.1258503401360545,1.1258503401360545,1.1258503401360545,1.1258503401360545,1.1258503401360545,1.1258503401360545,1.1258503401360545,1.1258503401360545,1.1258503401360545,1.1258503401360545,1.1258503401360545,1.1258503401360545,1.1258503401360545,1.1258503401360545,1.1258503401360545,1.1258503401360545,1.1258503401360545,1.1258503401360545,1.1258503401360545,1.1258503401360545,1.1258503401360545,1.1258503401360545,1.1258503401360545,1.1258503401360545,1.1258503401360545,1.1258503401360545,1.1258503401360545,1.1258503401360545,1.1258503401360545,1.1258503401360545,1.1258503401360545,1.1258503401360545,1.1258503401360545,1.1258503401360545,1.1088435374149659,1.0510204081632653,0.9115646258503401,0.6836734693877551,0.5510204081632653,0.25510204081632654,0.12244897959183673,-0.07142857142857142,-0.16326530612244897,-0.282312925170068,-0.3707482993197279,-0.40476190476190477,-0.47959183673469385,-0.5068027210884354,-0.5408163265306123,-0.54421768707483,-0.54421768707483,-0.54421768707483,-0.54421768707483,-0.54421768707483,-0.54421768707483,-0.54421768707483,-0.5170068027210885,-0.4013605442176871,-0.3333333333333333,-0.19047619047619047,-0.09523809523809523,0.034013605442176874,0.0782312925170068,0.17687074829931973,0.23129251700680273,0.3129251700680272,0.3435374149659864,0.41156462585034015,0.47278911564625853,0.5034013605442177,0.5578231292517006,0.5782312925170068,0.5986394557823129,0.6054421768707483,0.6122448979591837,0.6156462585034014,0.6190476190476191,0.6190476190476191,0.6190476190476191,0.6190476190476191,0.6190476190476191,0.6190476190476191,0.6190476190476191,0.6190476190476191,0.6156462585034014,0.6156462585034014,0.6122448979591837,0.6122448979591837,0.6122448979591837,0.6122448979591837,0.6122448979591837,0.6122448979591837,0.6122448979591837,0.6122448979591837,0.6122448979591837,0.6122448979591837,0.6122448979591837,0.6122448979591837,0.6122448979591837,0.6122448979591837,0.6122448979591837,0.6122448979591837,0.6122448979591837,0.6122448979591837,0.6122448979591837,0.6122448979591837,0.6122448979591837,0.6122448979591837,0.6122448979591837,0.6122448979591837,0.6122448979591837,0.6122448979591837,0.6122448979591837,0.6122448979591837,0.6122448979591837,0.6122448979591837,0.6122448979591837,0.6122448979591837,0.6122448979591837,0.6122448979591837,0.6122448979591837,0.6122448979591837,0.6122448979591837,0.6122448979591837,0.6122448979591837,0.6122448979591837,0.6122448979591837,0.6122448979591837,0.6122448979591837,0.6122448979591837,0.6122448979591837,0.6122448979591837,0.6122448979591837,0.6122448979591837,0.6122448979591837,0.6122448979591837,0.6122448979591837,0.6122448979591837,0.6122448979591837,0.6122448979591837,0.6122448979591837,0.6122448979591837,0.6122448979591837,0.6122448979591837,0.6122448979591837,0.6122448979591837,0.6122448979591837,0.6122448979591837,0.6122448979591837,0.6122448979591837,0.608843537414966,0.5952380952380952,0.5850340136054422,0.5544217687074829,0.5306122448979592,0.47959183673469385,0.4489795918367347,0.4421768707482993,0.42517006802721086,0.41836734693877553,0.40476190476190477,0.3945578231292517,0.38095238095238093,0.37755102040816324,0.3741496598639456,0.3707482993197279,0.3707482993197279,0.3707482993197279,0.3707482993197279,0.3707482993197279,0.3707482993197279,0.3707482993197279,0.3707482993197279,0.3707482993197279,0.3707482993197279,0.3707482993197279,0.3707482993197279,0.3707482993197279,0.3707482993197279,0.3707482993197279,0.3707482993197279,0.3707482993197279,0.3673469387755102,0.3673469387755102,0.3673469387755102,0.3673469387755102,0.36054421768707484,0.36054421768707484,0.36054421768707484,0.36054421768707484,0.36054421768707484,0.36054421768707484,0.36054421768707484,0.36054421768707484,0.36054421768707484,0.36054421768707484,0.36054421768707484,0.36054421768707484,0.36054421768707484,0.36054421768707484,0.3673469387755102,0.38095238095238093,0.3843537414965986,0.3877551020408163,0.391156462585034,0.3945578231292517,0.3945578231292517,0.3945578231292517,0.3945578231292517,0.3945578231292517,0.3945578231292517,0.3945578231292517,0.3945578231292517,0.3945578231292517,0.3945578231292517,0.3945578231292517,0.3945578231292517,0.3945578231292517,0.3945578231292517,0.3945578231292517,0.3945578231292517,0.3945578231292517,0.3945578231292517,0.3945578231292517,0.3945578231292517,0.3945578231292517,0.3945578231292517,0.3945578231292517,0.3945578231292517,0.3945578231292517,0.3945578231292517,0.3945578231292517,0.3945578231292517,0.3877551020408163,0.3877551020408163,0.38095238095238093,0.38095238095238093,0.37755102040816324,0.3741496598639456,0.3707482993197279,0.3673469387755102,0.3673469387755102,0.36054421768707484,0.36054421768707484,0.35374149659863946,0.35374149659863946,0.3469387755102041,0.3435374149659864,0.3401360544217687,0.32653061224489793,0.3197278911564626,0.30612244897959184,0.29931972789115646,0.282312925170068,0.2755102040816326,0.2619047619047619,0.2585034013605442,0.24489795918367346,0.23809523809523808,0.23129251700680273,0.22789115646258504,0.22789115646258504,0.22448979591836735,0.22108843537414966,0.22108843537414966,0.22108843537414966,0.22108843537414966,0.22108843537414966,0.22108843537414966,0.22448979591836735,0.22448979591836735,0.22789115646258504,0.23129251700680273,0.23129251700680273,0.23129251700680273,0.23129251700680273,0.23129251700680273,0.23129251700680273,0.23129251700680273,0.23129251700680273,0.23129251700680273,0.23129251700680273,0.23129251700680273,0.23129251700680273,0.23129251700680273,0.23129251700680273,0.22789115646258504,0.22448979591836735,0.21768707482993196,0.21768707482993196,0.21768707482993196,0.21768707482993196,0.21428571428571427,0.21428571428571427,0.21428571428571427,0.21428571428571427,0.21428571428571427,0.21428571428571427,0.21428571428571427,0.21428571428571427,0.21428571428571427,0.21428571428571427,0.21428571428571427,0.21428571428571427,0.21768707482993196,0.21768707482993196,0.21768707482993196,0.22108843537414966,0.22448979591836735,0.22789115646258504,0.23129251700680273,0.23129251700680273,0.23809523809523808,0.23809523809523808,0.24489795918367346,0.25170068027210885,0.272108843537415,0.2857142857142857,0.30612244897959184,0.3435374149659864,0.38095238095238093,0.4013605442176871,0.4421768707482993,0.46258503401360546,0.5,0.5136054421768708,0.5340136054421769,0.5476190476190477,0.5544217687074829,0.5612244897959183,0.564625850340136,0.5714285714285714,0.5714285714285714,0.5714285714285714,0.5714285714285714,0.5714285714285714,0.5714285714285714,0.5714285714285714,0.5714285714285714,0.5714285714285714,0.5714285714285714,0.5714285714285714,0.5714285714285714,0.5612244897959183,0.54421768707483,0.5306122448979592,0.48639455782312924,0.46258503401360546,0.41156462585034015,0.3979591836734694,0.38095238095238093,0.38095238095238093,0.3741496598639456,0.3741496598639456,0.3707482993197279,0.3707482993197279,0.3707482993197279,0.3707482993197279,0.3707482993197279,0.3707482993197279,0.3673469387755102,0.3673469387755102,0.36394557823129253,0.36054421768707484,0.35714285714285715,0.35034013605442177,0.3435374149659864,0.3401360544217687,0.336734693877551,0.3333333333333333,0.3299319727891156,0.32653061224489793,0.3163265306122449,0.3129251700680272,0.30612244897959184,0.30272108843537415,0.30272108843537415,0.29931972789115646,0.29931972789115646,0.29931972789115646,0.29931972789115646,0.29931972789115646,0.29931972789115646,0.29931972789115646,0.29931972789115646,0.29931972789115646,0.29931972789115646,0.29931972789115646,0.29931972789115646,0.29931972789115646,0.29931972789115646,0.29931972789115646,0.29931972789115646,0.29931972789115646,0.2925170068027211,0.2891156462585034,0.2857142857142857,0.2789115646258503,0.2755102040816326,0.2755102040816326,0.272108843537415,0.272108843537415,0.272108843537415,0.272108843537415,0.272108843537415,0.272108843537415,0.272108843537415,0.2653061224489796,0.2585034013605442,0.24489795918367346,0.24489795918367346,0.22789115646258504,0.21768707482993196,0.20408163265306123,0.1836734693877551,0.18027210884353742,0.17687074829931973,0.17687074829931973,0.17687074829931973,0.17687074829931973,0.17687074829931973,0.17687074829931973,0.17687074829931973,0.17687074829931973,0.17687074829931973,0.17687074829931973,0.17687074829931973,0.17687074829931973,0.17687074829931973,0.17687074829931973,0.17687074829931973,0.17687074829931973,0.17687074829931973,0.18027210884353742,0.18027210884353742,0.1836734693877551,0.1870748299319728,0.19047619047619047,0.19727891156462585,0.20748299319727892,0.23129251700680273,0.24489795918367346,0.2857142857142857,0.30272108843537415,0.3435374149659864,0.35374149659863946,0.38095238095238093,0.391156462585034,0.41156462585034015,0.42517006802721086,0.43197278911564624,0.43537414965986393,0.43537414965986393,0.43537414965986393,0.43537414965986393,0.43537414965986393,0.43537414965986393,0.43537414965986393,0.43537414965986393,0.43537414965986393,0.43537414965986393,0.43537414965986393,0.43537414965986393,0.43537414965986393,0.43537414965986393,0.43537414965986393,0.43537414965986393,0.43537414965986393,0.43537414965986393,0.43537414965986393,0.43537414965986393,0.43537414965986393,0.43537414965986393,0.43537414965986393,0.43537414965986393,0.43537414965986393,0.43537414965986393,0.42857142857142855,0.42517006802721086,0.4217687074829932,0.4217687074829932,0.41836734693877553,0.41836734693877553,0.41836734693877553,0.41836734693877553,0.41836734693877553,0.41836734693877553,0.41836734693877553,0.41836734693877553,0.41836734693877553,0.41836734693877553,0.41836734693877553,0.41836734693877553,0.4217687074829932,0.4217687074829932,0.42517006802721086,0.42857142857142855,0.43197278911564624,0.4387755102040816,0.4489795918367347,0.4523809523809524,0.46938775510204084,0.47619047619047616,0.4897959183673469,0.4965986394557823,0.5136054421768708,0.5170068027210885,0.5204081632653061,0.54421768707483,0.564625850340136,0.6020408163265306,0.6258503401360545,0.6632653061224489,0.673469387755102,0.7040816326530612,0.7142857142857143,0.7380952380952381,0.7448979591836735,0.7448979591836735,0.7448979591836735,0.7448979591836735,0.7448979591836735,0.7448979591836735,0.7448979591836735,0.7448979591836735,0.7448979591836735,0.7448979591836735,0.7448979591836735,0.7448979591836735,0.7448979591836735,0.7414965986394558,0.7380952380952381,0.7380952380952381,0.7380952380952381,0.7380952380952381,0.7380952380952381,0.7380952380952381,0.7380952380952381,0.7380952380952381,0.7380952380952381,0.7380952380952381,0.7380952380952381,0.7380952380952381,0.7380952380952381,0.7380952380952381,0.7380952380952381,0.7380952380952381,0.7380952380952381,0.7380952380952381,0.7380952380952381,0.7380952380952381,0.7380952380952381,0.7346938775510204,0.7312925170068028,0.7312925170068028,0.7244897959183674,0.7210884353741497,0.7040816326530612,0.6938775510204082,0.6666666666666666,0.6564625850340136,0.6326530612244898,0.6258503401360545,0.608843537414966,0.5918367346938775,0.5884353741496599,0.5850340136054422,0.5850340136054422,0.5816326530612245,0.5816326530612245,0.5816326530612245,0.5816326530612245,0.5816326530612245,0.5816326530612245,0.5816326530612245,0.5816326530612245,0.5816326530612245,0.5816326530612245,0.5816326530612245,0.5816326530612245,0.5816326530612245,0.5816326530612245,0.5816326530612245,0.5816326530612245,0.5816326530612245,0.5816326530612245,0.5816326530612245,0.5816326530612245,0.5816326530612245,0.5816326530612245,0.5816326530612245,0.5816326530612245,0.5816326530612245,0.5816326530612245,0.5816326530612245,0.5816326530612245,0.5816326530612245,0.5816326530612245,0.5816326530612245,0.5816326530612245,0.5816326530612245,0.5816326530612245,0.5816326530612245,0.5816326530612245,0.5816326530612245,0.5816326530612245,0.5816326530612245,0.5816326530612245,0.5816326530612245,0.5816326530612245,0.5816326530612245,0.5816326530612245,0.5816326530612245,0.5816326530612245,0.5782312925170068,0.5782312925170068,0.5782312925170068,0.5782312925170068,0.5782312925170068,0.5782312925170068,0.5782312925170068,0.5782312925170068,0.5782312925170068,0.5782312925170068,0.5782312925170068,0.5782312925170068,0.5782312925170068,0.5782312925170068,0.5782312925170068,0.5782312925170068,0.5782312925170068,0.5782312925170068,0.5782312925170068,0.5782312925170068,0.5782312925170068,0.5782312925170068,0.5782312925170068,0.5782312925170068,0.5782312925170068,0.5782312925170068,0.5782312925170068,0.5782312925170068,0.5782312925170068,0.5782312925170068,0.5748299319727891,0.5714285714285714,0.5714285714285714,0.5680272108843537,0.564625850340136,0.5612244897959183,0.5578231292517006,0.5510204081632653,0.5476190476190477,0.54421768707483,0.54421768707483,0.5408163265306123,0.5374149659863946,0.5374149659863946,0.5374149659863946,0.54421768707483,0.54421768707483,0.5816326530612245,0.6394557823129252,0.6700680272108843,0.7312925170068028,0.7619047619047619,0.7993197278911565,0.8095238095238095,0.8197278911564626,0.8231292517006803,0.8231292517006803,0.8231292517006803,0.8231292517006803,0.8299319727891157,0.8299319727891157,0.8367346938775511,0.8401360544217688,0.8435374149659864,0.8435374149659864,0.8571428571428571,0.8707482993197279,0.8775510204081632,0.8843537414965986,0.8877551020408163,0.8979591836734694,0.9013605442176871,0.9081632653061225,0.9081632653061225,0.9115646258503401,0.9115646258503401,0.9149659863945578,0.9183673469387755,0.9217687074829932,0.9251700680272109,0.9285714285714286,0.9319727891156463,0.935374149659864,0.9387755102040817,0.9387755102040817,0.9421768707482994,0.9455782312925171,0.9489795918367347,0.9523809523809523,0.95578231292517,0.9591836734693877,0.9625850340136054,0.9659863945578231,0.9659863945578231,0.9693877551020408,0.9693877551020408,0.9727891156462585,0.9761904761904762,0.9761904761904762,0.9761904761904762,0.9761904761904762,0.9761904761904762,0.97619047