[{"success":true,"trial_type":"fullscreen","trial_index":0,"time_elapsed":22794,"internal_node_id":"0.0-0.0","protocol_sum":"","subject_identifier":222,"subject_sum":[246,224,161,226,172,65,148,90,154,167,255,138,138,170,12,235,193,42,59,204,152,26,146,154,213,207,129,10,9,14,17,174],"subject_pair":111,"STUDY_ID":"669eec2e4270c76bc184a38e","PROLIFIC_PID":"6668b7620adc0e65f62c79d5","SESSION_ID":"669fcd0e26dcc53b67fd7318","practice_instructions":1,"leaderboard_instructions":0,"bonus":0,"reveal_word":false,"self_rating":"2","confidence":"100"},{"view_history":"[{\"page_index\":0,\"viewing_time\":4771}]","rt":4773,"trial_type":"instructions","trial_index":1,"time_elapsed":27571,"internal_node_id":"0.0-1.0","protocol_sum":"","subject_identifier":222,"subject_sum":[246,224,161,226,172,65,148,90,154,167,255,138,138,170,12,235,193,42,59,204,152,26,146,154,213,207,129,10,9,14,17,174],"subject_pair":111,"STUDY_ID":"669eec2e4270c76bc184a38e","PROLIFIC_PID":"6668b7620adc0e65f62c79d5","SESSION_ID":"669fcd0e26dcc53b67fd7318","practice_instructions":1,"leaderboard_instructions":0,"bonus":0,"reveal_word":false,"self_rating":"2","confidence":"100"},{"view_history":"[{\"page_index\":0,\"viewing_time\":31322}]","rt":31323,"trial_type":"instructions","trial_index":2,"time_elapsed":58896,"internal_node_id":"0.0-2.0-0.0","protocol_sum":"","subject_identifier":222,"subject_sum":[246,224,161,226,172,65,148,90,154,167,255,138,138,170,12,235,193,42,59,204,152,26,146,154,213,207,129,10,9,14,17,174],"subject_pair":111,"STUDY_ID":"669eec2e4270c76bc184a38e","PROLIFIC_PID":"6668b7620adc0e65f62c79d5","SESSION_ID":"669fcd0e26dcc53b67fd7318","practice_instructions":1,"leaderboard_instructions":0,"bonus":0,"reveal_word":false,"self_rating":"2","confidence":"100"},{"rt":18949,"responses":"{\"Q0\":\"... reveal the word with as <b>few letter guesses</b> as possible\"}","question_order":"[0]","trial_type":"survey-multi-choice","trial_index":3,"time_elapsed":77850,"internal_node_id":"0.0-2.0-1.0","protocol_sum":"","subject_identifier":222,"subject_sum":[246,224,161,226,172,65,148,90,154,167,255,138,138,170,12,235,193,42,59,204,152,26,146,154,213,207,129,10,9,14,17,174],"subject_pair":111,"correct":true,"test_part":"multichoice_nonpretend","STUDY_ID":"669eec2e4270c76bc184a38e","PROLIFIC_PID":"6668b7620adc0e65f62c79d5","SESSION_ID":"669fcd0e26dcc53b67fd7318","practice_instructions":1,"leaderboard_instructions":0,"bonus":0,"reveal_word":false,"self_rating":"2","confidence":"100"},{"view_history":"[{\"page_index\":0,\"viewing_time\":2036}]","rt":2036,"trial_type":"instructions","trial_index":4,"time_elapsed":79893,"internal_node_id":"0.0-3.0","protocol_sum":"","subject_identifier":222,"subject_sum":[246,224,161,226,172,65,148,90,154,167,255,138,138,170,12,235,193,42,59,204,152,26,146,154,213,207,129,10,9,14,17,174],"subject_pair":111,"STUDY_ID":"669eec2e4270c76bc184a38e","PROLIFIC_PID":"6668b7620adc0e65f62c79d5","SESSION_ID":"669fcd0e26dcc53b67fd7318","practice_instructions":1,"leaderboard_instructions":0,"bonus":0,"reveal_word":false,"self_rating":"2","confidence":"100"},{"word":"ZEBRA","click_log":{"letter":["","Z","E","B","R","A"],"t":[0,42003,49659,51464,55554,57051],"hit":[null,1,1,1,1,1],"asked":["","Z","ZE","ZEB","ZEBR","ZEBRA"],"word_state":["_____","Z____","ZE___","ZEB__","ZEBR_","ZEBRA"]},"hover_log":{"letter":["?","?","?","?","?","?","?","?","?","?","?","?","?","?","?","?","?","?","?","?","?","?","?","?","?","?","?","?","?","?","?","?","?","?","?","?","?","?","?","?","?","?","?","?","?","?","?","?","?","?","?","?","?","?","?","?","?","?","?","?","?","?","?","?","?","?","?","?","?","?","?","?","?","?","?","?","?","?","?","?","?","?","?","?","?","?","?","?","?","?","?","?","?","?","?","?","?","?","?","?","?","?","?","?","?","?","?","?","?","?","?","?","?","?","?","?","?","?","?","?","?","?","?","?","?","?","?","?","?","?","?","?","?","?","?","?","?","?","?","?","?","?","?","?","?","?","?","?","?","?","?","?","?","?","?","?","?","?","?","?","?","?","?","?","?","?","?","?","?","?","?","?","?","?","?","?","?","?","?","?","?","?","?","?","?","?","?","?","?","?","?","?","?","?","?","?","?","?","?","?","?","?","?","?","?","?","?","?","?","?","?","?","?","?","?","?","?","?","?","?","?","?","?","?","?","?","?","?","?","?","?","?","?","?","?","?","?","?","?","?","?","?","?","?","?","?","?","?","?","?","?","?","?","?","?","?","?","?","?","?","?","?","?","?","?","?","?","?","?","?","?","?","?","?","?","?","?","?","?","?","?","?","?","?","?","?","?","?","?","?","?","?","?","?","?","?","?","?","?","?","?","?","?","?","?","?","?","?","?","?","?","?","?","?","?","?","?","?","?","?","?","?","?","?","?","?","?","?","?","?","?","?","?","?","?","?","?","?","?","?","?","?","?","?","?","?","?","?","?","?","?","?","?","?","?","?","?","?","?","?","?","?","?","?","?","?","?","?","?","?","?","?","?","?","?","?","?","?","?","?","?","?","?","?","?","?","?","?","?","?","?","?","?","?","?","?","?","?","?","?","?","?","?","?","?","?","?","?","?","?","?","?","?","?","?","?","?","?","?","?","?","?","?","?","?","?","?","?","?","?","?","?","?","?","?","?","?","?","?","?","?","?","?","?","?","?","?","?","?","?","?","?","?","?","?","?","?","?","?","?","?","?","?","?","?","?","?","?","?","?","?","?","?","?","?","?","?","?","?","?","?","?","?","?","?","?","?","?","?","?","?","?","?","?","?","?","?","?","?","?","?","?","?","?","?","?","?","?","?","?","?","?","?","?","?","?","?","?","?","?","?","?","?","?","?","?","?","?","?","?","?","?","?","?","?","?","?","?","?","?","?","?","?","?","?","?","?","?","?","?","?","?","?","?","?","?","?","?","?","?","?","?","?","?","?","?","?","?","?","?","?","?","?","?","?","?","?","?","?","?","?","?","?","?","?","?","?","?","?","?","?","?","?","?","?","?","?","?","?","?","?","?","?","?","?","?","?","?","?","?","?","?","?","?","?","?","?","?","?","?","?","?","?","?","?","?","?","?","?","?","?","?","?","?","?","?","?","?","?","?","?","?","?","?","?","?","?","?","?","?","?","?","?","?","?","?","?","?","?","?","?","?","?","?","?","?","?","?","?","?","?","?","?","?","?","?","?","?","?","?","?","?","?","?","?","?","?","?","?","?","?","?","?","?","?","?","?","?","?","?","?","?","?","?","?","?","?","?","?","?","?","?","?","?","?","?","?","?","?","?","?","?","?","?","?","?","?","?","?","?","?","?","?","?","?","?","?","?","?","?","?","?","?","?","?","?","?","?","?","?","?","?","?","?","?","?","?","?","?","?","?","?","?","?","?","?","?","?","?","?","?","?","?","?","?","?","?","?","?","?","?","?","?","?","?","?","?","?","?","?","?","?","?","?","?","?","?","?","?","?","?","?","?","?","?","?","?","?","?","?","?","?","?","?","?","?","?","?","?","?","?","?","?","?","?","?","?","?","?","?","?","?","?","?","?","?","?","?","?","?","?","?","?","?","?","?","?","?","?","?","?","?","?","?","?","?","?","?","?","?","?","?","?","?","?","?","?","?","?","?","?","?","?","?","?","?","?","?","?","?","?","?","?","?","?","?","?","?","?","?","?","?","?","?","?","?","?","?","?","?","?","?","?","?","?","?","?","?","?","?","?","?","?","?","?","?","?","?","?","?","?","?","?","?","?","?","?","?","?","?","?","?","?","?","?","?","?","?","?","?","?","?","?","?","?","?","?","?","?","?","?","?","?","?","?","?","?","?","?","?","?","?","?","?","?","?","?","?","?","?","?","?","?","?","?","?","?","?","?","?","?","?","?","?","?","?","?","?","?","?","?","?","?","?","?","?","?","?","?","?","?","?","?","?","?","?","?","?","?","?","?","?","?","?","?","?","?","?","?","?","?","?","?","?","?","?","?","?","?","?","?","?","?","?","?","?","?","?","?","?","?","?","?","?","?","?","?","?","?","?","?","?","?","?","?","?","?","?","?","?","?","?","?","?","?","?","?","?","?","?","?","?","?","?","?","?","?","?","?","?","?","?","?","?","?","?","?","?","?","?","?","?","?","?","?","?","?","?","?","?","?","?","?","?","?","?","?","?","?","?","?","?","?","?","?","?","?","?","?","?","?","?","?","?","?","?","?","?","?","?","?","?","?","?","?","?","?","?","?","?","?","?","?","?","?","?","?","?","?","?","?","?","?","?","?","?","?","?","?","?","?","?","?","?","?","?","?","?","?","?","?","?","?","?","?","?","?","?","?","?","?","?","?","?","?","?","?","?","?","?","?","?","?","?","?","?","?","?","?","?","?","?","?","?","?","?","?","?","?","?","?","?","?","?","?","?","?","?","?","?","?","?","?","?","?","?","?","?","?","?","?","?","?","?","?","?","?","?","?","?","?","?","?","?","?","?","?","?","?","?","?","?","?","?","?","?","?","?","?","?","?","?","?","?","?","?","?","?","?","?","?","?","?","?","?","?","?","?","?","?","?","?","?","?","?","?","?","?","?","?","?","?","?","?","?","?","?","?","?","?","?","?","?","?","?","?","?","?","?","?","?","?","?","?","?","?","?","?","?","?","?","?","?","?","?","?","?","?","?","?","?","?","?","?","?","?","?","?","?","?","?","?","?","?","?","?","?","?","?","?","?","?","?","?","?","?","?","?","?","?","?","?","?","?","?","?","?","?","?","?","?","?","?","?","?","?","?","?","?","?","?","?","?","?","?","?","?","?","?","?","?","?","?","?","?","?","?","?","?","?","?","?","?","?","?","?","?","?","?","?","?","?","?","?","?","?","?","?","?","?","?","?","?","?","?","?","?","?","?","?","?","?","?","?","?","?","?","?","?","?","?","?","?","?","?","?","?","?","?","?","?","?","?","?","?","?","?","?","?","?","?","?","?","?","?","?","?","?","?","?","?","?","?","?","?","?","?","?","?","?","?","?","?","?","?","?","?","?","?","?","?","?","?","?","?","?","?","?","?","?","?","?","?","?","?","?","?","?","?","?","?","?","?","?","?","?","?","?","?","?","?","?","?","?","?","?","?","?","?","?","?","?","?","?","?","?","?","?","?","?","?","?","?","?","?","?","?","?","?","?","?","?","?","?","?","?","?","?","?","?","?","?","?","?","?","?","?","?","?","?","?","?","?","?","?","?","?","?","?","?","?","?","?","?","?","?","?","?","?","?","?","?","?","?","?","?","?","?","?","?","?","?","?","?","?","?","?","?","?","?","?","?","?","?","?","?","?","?","?","?","?","?","?","?","?","?","?","?","?","?","?","?","?","?","?","?","?","?","?","?","?","?","?","?","?","?","?","?","?","?","?","?","?","?","?","?","?","?","?","?","?","?","?","?","?","?","?","?","?","?","?","?","?","?","?","?","?","?","?","?","?","?","?","?","?","?","?","?","?","?","?","?","?","?","?","?","?","?","?","?","?","?","?","?","?","?","?","?","?","?","?","?","?","?","?","?","?","?","?","?","?","?","?","?","?","?","?","?","?","?","?","?","?","?","?","?","?","?","?","?","?","?","?","?","?","?","?","?","?","?","?","?","?","?","?","?","?","?","?","?","?","?","?","?","?","?","?","?","?","?","?","?","?","?","?","?","?","?","?","?","?","?","?","?","?","?","?","?","?","?","?","?","?","?","?","?","?","?","?","?","?","?","?","?","?","?","?","?","?","?","?","?","?","?","?","?","?","?","?","?","?","?","?","?","?","?","?","?","?","?","?","?","?","?","?","?","?","?","?","?","?","?","?","?","?","?","?","?","?","?","?","?","?","?","?","?","?","?","?","?","?","?","?","?","?","?","?","?","?","?","?","?","?","?","?","?","?","?","?","?","?","?","?","?","?","?","?","?","?","?","?","?","?","?","?","?","?","?","?","?","?","?","?","?","?","?","?","?","?","?","?","?","?","?","?","?","?","?","?","?","?","?","?","?","?","?","?","?","?","?","?","?","?","?","?","?","?","?","?","?","?","?","?","?","?","?","?","?","?","?","?","?","?","?","?","?","?","?","?","?","?","?","?","?","?","?","?","?","?","?","?","?","?","?","?","?","?","?","?","?","?","?","?","?","?","?","?","?","?","?","?","?","?","?","?","?","?","?","?","?","?","?","?","?","?","?","?","?","?","?","?","?","?","?","?","?","?","?","?","?","?","?","?","?","?","?","?","?","?","?","?","?","?","?","?","?","?","?","?","?","?","?","?","?","?","?","?","?","?","?","?","?","?","?","?","?","?","?","?","?","?","?","?","?","?","?","?","?","?","?","?","?","?","?","?","?","?","?","?","?","?","?","?","?","?","?","?","?","?","?","?","?","?","?","?","?","?","?","?","?","?","?","?","?","?","?","?","?","?","?","?","?","?","?","?","?","?","?","?","?","?","?","?","?","?","?","?","?","?","?","?","?","?","?","?","?","?","?","?","?","?","?","?","?","?","?","?","?","?","?","?","?","?","?","?","?","?","?","?","?","?","?","?","?","?","?","?","?","?","?","?","?","?","?","?","?","?","?","?","?","?","?","?","?","?","?","?","?","?","?","?","?","?","?","?","?","?","?","?","?","?","?","?","?","?","?","?","?","?","?","?","?","?","?","?","?","?","?","?","?","?","?","?","?","?","?","?","?","?","?","?","?","?","?","?","?","?","?","?","?","?","?","?","?","?","?","?","?","?","?","?","?","?","?","?","?","?","?","?","?","?","?","?","?","?","?","?","?","?","?","?","?","?","?","?","?","?","?","?","?","?","?","?","?","?","?","?","?","?","?","?","?","?","?","?","?","?","?","?","?","?","?","?","?","?","?","?","?","?","?","?","?","?","?","?","?","?","?","?","?","?","?","?","?","?","?","?","?","?","?","?","?","?","?","?","?","?","?","?","?","?","?","?","?","?","?","?","?","?","?","?","?","?","J","?","?","?","?","?","?","?","?","?","?","?","?","?","?","?","?","C","C","C","?","?","L","L","L","L","L","L","L","L","?","?","?","?","?","?","?","?","?","?","?","?","?","?","?","?","?","?","?","?","?","?","?","?","?","?","?","?","?","?","?","?","?","?","?","?","?","M","M","M","?","?","N","N","?","?","?","?","O","O","?","P","P","?","?","?","?","?","?","?","?","?","?","?","?","?","?","?","?","Z","Z","Z","?","?","?","?","?","?","?","?","?","?","?","?","Z","Z","Z","Z","Z","Z","Z","Z","Z","Z","Z","Z","Z","Z","Z","Z","Z","Z","Z","Z","Z","Z","Z","Z","Z","Z","Z","Z","Z","Z","Z","Z","Z","Z","Z","Z","Z","Z","Z","Z","Z","Z","Z","Z","Z","Z","Z","Z","Z","Z","Z","Z","Z","Z","Z","Z","Z","Z","Z","Z","Z","Z","Z","Z","Z","Z","Z","Z","Z","Z","Z","Z","Z","Z","Z","Z","Z","Z","Z","Z","Z","Z","Z","Z","Z","Z","Z","Z","Z","Z","Z","Z","Z","Z","Z","Z","Z","Z","Z","Z","Z","Z","Z","Z","Z","Z","Z","Z","Z","Z","Z","Z","Z","Z","Z","Z","Z","Z","Z","Z","Z","Z","Z","Z","Z","Z","Z","Z","Z","Z","Z","Z","Z","Z","Z","Z","Z","Z","Z","Z","Z","Z","Z","Z","Z","Z","Z","Z","Z","Z","Z","Z","Z","Z","Z","Z","Z","Z","Z","Z","Z","Z","Z","Z","Z","Z","Z","Z","Z","Z","Z","Z","Z","Z","Z","Z","Z","Z","Z","Z","Z","Z","Z","Z","Z","Z","Z","Z","Z","Z","Z","Z","Z","Z","Z","Z","Z","Z","Z","Z","Z","Z","Z","Z","Z","Z","Z","Z","Z","Z","Z","Z","Z","Z","Z","Z","Z","Z","Z","Z","Z","Z","Z","Z","Z","Z","Z","Z","Z","Z","Z","Z","Z","Z","Z","Z","Z","Z","Z","Z","Z","Z","Z","Z","Z","Z","Z","Z","Z","Z","Z","Z","Z","Z","Z","Z","Z","Z","Z","Z","Z","Z","Z","Z","Z","Z","Z","Z","Z","Z","Z","Z","Z","Z","Z","Z","Z","Z","Z","Z","Z","Z","Z","Z","Z","Z","Z","Z","Z","Z","Z","Z","Z","Z","Z","Z","Z","Z","Z","Z","Z","Z","Z","Z","Z","Z","Z","Z","Z","Z","Z","Z","Z","Z","Z","Z","Z","Z","Z","Z","Z","Z","Z","Z","Z","Z","Z","Z","Z","Z","Z","Z","Z","Z","Z","Z","Z","Z","Z","Z","Z","Z","Z","Z","Z","Z","Z","Z","Z","Z","Z","Z","Z","Z","Z","Z","Z","Z","Z","Z","Z","Z","Z","Z","Z","Z","Z","Z","Z","Z","Z","Z","Z","Z","Z","Z","Z","Z","Z","Z","Z","Z","Z","Z","Z","Z","Z","Z","Z","Z","Z","Z","Z","Z","Z","Z","Z","Z","Z","Z","Z","Z","Z","Z","Z","Z","Z","Z","Z","Z","Z","Z","Z","Z","Z","Z","Z","Z","Z","Z","Z","Z","Z","Z","Z","?","?","P","P","?","?","F","F","F","?","?","?","?","?","?","?","?","?","?","?","?","?","?","?","?","?","?","?","?","?","?","?","?","?","?","?","?","?","?","?","E","E","E","E","E","E","E","E","E","E","E","E","E","E","E","E","E","E","E","E","E","E","E","E","E","E","E","E","E","E","E","E","E","E","E","E","E","E","E","E","E","E","E","E","E","E","E","E","E","E","E","E","E","E","E","E","E","E","E","E","E","E","?","N","N","N","?","?","W","W","W","W","W","W","?","V","V","V","V","V","?","?","?","L","L","L","L","L","?","?","?","?","?","?","?","?","?","?","?","B","B","B","B","B","B","B","B","B","B","B","B","B","B","B","B","B","B","B","B","B","B","B","B","B","B","B","B","B","B","B","B","B","B","B","B","B","B","B","B","B","B","B","B","B","B","B","B","B","B","B","B","B","B","B","B","B","B","B","B","B","B","B","B","B","B","B","B","B","B","B","B","B","B","B","B","B","B","B","B","B","B","B","B","B","B","B","B","B","?","C","C","C","?","D","D","?","?","?","?","?","?","O","O","?","?","?","?","P","P","P","P","P","P","P","P","?","?","?","?","?","?","?","?","?","?","?","?","?","?","?","?","?","?","?","Q","Q","Q","Q","Q","?","?","?","P","P","P","P","?","?","?","?","?","F","F","F","F","F","F","F","F","F","E","E","E","E","E","E","?","?","?","D","D","D","?","?","?","?","?","?","?","?","?","?","L","L","L","L","L","L","?","?","?","?","?","?","?","?","?","?","?","?","?","W","W","W","W","W","W","W","?","?","O","?","?","P","P","P","P","P","P","P","P","P","P","P","P","P","P","P","P","?","?","Q","Q","Q","Q","Q","Q","Q","Q","Q","Q","?","?","?","R","R","R","R","R","R","R","R","R","R","R","R","R","R","R","R","R","R","R","R","R","R","R","R","R","R","R","R","R","R","R","R","R","R","R","R","R","R","R","R","R","R","R","R","R","R","R","R","R","R","R","R","R","R","R","R","R","R","R","R","R","R","Q","Q","P","O","N","N","M","?","?","?","?","?","?","?","?","?","?","?","?","?","?","?","?","?","?","?","A","A","A","A","A","A","A","A","A","A","A","A","A","A","A","A","A","A","A","A","A","A","A","A","A","A","A","A","A","A","A","A","A","A","A","A","A","A","A","A","A","A","A","A","A","A","A","A","A","A","A","A","A","A","A","A","A","A","A","A","A","A","A","A","A","A","A","A","A","A","A","A","A","A","A","A","A","A","A","A","A","A","A","A","A","A","A","A","A","A","A","A","A","A","A","A","A","A","A","A","A","A","A","A","A","A","A","A","A","A","A","A","A","A","A","A","A","A","A","A","A","A","A","A","A","A","A","A","A","A","A","A","A","A","A","A","A","A","A","A","A","A","A","A","A","A","A","A","A","A","A","A","A","A","A","A","A","A","A"],"t":[89,124,134,150,168,184,202,217,237,255,271,285,304,322,337,354,369,386,403,418,438,454,468,485,503,519,538,553,568,585,603,619,636,652,670,685,701,718,735,753,769,785,801,820,836,852,869,887,903,920,936,952,968,986,1002,1020,1035,1052,1069,1085,1102,1118,1135,1153,1168,1186,1203,1220,1236,1252,1268,1286,1302,1320,1336,1353,1368,1385,1403,1420,1436,1452,1469,1485,1503,1518,1538,1554,1575,1588,1605,1624,1641,1652,1667,1684,1701,1718,1736,1752,1768,1785,1803,1818,1835,1853,1868,1886,1902,1922,1936,1952,1969,1984,2001,2018,2036,2051,2068,2085,2101,2118,2134,2152,2168,2185,2202,2218,2234,2251,2267,2284,2301,2319,2335,2352,2367,2385,2401,2419,2434,2452,2468,2484,2502,2518,2538,2553,2569,2586,2603,2618,2636,2652,2667,2686,2701,2718,2736,2753,2769,2784,2802,2817,2835,2851,2868,2886,2901,2917,2934,2950,2969,2984,3002,3019,3036,3053,3068,3086,3103,3120,3136,3149,3166,3185,3201,3217,3236,3253,3268,3285,3302,3317,3336,3352,3370,3384,3401,3418,3434,3450,3468,3484,3500,3517,3538,3551,3568,3584,3603,3617,3634,3652,3668,3684,3701,3717,3733,3752,3768,3784,3801,3819,3836,3851,3868,3884,3900,3918,3934,3952,3968,3983,4001,4018,4035,4050,4069,4086,4100,4117,4136,4152,4167,4183,4201,4217,4236,4251,4267,4284,4301,4318,4334,4353,4370,4386,4403,4418,4435,4452,4468,4483,4500,4518,4537,4550,4569,4585,4607,4620,4633,4651,4668,4684,4700,4718,4734,4751,4768,4784,4800,4819,4833,4851,4867,4884,4900,4917,4935,4951,4968,4985,5001,5018,5034,5051,5068,5084,5101,5116,5133,5150,5167,5185,5202,5216,5235,5250,5267,5286,5302,5317,5334,5352,5368,5384,5400,5417,5433,5450,5469,5484,5500,5518,5537,5551,5567,5585,5602,5618,5634,5651,5666,5684,5700,5718,5733,5750,5767,5785,5800,5817,5836,5850,5868,5883,5902,5917,5935,5952,5967,5984,6001,6018,6035,6056,6070,6090,6103,6116,6133,6151,6169,6183,6202,6216,6234,6252,6267,6283,6302,6316,6335,6350,6368,6383,6402,6418,6433,6451,6467,6484,6502,6516,6536,6550,6568,6583,6603,6617,6633,6651,6667,6685,6700,6717,6734,6750,6767,6785,6802,6817,6834,6850,6866,6883,6901,6917,6934,6950,6968,6983,7000,7017,7034,7051,7067,7084,7100,7117,7135,7152,7167,7183,7200,7219,7234,7251,7267,7285,7301,7317,7334,7350,7367,7383,7400,7417,7433,7450,7466,7484,7500,7518,7534,7552,7572,7591,7605,7617,7633,7650,7667,7685,7699,7718,7733,7751,7768,7785,7800,7816,7834,7850,7867,7885,7902,7918,7934,7952,7970,7984,8001,8018,8032,8050,8066,8084,8101,8116,8134,8150,8165,8182,8200,8218,8233,8252,8268,8283,8299,8317,8336,8350,8369,8385,8399,8417,8434,8450,8467,8484,8500,8518,8535,8549,8566,8584,8604,8618,8633,8651,8667,8684,8700,8716,8732,8750,8767,8787,8804,8820,8839,8856,8869,8888,8904,8919,8936,8952,8966,8984,9002,9017,9034,9055,9070,9084,9102,9116,9132,9149,9167,9183,9202,9216,9235,9251,9267,9284,9301,9316,9333,9350,9366,9385,9401,9416,9433,9450,9468,9484,9500,9515,9534,9551,9566,9584,9602,9617,9632,9650,9666,9684,9700,9715,9733,9750,9767,9783,9800,9818,9834,9851,9866,9884,9899,9916,9935,9950,9966,9983,10002,10017,10034,10052,10068,10084,10100,10116,10133,10150,10167,10183,10200,10217,10235,10250,10266,10283,10300,10316,10333,10350,10366,10383,10399,10417,10434,10450,10468,10485,10500,10518,10536,10552,10566,10585,10602,10621,10633,10648,10668,10683,10700,10716,10734,10750,10766,10784,10800,10818,10833,10850,10866,10883,10899,10918,10934,10950,10967,10983,11000,11016,11033,11050,11066,11083,11100,11117,11134,11149,11168,11182,11201,11216,11232,11249,11266,11282,11300,11316,11334,11349,11367,11383,11401,11417,11433,11450,11467,11485,11500,11517,11536,11553,11568,11586,11603,11620,11638,11653,11668,11684,11702,11718,11733,11753,11770,11787,11801,11818,11833,11851,11866,11885,11900,11915,11933,11950,11965,11983,12001,12016,12032,12048,12067,12085,12101,12116,12133,12149,12165,12183,12198,12217,12231,12249,12265,12282,12298,12315,12331,12349,12367,12381,12398,12416,12432,12449,12465,12481,12499,12515,12532,12550,12565,12581,12600,12615,12633,12649,12666,12682,12699,12716,12732,12748,12765,12781,12798,12815,12834,12850,12865,12882,12899,12915,12932,12950,12965,12983,12999,13015,13033,13049,13065,13082,13098,13115,13131,13148,13165,13181,13199,13215,13232,13250,13265,13284,13299,13315,13333,13349,13367,13382,13400,13416,13432,13450,13465,13482,13499,13516,13534,13553,13567,13583,13599,13615,13631,13650,13667,13682,13699,13716,13732,13750,13766,13781,13799,13815,13832,13850,13866,13883,13899,13915,13934,13949,13966,13983,13999,14017,14032,14049,14066,14082,14099,14115,14132,14149,14165,14182,14199,14216,14231,14249,14265,14282,14299,14316,14332,14349,14366,14382,14400,14414,14432,14448,14467,14481,14499,14516,14534,14549,14565,14582,14600,14616,14632,14650,14664,14682,14698,14717,14733,14750,14767,14783,14798,14816,14831,14849,14866,14883,14900,14916,14932,14948,14967,14984,14999,15015,15034,15050,15067,15081,15099,15115,15132,15149,15166,15183,15199,15216,15232,15249,15265,15283,15299,15317,15333,15348,15367,15383,15399,15416,15432,15451,15467,15482,15498,15517,15532,15549,15566,15583,15601,15615,15632,15650,15667,15683,15700,15715,15733,15749,15765,15782,15798,15815,15833,15850,15865,15884,15900,15916,15932,15949,15965,15982,15999,16016,16033,16049,16067,16081,16099,16115,16132,16149,16168,16183,16199,16215,16233,16251,16266,16282,16299,16317,16332,16349,16366,16382,16398,16418,16434,16448,16467,16482,16500,16516,16532,16552,16568,16582,16600,16615,16633,16650,16665,16683,16700,16716,16733,16748,16765,16783,16799,16816,16833,16850,16866,16882,16900,16915,16933,16949,16966,16982,16999,17016,17032,17049,17066,17082,17099,17116,17133,17148,17167,17182,17198,17216,17232,17250,17265,17282,17300,17315,17333,17348,17367,17382,17400,17415,17433,17450,17465,17482,17499,17515,17534,17548,17566,17582,17598,17617,17632,17649,17666,17682,17699,17716,17732,17750,17765,17783,17800,17815,17832,17850,17865,17883,17898,17917,17932,17948,17966,17982,17999,18016,18032,18049,18071,18084,18104,18116,18131,18148,18166,18181,18199,18216,18233,18248,18265,18282,18298,18316,18332,18348,18367,18382,18398,18415,18432,18449,18466,18482,18498,18514,18535,18551,18567,18584,18601,18615,18631,18649,18667,18682,18699,18715,18732,18749,18768,18783,18799,18816,18833,18849,18867,18883,18900,18916,18934,18950,18966,18982,18998,19015,19032,19050,19066,19082,19100,19115,19132,19150,19165,19182,19198,19215,19232,19248,19264,19281,19298,19316,19333,19348,19365,19382,19398,19417,19433,19448,19466,19482,19501,19519,19534,19549,19568,19583,19603,19617,19630,19648,19665,19683,19698,19715,19732,19748,19766,19783,19798,19815,19832,19849,19865,19883,19899,19915,19932,19948,19965,19982,19998,20015,20033,20048,20065,20082,20098,20115,20132,20148,20167,20183,20198,20215,20231,20248,20267,20281,20298,20315,20331,20350,20366,20382,20399,20416,20432,20448,20465,20483,20498,20515,20535,20549,20566,20582,20601,20616,20633,20648,20665,20682,20698,20715,20734,20749,20765,20782,20798,20815,20833,20849,20865,20883,20898,20915,20931,20949,20966,20981,20998,21015,21031,21050,21070,21084,21103,21115,21131,21149,21167,21181,21199,21215,21233,21249,21264,21282,21298,21315,21332,21350,21365,21382,21401,21416,21432,21449,21465,21483,21500,21514,21534,21548,21565,21583,21601,21618,21632,21648,21665,21682,21699,21715,21731,21748,21765,21783,21800,21816,21831,21849,21865,21881,21899,21915,21933,21949,21965,21981,21998,22016,22032,22048,22065,22084,22098,22115,22132,22149,22164,22183,22199,22215,22233,22249,22265,22283,22298,22314,22333,22351,22367,22382,22399,22416,22432,22447,22464,22483,22498,22515,22531,22549,22567,22598,22610,22632,22648,22664,22682,22698,22715,22731,22748,22766,22781,22798,22815,22831,22848,22865,22882,22898,22915,22931,22949,22965,22982,22998,23015,23032,23048,23065,23082,23098,23116,23132,23148,23164,23182,23200,23216,23232,23251,23266,23282,23298,23316,23331,23350,23366,23382,23398,23415,23432,23448,23464,23483,23498,23515,23534,23548,23565,23580,23600,23615,23631,23648,23664,23682,23698,23717,23731,23748,23764,23781,23798,23815,23831,23848,23866,23881,23899,23915,23933,23948,23965,23983,23998,24014,24031,24048,24068,24085,24102,24114,24130,24146,24165,24182,24198,24216,24232,24249,24264,24283,24298,24314,24330,24349,24364,24381,24399,24414,24431,24450,24464,24483,24499,24514,24532,24548,24564,24582,24599,24615,24632,24648,24666,24682,24699,24716,24731,24749,24764,24782,24799,24814,24832,24848,24866,24881,24899,24914,24931,24947,24966,24981,24998,25015,25030,25048,25066,25081,25099,25114,25133,25147,25164,25182,25199,25214,25231,25248,25265,25283,25297,25316,25330,25348,25364,25381,25398,25415,25431,25449,25464,25480,25499,25515,25534,25551,25567,25581,25601,25613,25630,25648,25665,25681,25697,25715,25731,25748,25764,25781,25798,25814,25832,25848,25865,25880,25897,25916,25931,25947,25964,25983,25999,26014,26031,26048,26064,26081,26098,26114,26131,26149,26166,26182,26198,26215,26231,26248,26264,26281,26297,26315,26332,26348,26364,26381,26399,26414,26431,26447,26466,26481,26499,26515,26533,26548,26564,26581,26600,26615,26631,26648,26666,26681,26697,26715,26731,26747,26764,26782,26798,26813,26831,26849,26866,26882,26902,26915,26930,26947,26964,26981,26997,27016,27031,27049,27064,27080,27098,27114,27132,27150,27164,27181,27198,27214,27233,27249,27264,27281,27298,27314,27331,27347,27364,27382,27397,27415,27432,27448,27465,27481,27497,27514,27533,27549,27564,27581,27600,27614,27631,27650,27666,27680,27697,27714,27730,27747,27765,27781,27797,27814,27832,27849,27864,27881,27897,27915,27932,27947,27964,27981,27997,28014,28031,28047,28064,28081,28099,28116,28131,28147,28165,28180,28197,28214,28231,28247,28266,28280,28297,28316,28331,28349,28369,28385,28398,28413,28432,28447,28464,28481,28499,28514,28533,28548,28566,28582,28598,28615,28631,28649,28665,28680,28698,28716,28733,28747,28764,28781,28797,28814,28830,28847,28864,28881,28897,28914,28933,28949,28964,28982,28999,29015,29030,29049,29064,29081,29097,29114,29131,29148,29164,29182,29199,29214,29231,29247,29264,29282,29296,29314,29333,29347,29364,29380,29399,29413,29430,29447,29465,29481,29497,29514,29533,29547,29564,29582,29600,29615,29630,29647,29665,29680,29697,29715,29730,29748,29764,29781,29798,29813,29833,29851,29867,29879,29896,29914,29931,29948,29964,29981,29998,30015,30032,30047,30064,30082,30097,30115,30131,30149,30164,30180,30197,30214,30231,30248,30264,30281,30297,30317,30330,30347,30364,30380,30399,30415,30431,30446,30464,30480,30499,30513,30533,30549,30563,30582,30598,30616,30630,30649,30663,30681,30698,30715,30730,30748,30765,30781,30797,30814,30831,30847,30863,30881,30899,30913,30930,30947,30964,30980,30997,31013,31031,31048,31064,31083,31099,31115,31131,31148,31166,31180,31197,31214,31230,31247,31263,31282,31297,31315,31330,31349,31366,31382,31395,31412,31431,31446,31463,31480,31497,31514,31532,31548,31564,31580,31600,31614,31630,31648,31664,31681,31697,31714,31730,31748,31763,31780,31797,31814,31832,31847,31864,31880,31898,31914,31930,31948,31967,31980,31998,32014,32029,32047,32065,32080,32097,32113,32131,32148,32163,32182,32197,32214,32231,32248,32264,32280,32298,32314,32331,32349,32363,32381,32397,32413,32430,32447,32465,32481,32496,32516,32532,32548,32564,32582,32599,32613,32631,32647,32664,32680,32696,32714,32729,32747,32764,32780,32797,32813,32830,32849,32865,32882,32896,32912,32931,32949,32963,32981,32998,33015,33030,33046,33063,33080,33097,33114,33130,33149,33163,33181,33197,33215,33230,33247,33263,33281,33297,33312,33330,33347,33363,33380,33397,33413,33430,33448,33463,33480,33497,33514,33530,33547,33563,33581,33597,33614,33632,33647,33663,33680,33698,33714,33731,33747,33763,33780,33796,33813,33830,33847,33864,33880,33898,33913,33930,33946,33963,33980,33997,34013,34030,34048,34063,34080,34097,34114,34130,34148,34163,34182,34197,34214,34230,34248,34265,34279,34296,34315,34329,34349,34366,34383,34396,34412,34430,34447,34465,34480,34497,34514,34533,34548,34563,34580,34599,34613,34632,34646,34663,34679,34698,34713,34732,34746,34763,34780,34798,34814,34832,34847,34864,34882,34898,34913,34930,34947,34963,34981,34997,35013,35030,35046,35063,35081,35097,35114,35130,35148,35163,35180,35197,35213,35229,35248,35263,35281,35298,35314,35331,35347,35365,35379,35396,35413,35430,35448,35463,35480,35496,35513,35533,35547,35563,35580,35599,35613,35630,35647,35664,35680,35697,35713,35730,35746,35763,35781,35796,35814,35830,35846,35864,35882,35899,35913,35928,35946,35965,35979,35997,36013,36030,36046,36064,36080,36097,36113,36130,36148,36165,36181,36197,36214,36229,36246,36263,36280,36297,36313,36330,36346,36364,36380,36397,36415,36429,36447,36463,36480,36496,36513,36531,36547,36563,36580,36598,36614,36631,36648,36663,36681,36696,36713,36730,36748,36768,36788,36798,36815,36830,36846,36863,36879,36897,36914,36929,36948,36963,36980,36996,37013,37030,37046,37063,37080,37099,37115,37130,37147,37163,37179,37197,37213,37230,37246,37263,37281,37296,37313,37329,37348,37363,37382,37397,37415,37429,37447,37464,37481,37496,37513,37533,37546,37563,37581,37599,37615,37630,37647,37665,37679,37698,37713,37729,37747,37763,37779,37796,37813,37829,37847,37863,37880,37896,37914,37930,37948,37963,37979,37996,38015,38029,38048,38064,38081,38097,38114,38129,38146,38164,38181,38197,38213,38229,38246,38263,38279,38296,38313,38330,38346,38365,38381,38396,38413,38430,38447,38464,38479,38498,38512,38532,38547,38563,38579,38598,38613,38630,38646,38663,38679,38695,38713,38730,38748,38763,38781,38796,38812,38830,38846,38863,38880,38902,38914,38936,38947,38962,38979,38995,39013,39032,39046,39063,39081,39095,39115,39129,39147,39162,39179,39196,39213,39231,39245,39263,39283,39298,39315,39356,39372,39388,39404,39420,39435,39453,39470,39489,39505,39519,39532,39550,39563,39576,39604,39622,39640,39657,39672,39690,39707,39718,39734,39751,39767,39791,39816,39835,39862,39889,39898,39914,39929,39947,39964,39979,39996,40012,40030,40045,40062,40079,40097,40113,40129,40146,40163,40178,40196,40213,40229,40247,40263,40280,40295,40313,40330,40345,40362,40379,40400,40419,40436,40456,40472,40500,40515,40533,40549,40565,40581,40600,40615,40629,40647,40665,40682,40698,40716,40729,40749,40765,40781,40798,40815,40830,40846,40865,40884,40902,40919,40935,40948,40963,40980,40997,41014,41038,41053,41068,41084,41100,41116,41134,41150,41165,41181,41199,41217,41231,41250,41267,41282,41298,41315,41332,41349,41365,41382,41397,41412,41431,41448,41465,41481,41497,41512,41530,41547,41564,41581,41598,41611,41629,41647,41663,41680,41696,41712,41728,41746,41763,41783,41798,41813,41830,41848,41864,41884,41905,41922,41936,41963,41979,41999,42015,42035,42065,42080,42097,42114,42130,42148,42164,42181,42198,42214,42231,42247,42264,42280,42297,42315,42330,42347,42363,42380,42399,42414,42431,42446,42462,42480,42496,42514,42529,42547,42562,42579,42599,42613,42630,42647,42664,42680,42696,42714,42729,42747,42763,42778,42796,42813,42830,42847,42863,42879,42896,42912,42929,42947,42962,42979,42997,43013,43030,43045,43062,43080,43096,43114,43130,43145,43162,43181,43196,43213,43230,43247,43264,43279,43296,43313,43329,43346,43362,43387,43401,43416,43436,43461,43478,43495,43512,43532,43548,43563,43579,43597,43612,43628,43646,43662,43679,43696,43712,43729,43746,43762,43780,43795,43812,43828,43845,43862,43880,43895,43912,43928,43945,43963,43978,43995,44013,44030,44045,44063,44079,44096,44112,44129,44146,44163,44179,44196,44211,44229,44245,44262,44278,44296,44313,44329,44346,44363,44379,44396,44411,44429,44445,44462,44478,44495,44512,44528,44546,44562,44580,44597,44612,44628,44645,44662,44680,44697,44712,44729,44745,44763,44780,44797,44812,44828,44847,44863,44881,44898,44915,44928,44945,44963,44980,44996,45013,45029,45047,45062,45080,45095,45111,45129,45146,45162,45179,45195,45212,45229,45246,45263,45278,45295,45311,45330,45346,45363,45380,45394,45413,45430,45445,45462,45479,45495,45513,45529,45550,45563,45582,45598,45614,45630,45647,45663,45680,45695,45712,45727,45746,45761,45778,45794,45814,45829,45846,45861,45879,45896,45911,45928,45945,45963,45978,45994,46011,46029,46043,46060,46078,46093,46110,46126,46142,46159,46175,46193,46210,46226,46242,46259,46276,46293,46309,46326,46343,46359,46377,46397,46410,46426,46443,46459,46475,46493,46509,46526,46543,46560,46576,46592,46610,46626,46642,46659,46677,46692,46709,46726,46742,46759,46776,46793,46809,46826,46842,46859,46876,46894,46909,46926,46944,46960,46977,46993,47009,47027,47042,47060,47076,47093,47109,47126,47143,47159,47176,47193,47209,47226,47242,47259,47276,47293,47309,47326,47343,47359,47377,47393,47409,47425,47443,47460,47476,47493,47509,47526,47544,47561,47577,47597,47611,47628,47645,47661,47677,47694,47710,47727,47745,47760,47778,47794,47811,47827,47844,47864,47879,47893,47911,47927,47944,47961,47977,47994,48011,48027,48044,48060,48077,48095,48110,48129,48144,48161,48178,48194,48211,48229,48244,48262,48278,48294,48310,48329,48347,48362,48378,48395,48412,48428,48446,48464,48480,48497,48514,48534,48552,48567,48582,48602,48617,48632,48650,48665,48680,48696,48713,48730,48746,48761,48778,48797,48814,48830,48846,48864,48879,48898,48913,48930,48947,48963,48978,48996,49017,49032,49047,49063,49079,49098,49112,49129,49148,49163,49179,49196,49211,49232,49249,49263,49277,49298,49313,49333,49347,49362,49378,49396,49410,49427,49455,49478,49494,49511,49528,49545,49562,49579,49597,49611,49627,49645,49663,49679,49696,49712,49729,49744,49761,49779,49795,49812,49828,49844,49861,49877,49894,49912,49929,49945,49961,49978,49995,50011,50031,50045,50062,50078,50095,50112,50130,50146,50164,50180,50196,50212,50229,50247,50265,50281,50297,50312,50328,50348,50363,50381,50398,50414,50434,50448,50465,50481,50498,50514,50534,50553,50568,50585,50602,50618,50633,50650,50666,50681,50697,50713,50730,50750,50772,50789,50804,50824,50838,50861,50878,50894,50913,50929,50945,50962,50978,50995,51013,51028,51048,51064,51082,51097,51113,51128,51146,51162,51180,51194,51212,51228,51247,51262,51278,51294,51313,51327,51345,51362,51378,51395,51412,51427,51444,51463,51479,51495,51512,51528,51546,51562,51580,51596,51614,51630,51646,51661,51680,51696,51713,51729,51744,51761,51778,51795,51812,51829,51844,51863,51878,51895,51910,51928,51945,51961,51979,51995,52012,52027,52045,52062,52077,52094,52112,52127,52144,52161,52178,52194,52213,52230,52253,52270,52284,52300,52316,52332,52349,52365,52385,52402,52427,52446,52459,52473,52482,52505,52520,52544,52559,52573,52585,52596,52621,52639,52658,52674,52692,52708,52722,52737,52752,52768,52787,52803,52821,52837,52855,52871,52886,52903,52916,52936,52955,52971,52989,53008,53027,53041,53051,53065,53086,53097,53114,53138,53156,53172,53188,53205,53222,53244,53261,53277,53295,53305,53332,53351,53371,53388,53405,53423,53440,53452,53469,53487,53498,53521,53542,53556,53581,53606,53621,53637,53655,53669,53691,53710,53728,53745,53765,53780,53796,53812,53829,53845,53863,53878,53893,53913,53929,53947,53964,53979,53995,54014,54029,54046,54063,54082,54097,54114,54131,54147,54162,54180,54195,54211,54227,54244,54263,54279,54296,54313,54328,54346,54363,54379,54397,54417,54430,54445,54463,54481,54497,54512,54531,54545,54560,54578,54598,54614,54632,54646,54664,54681,54698,54714,54731,54748,54762,54780,54796,54812,54830,54846,54863,54878,54896,54913,54931,54947,54964,54979,54998,55018,55035,55053,55076,55093,55112,55127,55144,55161,55178,55194,55212,55227,55244,55261,55277,55295,55311,55326,55345,55362,55379,55393,55412,55429,55443,55461,55478,55495,55511,55526,55544,55561,55578,55597,55612,55628,55646,55660,55678,55694,55713,55727,55745,55761,55777,55796,55812,55828,55844,55860,55880,55894,55912,55928,55947,55965,55983,56000,56016,56033,56049,56068,56091,56109,56118,56134,56153,56169,56187,56203,56217,56233,56249,56271,56286,56301,56315,56336,56354,56372,56390,56408,56436,56454,56469,56481,56487,56514,56533,56546,56563,56580,56597,56616,56629,56646,56664,56680,56698,56713,56730,56747,56765,56780,56796,56814,56833,56849,56862,56879,56896,56913,56931,56947,56965,56979,56997,57014,57030,57049,57078,57087,57112,57128,57145,57161,57179,57193,57212,57227,57245,57261,57278,57294,57312,57327,57344,57362,57377,57394,57411,57427,57445,57461,57478,57494,57510,57529,57544,57561,57577,57595,57611,57627,57644,57661,57677,57695,57710,57727,57744,57760,57778,57795,57810,57828,57843,57864,57880,57897,57913,57928,57943,57960,57978,57993,58009,58027,58045,58060,58077,58094,58111,58126,58144,58161,58177,58193,58210,58228,58243,58260,58277,58294,58309,58328,58343,58361,58378,58393,58411,58428,58444,58460,58477,58495,58511,58527,58545,58561,58578,58595,58611,58628,58643,58661,58677,58693,58710,58726,58743,58761,58778,58793,58810,58827,58844,58860,58876,58894,58910,58927,58944,58960,58978,58993,59010,59028,59044,59065],"hit":[null],"x":[-1.6054421768707483,-1.6054421768707483,-1.6054421768707483,-1.6054421768707483,-1.6054421768707483,-1.6054421768707483,-1.6054421768707483,-1.6054421768707483,-1.6054421768707483,-1.6054421768707483,-1.6054421768707483,-1.6054421768707483,-1.6054421768707483,-1.6054421768707483,-1.6054421768707483,-1.6054421768707483,-1.6054421768707483,-1.6054421768707483,-1.6054421768707483,-1.6054421768707483,-1.6054421768707483,-1.6054421768707483,-1.6054421768707483,-1.6054421768707483,-1.6054421768707483,-1.6054421768707483,-1.6054421768707483,-1.6054421768707483,-1.6054421768707483,-1.6054421768707483,-1.6054421768707483,-1.6054421768707483,-1.6054421768707483,-1.6054421768707483,-1.6054421768707483,-1.6054421768707483,-1.6054421768707483,-1.6054421768707483,-1.6054421768707483,-1.6054421768707483,-1.6054421768707483,-1.6054421768707483,-1.6054421768707483,-1.6054421768707483,-1.6054421768707483,-1.6054421768707483,-1.6054421768707483,-1.6054421768707483,-1.6054421768707483,-1.6054421768707483,-1.6054421768707483,-1.6054421768707483,-1.6054421768707483,-1.6054421768707483,-1.6054421768707483,-1.6054421768707483,-1.6054421768707483,-1.6054421768707483,-1.6054421768707483,-1.6054421768707483,-1.6054421768707483,-1.6054421768707483,-1.6054421768707483,-1.6054421768707483,-1.6054421768707483,-1.6054421768707483,-1.6054421768707483,-1.6054421768707483,-1.6054421768707483,-1.6054421768707483,-1.6054421768707483,-1.6054421768707483,-1.6054421768707483,-1.6054421768707483,-1.6054421768707483,-1.6054421768707483,-1.6054421768707483,-1.6054421768707483,-1.6054421768707483,-1.6054421768707483,-1.6054421768707483,-1.6054421768707483,-1.6054421768707483,-1.6054421768707483,-1.6054421768707483,-1.6054421768707483,-1.6054421768707483,-1.6054421768707483,-1.6054421768707483,-1.6054421768707483,-1.6054421768707483,-1.6054421768707483,-1.6054421768707483,-1.6054421768707483,-1.6054421768707483,-1.6054421768707483,-1.6054421768707483,-1.6054421768707483,-1.6054421768707483,-1.6054421768707483,-1.6054421768707483,-1.6054421768707483,-1.6054421768707483,-1.6054421768707483,-1.6054421768707483,-1.6054421768707483,-1.6054421768707483,-1.6054421768707483,-1.6054421768707483,-1.6054421768707483,-1.6054421768707483,-1.6054421768707483,-1.6054421768707483,-1.6054421768707483,-1.6054421768707483,-1.6054421768707483,-1.6054421768707483,-1.6054421768707483,-1.6054421768707483,-1.6054421768707483,-1.6054421768707483,-1.6054421768707483,-1.6054421768707483,-1.6054421768707483,-1.6054421768707483,-1.6054421768707483,-1.6054421768707483,-1.6054421768707483,-1.6054421768707483,-1.6054421768707483,-1.6054421768707483,-1.6054421768707483,-1.6054421768707483,-1.6054421768707483,-1.6054421768707483,-1.6054421768707483,-1.6054421768707483,-1.6054421768707483,-1.6054421768707483,-1.6054421768707483,-1.6054421768707483,-1.6054421768707483,-1.6054421768707483,-1.6054421768707483,-1.6054421768707483,-1.6054421768707483,-1.6054421768707483,-1.6054421768707483,-1.6054421768707483,-1.6054421768707483,-1.6054421768707483,-1.6054421768707483,-1.6054421768707483,-1.6054421768707483,-1.6054421768707483,-1.6054421768707483,-1.6054421768707483,-1.6054421768707483,-1.6054421768707483,-1.6054421768707483,-1.6054421768707483,-1.6054421768707483,-1.6054421768707483,-1.6054421768707483,-1.6054421768707483,-1.6054421768707483,-1.6054421768707483,-1.6054421768707483,-1.6054421768707483,-1.6054421768707483,-1.6054421768707483,-1.6054421768707483,-1.6054421768707483,-1.6054421768707483,-1.6054421768707483,-1.6054421768707483,-1.6054421768707483,-1.6054421768707483,-1.6054421768707483,-1.6054421768707483,-1.6054421768707483,-1.6054421768707483,-1.6054421768707483,-1.6054421768707483,-1.6054421768707483,-1.6054421768707483,-1.6054421768707483,-1.6054421768707483,-1.6054421768707483,-1.6054421768707483,-1.6054421768707483,-1.6054421768707483,-1.6054421768707483,-1.6054421768707483,-1.6054421768707483,-1.6054421768707483,-1.6054421768707483,-1.6054421768707483,-1.6054421768707483,-1.6054421768707483,-1.6054421768707483,-1.6054421768707483,-1.6054421768707483,-1.6054421768707483,-1.6054421768707483,-1.6054421768707483,-1.6054421768707483,-1.6054421768707483,-1.6054421768707483,-1.6054421768707483,-1.6054421768707483,-1.6054421768707483,-1.6054421768707483,-1.6054421768707483,-1.6054421768707483,-1.6054421768707483,-1.6054421768707483,-1.6054421768707483,-1.6054421768707483,-1.6054421768707483,-1.6054421768707483,-1.6054421768707483,-1.6054421768707483,-1.6054421768707483,-1.6054421768707483,-1.6054421768707483,-1.6054421768707483,-1.6054421768707483,-1.6054421768707483,-1.6054421768707483,-1.6054421768707483,-1.6054421768707483,-1.6054421768707483,-1.6054421768707483,-1.6054421768707483,-1.6054421768707483,-1.6054421768707483,-1.6054421768707483,-1.6054421768707483,-1.6054421768707483,-1.6054421768707483,-1.6054421768707483,-1.6054421768707483,-1.6054421768707483,-1.6054421768707483,-1.6054421768707483,-1.6054421768707483,-1.6054421768707483,-1.6054421768707483,-1.6054421768707483,-1.6054421768707483,-1.6054421768707483,-1.6054421768707483,-1.6054421768707483,-1.6054421768707483,-1.6054421768707483,-1.6054421768707483,-1.6054421768707483,-1.6054421768707483,-1.6054421768707483,-1.6054421768707483,-1.6054421768707483,-1.6054421768707483,-1.6054421768707483,-1.6054421768707483,-1.6054421768707483,-1.6054421768707483,-1.6054421768707483,-1.6054421768707483,-1.6054421768707483,-1.6054421768707483,-1.6054421768707483,-1.6054421768707483,-1.6054421768707483,-1.6054421768707483,-1.6054421768707483,-1.6054421768707483,-1.6054421768707483,-1.6054421768707483,-1.6054421768707483,-1.6054421768707483,-1.6054421768707483,-1.6054421768707483,-1.6054421768707483,-1.6054421768707483,-1.6054421768707483,-1.6054421768707483,-1.6054421768707483,-1.6054421768707483,-1.6054421768707483,-1.6054421768707483,-1.6054421768707483,-1.6054421768707483,-1.6054421768707483,-1.6054421768707483,-1.6054421768707483,-1.6054421768707483,-1.6054421768707483,-1.6054421768707483,-1.6054421768707483,-1.6054421768707483,-1.6054421768707483,-1.6054421768707483,-1.6054421768707483,-1.6054421768707483,-1.6054421768707483,-1.6054421768707483,-1.6054421768707483,-1.6054421768707483,-1.6054421768707483,-1.6054421768707483,-1.6054421768707483,-1.6054421768707483,-1.6054421768707483,-1.6054421768707483,-1.6054421768707483,-1.6054421768707483,-1.6054421768707483,-1.6054421768707483,-1.6054421768707483,-1.6054421768707483,-1.6054421768707483,-1.6054421768707483,-1.6054421768707483,-1.6054421768707483,-1.6054421768707483,-1.6054421768707483,-1.6054421768707483,-1.6054421768707483,-1.6054421768707483,-1.6054421768707483,-1.6054421768707483,-1.6054421768707483,-1.6054421768707483,-1.6054421768707483,-1.6054421768707483,-1.6054421768707483,-1.6054421768707483,-1.6054421768707483,-1.6054421768707483,-1.6054421768707483,-1.6054421768707483,-1.6054421768707483,-1.6054421768707483,-1.6054421768707483,-1.6054421768707483,-1.6054421768707483,-1.6054421768707483,-1.6054421768707483,-1.6054421768707483,-1.6054421768707483,-1.6054421768707483,-1.6054421768707483,-1.6054421768707483,-1.6054421768707483,-1.6054421768707483,-1.6054421768707483,-1.6054421768707483,-1.6054421768707483,-1.6054421768707483,-1.6054421768707483,-1.6054421768707483,-1.6054421768707483,-1.6054421768707483,-1.6054421768707483,-1.6054421768707483,-1.6054421768707483,-1.6054421768707483,-1.6054421768707483,-1.6054421768707483,-1.6054421768707483,-1.6054421768707483,-1.6054421768707483,-1.6054421768707483,-1.6054421768707483,-1.6054421768707483,-1.6054421768707483,-1.6054421768707483,-1.6054421768707483,-1.6054421768707483,-1.6054421768707483,-1.6054421768707483,-1.6054421768707483,-1.6054421768707483,-1.6054421768707483,-1.6054421768707483,-1.6054421768707483,-1.6054421768707483,-1.6054421768707483,-1.6054421768707483,-1.6054421768707483,-1.6054421768707483,-1.6054421768707483,-1.6054421768707483,-1.6054421768707483,-1.6054421768707483,-1.6054421768707483,-1.6054421768707483,-1.6054421768707483,-1.6054421768707483,-1.6054421768707483,-1.6054421768707483,-1.6054421768707483,-1.6054421768707483,-1.6054421768707483,-1.6054421768707483,-1.6054421768707483,-1.6054421768707483,-1.6054421768707483,-1.6054421768707483,-1.6054421768707483,-1.6054421768707483,-1.6054421768707483,-1.6054421768707483,-1.6054421768707483,-1.6054421768707483,-1.6054421768707483,-1.6054421768707483,-1.6054421768707483,-1.6054421768707483,-1.6054421768707483,-1.6054421768707483,-1.6054421768707483,-1.6054421768707483,-1.6054421768707483,-1.6054421768707483,-1.6054421768707483,-1.6054421768707483,-1.6054421768707483,-1.6054421768707483,-1.6054421768707483,-1.6054421768707483,-1.6054421768707483,-1.6054421768707483,-1.6054421768707483,-1.6054421768707483,-1.6054421768707483,-1.6054421768707483,-1.6054421768707483,-1.6054421768707483,-1.6054421768707483,-1.6054421768707483,-1.6054421768707483,-1.6054421768707483,-1.6054421768707483,-1.6054421768707483,-1.6054421768707483,-1.6054421768707483,-1.6054421768707483,-1.6054421768707483,-1.6054421768707483,-1.6054421768707483,-1.6054421768707483,-1.6054421768707483,-1.6054421768707483,-1.6054421768707483,-1.6054421768707483,-1.6054421768707483,-1.6054421768707483,-1.6054421768707483,-1.6054421768707483,-1.6054421768707483,-1.6054421768707483,-1.6054421768707483,-1.6054421768707483,-1.6054421768707483,-1.6054421768707483,-1.6054421768707483,-1.6054421768707483,-1.6054421768707483,-1.6054421768707483,-1.6054421768707483,-1.6054421768707483,-1.6054421768707483,-1.6054421768707483,-1.6054421768707483,-1.6054421768707483,-1.6054421768707483,-1.6054421768707483,-1.6054421768707483,-1.6054421768707483,-1.6054421768707483,-1.6054421768707483,-1.6054421768707483,-1.6054421768707483,-1.6054421768707483,-1.6054421768707483,-1.6054421768707483,-1.6054421768707483,-1.6054421768707483,-1.6054421768707483,-1.6054421768707483,-1.6054421768707483,-1.6054421768707483,-1.6054421768707483,-1.6054421768707483,-1.6054421768707483,-1.6054421768707483,-1.6054421768707483,-1.6054421768707483,-1.6054421768707483,-1.6054421768707483,-1.6054421768707483,-1.6054421768707483,-1.6054421768707483,-1.6054421768707483,-1.6054421768707483,-1.6054421768707483,-1.6054421768707483,-1.6054421768707483,-1.6054421768707483,-1.6054421768707483,-1.6054421768707483,-1.6054421768707483,-1.6054421768707483,-1.6054421768707483,-1.6054421768707483,-1.6054421768707483,-1.6054421768707483,-1.6054421768707483,-1.6054421768707483,-1.6054421768707483,-1.6054421768707483,-1.6054421768707483,-1.6054421768707483,-1.6054421768707483,-1.6054421768707483,-1.6054421768707483,-1.6054421768707483,-1.6054421768707483,-1.6054421768707483,-1.6054421768707483,-1.6054421768707483,-1.6054421768707483,-1.6054421768707483,-1.6054421768707483,-1.6054421768707483,-1.6054421768707483,-1.6054421768707483,-1.6054421768707483,-1.6054421768707483,-1.6054421768707483,-1.6054421768707483,-1.6054421768707483,-1.6054421768707483,-1.6054421768707483,-1.6054421768707483,-1.6054421768707483,-1.6054421768707483,-1.6054421768707483,-1.6054421768707483,-1.6054421768707483,-1.6054421768707483,-1.6054421768707483,-1.6054421768707483,-1.6054421768707483,-1.6054421768707483,-1.6054421768707483,-1.6054421768707483,-1.6054421768707483,-1.6054421768707483,-1.6054421768707483,-1.6054421768707483,-1.6054421768707483,-1.6054421768707483,-1.6054421768707483,-1.6054421768707483,-1.6054421768707483,-1.6054421768707483,-1.6054421768707483,-1.6054421768707483,-1.6054421768707483,-1.6054421768707483,-1.6054421768707483,-1.6054421768707483,-1.6054421768707483,-1.6054421768707483,-1.6054421768707483,-1.6054421768707483,-1.6054421768707483,-1.6054421768707483,-1.6054421768707483,-1.6054421768707483,-1.6054421768707483,-1.6054421768707483,-1.6054421768707483,-1.6054421768707483,-1.6054421768707483,-1.6054421768707483,-1.6054421768707483,-1.6054421768707483,-1.6054421768707483,-1.6054421768707483,-1.6054421768707483,-1.6054421768707483,-1.6054421768707483,-1.6054421768707483,-1.6054421768707483,-1.6054421768707483,-1.6054421768707483,-1.6054421768707483,-1.6054421768707483,-1.6054421768707483,-1.6054421768707483,-1.6054421768707483,-1.6054421768707483,-1.6054421768707483,-1.6054421768707483,-1.6054421768707483,-1.6054421768707483,-1.6054421768707483,-1.6054421768707483,-1.6054421768707483,-1.6054421768707483,-1.6054421768707483,-1.6054421768707483,-1.6054421768707483,-1.6054421768707483,-1.6054421768707483,-1.6054421768707483,-1.6054421768707483,-1.6054421768707483,-1.6054421768707483,-1.6054421768707483,-1.6054421768707483,-1.6054421768707483,-1.6054421768707483,-1.6054421768707483,-1.6054421768707483,-1.6054421768707483,-1.6054421768707483,-1.6054421768707483,-1.6054421768707483,-1.6054421768707483,-1.6054421768707483,-1.6054421768707483,-1.6054421768707483,-1.6054421768707483,-1.6054421768707483,-1.6054421768707483,-1.6054421768707483,-1.6054421768707483,-1.6054421768707483,-1.6054421768707483,-1.6054421768707483,-1.6054421768707483,-1.6054421768707483,-1.6054421768707483,-1.6054421768707483,-1.6054421768707483,-1.6054421768707483,-1.6054421768707483,-1.6054421768707483,-1.6054421768707483,-1.6054421768707483,-1.6054421768707483,-1.6054421768707483,-1.6054421768707483,-1.6054421768707483,-1.6054421768707483,-1.6054421768707483,-1.6054421768707483,-1.6054421768707483,-1.6054421768707483,-1.6054421768707483,-1.6054421768707483,-1.6054421768707483,-1.6054421768707483,-1.6054421768707483,-1.6054421768707483,-1.6054421768707483,-1.6054421768707483,-1.6054421768707483,-1.6054421768707483,-1.6054421768707483,-1.6054421768707483,-1.6054421768707483,-1.6054421768707483,-1.6054421768707483,-1.6054421768707483,-1.6054421768707483,-1.6054421768707483,-1.6054421768707483,-1.6054421768707483,-1.6054421768707483,-1.6054421768707483,-1.6054421768707483,-1.6054421768707483,-1.6054421768707483,-1.6054421768707483,-1.6054421768707483,-1.6054421768707483,-1.6054421768707483,-1.6054421768707483,-1.6054421768707483,-1.6054421768707483,-1.6054421768707483,-1.6054421768707483,-1.6054421768707483,-1.6054421768707483,-1.6054421768707483,-1.6054421768707483,-1.6054421768707483,-1.6054421768707483,-1.6054421768707483,-1.6054421768707483,-1.6054421768707483,-1.6054421768707483,-1.6054421768707483,-1.6054421768707483,-1.6054421768707483,-1.6054421768707483,-1.6054421768707483,-1.6054421768707483,-1.6054421768707483,-1.6054421768707483,-1.6054421768707483,-1.6054421768707483,-1.6054421768707483,-1.6054421768707483,-1.6054421768707483,-1.6054421768707483,-1.6054421768707483,-1.6054421768707483,-1.6054421768707483,-1.6054421768707483,-1.6054421768707483,-1.6054421768707483,-1.6054421768707483,-1.6054421768707483,-1.6054421768707483,-1.6054421768707483,-1.6054421768707483,-1.6054421768707483,-1.6054421768707483,-1.6054421768707483,-1.6054421768707483,-1.6054421768707483,-1.6054421768707483,-1.6054421768707483,-1.6054421768707483,-1.6054421768707483,-1.6054421768707483,-1.6054421768707483,-1.6054421768707483,-1.6054421768707483,-1.6054421768707483,-1.6054421768707483,-1.6054421768707483,-1.6054421768707483,-1.6054421768707483,-1.6054421768707483,-1.6054421768707483,-1.6054421768707483,-1.6054421768707483,-1.6054421768707483,-1.6054421768707483,-1.6054421768707483,-1.6054421768707483,-1.6054421768707483,-1.6054421768707483,-1.6054421768707483,-1.6054421768707483,-1.6054421768707483,-1.6054421768707483,-1.6054421768707483,-1.6054421768707483,-1.6054421768707483,-1.6054421768707483,-1.6054421768707483,-1.6054421768707483,-1.6054421768707483,-1.6054421768707483,-1.6054421768707483,-1.6054421768707483,-1.6054421768707483,-1.6054421768707483,-1.6054421768707483,-1.6054421768707483,-1.6054421768707483,-1.6054421768707483,-1.6054421768707483,-1.6054421768707483,-1.6054421768707483,-1.6054421768707483,-1.6054421768707483,-1.6054421768707483,-1.6054421768707483,-1.6054421768707483,-1.6054421768707483,-1.6054421768707483,-1.6054421768707483,-1.6054421768707483,-1.6054421768707483,-1.6054421768707483,-1.6054421768707483,-1.6054421768707483,-1.6054421768707483,-1.6054421768707483,-1.6054421768707483,-1.6054421768707483,-1.6054421768707483,-1.6054421768707483,-1.6054421768707483,-1.6054421768707483,-1.6054421768707483,-1.6054421768707483,-1.6054421768707483,-1.6054421768707483,-1.6054421768707483,-1.6054421768707483,-1.6054421768707483,-1.6054421768707483,-1.6054421768707483,-1.6054421768707483,-1.6054421768707483,-1.6054421768707483,-1.6054421768707483,-1.6054421768707483,-1.6054421768707483,-1.6054421768707483,-1.6054421768707483,-1.6054421768707483,-1.6054421768707483,-1.6054421768707483,-1.6054421768707483,-1.6054421768707483,-1.6054421768707483,-1.6054421768707483,-1.6054421768707483,-1.6054421768707483,-1.6054421768707483,-1.6054421768707483,-1.6054421768707483,-1.6054421768707483,-1.6054421768707483,-1.6054421768707483,-1.6054421768707483,-1.6054421768707483,-1.6054421768707483,-1.6054421768707483,-1.6054421768707483,-1.6054421768707483,-1.6054421768707483,-1.6054421768707483,-1.6054421768707483,-1.6054421768707483,-1.6054421768707483,-1.6054421768707483,-1.6054421768707483,-1.6054421768707483,-1.6054421768707483,-1.6054421768707483,-1.6054421768707483,-1.6054421768707483,-1.6054421768707483,-1.6054421768707483,-1.6054421768707483,-1.6054421768707483,-1.6054421768707483,-1.6054421768707483,-1.6054421768707483,-1.6054421768707483,-1.6054421768707483,-1.6054421768707483,-1.6054421768707483,-1.6054421768707483,-1.6054421768707483,-1.6054421768707483,-1.6054421768707483,-1.6054421768707483,-1.6054421768707483,-1.6054421768707483,-1.6054421768707483,-1.6054421768707483,-1.6054421768707483,-1.6054421768707483,-1.6054421768707483,-1.6054421768707483,-1.6054421768707483,-1.6054421768707483,-1.6054421768707483,-1.6054421768707483,-1.6054421768707483,-1.6054421768707483,-1.6054421768707483,-1.6054421768707483,-1.6054421768707483,-1.6054421768707483,-1.6054421768707483,-1.6054421768707483,-1.6054421768707483,-1.6054421768707483,-1.6054421768707483,-1.6054421768707483,-1.6054421768707483,-1.6054421768707483,-1.6054421768707483,-1.6054421768707483,-1.6054421768707483,-1.6054421768707483,-1.6054421768707483,-1.6054421768707483,-1.6054421768707483,-1.6054421768707483,-1.6054421768707483,-1.6054421768707483,-1.6054421768707483,-1.6054421768707483,-1.6054421768707483,-1.6054421768707483,-1.6054421768707483,-1.6054421768707483,-1.6054421768707483,-1.6054421768707483,-1.6054421768707483,-1.6054421768707483,-1.6054421768707483,-1.6054421768707483,-1.6054421768707483,-1.6054421768707483,-1.6054421768707483,-1.6054421768707483,-1.6054421768707483,-1.6054421768707483,-1.6054421768707483,-1.6054421768707483,-1.6054421768707483,-1.6054421768707483,-1.6054421768707483,-1.6054421768707483,-1.6054421768707483,-1.6054421768707483,-1.6054421768707483,-1.6054421768707483,-1.6054421768707483,-1.6054421768707483,-1.6054421768707483,-1.6054421768707483,-1.6054421768707483,-1.6054421768707483,-1.6054421768707483,-1.6054421768707483,-1.6054421768707483,-1.6054421768707483,-1.6054421768707483,-1.6054421768707483,-1.6054421768707483,-1.6054421768707483,-1.6054421768707483,-1.6054421768707483,-1.6054421768707483,-1.6054421768707483,-1.6054421768707483,-1.6054421768707483,-1.6054421768707483,-1.6054421768707483,-1.6054421768707483,-1.6054421768707483,-1.6054421768707483,-1.6054421768707483,-1.6054421768707483,-1.6054421768707483,-1.6054421768707483,-1.6054421768707483,-1.6054421768707483,-1.6054421768707483,-1.6054421768707483,-1.6054421768707483,-1.6054421768707483,-1.6054421768707483,-1.6054421768707483,-1.6054421768707483,-1.6054421768707483,-1.6054421768707483,-1.6054421768707483,-1.6054421768707483,-1.6054421768707483,-1.6054421768707483,-1.6054421768707483,-1.6054421768707483,-1.6054421768707483,-1.6054421768707483,-1.6054421768707483,-1.6054421768707483,-1.6054421768707483,-1.6054421768707483,-1.6054421768707483,-1.6054421768707483,-1.6054421768707483,-1.6054421768707483,-1.6054421768707483,-1.6054421768707483,-1.6054421768707483,-1.6054421768707483,-1.6054421768707483,-1.6054421768707483,-1.6054421768707483,-1.6054421768707483,-1.6054421768707483,-1.6054421768707483,-1.6054421768707483,-1.6054421768707483,-1.6054421768707483,-1.6054421768707483,-1.6054421768707483,-1.6054421768707483,-1.6054421768707483,-1.6054421768707483,-1.6054421768707483,-1.6054421768707483,-1.6054421768707483,-1.6054421768707483,-1.6054421768707483,-1.6054421768707483,-1.6054421768707483,-1.6054421768707483,-1.6054421768707483,-1.6054421768707483,-1.6054421768707483,-1.6054421768707483,-1.6054421768707483,-1.6054421768707483,-1.6054421768707483,-1.6054421768707483,-1.6054421768707483,-1.6054421768707483,-1.6054421768707483,-1.6054421768707483,-1.6054421768707483,-1.6054421768707483,-1.6054421768707483,-1.6054421768707483,-1.6054421768707483,-1.6054421768707483,-1.6054421768707483,-1.6054421768707483,-1.6054421768707483,-1.6054421768707483,-1.6054421768707483,-1.6054421768707483,-1.6054421768707483,-1.6054421768707483,-1.6054421768707483,-1.6054421768707483,-1.6054421768707483,-1.6054421768707483,-1.6054421768707483,-1.6054421768707483,-1.6054421768707483,-1.6054421768707483,-1.6054421768707483,-1.6054421768707483,-1.6054421768707483,-1.6054421768707483,-1.6054421768707483,-1.6054421768707483,-1.6054421768707483,-1.6054421768707483,-1.6054421768707483,-1.6054421768707483,-1.6054421768707483,-1.6054421768707483,-1.6054421768707483,-1.6054421768707483,-1.6054421768707483,-1.6054421768707483,-1.6054421768707483,-1.6054421768707483,-1.6054421768707483,-1.6054421768707483,-1.6054421768707483,-1.6054421768707483,-1.6054421768707483,-1.6054421768707483,-1.6054421768707483,-1.6054421768707483,-1.6054421768707483,-1.6054421768707483,-1.6054421768707483,-1.6054421768707483,-1.6054421768707483,-1.6054421768707483,-1.6054421768707483,-1.6054421768707483,-1.6054421768707483,-1.6054421768707483,-1.6054421768707483,-1.6054421768707483,-1.6054421768707483,-1.6054421768707483,-1.6054421768707483,-1.6054421768707483,-1.6054421768707483,-1.6054421768707483,-1.6054421768707483,-1.6054421768707483,-1.6054421768707483,-1.6054421768707483,-1.6054421768707483,-1.6054421768707483,-1.6054421768707483,-1.6054421768707483,-1.6054421768707483,-1.6054421768707483,-1.6054421768707483,-1.6054421768707483,-1.6054421768707483,-1.6054421768707483,-1.6054421768707483,-1.6054421768707483,-1.6054421768707483,-1.6054421768707483,-1.6054421768707483,-1.6054421768707483,-1.6054421768707483,-1.6054421768707483,-1.6054421768707483,-1.6054421768707483,-1.6054421768707483,-1.6054421768707483,-1.6054421768707483,-1.6054421768707483,-1.6054421768707483,-1.6054421768707483,-1.6054421768707483,-1.6054421768707483,-1.6054421768707483,-1.6054421768707483,-1.6054421768707483,-1.6054421768707483,-1.6054421768707483,-1.6054421768707483,-1.6054421768707483,-1.6054421768707483,-1.6054421768707483,-1.6054421768707483,-1.6054421768707483,-1.6054421768707483,-1.6054421768707483,-1.6054421768707483,-1.6054421768707483,-1.6054421768707483,-1.6054421768707483,-1.6054421768707483,-1.6054421768707483,-1.6054421768707483,-1.6054421768707483,-1.6054421768707483,-1.6054421768707483,-1.6054421768707483,-1.6054421768707483,-1.6054421768707483,-1.6054421768707483,-1.6054421768707483,-1.6054421768707483,-1.6054421768707483,-1.6054421768707483,-1.6054421768707483,-1.6054421768707483,-1.6054421768707483,-1.6054421768707483,-1.6054421768707483,-1.6054421768707483,-1.6054421768707483,-1.6054421768707483,-1.6054421768707483,-1.6054421768707483,-1.6054421768707483,-1.6054421768707483,-1.6054421768707483,-1.6054421768707483,-1.6054421768707483,-1.6054421768707483,-1.6054421768707483,-1.6054421768707483,-1.6054421768707483,-1.6054421768707483,-1.6054421768707483,-1.6054421768707483,-1.6054421768707483,-1.6054421768707483,-1.6054421768707483,-1.6054421768707483,-1.6054421768707483,-1.6054421768707483,-1.6054421768707483,-1.6054421768707483,-1.6054421768707483,-1.6054421768707483,-1.6054421768707483,-1.6054421768707483,-1.6054421768707483,-1.6054421768707483,-1.6054421768707483,-1.6054421768707483,-1.6054421768707483,-1.6054421768707483,-1.6054421768707483,-1.6054421768707483,-1.6054421768707483,-1.6054421768707483,-1.6054421768707483,-1.6054421768707483,-1.6054421768707483,-1.6054421768707483,-1.6054421768707483,-1.6054421768707483,-1.6054421768707483,-1.6054421768707483,-1.6054421768707483,-1.6054421768707483,-1.6054421768707483,-1.6054421768707483,-1.6054421768707483,-1.6054421768707483,-1.6054421768707483,-1.6054421768707483,-1.6054421768707483,-1.6054421768707483,-1.6054421768707483,-1.6054421768707483,-1.6054421768707483,-1.6054421768707483,-1.6054421768707483,-1.6054421768707483,-1.6054421768707483,-1.6054421768707483,-1.6054421768707483,-1.6054421768707483,-1.6054421768707483,-1.6054421768707483,-1.6054421768707483,-1.6054421768707483,-1.6054421768707483,-1.6054421768707483,-1.6054421768707483,-1.6054421768707483,-1.6054421768707483,-1.6054421768707483,-1.6054421768707483,-1.6054421768707483,-1.6054421768707483,-1.6054421768707483,-1.6054421768707483,-1.6054421768707483,-1.6054421768707483,-1.6054421768707483,-1.6054421768707483,-1.6054421768707483,-1.6054421768707483,-1.6054421768707483,-1.6054421768707483,-1.6054421768707483,-1.6054421768707483,-1.6054421768707483,-1.6054421768707483,-1.6054421768707483,-1.6054421768707483,-1.6054421768707483,-1.6054421768707483,-1.6054421768707483,-1.6054421768707483,-1.6054421768707483,-1.6054421768707483,-1.6054421768707483,-1.6054421768707483,-1.6054421768707483,-1.6054421768707483,-1.6054421768707483,-1.6054421768707483,-1.6054421768707483,-1.6054421768707483,-1.6054421768707483,-1.6054421768707483,-1.6054421768707483,-1.6054421768707483,-1.6054421768707483,-1.6054421768707483,-1.6054421768707483,-1.6054421768707483,-1.6054421768707483,-1.6054421768707483,-1.6054421768707483,-1.6054421768707483,-1.6054421768707483,-1.6054421768707483,-1.6054421768707483,-1.6054421768707483,-1.6054421768707483,-1.6054421768707483,-1.6054421768707483,-1.6054421768707483,-1.6054421768707483,-1.6054421768707483,-1.6054421768707483,-1.6054421768707483,-1.6054421768707483,-1.6054421768707483,-1.6054421768707483,-1.6054421768707483,-1.6054421768707483,-1.6054421768707483,-1.6054421768707483,-1.6054421768707483,-1.6054421768707483,-1.6054421768707483,-1.6054421768707483,-1.6054421768707483,-1.6054421768707483,-1.6054421768707483,-1.6054421768707483,-1.6054421768707483,-1.6054421768707483,-1.6054421768707483,-1.6054421768707483,-1.6054421768707483,-1.6054421768707483,-1.6054421768707483,-1.6054421768707483,-1.6054421768707483,-1.6054421768707483,-1.6054421768707483,-1.6054421768707483,-1.6054421768707483,-1.6054421768707483,-1.6054421768707483,-1.6054421768707483,-1.6054421768707483,-1.6054421768707483,-1.6054421768707483,-1.6054421768707483,-1.6054421768707483,-1.6054421768707483,-1.6054421768707483,-1.6054421768707483,-1.6054421768707483,-1.6054421768707483,-1.6054421768707483,-1.6054421768707483,-1.6054421768707483,-1.6054421768707483,-1.6054421768707483,-1.6054421768707483,-1.6054421768707483,-1.6054421768707483,-1.6054421768707483,-1.6054421768707483,-1.6054421768707483,-1.6054421768707483,-1.6054421768707483,-1.6054421768707483,-1.6054421768707483,-1.6054421768707483,-1.6054421768707483,-1.6054421768707483,-1.6054421768707483,-1.6054421768707483,-1.6054421768707483,-1.6054421768707483,-1.6054421768707483,-1.6054421768707483,-1.6054421768707483,-1.6054421768707483,-1.6054421768707483,-1.6054421768707483,-1.6054421768707483,-1.6054421768707483,-1.6054421768707483,-1.6054421768707483,-1.6054421768707483,-1.6054421768707483,-1.6054421768707483,-1.6054421768707483,-1.6054421768707483,-1.6054421768707483,-1.6054421768707483,-1.6054421768707483,-1.6054421768707483,-1.6054421768707483,-1.6054421768707483,-1.6054421768707483,-1.6054421768707483,-1.6054421768707483,-1.6054421768707483,-1.6054421768707483,-1.6054421768707483,-1.6054421768707483,-1.6054421768707483,-1.6054421768707483,-1.6054421768707483,-1.6054421768707483,-1.6054421768707483,-1.6054421768707483,-1.6054421768707483,-1.6054421768707483,-1.6054421768707483,-1.6054421768707483,-1.6054421768707483,-1.6054421768707483,-1.6054421768707483,-1.6054421768707483,-1.6054421768707483,-1.6054421768707483,-1.6054421768707483,-1.6054421768707483,-1.6054421768707483,-1.6054421768707483,-1.6054421768707483,-1.6054421768707483,-1.6054421768707483,-1.6054421768707483,-1.6054421768707483,-1.6054421768707483,-1.6054421768707483,-1.6054421768707483,-1.6054421768707483,-1.6054421768707483,-1.6054421768707483,-1.6054421768707483,-1.6054421768707483,-1.6054421768707483,-1.6054421768707483,-1.6054421768707483,-1.6054421768707483,-1.6054421768707483,-1.6054421768707483,-1.6054421768707483,-1.6054421768707483,-1.6054421768707483,-1.6054421768707483,-1.6054421768707483,-1.6054421768707483,-1.6054421768707483,-1.6054421768707483,-1.6054421768707483,-1.6054421768707483,-1.6054421768707483,-1.6054421768707483,-1.6054421768707483,-1.6054421768707483,-1.6054421768707483,-1.6054421768707483,-1.6054421768707483,-1.6054421768707483,-1.6054421768707483,-1.6054421768707483,-1.6054421768707483,-1.6054421768707483,-1.6054421768707483,-1.6054421768707483,-1.6054421768707483,-1.6054421768707483,-1.6054421768707483,-1.6054421768707483,-1.6054421768707483,-1.6054421768707483,-1.6054421768707483,-1.6054421768707483,-1.6054421768707483,-1.6054421768707483,-1.6054421768707483,-1.6054421768707483,-1.6054421768707483,-1.6054421768707483,-1.6054421768707483,-1.6054421768707483,-1.6054421768707483,-1.6054421768707483,-1.6054421768707483,-1.6054421768707483,-1.6054421768707483,-1.6054421768707483,-1.6054421768707483,-1.6054421768707483,-1.6054421768707483,-1.6054421768707483,-1.6054421768707483,-1.6054421768707483,-1.6054421768707483,-1.6054421768707483,-1.6054421768707483,-1.6054421768707483,-1.6054421768707483,-1.6054421768707483,-1.6054421768707483,-1.6054421768707483,-1.6054421768707483,-1.6054421768707483,-1.6054421768707483,-1.6054421768707483,-1.6054421768707483,-1.6054421768707483,-1.6054421768707483,-1.6054421768707483,-1.6054421768707483,-1.6054421768707483,-1.6054421768707483,-1.6054421768707483,-1.6054421768707483,-1.6054421768707483,-1.6054421768707483,-1.6054421768707483,-1.6054421768707483,-1.6054421768707483,-1.6054421768707483,-1.6054421768707483,-1.6054421768707483,-1.6054421768707483,-1.6054421768707483,-1.6054421768707483,-1.6054421768707483,-1.6054421768707483,-1.6054421768707483,-1.6054421768707483,-1.6054421768707483,-1.6054421768707483,-1.6054421768707483,-1.6054421768707483,-1.6054421768707483,-1.6054421768707483,-1.6054421768707483,-1.6054421768707483,-1.6054421768707483,-1.6054421768707483,-1.6054421768707483,-1.6054421768707483,-1.6054421768707483,-1.6054421768707483,-1.6054421768707483,-1.6054421768707483,-1.6054421768707483,-1.6054421768707483,-1.6054421768707483,-1.6054421768707483,-1.6054421768707483,-1.6054421768707483,-1.6054421768707483,-1.6054421768707483,-1.6054421768707483,-1.6054421768707483,-1.6054421768707483,-1.6054421768707483,-1.6054421768707483,-1.6054421768707483,-1.6054421768707483,-1.6054421768707483,-1.6054421768707483,-1.6054421768707483,-1.6054421768707483,-1.6054421768707483,-1.6054421768707483,-1.6054421768707483,-1.6054421768707483,-1.6054421768707483,-1.6054421768707483,-1.6054421768707483,-1.6054421768707483,-1.6054421768707483,-1.6054421768707483,-1.6054421768707483,-1.6054421768707483,-1.6054421768707483,-1.6054421768707483,-1.6054421768707483,-1.6054421768707483,-1.6054421768707483,-1.6054421768707483,-1.6054421768707483,-1.6054421768707483,-1.6054421768707483,-1.6054421768707483,-1.6054421768707483,-1.6054421768707483,-1.6054421768707483,-1.6054421768707483,-1.6054421768707483,-1.6054421768707483,-1.6054421768707483,-1.6054421768707483,-1.6054421768707483,-1.6054421768707483,-1.6054421768707483,-1.6054421768707483,-1.6054421768707483,-1.6054421768707483,-1.6054421768707483,-1.6054421768707483,-1.6054421768707483,-1.6054421768707483,-1.6054421768707483,-1.6054421768707483,-1.6054421768707483,-1.6054421768707483,-1.6054421768707483,-1.6054421768707483,-1.6054421768707483,-1.6054421768707483,-1.6054421768707483,-1.6054421768707483,-1.6054421768707483,-1.6054421768707483,-1.6054421768707483,-1.6054421768707483,-1.6054421768707483,-1.6054421768707483,-1.6054421768707483,-1.6054421768707483,-1.6054421768707483,-1.6054421768707483,-1.6054421768707483,-1.6054421768707483,-1.6054421768707483,-1.6054421768707483,-1.6054421768707483,-1.6054421768707483,-1.6054421768707483,-1.6054421768707483,-1.6054421768707483,-1.6054421768707483,-1.6054421768707483,-1.6054421768707483,-1.6054421768707483,-1.6054421768707483,-1.6054421768707483,-1.6054421768707483,-1.6054421768707483,-1.6054421768707483,-1.6054421768707483,-1.6054421768707483,-1.6054421768707483,-1.6054421768707483,-1.6054421768707483,-1.6054421768707483,-1.6054421768707483,-1.6054421768707483,-1.6054421768707483,-1.6054421768707483,-1.6054421768707483,-1.6054421768707483,-1.6054421768707483,-1.6054421768707483,-1.6054421768707483,-1.6054421768707483,-1.6054421768707483,-1.6054421768707483,-1.6054421768707483,-1.6054421768707483,-1.6054421768707483,-1.6054421768707483,-1.6054421768707483,-1.6054421768707483,-1.6054421768707483,-1.6054421768707483,-1.6054421768707483,-1.6054421768707483,-1.6054421768707483,-1.6054421768707483,-1.6054421768707483,-1.6054421768707483,-1.6054421768707483,-1.6054421768707483,-1.6054421768707483,-1.6054421768707483,-1.6054421768707483,-1.6054421768707483,-1.6054421768707483,-1.6054421768707483,-1.6054421768707483,-1.6054421768707483,-1.6054421768707483,-1.6054421768707483,-1.6054421768707483,-1.6054421768707483,-1.6054421768707483,-1.6054421768707483,-1.6054421768707483,-1.6054421768707483,-1.6054421768707483,-1.6054421768707483,-1.6054421768707483,-1.6054421768707483,-1.6054421768707483,-1.6054421768707483,-1.6054421768707483,-1.6054421768707483,-1.6054421768707483,-1.6054421768707483,-1.6054421768707483,-1.6054421768707483,-1.6054421768707483,-1.6054421768707483,-1.6054421768707483,-1.6054421768707483,-1.6054421768707483,-1.6054421768707483,-1.6054421768707483,-1.6054421768707483,-1.6054421768707483,-1.6054421768707483,-1.6054421768707483,-1.6054421768707483,-1.6054421768707483,-1.6054421768707483,-1.6054421768707483,-1.6054421768707483,-1.6054421768707483,-1.6054421768707483,-1.6054421768707483,-1.6054421768707483,-1.6054421768707483,-1.6054421768707483,-1.6054421768707483,-1.6054421768707483,-1.6054421768707483,-1.6054421768707483,-1.6054421768707483,-1.6054421768707483,-1.6054421768707483,-1.6054421768707483,-1.6054421768707483,-1.6054421768707483,-1.6054421768707483,-1.6054421768707483,-1.6054421768707483,-1.6054421768707483,-1.6054421768707483,-1.6054421768707483,-1.6054421768707483,-1.6054421768707483,-1.6054421768707483,-1.6054421768707483,-1.6054421768707483,-1.6054421768707483,-1.6054421768707483,-1.6054421768707483,-1.6054421768707483,-1.6054421768707483,-1.6054421768707483,-1.6054421768707483,-1.6054421768707483,-1.6054421768707483,-1.6054421768707483,-1.6054421768707483,-1.6054421768707483,-1.6054421768707483,-1.6054421768707483,-1.6054421768707483,-1.6054421768707483,-1.6054421768707483,-1.6054421768707483,-1.6054421768707483,-1.6054421768707483,-1.6054421768707483,-1.6054421768707483,-1.6054421768707483,-1.6054421768707483,-1.6054421768707483,-1.6054421768707483,-1.6054421768707483,-1.6054421768707483,-1.6054421768707483,-1.6054421768707483,-1.6054421768707483,-1.6054421768707483,-1.6054421768707483,-1.6054421768707483,-1.6054421768707483,-1.6054421768707483,-1.6054421768707483,-1.6054421768707483,-1.6054421768707483,-1.6054421768707483,-1.6054421768707483,-1.6054421768707483,-1.6054421768707483,-1.6054421768707483,-1.6054421768707483,-1.6054421768707483,-1.6054421768707483,-1.6054421768707483,-1.6054421768707483,-1.6054421768707483,-1.6054421768707483,-1.6054421768707483,-1.6054421768707483,-1.6054421768707483,-1.6054421768707483,-1.6054421768707483,-1.6054421768707483,-1.6054421768707483,-1.6054421768707483,-1.6054421768707483,-1.6054421768707483,-1.6054421768707483,-1.6054421768707483,-1.6054421768707483,-1.6054421768707483,-1.6054421768707483,-1.6054421768707483,-1.6054421768707483,-1.6054421768707483,-1.6054421768707483,-1.6054421768707483,-1.6054421768707483,-1.6054421768707483,-1.6054421768707483,-1.6054421768707483,-1.6054421768707483,-1.6054421768707483,-1.6054421768707483,-1.6054421768707483,-1.6054421768707483,-1.6054421768707483,-1.6054421768707483,-1.6054421768707483,-1.6054421768707483,-1.6054421768707483,-1.6054421768707483,-1.6054421768707483,-1.6054421768707483,-1.6054421768707483,-1.6054421768707483,-1.6054421768707483,-1.6054421768707483,-1.6054421768707483,-1.6054421768707483,-1.6054421768707483,-1.6054421768707483,-1.6054421768707483,-1.6054421768707483,-1.6054421768707483,-1.6054421768707483,-1.6054421768707483,-1.6054421768707483,-1.6054421768707483,-1.6054421768707483,-1.6054421768707483,-1.6054421768707483,-1.6054421768707483,-1.6054421768707483,-1.6054421768707483,-1.6054421768707483,-1.6054421768707483,-1.6054421768707483,-1.6054421768707483,-1.6054421768707483,-1.6054421768707483,-1.6054421768707483,-1.6054421768707483,-1.6054421768707483,-1.6054421768707483,-1.6054421768707483,-1.6054421768707483,-1.6054421768707483,-1.6054421768707483,-1.6054421768707483,-1.6054421768707483,-1.6054421768707483,-1.6054421768707483,-1.6054421768707483,-1.6054421768707483,-1.6054421768707483,-1.6054421768707483,-1.6054421768707483,-1.6054421768707483,-1.6054421768707483,-1.6054421768707483,-1.6054421768707483,-1.6054421768707483,-1.6054421768707483,-1.6054421768707483,-1.6054421768707483,-1.6054421768707483,-1.6054421768707483,-1.6054421768707483,-1.6054421768707483,-1.6054421768707483,-1.6054421768707483,-1.6054421768707483,-1.6054421768707483,-1.6054421768707483,-1.6054421768707483,-1.6054421768707483,-1.6054421768707483,-1.6054421768707483,-1.6054421768707483,-1.6054421768707483,-1.6054421768707483,-1.6054421768707483,-1.6054421768707483,-1.6054421768707483,-1.6054421768707483,-1.6054421768707483,-1.6054421768707483,-1.6054421768707483,-1.6054421768707483,-1.6054421768707483,-1.6054421768707483,-1.6054421768707483,-1.6054421768707483,-1.6054421768707483,-1.6054421768707483,-1.6054421768707483,-1.6054421768707483,-1.6054421768707483,-1.6054421768707483,-1.6054421768707483,-1.6054421768707483,-1.6054421768707483,-1.6054421768707483,-1.6054421768707483,-1.6054421768707483,-1.6054421768707483,-1.6054421768707483,-1.6054421768707483,-1.6054421768707483,-1.6054421768707483,-1.6054421768707483,-1.6054421768707483,-1.6054421768707483,-1.6054421768707483,-1.6054421768707483,-1.6054421768707483,-1.6054421768707483,-1.6054421768707483,-1.6054421768707483,-1.6054421768707483,-1.6054421768707483,-1.6054421768707483,-1.6054421768707483,-1.6054421768707483,-1.6054421768707483,-1.6054421768707483,-1.6054421768707483,-1.6054421768707483,-1.6054421768707483,-1.6054421768707483,-1.6054421768707483,-1.6054421768707483,-1.6054421768707483,-1.6054421768707483,-1.6054421768707483,-1.6054421768707483,-1.6054421768707483,-1.6054421768707483,-1.6054421768707483,-1.6054421768707483,-1.6054421768707483,-1.6054421768707483,-1.6054421768707483,-1.6054421768707483,-1.6054421768707483,-1.6054421768707483,-1.6054421768707483,-1.6054421768707483,-1.6054421768707483,-1.6054421768707483,-1.6054421768707483,-1.6054421768707483,-1.6054421768707483,-1.6054421768707483,-1.6054421768707483,-1.6054421768707483,-1.6054421768707483,-1.6054421768707483,-1.6054421768707483,-1.6054421768707483,-1.6054421768707483,-1.6054421768707483,-1.6054421768707483,-1.6054421768707483,-1.6054421768707483,-1.6054421768707483,-1.6054421768707483,-1.6054421768707483,-1.6054421768707483,-1.6054421768707483,-1.6054421768707483,-1.6054421768707483,-1.6054421768707483,-1.6054421768707483,-1.6054421768707483,-1.6054421768707483,-1.6054421768707483,-1.6054421768707483,-1.6054421768707483,-1.6054421768707483,-1.6054421768707483,-1.6054421768707483,-1.6054421768707483,-1.6054421768707483,-1.6054421768707483,-1.6054421768707483,-1.6054421768707483,-1.6054421768707483,-1.6054421768707483,-1.6054421768707483,-1.6054421768707483,-1.6054421768707483,-1.6054421768707483,-1.6054421768707483,-1.6054421768707483,-1.6054421768707483,-1.6054421768707483,-1.6054421768707483,-1.6054421768707483,-1.6054421768707483,-1.6054421768707483,-1.6054421768707483,-1.6054421768707483,-1.6054421768707483,-1.6054421768707483,-1.6054421768707483,-1.6054421768707483,-1.6054421768707483,-1.6054421768707483,-1.6054421768707483,-1.6054421768707483,-1.6054421768707483,-1.6054421768707483,-1.6054421768707483,-1.6054421768707483,-1.6054421768707483,-1.6054421768707483,-1.6054421768707483,-1.6054421768707483,-1.6054421768707483,-1.6054421768707483,-1.6054421768707483,-1.6054421768707483,-1.6054421768707483,-1.6054421768707483,-1.6054421768707483,-1.6054421768707483,-1.6054421768707483,-1.6054421768707483,-1.6054421768707483,-1.6054421768707483,-1.6054421768707483,-1.6054421768707483,-1.6054421768707483,-1.6054421768707483,-1.6054421768707483,-1.6054421768707483,-1.6054421768707483,-1.6054421768707483,-1.6054421768707483,-1.6054421768707483,-1.6054421768707483,-1.6054421768707483,-1.6054421768707483,-1.6054421768707483,-1.6054421768707483,-1.6054421768707483,-1.6054421768707483,-1.6054421768707483,-1.6054421768707483,-1.6054421768707483,-1.6054421768707483,-1.6054421768707483,-1.6054421768707483,-1.6054421768707483,-1.6054421768707483,-1.6054421768707483,-1.6054421768707483,-1.6054421768707483,-1.6054421768707483,-1.6054421768707483,-1.6054421768707483,-1.6054421768707483,-1.6054421768707483,-1.6054421768707483,-1.6054421768707483,-1.6054421768707483,-1.6054421768707483,-1.6054421768707483,-1.6054421768707483,-1.6054421768707483,-1.6054421768707483,-1.6054421768707483,-1.6054421768707483,-1.6054421768707483,-1.6054421768707483,-1.6054421768707483,-1.6054421768707483,-1.6054421768707483,-1.6054421768707483,-1.6054421768707483,-1.6054421768707483,-1.6054421768707483,-1.6054421768707483,-1.6054421768707483,-1.6054421768707483,-1.6054421768707483,-1.6054421768707483,-1.6054421768707483,-1.6054421768707483,-1.6054421768707483,-1.6054421768707483,-1.6054421768707483,-1.6054421768707483,-1.6054421768707483,-1.6054421768707483,-1.6054421768707483,-1.6054421768707483,-1.6054421768707483,-1.6054421768707483,-1.6054421768707483,-1.6054421768707483,-1.6054421768707483,-1.6054421768707483,-1.6054421768707483,-1.6054421768707483,-1.6054421768707483,-1.6054421768707483,-1.6054421768707483,-1.6054421768707483,-1.6054421768707483,-1.6054421768707483,-1.6054421768707483,-1.6054421768707483,-1.6054421768707483,-1.6054421768707483,-1.6054421768707483,-1.6054421768707483,-1.6054421768707483,-1.6054421768707483,-1.6054421768707483,-1.6054421768707483,-1.6054421768707483,-1.6054421768707483,-1.6054421768707483,-1.6054421768707483,-1.6054421768707483,-1.6054421768707483,-1.6054421768707483,-1.6054421768707483,-1.6054421768707483,-1.6054421768707483,-1.6054421768707483,-1.6054421768707483,-1.6054421768707483,-1.6054421768707483,-1.6054421768707483,-1.6054421768707483,-1.6054421768707483,-1.6054421768707483,-1.6054421768707483,-1.6054421768707483,-1.6054421768707483,-1.6054421768707483,-1.6054421768707483,-1.6054421768707483,-1.6054421768707483,-1.6054421768707483,-1.6054421768707483,-1.6054421768707483,-1.6054421768707483,-1.6054421768707483,-1.6054421768707483,-1.6054421768707483,-1.6054421768707483,-1.6054421768707483,-1.6054421768707483,-1.6054421768707483,-1.6054421768707483,-1.6054421768707483,-1.6054421768707483,-1.6054421768707483,-1.6054421768707483,-1.6054421768707483,-1.6054421768707483,-1.6054421768707483,-1.6054421768707483,-1.6054421768707483,-1.6054421768707483,-1.6054421768707483,-1.6054421768707483,-1.6054421768707483,-1.6054421768707483,-1.6054421768707483,-1.6054421768707483,-1.6054421768707483,-1.6054421768707483,-1.6054421768707483,-1.6054421768707483,-1.6054421768707483,-1.6054421768707483,-1.6054421768707483,-1.6054421768707483,-1.6054421768707483,-1.6054421768707483,-1.6054421768707483,-1.6054421768707483,-1.6054421768707483,-1.6054421768707483,-1.6054421768707483,-1.6054421768707483,-1.6054421768707483,-1.6054421768707483,-1.6054421768707483,-1.6054421768707483,-1.6054421768707483,-1.6054421768707483,-1.6054421768707483,-1.6054421768707483,-1.6054421768707483,-1.6054421768707483,-1.6054421768707483,-1.6054421768707483,-1.6054421768707483,-1.6054421768707483,-1.6054421768707483,-1.6054421768707483,-1.6054421768707483,-1.6054421768707483,-1.6054421768707483,-1.6054421768707483,-1.6054421768707483,-1.6054421768707483,-1.6054421768707483,-1.6054421768707483,-1.6054421768707483,-1.6054421768707483,-1.6054421768707483,-1.6054421768707483,-1.6054421768707483,-1.6054421768707483,-1.6054421768707483,-1.6054421768707483,-1.6054421768707483,-1.6054421768707483,-1.6054421768707483,-1.6054421768707483,-1.6054421768707483,-1.6054421768707483,-1.6054421768707483,-1.6054421768707483,-1.6054421768707483,-1.6054421768707483,-1.6054421768707483,-1.6054421768707483,-1.6054421768707483,-1.6054421768707483,-1.6054421768707483,-1.6054421768707483,-1.6054421768707483,-1.6054421768707483,-1.6054421768707483,-1.6054421768707483,-1.6054421768707483,-1.6054421768707483,-1.6054421768707483,-1.6054421768707483,-1.6054421768707483,-1.6054421768707483,-1.6054421768707483,-1.6054421768707483,-1.6054421768707483,-1.6054421768707483,-1.6054421768707483,-1.6054421768707483,-1.6054421768707483,-1.6054421768707483,-1.6054421768707483,-1.6054421768707483,-1.6054421768707483,-1.6054421768707483,-1.6054421768707483,-1.6054421768707483,-1.6054421768707483,-1.6054421768707483,-1.6054421768707483,-1.6054421768707483,-1.6054421768707483,-1.6054421768707483,-1.6054421768707483,-1.6054421768707483,-1.6054421768707483,-1.6054421768707483,-1.6054421768707483,-1.6054421768707483,-1.6054421768707483,-1.6054421768707483,-1.6054421768707483,-1.6054421768707483,-1.6054421768707483,-1.6054421768707483,-1.6054421768707483,-1.6054421768707483,-1.6054421768707483,-1.6054421768707483,-1.6054421768707483,-1.6054421768707483,-1.6054421768707483,-1.6054421768707483,-1.6054421768707483,-1.6054421768707483,-1.6054421768707483,-1.6054421768707483,-1.6054421768707483,-1.6054421768707483,-1.6054421768707483,-1.6054421768707483,-1.6054421768707483,-1.6054421768707483,-1.6054421768707483,-1.6054421768707483,-1.6054421768707483,-1.6054421768707483,-1.6054421768707483,-1.6054421768707483,-1.6054421768707483,-1.6054421768707483,-1.6054421768707483,-1.6054421768707483,-1.6054421768707483,-1.6054421768707483,-1.6054421768707483,-1.6054421768707483,-1.6054421768707483,-1.6054421768707483,-1.6054421768707483,-1.6054421768707483,-1.6054421768707483,-1.6054421768707483,-1.6054421768707483,-1.6054421768707483,-1.6054421768707483,-1.6054421768707483,-1.6054421768707483,-1.6054421768707483,-1.6054421768707483,-1.6054421768707483,-1.6054421768707483,-1.6054421768707483,-1.6054421768707483,-1.6054421768707483,-1.6054421768707483,-1.6054421768707483,-1.6054421768707483,-1.6054421768707483,-1.6054421768707483,-1.6054421768707483,-1.6054421768707483,-1.6054421768707483,-1.6054421768707483,-1.6054421768707483,-1.6054421768707483,-1.6054421768707483,-1.6054421768707483,-1.6054421768707483,0.05442176870748299,-0.04081632653061224,-0.07482993197278912,-0.09863945578231292,-0.11564625850340136,-0.12244897959183673,-0.12244897959183673,-0.11904761904761904,-0.11564625850340136,-0.08843537414965986,-0.061224489795918366,-0.030612244897959183,0.006802721088435374,0.04421768707482993,0.06802721088435375,0.1598639455782313,0.20408163265306123,0.23129251700680273,0.2585034013605442,0.272108843537415,0.2857142857142857,0.2925170068027211,0.29931972789115646,0.29591836734693877,0.2925170068027211,0.282312925170068,0.272108843537415,0.2585034013605442,0.23809523809523808,0.23809523809523808,0.22108843537414966,0.2108843537414966,0.2108843537414966,0.20748299319727892,0.20408163265306123,0.20408163265306123,0.20408163265306123,0.20408163265306123,0.20408163265306123,0.20408163265306123,0.20408163265306123,0.20408163265306123,0.20408163265306123,0.20408163265306123,0.20408163265306123,0.20408163265306123,0.20408163265306123,0.20408163265306123,0.20408163265306123,0.20408163265306123,0.20408163265306123,0.20408163265306123,0.20408163265306123,0.20408163265306123,0.20408163265306123,0.20408163265306123,0.20408163265306123,0.20408163265306123,0.20408163265306123,0.20408163265306123,0.20408163265306123,0.20408163265306123,0.2755102040816326,0.30612244897959184,0.32653061224489793,0.3401360544217687,0.36054421768707484,0.3843537414965986,0.41836734693877553,0.4523809523809524,0.48299319727891155,0.5102040816326531,0.54421768707483,0.5884353741496599,0.6258503401360545,0.673469387755102,0.6972789115646258,0.7142857142857143,0.7346938775510204,0.7551020408163265,0.782312925170068,0.8163265306122449,0.8707482993197279,0.9047619047619048,0.9251700680272109,0.935374149659864,0.9421768707482994,0.9455782312925171,0.9455782312925171,0.9455782312925171,0.9455782312925171,0.9387755102040817,0.9319727891156463,0.9319727891156463,0.9319727891156463,0.9319727891156463,0.9319727891156463,0.9319727891156463,0.935374149659864,0.9523809523809523,0.9795918367346939,1.0374149659863945,1.0578231292517006,1.0680272108843538,1.0748299319727892,1.0816326530612246,1.0816326530612246,1.0816326530612246,1.0816326530612246,1.0782312925170068,1.0748299319727892,1.0714285714285714,1.0680272108843538,1.0612244897959184,1.0578231292517006,1.054421768707483,1.0442176870748299,1.0374149659863945,1.0374149659863945,1.034013605442177,1.034013605442177,1.030612244897959,1.0272108843537415,1.0204081632653061,1.0136054421768708,1.0068027210884354,1.0034013605442176,1,1,1,1,1,1,1,1,1,1,1,1,1,1,1,1,1,1,1,1,1,1,1,1,1,1,1,1,1,1,1,1,1,1,1,1,1,1,1,1,1,1,1,1,1,1,1,1,1,1,1,1,1,1,1,1,1,1,1,1,1,1,1,1,1,1,1,1,1,1,1,1,1,1,1,1,1,1,1,1,1,1,1,1,1,1,1,1,1,1,1,1,1,1,1,1,1,1,1,1,1,1,1,1,1,1,1,1,1,1,1,1,1,1,1,1,1,1,1,1,1,1,1,1,1,1,1,1,1,1,1,1,1,1,1,1,1,1,1,1,1,1,1,1,1,1,1,1,1,1,1,1,1,1,1,1,1,1,1,1,1,1,1,1,1,1,1,1,1,1,1,1,1,1,1,1,1,1,1,1,1,1,1,1,1,1,1,1,1,1,1,1,1,1,1,1,1,1,1,1,1,1,1,1,1,1,1,1,1,1,1,1,1,1,1,1,1,1,1,1,1,1,1,1,1,1,1,1,1,1,1,1,1,1,1,1,1,1,1,1,1,1,1,1,1,1,1,1,1,1,1,1,1,1,1,1,1,1,1,1,1,1,1,1,1,1,1,1,1,1,1,1,1,1,1,1,1,1,1,1,1,1,1,1,1,1,1,1,1,1,1,1,1,1,1,1,1,1,1,1,1,1,1,1,1,1,1,1,1,1,1,1,1,1,1,1,1,1,1,1,1,1,1,1,1,1,1,1,1,1,1,1,1,1,1,1,1,1,1,1,1,1,1,1,1,1,1,1,1,1,1,1,1,1,1,1,1,1,1,1,1,1,1,1,1,1,1,1,1,1,1,1,1,1,1,1,1,1,1,1,1,1,1,1,1,1,1,1,1,1,1,1,1,1,1,1,1,1,1,1,1,1,1,1,1,1,1,1,1,1,1,0.9897959183673469,0.9591836734693877,0.9183673469387755,0.8809523809523809,0.8401360544217688,0.8027210884353742,0.7687074829931972,0.7380952380952381,0.7040816326530612,0.6666666666666666,0.6530612244897959,0.6326530612244898,0.6122448979591837,0.5918367346938775,0.5714285714285714,0.5578231292517006,0.5510204081632653,0.5578231292517006,0.5578231292517006,0.5612244897959183,0.564625850340136,0.564625850340136,0.5714285714285714,0.5714285714285714,0.5714285714285714,0.564625850340136,0.5612244897959183,0.5578231292517006,0.5544217687074829,0.5510204081632653,0.5476190476190477,0.54421768707483,0.5408163265306123,0.5374149659863946,0.5374149659863946,0.5374149659863946,0.5374149659863946,0.5374149659863946,0.5374149659863946,0.5374149659863946,0.5374149659863946,0.5374149659863946,0.5374149659863946,0.5374149659863946,0.5374149659863946,0.5374149659863946,0.5374149659863946,0.5408163265306123,0.54421768707483,0.54421768707483,0.5510204081632653,0.5510204081632653,0.5510204081632653,0.5510204081632653,0.5510204081632653,0.5510204081632653,0.5510204081632653,0.5510204081632653,0.5510204081632653,0.5510204081632653,0.5510204081632653,0.5510204081632653,0.5510204081632653,0.5510204081632653,0.5510204081632653,0.5510204081632653,0.5510204081632653,0.5510204081632653,0.5510204081632653,0.5510204081632653,0.5510204081632653,0.5510204081632653,0.5510204081632653,0.5510204081632653,0.5510204081632653,0.5510204081632653,0.5510204081632653,0.5510204081632653,0.5510204081632653,0.5510204081632653,0.5510204081632653,0.5510204081632653,0.5510204081632653,0.5510204081632653,0.5510204081632653,0.5510204081632653,0.5510204081632653,0.5510204081632653,0.5510204081632653,0.5510204081632653,0.5510204081632653,0.5510204081632653,0.5510204081632653,0.5510204081632653,0.5510204081632653,0.5510204081632653,0.5510204081632653,0.5510204081632653,0.5510204081632653,0.5510204081632653,0.5510204081632653,0.5510204081632653,0.5612244897959183,0.5714285714285714,0.5782312925170068,0.5782312925170068,0.5748299319727891,0.5714285714285714,0.564625850340136,0.5578231292517006,0.5510204081632653,0.54421768707483,0.5340136054421769,0.5238095238095238,0.5136054421768708,0.4897959183673469,0.46938775510204084,0.4523809523809524,0.43537414965986393,0.41156462585034015,0.3945578231292517,0.36054421768707484,0.3401360544217687,0.3197278911564626,0.30612244897959184,0.29591836734693877,0.2857142857142857,0.282312925170068,0.2857142857142857,0.2925170068027211,0.2925170068027211,0.2925170068027211,0.2891156462585034,0.2857142857142857,0.2789115646258503,0.2619047619047619,0.24489795918367346,0.23129251700680273,0.21428571428571427,0.19727891156462585,0.18027210884353742,0.1598639455782313,0.14965986394557823,0.14285714285714285,0.14285714285714285,0.1360544217687075,0.1360544217687075,0.1360544217687075,0.1360544217687075,0.1360544217687075,0.1360544217687075,0.1360544217687075,0.1360544217687075,0.1360544217687075,0.1326530612244898,0.1326530612244898,0.1326530612244898,0.1292517006802721,0.1292517006802721,0.1292517006802721,0.1292517006802721,0.1292517006802721,0.1292517006802721,0.1292517006802721,0.1292517006802721,0.1292517006802721,0.1292517006802721,0.1292517006802721,0.1292517006802721,0.1292517006802721,0.1292517006802721,0.1292517006802721,0.1292517006802721,0.1292517006802721,0.1292517006802721,0.1292517006802721,0.1292517006802721,0.1292517006802721,0.1292517006802721,0.1292517006802721,0.1292517006802721,0.1292517006802721,0.1292517006802721,0.1292517006802721,0.1292517006802721,0.1292517006802721,0.1292517006802721,0.1292517006802721,0.1292517006802721,0.1292517006802721,0.1292517006802721,0.1292517006802721,0.1292517006802721,0.1292517006802721,0.1292517006802721,0.1292517006802721,0.1292517006802721,0.1292517006802721,0.1292517006802721,0.1292517006802721,0.1292517006802721,0.1292517006802721,0.1292517006802721,0.1292517006802721,0.1292517006802721,0.1292517006802721,0.1292517006802721,0.1292517006802721,0.1292517006802721,0.1292517006802721,0.1292517006802721,0.1292517006802721,0.1292517006802721,0.1292517006802721,0.1292517006802721,0.1292517006802721,0.1292517006802721,0.1292517006802721,0.1292517006802721,0.1292517006802721,0.1292517006802721,0.1292517006802721,0.1292517006802721,0.1292517006802721,0.1292517006802721,0.1292517006802721,0.1292517006802721,0.1292517006802721,0.1836734693877551,0.21768707482993196,0.2653061224489796,0.30272108843537415,0.32653061224489793,0.36054421768707484,0.40816326530612246,0.4387755102040816,0.47278911564625853,0.5102040816326531,0.5680272108843537,0.6054421768707483,0.6462585034013606,0.6768707482993197,0.7074829931972789,0.7346938775510204,0.7585034013605442,0.7755102040816326,0.7959183673469388,0.8095238095238095,0.8197278911564626,0.8299319727891157,0.8367346938775511,0.8503401360544217,0.8673469387755102,0.8775510204081632,0.891156462585034,0.9013605442176871,0.9115646258503401,0.9149659863945578,0.9183673469387755,0.9217687074829932,0.9251700680272109,0.9285714285714286,0.935374149659864,0.9387755102040817,0.9387755102040817,0.9455782312925171,0.9455782312925171,0.9489795918367347,0.9489795918367347,0.9489795918367347,0.9523809523809523,0.95578231292517,0.9693877551020408,0.9727891156462585,0.9863945578231292,1,1.0034013605442176,1.0034013605442176,0.9863945578231292,0.9761904761904762,0.95578231292517,0.9285714285714286,0.9013605442176871,0.8775510204081632,0.8571428571428571,0.8401360544217688,0.8163265306122449,0.7891156462585034,0.7789115646258503,0.7721088435374149,0.7687074829931972,0.7619047619047619,0.7551020408163265,0.7482993197278912,0.7414965986394558,0.7346938775510204,0.7278911564625851,0.7142857142857143,0.6870748299319728,0.6666666666666666,0.6564625850340136,0.6258503401360545,0.6054421768707483,0.5850340136054422,0.5680272108843537,0.5510204081632653,0.5204081632653061,0.5,0.4965986394557823,0.48299319727891155,0.46938775510204084,0.4523809523809524,0.40816326530612246,0.38095238095238093,0.36054421768707484,0.3435374149659864,0.3333333333333333,0.32653061224489793,0.3129251700680272,0.29931972789115646,0.2925170068027211,0.2857142857142857,0.2755102040816326,0.272108843537415,0.2653061224489796,0.2653061224489796,0.272108843537415,0.282312925170068,0.30952380952380953,0.35714285714285715,0.40476190476190477,0.445578231292517,0.47959183673469385,0.4931972789115646,0.5,0.5068027210884354,0.5102040816326531,0.5102040816326531,0.5136054421768708,0.5136054421768708,0.5136054421768708,0.5136054421768708,0.5136054421768708,0.5136054421768708,0.5136054421768708,0.5136054421768708,0.5136054421768708,0.5170068027210885,0.5306122448979592,0.5680272108843537,0.6258503401360545,0.6972789115646258,0.7687074829931972,0.7959183673469388,0.8129251700680272,0.8231292517006803,0.8333333333333334,0.8367346938775511,0.8503401360544217,0.8537414965986394,0.8639455782312925,0.8673469387755102,0.8673469387755102,0.8707482993197279,0.8741496598639455,0.8775510204081632,0.8809523809523809,0.891156462585034,0.9047619047619048,0.9149659863945578,0.9319727891156463,0.9387755102040817,0.9523809523809523,0.9591836734693877,0.9659863945578231,0.9795918367346939,0.9931972789115646,1.010204081632653,1.034013605442177,1.0442176870748299,1.054421768707483,1.0578231292517006,1.0612244897959184,1.064625850340136,1.0714285714285714,1.0850340136054422,1.0952380952380953,1.1054421768707483,1.1122448979591837,1.1156462585034013,1.1224489795918366,1.129251700680272,1.1326530612244898,1.1360544217687074,1.1496598639455782,1.1564625850340136,1.1564625850340136,1.163265306122449,1.163265306122449,1.163265306122449,1.163265306122449,1.163265306122449,1.163265306122449,1.163265306122449,1.163265306122449,1.163265306122449,1.163265306122449,1.163265306122449,1.163265306122449,1.163265306122449,1.163265306122449,1.163265306122449,1.163265306122449,1.163265306122449,1.163265306122449,1.163265306122449,1.163265306122449,1.163265306122449,1.163265306122449,1.163265306122449,1.163265306122449,1.163265306122449,1.163265306122449,1.163265306122449,1.163265306122449,1.163265306122449,1.163265306122449,1.163265306122449,1.163265306122449,1.163265306122449,1.163265306122449,1.163265306122449,1.163265306122449,1.163265306122449,1.163265306122449,1.163265306122449,1.163265306122449,1.163265306122449,1.163265306122449,1.163265306122449,1.163265306122449,1.163265306122449,1.163265306122449,1.163265306122449,1.163265306122449,1.163265306122449,1.1326530612244898,1.0476190476190477,0.9489795918367347,0.8435374149659864,0.6802721088435374,0.5884353741496599,0.5204081632653061,0.4489795918367347,0.38095238095238093,0.30612244897959184,0.2619047619047619,0.24149659863945577,0.17346938775510204,0.13945578231292516,0.10884353741496598,0.09183673469387756,0.0782312925170068,0.061224489795918366,0.061224489795918366,0.05782312925170068,0.05442176870748299,0.05102040816326531,0.05102040816326531,0.047619047619047616,0.04081632653061224,0.034013605442176874,0.023809523809523808,0.013605442176870748,0,-0.013605442176870748,-0.02040816326530612,-0.02040816326530612,-0.02040816326530612,-0.02040816326530612,-0.02040816326530612,-0.02040816326530612,-0.02040816326530612,-0.02040816326530612,-0.02040816326530612,-0.02040816326530612,-0.02040816326530612,-0.02040816326530612,-0.02040816326530612,-0.02040816326530612,-0.02040816326530612,-0.02040816326530612,-0.02040816326530612,-0.02040816326530612,-0.02040816326530612,-0.02040816326530612,-0.02040816326530612,-0.02040816326530612,-0.02040816326530612,-0.02040816326530612,-0.02040816326530612,-0.02040816326530612,-0.02040816326530612,-0.02040816326530612,-0.02040816326530612,-0.02040816326530612,-0.02040816326530612,-0.02040816326530612,-0.02040816326530612,-0.02040816326530612,-0.02040816326530612,-0.02040816326530612,-0.02040816326530612,-0.02040816326530612,-0.02040816326530612,-0.02040816326530612,-0.02040816326530612,-0.02040816326530612,-0.02040816326530612,-0.02040816326530612,-0.02040816326530612,-0.02040816326530612,-0.02040816326530612,-0.02040816326530612,-0.02040816326530612,-0.02040816326530612,-0.02040816326530612,-0.02040816326530612,-0.02040816326530612,-0.02040816326530612,-0.02040816326530612,-0.02040816326530612,-0.02040816326530612,-0.02040816326530612,-0.02040816326530612,-0.02040816326530612,-0.02040816326530612,-0.02040816326530612,-0.02040816326530612,-0.02040816326530612,-0.02040816326530612,-0.02040816326530612,-0.02040816326530612,-0.02040816326530612,-0.02040816326530612,-0.02040816326530612,-0.02040816326530612,-0.02040816326530612,-0.02040816326530612,-0.02040816326530612,-0.02040816326530612,-0.02040816326530612,-0.02040816326530612,-0.02040816326530612,-0.02040816326530612,-0.02040816326530612,-0.02040816326530612,-0.02040816326530612,-0.02040816326530612,-0.02040816326530612,-0.02040816326530612,-0.02040816326530612,-0.02040816326530612,-0.02040816326530612,-0.02040816326530612,-0.02040816326530612,-0.02040816326530612,-0.02040816326530612,-0.02040816326530612,-0.02040816326530612,-0.02040816326530612,-0.02040816326530612,-0.02040816326530612,-0.02040816326530612,-0.02040816326530612,-0.02040816326530612,-0.02040816326530612,-0.02040816326530612,-0.02040816326530612,-0.02040816326530612,-0.02040816326530612,-0.02040816326530612,-0.02040816326530612,-0.02040816326530612,-0.02040816326530612,-0.02040816326530612,-0.02040816326530612,-0.02040816326530612,-0.02040816326530612,-0.02040816326530612,-0.02040816326530612,-0.02040816326530612,-0.02040816326530612,-0.02040816326530612,-0.02040816326530612,-0.02040816326530612,-0.02040816326530612,-0.02040816326530612,-0.02040816326530612,-0.02040816326530612,-0.02040816326530612,-0.02040816326530612,-0.02040816326530612,-0.02040816326530612,-0.02040816326530612,-0.02040816326530612,-0.0204081632