[{"success":true,"trial_type":"fullscreen","trial_index":0,"time_elapsed":3958,"internal_node_id":"0.0-0.0","protocol_sum":"","subject_identifier":505,"subject_sum":[214,229,162,11,48,248,114,22,178,199,88,245,231,162,60,67,125,188,61,250,28,203,23,124,71,77,225,82,187,14,247,49],"subject_pair":252,"STUDY_ID":"66a3ed3c5d10d0e7d8a6b9da","PROLIFIC_PID":"668557c57d3089ceba4a2d09","SESSION_ID":"66a415f0b663c61a28970eb7","practice_instructions":1,"leaderboard_instructions":0,"bonus":0,"reveal_word":true,"self_rating":"3","confidence":"86"},{"view_history":"[{\"page_index\":0,\"viewing_time\":6331.9000000059605}]","rt":6332.199999988079,"trial_type":"instructions","trial_index":1,"time_elapsed":10292,"internal_node_id":"0.0-1.0","protocol_sum":"","subject_identifier":505,"subject_sum":[214,229,162,11,48,248,114,22,178,199,88,245,231,162,60,67,125,188,61,250,28,203,23,124,71,77,225,82,187,14,247,49],"subject_pair":252,"STUDY_ID":"66a3ed3c5d10d0e7d8a6b9da","PROLIFIC_PID":"668557c57d3089ceba4a2d09","SESSION_ID":"66a415f0b663c61a28970eb7","practice_instructions":1,"leaderboard_instructions":0,"bonus":0,"reveal_word":true,"self_rating":"3","confidence":"86"},{"view_history":"[{\"page_index\":0,\"viewing_time\":24502.70000001788}]","rt":24503.100000023842,"trial_type":"instructions","trial_index":2,"time_elapsed":34795,"internal_node_id":"0.0-2.0-0.0","protocol_sum":"","subject_identifier":505,"subject_sum":[214,229,162,11,48,248,114,22,178,199,88,245,231,162,60,67,125,188,61,250,28,203,23,124,71,77,225,82,187,14,247,49],"subject_pair":252,"STUDY_ID":"66a3ed3c5d10d0e7d8a6b9da","PROLIFIC_PID":"668557c57d3089ceba4a2d09","SESSION_ID":"66a415f0b663c61a28970eb7","practice_instructions":1,"leaderboard_instructions":0,"bonus":0,"reveal_word":true,"self_rating":"3","confidence":"86"},{"rt":12399.09999999404,"responses":"{\"Q0\":\"... reveal the word with as <b>few letter guesses</b> as possible\"}","question_order":"[0]","trial_type":"survey-multi-choice","trial_index":3,"time_elapsed":47197,"internal_node_id":"0.0-2.0-1.0","protocol_sum":"","subject_identifier":505,"subject_sum":[214,229,162,11,48,248,114,22,178,199,88,245,231,162,60,67,125,188,61,250,28,203,23,124,71,77,225,82,187,14,247,49],"subject_pair":252,"correct":true,"test_part":"multichoice_nonpretend","STUDY_ID":"66a3ed3c5d10d0e7d8a6b9da","PROLIFIC_PID":"668557c57d3089ceba4a2d09","SESSION_ID":"66a415f0b663c61a28970eb7","practice_instructions":1,"leaderboard_instructions":0,"bonus":0,"reveal_word":true,"self_rating":"3","confidence":"86"},{"view_history":"[{\"page_index\":0,\"viewing_time\":2055.2000000178814}]","rt":2055.5,"trial_type":"instructions","trial_index":4,"time_elapsed":49253,"internal_node_id":"0.0-3.0","protocol_sum":"","subject_identifier":505,"subject_sum":[214,229,162,11,48,248,114,22,178,199,88,245,231,162,60,67,125,188,61,250,28,203,23,124,71,77,225,82,187,14,247,49],"subject_pair":252,"STUDY_ID":"66a3ed3c5d10d0e7d8a6b9da","PROLIFIC_PID":"668557c57d3089ceba4a2d09","SESSION_ID":"66a415f0b663c61a28970eb7","practice_instructions":1,"leaderboard_instructions":0,"bonus":0,"reveal_word":true,"self_rating":"3","confidence":"86"},{"word":"ZEBRA","click_log":{"letter":["","R","D","E","B","Z","A"],"t":[0,7214.4000000059605,14704.5,21057.19999998808,26660.59999999404,29996.19999998808,31328.09999999404],"hit":[null,1,0,1,1,1,1],"asked":["","R","RD","RDE","RDEB","RDEBZ","RDEBZA"],"word_state":["_____","___R_","___R_","_E_R_","_EBR_","ZEBR_","ZEBRA"]},"hover_log":{"letter":["?","?","?","?","?","?","?","?","?","?","?","?","?","?","?","?","?","?","?","?","?","?","?","?","?","?","?","?","?","?","?","?","?","?","?","?","?","?","?","?","?","?","?","?","?","?","?","?","?","?","?","?","?","?","?","?","?","?","?","?","?","?","?","?","?","?","?","?","?","?","?","?","?","?","?","?","?","?","?","?","?","?","?","?","?","?","?","?","?","?","?","?","?","?","?","?","?","?","?","?","?","?","?","?","?","?","?","?","?","?","?","?","?","?","?","?","?","?","?","?","?","?","?","?","?","?","?","?","?","?","?","?","?","?","?","?","?","?","?","?","?","?","?","?","?","?","?","?","?","?","?","?","?","?","?","?","?","?","?","?","?","?","?","?","?","?","?","?","?","?","?","?","?","?","?","?","?","?","?","?","?","?","?","?","?","?","?","?","?","?","?","?","?","?","?","?","?","?","?","?","?","?","?","?","?","?","?","?","?","?","?","?","?","?","?","?","?","?","?","?","?","?","?","?","?","?","?","?","?","?","?","?","?","?","?","?","?","?","?","?","?","?","?","?","?","?","?","?","?","?","?","?","?","?","?","?","?","?","?","?","?","?","?","?","?","?","?","?","?","?","?","?","?","?","Y","?","?","Q","Q","Q","Q","?","?","?","R","R","R","R","?","?","?","?","?","?","?","?","?","?","?","?","?","?","?","?","?","?","?","?","?","?","?","R","R","R","R","R","R","R","R","R","R","R","R","R","R","R","R","R","R","R","R","R","R","R","R","R","R","R","R","R","R","R","?","?","?","?","?","?","?","?","?","Q","Q","P","O","O","N","?","M","?","?","?","?","?","?","?","?","?","?","?","?","?","?","?","?","E","?","F","F","G","G","?","?","Q","Q","Q","Q","Q","Q","Q","Q","Q","?","?","?","?","?","?","R","R","R","R","R","R","R","R","R","R","R","R","R","R","R","R","R","R","R","R","R","R","R","R","R","R","R","R","R","R","R","R","R","R","R","R","R","R","R","R","R","R","R","R","R","R","R","R","R","R","R","R","R","R","R","R","R","R","R","R","R","R","R","R","R","R","R","R","R","R","R","R","R","?","?","?","?","?","?","?","?","?","?","?","?","?","?","?","?","?","?","?","?","?","?","?","?","?","?","?","?","?","?","?","?","?","?","?","?","?","?","?","?","?","?","?","?","?","?","?","?","?","?","?","?","?","?","?","?","?","?","?","?","?","?","?","?","?","?","?","?","?","?","?","?","?","?","?","?","?","?","?","?","?","?","?","?","?","?","?","?","?","?","?","?","?","?","?","?","?","?","?","?","?","?","?","?","?","?","?","?","?","?","?","?","?","?","?","?","?","?","?","?","?","?","?","?","?","?","?","?","?","?","?","?","?","?","?","?","?","?","?","?","?","?","?","?","?","?","?","?","?","?","?","?","?","?","?","?","?","?","?","?","?","?","?","?","?","?","?","?","?","?","?","?","?","?","?","?","?","?","?","?","?","?","?","?","?","?","?","?","?","?","?","?","?","?","?","?","?","?","?","?","?","?","?","?","?","?","?","?","?","?","?","?","?","?","?","?","?","?","?","?","?","?","?","?","?","?","?","?","?","?","?","?","?","?","?","?","?","?","?","?","?","?","?","?","?","?","?","?","?","?","?","?","?","?","?","?","?","?","?","?","?","?","?","?","?","?","?","?","?","?","?","?","?","?","?","?","?","?","?","?","?","?","?","?","?","?","?","?","?","?","?","?","?","?","?","?","?","?","?","?","?","?","?","?","?","?","?","?","?","?","?","?","?","?","?","?","?","?","?","?","?","?","?","?","?","?","?","?","?","?","?","?","?","?","?","?","?","?","?","?","?","?","?","?","?","?","?","?","?","?","?","?","?","?","?","?","?","?","?","?","?","?","L","?","?","D","D","D","D","D","D","D","?","?","?","?","?","?","?","?","?","?","?","?","?","?","?","D","D","D","D","D","D","D","D","D","D","D","D","D","D","D","D","D","D","D","D","D","D","D","D","D","D","D","D","D","D","D","D","D","D","D","D","D","D","D","D","D","D","D","D","D","D","D","D","D","D","D","D","D","D","D","D","D","D","D","D","D","D","D","D","D","D","D","D","D","D","D","D","D","D","D","?","M","M","?","?","V","V","?","?","?","?","?","?","?","?","?","?","?","?","?","?","?","?","?","?","?","?","?","?","?","?","?","?","?","?","?","?","?","?","?","?","?","?","?","?","?","?","?","?","?","?","?","?","?","?","?","?","?","?","?","?","?","?","?","?","?","?","?","?","?","?","?","?","?","?","?","?","?","?","?","?","?","?","?","?","?","?","?","?","?","?","?","?","?","?","?","?","?","?","?","?","?","?","?","?","?","?","?","?","?","?","?","?","?","?","?","?","?","?","?","?","?","?","?","?","?","?","?","?","?","?","?","?","?","?","?","?","?","?","?","?","?","?","?","?","?","?","?","?","?","?","?","?","?","?","?","?","?","?","?","?","?","?","?","?","?","?","?","?","?","?","?","?","?","?","?","?","?","?","?","?","?","?","?","?","?","?","?","?","?","?","?","?","?","?","?","?","?","?","?","?","?","?","?","?","?","?","?","?","?","?","?","?","?","?","?","?","?","?","?","?","?","?","?","?","?","?","?","?","?","?","?","?","?","?","?","?","?","?","?","?","?","?","?","?","W","W","W","?","?","?","?","?","?","?","?","?","?","?","?","?","?","?","?","?","?","?","?","?","?","?","?","?","?","?","N","N","N","N","N","?","?","?","?","?","?","?","?","?","?","?","?","?","E","E","E","E","E","E","E","E","E","E","E","E","E","E","E","E","E","E","E","E","E","E","E","E","E","E","E","E","E","E","E","E","E","E","E","E","E","E","E","E","E","E","E","E","E","E","E","E","E","E","E","E","E","E","E","E","E","E","E","E","E","E","E","E","E","E","?","V","?","?","?","?","?","?","?","?","?","?","?","?","?","?","?","?","?","?","?","?","?","?","?","?","?","?","?","?","?","?","?","?","?","?","?","?","?","?","?","?","?","?","?","?","?","?","?","?","?","?","?","?","?","?","?","?","?","?","?","?","?","?","?","?","?","?","?","?","?","?","?","?","?","?","?","?","?","?","?","?","?","?","?","?","?","?","?","?","?","?","?","?","?","?","?","?","?","?","?","?","?","?","?","?","?","?","?","?","?","?","?","?","?","?","?","?","?","?","?","?","?","?","?","?","?","?","?","?","?","?","?","?","?","?","?","?","?","?","?","?","?","?","?","?","?","?","?","?","?","?","?","?","?","?","?","?","?","?","?","?","?","?","?","?","?","?","?","?","?","?","?","?","?","?","?","?","?","?","?","?","?","?","?","?","?","?","?","?","?","?","?","?","?","?","?","?","?","?","?","?","?","?","?","?","?","?","?","?","?","?","?","?","?","?","?","?","?","?","?","?","?","?","?","?","?","?","?","?","?","?","?","?","?","?","?","?","?","?","?","?","?","?","?","U","U","U","U","?","?","?","?","?","?","?","L","L","L","L","L","L","L","L","L","L","?","?","?","?","?","?","?","?","?","?","?","B","B","B","B","B","B","B","B","B","B","B","B","B","B","B","B","B","B","B","B","B","B","B","B","B","B","B","B","B","B","B","B","B","B","B","B","B","B","B","B","B","B","B","B","B","B","B","B","B","B","B","B","B","B","B","B","B","B","B","B","B","B","B","B","B","K","?","?","?","?","?","?","?","?","?","?","?","?","?","?","?","?","?","?","?","?","?","?","?","?","?","?","?","?","?","?","?","?","?","?","?","?","?","?","?","?","?","?","?","?","?","?","?","?","?","?","?","?","?","?","?","?","?","?","?","?","?","?","?","?","?","?","?","?","?","?","?","?","?","?","?","?","?","?","?","?","?","?","?","?","?","?","?","?","?","?","?","?","?","?","?","?","?","?","?","?","?","?","?","?","?","?","?","?","?","?","?","?","?","?","?","Z","Z","Z","?","?","?","?","?","?","?","?","?","?","?","?","?","?","?","?","?","?","?","Z","Z","Z","Z","Z","Z","Z","Z","Z","Z","Z","Z","Z","Z","Z","Z","Z","Z","Z","Z","Z","Z","Z","Z","Z","Z","Z","Z","Z","Z","Z","Z","Z","Z","Z","Z","Z","Z","Z","Z","Z","Z","Z","Z","Z","Z","Z","Z","Z","Z","Z","Z","Z","Z","Z","Z","Z","Z","Z","?","?","?","?","A","A","A","A","A","A","A","A","A","A","A","A","A","A","A","A","A","A","A","A","A","A","A","A","A","A","A","A","A","A","A","A","A","A","A","A","A","A","A","A","A","A","A","A","A","A","A","A","A","A","A","A","A","A","A","A","A","A","A","A","A","A","A","A","A","A","A","A","A","A","A","A","A","A","A","A","A","A","A","A","A","A","A","A","A","A","A","A","A","A","A","A","A","A","A","A","A","A","A","A","A","A","A","A","A","A","A","A","A","A","A","A","A","A","A","A","A","?","?","?","?","?","?","?","?","?","?","?","?","?","?","?","?","?","?","?","?","?","?","?","?","?","?","?","?","?","?","?","?","?","?","?","?","?","?","?","?","?","?","?","?","?","?","?"],"t":[37,46,60,77,94,111,128,144,161,177,193,210,227,243,261,277,294,311,327,344,360,377,393,409,427,444,461,478,494,511,528,544,560,578,593,612,628,643,661,677,694,710,727,744,761,777,794,811,827,844,860,877,894,910,927,943,961,977,994,1010,1027,1044,1061,1077,1093,1111,1127,1144,1161,1178,1194,1211,1228,1244,1260,1277,1294,1310,1328,1344,1360,1379,1394,1411,1428,1444,1461,1478,1494,1510,1528,1544,1561,1577,1594,1610,1627,1644,1661,1677,1694,1711,1728,1744,1761,1777,1794,1810,1827,1844,1861,1878,1893,1911,1927,1944,1960,1977,1994,2010,2027,2044,2060,2077,2094,2110,2128,2144,2160,2178,2194,2211,2229,2244,2261,2278,2294,2311,2328,2344,2361,2378,2394,2412,2427,2444,2461,2477,2495,2512,2527,2544,2561,2578,2595,2611,2627,2645,2661,2678,2695,2711,2729,2746,2761,2778,2794,2813,2828,2844,2861,2878,2894,2911,2927,2944,2961,2977,2994,3011,3027,3044,3061,3077,3095,3111,3127,3145,3162,3177,3195,3211,3227,3245,3261,3278,3295,3311,3328,3344,3361,3378,3395,3411,3428,3444,3461,3477,3494,3511,3528,3544,3561,3577,3594,3611,3628,3644,3661,3677,3694,3712,3727,3745,3761,3777,3795,3811,3828,3845,3861,3877,3895,3911,3928,3944,3961,3978,3995,4010,4028,4045,4061,4078,4094,4111,4128,4144,4161,4178,4194,4211,4228,4244,4261,4279,4294,4311,4328,4344,4362,4378,4395,4411,4427,4445,4461,4478,4495,4511,4527,4545,4561,4578,4599,4612,4629,4646,4661,4679,4695,4711,4729,4746,4761,4779,4795,4812,4829,4845,4862,4878,4894,4912,4928,4945,4962,4978,4995,5012,5028,5045,5062,5078,5095,5112,5128,5146,5162,5178,5196,5211,5229,5246,5261,5279,5295,5311,5328,5346,5362,5380,5395,5412,5429,5445,5462,5479,5495,5512,5528,5545,5563,5579,5595,5613,5628,5645,5662,5678,5698,5713,5728,5746,5762,5779,5796,5812,5829,5846,5862,5879,5896,5912,5930,5947,5962,5979,5995,6012,6030,6045,6062,6079,6095,6113,6129,6145,6162,6179,6195,6213,6229,6245,6263,6279,6296,6313,6329,6346,6363,6378,6396,6412,6429,6446,6462,6479,6496,6512,6529,6546,6562,6580,6596,6613,6629,6646,6662,6680,6695,6713,6730,6745,6763,6779,6795,6813,6829,6845,6863,6879,6895,6912,6928,6945,6963,6979,6996,7012,7029,7045,7062,7079,7095,7113,7131,7146,7163,7179,7196,7214,7229,7246,7262,7279,7296,7313,7330,7346,7363,7380,7395,7413,7429,7446,7462,7479,7496,7513,7529,7546,7563,7579,7596,7613,7630,7646,7663,7679,7695,7713,7729,7746,7763,7780,7795,7813,7829,7846,7864,7880,7896,7914,7930,7947,7963,7979,7997,8013,8030,8047,8063,8080,8096,8113,8130,8146,8163,8180,8196,8214,8230,8247,8264,8279,8297,8313,8329,8346,8363,8380,8396,8413,8430,8447,8463,8480,8496,8513,8532,8546,8563,8580,8596,8613,8629,8646,8663,8680,8697,8713,8730,8747,8763,8780,8796,8813,8830,8847,8864,8879,8896,8912,8930,8947,8963,8979,8997,9013,9029,9046,9063,9080,9097,9113,9130,9146,9163,9179,9196,9213,9230,9246,9263,9280,9296,9314,9330,9347,9364,9380,9396,9413,9430,9446,9464,9480,9497,9513,9529,9547,9563,9580,9596,9614,9631,9647,9664,9680,9697,9713,9730,9746,9763,9780,9797,9814,9830,9847,9864,9880,9896,9913,9930,9947,9967,9980,9997,10014,10030,10047,10064,10080,10097,10114,10130,10147,10163,10181,10197,10214,10230,10247,10264,10280,10297,10314,10330,10347,10363,10379,10397,10413,10430,10447,10464,10480,10497,10513,10530,10548,10564,10579,10597,10614,10630,10647,10664,10681,10697,10714,10731,10747,10764,10780,10797,10813,10830,10847,10863,10880,10897,10913,10930,10948,10964,10980,10997,11014,11030,11047,11064,11081,11098,11114,11130,11147,11164,11180,11197,11214,11231,11247,11264,11280,11297,11313,11331,11347,11364,11381,11397,11415,11430,11448,11464,11481,11498,11513,11531,11547,11564,11580,11598,11614,11631,11648,11664,11681,11697,11714,11731,11748,11765,11781,11798,11814,11830,11847,11864,11881,11898,11914,11931,11948,11964,11980,11998,12014,12030,12047,12064,12081,12098,12114,12131,12149,12164,12182,12198,12215,12231,12248,12264,12282,12298,12314,12332,12348,12365,12381,12398,12415,12431,12448,12465,12482,12498,12515,12531,12548,12565,12581,12598,12615,12631,12649,12665,12681,12699,12715,12731,12749,12765,12781,12798,12815,12833,12848,12865,12881,12898,12914,12931,12948,12965,12982,12998,13015,13031,13048,13065,13082,13098,13115,13131,13148,13165,13181,13198,13214,13232,13248,13265,13281,13297,13315,13331,13348,13364,13381,13398,13415,13431,13448,13465,13481,13498,13514,13531,13549,13564,13582,13598,13615,13632,13648,13665,13682,13698,13715,13732,13748,13765,13782,13798,13815,13832,13848,13866,13881,13899,13916,13932,13948,13966,13981,13999,14016,14031,14049,14065,14082,14099,14114,14132,14149,14165,14181,14198,14215,14232,14251,14265,14282,14298,14316,14332,14349,14365,14382,14398,14415,14432,14448,14465,14481,14498,14515,14532,14548,14565,14582,14599,14617,14632,14649,14665,14682,14699,14715,14732,14749,14766,14782,14798,14816,14832,14849,14865,14882,14899,14916,14932,14949,14966,14982,14999,15015,15032,15049,15066,15082,15099,15116,15131,15149,15165,15182,15199,15216,15232,15248,15266,15282,15299,15316,15332,15349,15365,15382,15399,15416,15432,15449,15466,15482,15498,15515,15532,15549,15567,15582,15599,15617,15632,15650,15666,15682,15703,15716,15733,15750,15766,15783,15799,15816,15834,15848,15866,15882,15899,15916,15931,15949,15966,15983,16000,16016,16033,16049,16065,16083,16100,16116,16133,16149,16166,16182,16198,16216,16232,16249,16266,16282,16299,16315,16332,16350,16366,16383,16399,16415,16432,16449,16466,16483,16499,16516,16532,16548,16566,16582,16600,16616,16632,16649,16666,16683,16699,16716,16733,16749,16766,16784,16799,16816,16833,16849,16866,16882,16899,16916,16933,16950,16966,16982,16999,17016,17033,17050,17066,17083,17099,17117,17133,17149,17166,17183,17199,17216,17233,17249,17266,17282,17300,17316,17333,17350,17366,17383,17400,17415,17432,17449,17466,17483,17499,17516,17533,17549,17567,17583,17600,17617,17632,17650,17666,17683,17700,17716,17733,17749,17766,17783,17799,17816,17834,17849,17866,17883,17899,17916,17933,17950,17966,17982,18000,18016,18033,18050,18066,18083,18100,18116,18133,18149,18167,18183,18199,18217,18233,18250,18267,18283,18300,18316,18333,18350,18366,18384,18400,18416,18433,18449,18467,18484,18499,18516,18533,18551,18567,18583,18600,18617,18633,18650,18666,18683,18701,18716,18734,18750,18766,18784,18800,18817,18833,18850,18867,18883,18900,18917,18933,18950,18967,18983,19001,19016,19034,19050,19066,19083,19100,19116,19134,19150,19167,19183,19200,19217,19233,19250,19267,19283,19300,19317,19333,19350,19366,19384,19401,19417,19434,19450,19467,19483,19500,19517,19534,19550,19567,19584,19600,19618,19633,19651,19668,19684,19702,19717,19734,19750,19767,19785,19801,19817,19834,19850,19867,19884,19900,19917,19934,19950,19968,19983,20001,20017,20034,20051,20066,20084,20101,20117,20135,20150,20167,20185,20200,20219,20234,20250,20268,20284,20302,20318,20334,20351,20367,20384,20401,20417,20434,20451,20467,20485,20501,20518,20535,20550,20568,20584,20601,20618,20634,20652,20668,20684,20700,20717,20734,20751,20767,20783,20800,20818,20834,20851,20867,20884,20901,20917,20933,20951,20967,20984,21001,21017,21034,21051,21067,21084,21100,21118,21135,21152,21168,21184,21200,21217,21233,21251,21267,21285,21301,21318,21334,21351,21368,21384,21402,21418,21434,21451,21467,21484,21501,21518,21535,21552,21568,21584,21602,21618,21636,21652,21668,21685,21702,21718,21735,21751,21767,21785,21801,21819,21836,21851,21869,21884,21901,21918,21934,21951,21968,21985,22001,22018,22034,22051,22068,22084,22101,22117,22135,22151,22168,22185,22202,22218,22235,22252,22268,22285,22301,22318,22335,22352,22368,22385,22401,22418,22435,22452,22468,22484,22501,22518,22535,22552,22568,22585,22601,22618,22635,22651,22668,22685,22702,22718,22735,22751,22768,22785,22801,22819,22834,22852,22868,22885,22901,22918,22935,22952,22969,22985,23002,23018,23035,23052,23068,23085,23102,23118,23135,23152,23168,23185,23202,23218,23235,23251,23268,23285,23302,23319,23335,23352,23368,23385,23401,23418,23435,23452,23468,23485,23502,23519,23535,23551,23568,23585,23602,23619,23635,23651,23669,23685,23702,23718,23735,23752,23769,23786,23802,23818,23835,23852,23868,23885,23902,23919,23936,23952,23969,23985,24003,24018,24035,24051,24068,24085,24101,24119,24135,24152,24169,24185,24202,24219,24236,24252,24268,24285,24302,24319,24336,24352,24369,24386,24402,24419,24436,24452,24469,24485,24502,24519,24535,24552,24569,24586,24602,24619,24635,24653,24669,24686,24702,24719,24736,24752,24769,24785,24803,24819,24836,24853,24869,24886,24902,24919,24935,24952,24969,24986,25002,25019,25035,25052,25069,25086,25103,25119,25136,25152,25169,25185,25202,25219,25236,25252,25269,25285,25302,25319,25335,25353,25369,25386,25402,25419,25435,25453,25470,25486,25502,25519,25535,25552,25570,25586,25604,25623,25636,25654,25669,25686,25704,25720,25736,25754,25769,25786,25803,25820,25837,25853,25870,25887,25903,25920,25937,25953,25969,25987,26003,26020,26037,26053,26071,26086,26103,26120,26136,26153,26171,26186,26203,26220,26237,26253,26269,26286,26303,26319,26336,26352,26370,26386,26403,26420,26436,26453,26470,26486,26502,26520,26536,26552,26569,26586,26603,26620,26636,26653,26669,26687,26703,26720,26736,26753,26769,26787,26803,26820,26837,26853,26870,26886,26903,26919,26936,26953,26969,26987,27003,27020,27036,27054,27069,27087,27103,27120,27137,27153,27170,27187,27203,27219,27237,27254,27270,27288,27303,27320,27338,27353,27371,27387,27403,27420,27438,27454,27471,27486,27504,27520,27536,27553,27570,27586,27603,27620,27637,27653,27670,27686,27703,27720,27737,27753,27770,27787,27803,27820,27837,27854,27870,27887,27904,27920,27937,27953,27970,27987,28004,28021,28037,28053,28070,28086,28104,28120,28136,28153,28171,28187,28203,28220,28237,28254,28270,28287,28303,28320,28336,28353,28371,28387,28404,28420,28437,28453,28470,28486,28503,28520,28537,28554,28570,28587,28603,28620,28637,28653,28670,28687,28703,28721,28737,28753,28771,28787,28804,28820,28837,28853,28870,28888,28905,28920,28938,28954,28970,28988,29004,29020,29038,29054,29072,29087,29104,29121,29137,29155,29171,29187,29205,29220,29238,29254,29271,29289,29304,29320,29337,29353,29370,29387,29404,29421,29437,29454,29471,29487,29505,29520,29537,29554,29571,29588,29604,29620,29637,29654,29670,29688,29704,29721,29739,29754,29770,29787,29804,29821,29837,29854,29870,29887,29904,29921,29938,29954,29970,29988,30004,30021,30037,30053,30071,30087,30104,30121,30137,30154,30170,30187,30204,30220,30238,30254,30271,30287,30304,30321,30338,30355,30371,30387,30404,30421,30437,30454,30471,30487,30505,30521,30538,30555,30571,30588,30605,30621,30638,30656,30672,30688,30705,30721,30738,30755,30771,30788,30804,30821,30838,30854,30872,30888,30904,30922,30938,30955,30972,30988,31005,31022,31038,31055,31072,31087,31104,31121,31137,31154,31171,31188,31205,31221,31238,31255,31272,31288,31305,31322,31340,31355,31372,31389,31405,31422,31439,31454,31472,31488,31504,31522,31538,31554,31571,31588,31604,31621,31638,31655,31672,31688,31705,31721,31738,31755,31771,31787,31805,31822,31838,31855,31871,31888,31905,31922,31939,31955,31972,31988,32005,32022,32038,32056,32072,32088,32105,32121,32138,32154,32172,32188,32205,32222,32238,32255,32272,32288,32305,32322,32338,32354,32371,32389,32405,32422,32438,32456,32472,32489,32505,32522,32538,32556,32572,32589,32606,32622,32639,32656,32672,32689,32705,32722,32740,32755,32773,32789,32805,32822,32838,32855,32872,32889,32905,32922,32938,32955,32972,32990,33005,33022,33038,33055,33072,33089,33105,33122,33139,33156,33172,33188,33205,33222,33238,33255,33272,33289,33305,33322,33340],"hit":[null],"x":[-1.965986394557823,-1.965986394557823,-1.965986394557823,-1.965986394557823,-1.965986394557823,-1.965986394557823,-1.965986394557823,-1.965986394557823,-1.965986394557823,-1.965986394557823,-1.965986394557823,-1.965986394557823,-1.965986394557823,-1.965986394557823,-1.965986394557823,-1.965986394557823,-1.965986394557823,-1.965986394557823,-1.965986394557823,-1.965986394557823,-1.965986394557823,-1.965986394557823,-1.965986394557823,-1.965986394557823,-1.965986394557823,-1.965986394557823,0.22789115646258504,0.3163265306122449,0.391156462585034,0.47959183673469385,0.5306122448979592,0.5850340136054422,0.6462585034013606,0.673469387755102,0.6870748299319728,0.6904761904761905,0.6938775510204082,0.6972789115646258,0.6972789115646258,0.6938775510204082,0.6870748299319728,0.6870748299319728,0.6870748299319728,0.6870748299319728,0.6870748299319728,0.6870748299319728,0.6870748299319728,0.6870748299319728,0.6870748299319728,0.6870748299319728,0.6870748299319728,0.6870748299319728,0.6870748299319728,0.6870748299319728,0.6870748299319728,0.6870748299319728,0.6870748299319728,0.6870748299319728,0.6870748299319728,0.6870748299319728,0.6870748299319728,0.6870748299319728,0.6870748299319728,0.6870748299319728,0.6870748299319728,0.6870748299319728,0.6870748299319728,0.6870748299319728,0.6870748299319728,0.6870748299319728,0.6870748299319728,0.6870748299319728,0.6870748299319728,0.6870748299319728,0.6870748299319728,0.6870748299319728,0.6870748299319728,0.6870748299319728,0.6870748299319728,0.6870748299319728,0.6870748299319728,0.6870748299319728,0.6870748299319728,0.6870748299319728,0.6870748299319728,0.6870748299319728,0.6870748299319728,0.6870748299319728,0.6870748299319728,0.6870748299319728,0.6870748299319728,0.6870748299319728,0.6870748299319728,0.6870748299319728,0.6870748299319728,0.6870748299319728,0.6870748299319728,0.6870748299319728,0.6870748299319728,0.6870748299319728,0.6870748299319728,0.6870748299319728,0.6870748299319728,0.6870748299319728,0.6870748299319728,0.6870748299319728,0.6870748299319728,0.6870748299319728,0.6870748299319728,0.6870748299319728,0.6870748299319728,0.6870748299319728,0.6870748299319728,0.6870748299319728,0.6870748299319728,0.6870748299319728,0.6870748299319728,0.6870748299319728,0.6870748299319728,0.6870748299319728,0.6870748299319728,0.6870748299319728,0.6870748299319728,0.6870748299319728,0.6870748299319728,0.6870748299319728,0.6870748299319728,0.6870748299319728,0.6870748299319728,0.6632653061224489,0.6224489795918368,0.5782312925170068,0.564625850340136,0.5476190476190477,0.5204081632653061,0.5068027210884354,0.48299319727891155,0.47619047619047616,0.46938775510204084,0.46258503401360546,0.45918367346938777,0.4557823129251701,0.4557823129251701,0.4557823129251701,0.4557823129251701,0.4557823129251701,0.4557823129251701,0.4557823129251701,0.46598639455782315,0.46938775510204084,0.47619047619047616,0.48299319727891155,0.48639455782312924,0.4931972789115646,0.5034013605442177,0.5102040816326531,0.5306122448979592,0.5510204081632653,0.5680272108843537,0.5918367346938775,0.6054421768707483,0.6258503401360545,0.6394557823129252,0.6462585034013606,0.6496598639455783,0.6496598639455783,0.6530612244897959,0.6530612244897959,0.6530612244897959,0.6530612244897959,0.6530612244897959,0.6530612244897959,0.6530612244897959,0.6530612244897959,0.6530612244897959,0.6530612244897959,0.6530612244897959,0.6530612244897959,0.6530612244897959,0.6530612244897959,0.6530612244897959,0.6530612244897959,0.6530612244897959,0.6530612244897959,0.6530612244897959,0.6530612244897959,0.6530612244897959,0.6530612244897959,0.6530612244897959,0.6530612244897959,0.6530612244897959,0.6530612244897959,0.6530612244897959,0.6530612244897959,0.6530612244897959,0.6530612244897959,0.6530612244897959,0.6530612244897959,0.6530612244897959,0.6530612244897959,0.6530612244897959,0.6530612244897959,0.6530612244897959,0.6530612244897959,0.6530612244897959,0.6530612244897959,0.6530612244897959,0.6530612244897959,0.6530612244897959,0.6530612244897959,0.6530612244897959,0.6530612244897959,0.6530612244897959,0.6530612244897959,0.6530612244897959,0.6530612244897959,0.6530612244897959,0.6530612244897959,0.6530612244897959,0.6530612244897959,0.6530612244897959,0.6530612244897959,0.6530612244897959,0.6530612244897959,0.6530612244897959,0.6530612244897959,0.6530612244897959,0.6530612244897959,0.6530612244897959,0.6530612244897959,0.6530612244897959,0.6530612244897959,0.6530612244897959,0.6530612244897959,0.6530612244897959,0.6530612244897959,0.6530612244897959,0.6530612244897959,0.6530612244897959,0.6530612244897959,0.6530612244897959,0.6530612244897959,0.6530612244897959,0.6530612244897959,0.6530612244897959,0.6530612244897959,0.6530612244897959,0.6530612244897959,0.6530612244897959,0.6530612244897959,0.6530612244897959,0.6530612244897959,0.6530612244897959,0.6530612244897959,0.6530612244897959,0.6530612244897959,0.6530612244897959,0.6530612244897959,0.6530612244897959,0.6530612244897959,0.6530612244897959,0.6530612244897959,0.6530612244897959,0.6530612244897959,0.6530612244897959,0.6530612244897959,0.6530612244897959,0.6530612244897959,0.6530612244897959,0.6530612244897959,0.6530612244897959,0.6530612244897959,0.673469387755102,0.7482993197278912,0.8197278911564626,0.8979591836734694,0.9523809523809523,1,1.030612244897959,1.0442176870748299,1.0510204081632653,1.064625850340136,1.0714285714285714,1.0782312925170068,1.08843537414966,1.0952380952380953,1.1326530612244898,1.163265306122449,1.1904761904761905,1.217687074829932,1.227891156462585,1.2312925170068028,1.2312925170068028,1.2312925170068028,1.2312925170068028,1.2346938775510203,1.2346938775510203,1.2346938775510203,1.2346938775510203,1.2346938775510203,1.2346938775510203,1.2346938775510203,1.2346938775510203,1.227891156462585,1.2210884353741496,1.217687074829932,1.2108843537414966,1.2074829931972788,1.2040816326530612,1.2040816326530612,1.2006802721088434,1.1972789115646258,1.1938775510204083,1.1938775510204083,1.1904761904761905,1.1904761904761905,1.1904761904761905,1.1870748299319729,1.1802721088435375,1.1802721088435375,1.1768707482993197,1.1734693877551021,1.1700680272108843,1.1666666666666667,1.1666666666666667,1.163265306122449,1.163265306122449,1.163265306122449,1.1598639455782314,1.1598639455782314,1.1598639455782314,1.1598639455782314,1.1564625850340136,1.1564625850340136,1.153061224489796,1.153061224489796,1.1496598639455782,1.1496598639455782,1.1462585034013606,1.1394557823129252,1.1326530612244898,1.129251700680272,1.1156462585034013,1.1122448979591837,1.1088435374149659,1.1054421768707483,1.1020408163265305,1.0952380952380953,1.0850340136054422,1.0680272108843538,1.0476190476190477,1.0238095238095237,0.9795918367346939,0.8639455782312925,0.7687074829931972,0.6938775510204082,0.564625850340136,0.48299319727891155,0.41496598639455784,0.35034013605442177,0.3333333333333333,0.3231292517006803,0.3197278911564626,0.3197278911564626,0.3197278911564626,0.3197278911564626,0.3197278911564626,0.3197278911564626,0.3197278911564626,0.3197278911564626,0.3231292517006803,0.3435374149659864,0.3877551020408163,0.4421768707482993,0.5,0.5918367346938775,0.6462585034013606,0.6904761904761905,0.7653061224489796,0.8095238095238095,0.8503401360544217,0.9047619047619048,0.9421768707482994,0.9659863945578231,1,1.0136054421768708,1.0272108843537415,1.0272108843537415,1.0272108843537415,1.0272108843537415,1.030612244897959,1.034013605442177,1.0476190476190477,1.0612244897959184,1.0714285714285714,1.0782312925170068,1.0816326530612246,1.08843537414966,1.098639455782313,1.1088435374149659,1.1360544217687074,1.1496598639455782,1.153061224489796,1.1564625850340136,1.1598639455782314,1.1598639455782314,1.163265306122449,1.163265306122449,1.163265306122449,1.163265306122449,1.163265306122449,1.163265306122449,1.163265306122449,1.163265306122449,1.163265306122449,1.163265306122449,1.163265306122449,1.163265306122449,1.163265306122449,1.163265306122449,1.163265306122449,1.163265306122449,1.163265306122449,1.163265306122449,1.163265306122449,1.163265306122449,1.163265306122449,1.163265306122449,1.163265306122449,1.163265306122449,1.163265306122449,1.163265306122449,1.163265306122449,1.163265306122449,1.163265306122449,1.163265306122449,1.163265306122449,1.163265306122449,1.163265306122449,1.163265306122449,1.163265306122449,1.163265306122449,1.163265306122449,1.163265306122449,1.163265306122449,1.163265306122449,1.163265306122449,1.163265306122449,1.163265306122449,1.163265306122449,1.163265306122449,1.163265306122449,1.163265306122449,1.163265306122449,1.163265306122449,1.163265306122449,1.163265306122449,1.163265306122449,1.163265306122449,1.163265306122449,1.163265306122449,1.163265306122449,1.163265306122449,1.163265306122449,1.163265306122449,1.163265306122449,1.163265306122449,1.163265306122449,1.163265306122449,1.163265306122449,1.163265306122449,1.1496598639455782,1.1360544217687074,1.1394557823129252,1.153061224489796,1.1598639455782314,1.163265306122449,1.1666666666666667,1.1666666666666667,1.1666666666666667,1.1666666666666667,1.1666666666666667,1.1666666666666667,1.1666666666666667,1.1666666666666667,1.1666666666666667,1.1666666666666667,1.1666666666666667,1.1666666666666667,1.1666666666666667,1.1666666666666667,1.163265306122449,1.163265306122449,1.163265306122449,1.163265306122449,1.1598639455782314,1.1564625850340136,1.1564625850340136,1.1564625850340136,1.1564625850340136,1.1564625850340136,1.1564625850340136,1.1564625850340136,1.1564625850340136,1.1564625850340136,1.1564625850340136,1.1564625850340136,1.1564625850340136,1.1564625850340136,1.1564625850340136,1.1564625850340136,1.1564625850340136,1.1564625850340136,1.1564625850340136,1.1564625850340136,1.1564625850340136,1.1564625850340136,1.1564625850340136,1.1564625850340136,1.1564625850340136,1.1564625850340136,1.1564625850340136,1.1564625850340136,1.1564625850340136,1.1564625850340136,1.1564625850340136,1.1564625850340136,1.1564625850340136,1.1564625850340136,1.1564625850340136,1.1564625850340136,1.1564625850340136,1.1564625850340136,1.1564625850340136,1.1564625850340136,1.1564625850340136,1.1564625850340136,1.1564625850340136,1.1564625850340136,1.1564625850340136,1.1564625850340136,1.1564625850340136,1.1564625850340136,1.1564625850340136,1.1564625850340136,1.1564625850340136,1.1564625850340136,1.1564625850340136,1.1564625850340136,1.1564625850340136,1.1564625850340136,1.1564625850340136,1.1564625850340136,1.1564625850340136,1.1564625850340136,1.1564625850340136,1.1564625850340136,1.1564625850340136,1.1564625850340136,1.1564625850340136,1.1564625850340136,1.1564625850340136,1.1564625850340136,1.1564625850340136,1.1564625850340136,1.1564625850340136,1.1564625850340136,1.1564625850340136,1.1564625850340136,1.1564625850340136,1.1564625850340136,1.1564625850340136,1.1564625850340136,1.1564625850340136,1.1564625850340136,1.1564625850340136,1.1564625850340136,1.1564625850340136,1.1564625850340136,1.1564625850340136,1.1564625850340136,1.1564625850340136,1.1564625850340136,1.1564625850340136,1.1564625850340136,1.1564625850340136,1.1564625850340136,1.1564625850340136,1.1564625850340136,1.1564625850340136,1.1564625850340136,1.1564625850340136,1.1564625850340136,1.1564625850340136,1.1564625850340136,1.1564625850340136,1.1564625850340136,1.1564625850340136,1.1564625850340136,1.1564625850340136,1.1564625850340136,1.1564625850340136,1.1564625850340136,1.1564625850340136,1.1564625850340136,1.1564625850340136,1.1564625850340136,1.1564625850340136,1.1564625850340136,1.1564625850340136,1.1564625850340136,1.1564625850340136,1.1564625850340136,1.1564625850340136,1.1564625850340136,1.1564625850340136,1.1564625850340136,1.1564625850340136,1.1564625850340136,1.1564625850340136,1.1564625850340136,1.1564625850340136,1.1564625850340136,1.1564625850340136,1.1564625850340136,1.1564625850340136,1.1564625850340136,1.1564625850340136,1.1564625850340136,1.1564625850340136,1.1564625850340136,1.1564625850340136,1.1564625850340136,1.1564625850340136,1.1564625850340136,1.1564625850340136,1.1564625850340136,1.1564625850340136,1.1564625850340136,1.1564625850340136,1.1564625850340136,1.1564625850340136,1.1564625850340136,1.1564625850340136,1.1564625850340136,1.1564625850340136,1.1564625850340136,1.1564625850340136,1.1564625850340136,1.1564625850340136,1.1564625850340136,1.1564625850340136,1.1564625850340136,1.1564625850340136,1.1564625850340136,1.1564625850340136,1.1564625850340136,1.1564625850340136,1.1564625850340136,1.1564625850340136,1.1564625850340136,1.1564625850340136,1.1564625850340136,1.1564625850340136,1.1564625850340136,1.1564625850340136,1.1564625850340136,1.1564625850340136,1.1564625850340136,1.1564625850340136,1.1564625850340136,1.1564625850340136,1.1564625850340136,1.1564625850340136,1.1564625850340136,1.1564625850340136,1.1564625850340136,1.1564625850340136,1.1564625850340136,1.1564625850340136,1.1564625850340136,1.1564625850340136,1.1564625850340136,1.1564625850340136,1.1564625850340136,1.1564625850340136,1.1564625850340136,1.1564625850340136,1.1564625850340136,1.1564625850340136,1.1564625850340136,1.1564625850340136,1.1564625850340136,1.1564625850340136,1.1564625850340136,1.1564625850340136,1.1564625850340136,1.1564625850340136,1.1564625850340136,1.1564625850340136,1.1564625850340136,1.1564625850340136,1.1564625850340136,1.1564625850340136,1.1564625850340136,1.1564625850340136,1.1564625850340136,1.1564625850340136,1.1564625850340136,1.1564625850340136,1.1564625850340136,1.1564625850340136,1.1564625850340136,1.1564625850340136,1.1564625850340136,1.1564625850340136,1.1564625850340136,1.1564625850340136,1.1564625850340136,1.1564625850340136,1.1564625850340136,1.1564625850340136,1.1564625850340136,1.1564625850340136,1.1564625850340136,1.1564625850340136,1.153061224489796,1.1496598639455782,1.1496598639455782,1.1462585034013606,1.1428571428571428,1.1360544217687074,1.1360544217687074,1.129251700680272,1.1224489795918366,1.1088435374149659,1.0918367346938775,1.0816326530612246,1.0680272108843538,1.0476190476190477,1.034013605442177,1.0136054421768708,0.9897959183673469,0.9761904761904762,0.9591836734693877,0.9387755102040817,0.9149659863945578,0.8775510204081632,0.8367346938775511,0.8231292517006803,0.8129251700680272,0.7959183673469388,0.782312925170068,0.7312925170068028,0.6938775510204082,0.673469387755102,0.6564625850340136,0.6428571428571429,0.6292517006802721,0.6054421768707483,0.5850340136054422,0.564625850340136,0.5544217687074829,0.5510204081632653,0.5476190476190477,0.5476190476190477,0.5476190476190477,0.5476190476190477,0.5476190476190477,0.5476190476190477,0.5476190476190477,0.5476190476190477,0.5476190476190477,0.5476190476190477,0.5476190476190477,0.5476190476190477,0.5476190476190477,0.5476190476190477,0.5476190476190477,0.5476190476190477,0.5476190476190477,0.5476190476190477,0.5476190476190477,0.5476190476190477,0.5476190476190477,0.5476190476190477,0.5476190476190477,0.5476190476190477,0.5476190476190477,0.5476190476190477,0.5476190476190477,0.5476190476190477,0.5476190476190477,0.5476190476190477,0.5476190476190477,0.5476190476190477,0.5476190476190477,0.5476190476190477,0.5476190476190477,0.5476190476190477,0.5476190476190477,0.5476190476190477,0.5476190476190477,0.5476190476190477,0.5476190476190477,0.5476190476190477,0.5476190476190477,0.5476190476190477,0.5476190476190477,0.5476190476190477,0.5476190476190477,0.5476190476190477,0.5476190476190477,0.5476190476190477,0.5476190476190477,0.5476190476190477,0.5476190476190477,0.5476190476190477,0.5476190476190477,0.5476190476190477,0.5238095238095238,0.5102040816326531,0.5034013605442177,0.47959183673469385,0.4421768707482993,0.40476190476190477,0.3741496598639456,0.3707482993197279,0.36054421768707484,0.35714285714285715,0.35374149659863946,0.3469387755102041,0.3435374149659864,0.3435374149659864,0.3673469387755102,0.3877551020408163,0.41156462585034015,0.42857142857142855,0.4387755102040816,0.445578231292517,0.4557823129251701,0.4557823129251701,0.4557823129251701,0.4557823129251701,0.4557823129251701,0.4557823129251701,0.4557823129251701,0.4557823129251701,0.4557823129251701,0.4557823129251701,0.4557823129251701,0.4557823129251701,0.4557823129251701,0.4557823129251701,0.4557823129251701,0.4557823129251701,0.4523809523809524,0.4489795918367347,0.445578231292517,0.43537414965986393,0.43197278911564624,0.43197278911564624,0.42857142857142855,0.42857142857142855,0.42857142857142855,0.42857142857142855,0.42857142857142855,0.42857142857142855,0.42857142857142855,0.42857142857142855,0.42857142857142855,0.42857142857142855,0.42857142857142855,0.42857142857142855,0.42857142857142855,0.42857142857142855,0.42857142857142855,0.42857142857142855,0.42857142857142855,0.42857142857142855,0.42857142857142855,0.42857142857142855,0.42857142857142855,0.42857142857142855,0.42857142857142855,0.42857142857142855,0.42857142857142855,0.42857142857142855,0.42857142857142855,0.42857142857142855,0.42857142857142855,0.42857142857142855,0.42857142857142855,0.42857142857142855,0.42857142857142855,0.42857142857142855,0.42857142857142855,0.42857142857142855,0.42857142857142855,0.42857142857142855,0.42857142857142855,0.42857142857142855,0.42857142857142855,0.42857142857142855,0.42857142857142855,0.42857142857142855,0.42857142857142855,0.42857142857142855,0.42857142857142855,0.42857142857142855,0.42857142857142855,0.42857142857142855,0.42857142857142855,0.42857142857142855,0.42857142857142855,0.42857142857142855,0.42857142857142855,0.42857142857142855,0.42857142857142855,0.42857142857142855,0.42857142857142855,0.42857142857142855,0.42857142857142855,0.42857142857142855,0.42857142857142855,0.42857142857142855,0.42857142857142855,0.42857142857142855,0.42857142857142855,0.42857142857142855,0.42857142857142855,0.42857142857142855,0.41496598639455784,0.391156462585034,0.3877551020408163,0.3843537414965986,0.3843537414965986,0.3843537414965986,0.3877551020408163,0.3945578231292517,0.3979591836734694,0.4013605442176871,0.4013605442176871,0.4013605442176871,0.41156462585034015,0.41496598639455784,0.41496598639455784,0.41496598639455784,0.41496598639455784,0.41496598639455784,0.41496598639455784,0.41496598639455784,0.41496598639455784,0.41496598639455784,0.41496598639455784,0.41496598639455784,0.41496598639455784,0.41496598639455784,0.41496598639455784,0.41496598639455784,0.41496598639455784,0.41496598639455784,0.41496598639455784,0.41496598639455784,0.41496598639455784,0.41496598639455784,0.41496598639455784,0.41496598639455784,0.41496598639455784,0.41496598639455784,0.41496598639455784,0.41496598639455784,0.41496598639455784,0.41496598639455784,0.41496598639455784,0.41496598639455784,0.41496598639455784,0.41496598639455784,0.41496598639455784,0.41496598639455784,0.41496598639455784,0.41496598639455784,0.41496598639455784,0.41496598639455784,0.41496598639455784,0.41496598639455784,0.41496598639455784,0.41496598639455784,0.41496598639455784,0.41496598639455784,0.41496598639455784,0.41496598639455784,0.41496598639455784,0.41496598639455784,0.41496598639455784,0.41496598639455784,0.41496598639455784,0.41496598639455784,0.41496598639455784,0.41496598639455784,0.41496598639455784,0.41496598639455784,0.41496598639455784,0.41496598639455784,0.41496598639455784,0.41496598639455784,0.41496598639455784,0.41496598639455784,0.41496598639455784,0.41496598639455784,0.41496598639455784,0.41496598639455784,0.41496598639455784,0.41496598639455784,0.41496598639455784,0.41496598639455784,0.41496598639455784,0.41496598639455784,0.41496598639455784,0.41496598639455784,0.41496598639455784,0.41496598639455784,0.41496598639455784,0.41496598639455784,0.41496598639455784,0.41496598639455784,0.41496598639455784,0.41496598639455784,0.41496598639455784,0.41496598639455784,0.41496598639455784,0.41496598639455784,0.41496598639455784,0.41496598639455784,0.41496598639455784,0.41496598639455784,0.41496598639455784,0.41496598639455784,0.41496598639455784,0.41496598639455784,0.41496598639455784,0.41496598639455784,0.41496598639455784,0.41496598639455784,0.41496598639455784,0.41496598639455784,0.41496598639455784,0.41496598639455784,0.41496598639455784,0.41496598639455784,0.41496598639455784,0.41496598639455784,0.41496598639455784,0.41496598639455784,0.41496598639455784,0.41496598639455784,0.41496598639455784,0.41496598639455784,0.41496598639455784,0.41496598639455784,0.41496598639455784,0.41496598639455784,0.41496598639455784,0.41496598639455784,0.41496598639455784,0.41496598639455784,0.41496598639455784,0.41496598639455784,0.41496598639455784,0.41496598639455784,0.41496598639455784,0.41496598639455784,0.41496598639455784,0.41496598639455784,0.41496598639455784,0.41496598639455784,0.41496598639455784,0.41496598639455784,0.41496598639455784,0.41496598639455784,0.41496598639455784,0.41496598639455784,0.41496598639455784,0.41496598639455784,0.41496598639455784,0.41496598639455784,0.41496598639455784,0.41496598639455784,0.41496598639455784,0.41496598639455784,0.41496598639455784,0.41496598639455784,0.41496598639455784,0.41496598639455784,0.41496598639455784,0.41496598639455784,0.41496598639455784,0.41496598639455784,0.41496598639455784,0.41496598639455784,0.41496598639455784,0.41496598639455784,0.41496598639455784,0.41496598639455784,0.41496598639455784,0.41496598639455784,0.41496598639455784,0.41496598639455784,0.41496598639455784,0.41496598639455784,0.41496598639455784,0.41496598639455784,0.41496598639455784,0.41496598639455784,0.41496598639455784,0.41496598639455784,0.41496598639455784,0.41496598639455784,0.41496598639455784,0.41496598639455784,0.41496598639455784,0.41496598639455784,0.41496598639455784,0.41496598639455784,0.41496598639455784,0.41496598639455784,0.41496598639455784,0.41496598639455784,0.41496598639455784,0.41496598639455784,0.41496598639455784,0.41496598639455784,0.41496598639455784,0.41496598639455784,0.41496598639455784,0.41496598639455784,0.41496598639455784,0.41496598639455784,0.41496598639455784,0.41496598639455784,0.41496598639455784,0.41496598639455784,0.41496598639455784,0.41496598639455784,0.41496598639455784,0.41496598639455784,0.41496598639455784,0.41496598639455784,0.41496598639455784,0.41496598639455784,0.41496598639455784,0.41496598639455784,0.41496598639455784,0.41496598639455784,0.41496598639455784,0.41496598639455784,0.41496598639455784,0.41496598639455784,0.41496598639455784,0.41496598639455784,0.41496598639455784,0.41496598639455784,0.41496598639455784,0.41496598639455784,0.41496598639455784,0.41496598639455784,0.41496598639455784,0.41496598639455784,0.41496598639455784,0.41496598639455784,0.41496598639455784,0.41496598639455784,0.41496598639455784,0.41496598639455784,0.43537414965986393,0.46938775510204084,0.5102040816326531,0.5272108843537415,0.5510204081632653,0.5782312925170068,0.5918367346938775,0.6054421768707483,0.6190476190476191,0.6190476190476191,0.6326530612244898,0.6360544217687075,0.6394557823129252,0.6394557823129252,0.6394557823129252,0.6394557823129252,0.6394557823129252,0.6394557823129252,0.6394557823129252,0.6394557823129252,0.6394557823129252,0.6394557823129252,0.6394557823129252,0.6394557823129252,0.6394557823129252,0.6394557823129252,0.6394557823129252,0.6394557823129252,0.6394557823129252,0.6394557823129252,0.6394557823129252,0.6360544217687075,0.6326530612244898,0.6292517006802721,0.6224489795918368,0.6190476190476191,0.6190476190476191,0.6156462585034014,0.6156462585034014,0.6190476190476191,0.6190476190476191,0.6190476190476191,0.6190476190476191,0.6190476190476191,0.6190476190476191,0.6190476190476191,0.6190476190476191,0.6190476190476191,0.6190476190476191,0.6190476190476191,0.6190476190476191,0.6190476190476191,0.6190476190476191,0.6190476190476191,0.6190476190476191,0.6190476190476191,0.6190476190476191,0.6190476190476191,0.6190476190476191,0.6190476190476191,0.6190476190476191,0.6190476190476191,0.6156462585034014,0.608843537414966,0.6020408163265306,0.5918367346938775,0.5918367346938775,0.5918367346938775,0.5918367346938775,0.5918367346938775,0.5918367346938775,0.5918367346938775,0.5918367346938775,0.5918367346938775,0.5918367346938775,0.5918367346938775,0.5918367346938775,0.5918367346938775,0.5918367346938775,0.5918367346938775,0.5918367346938775,0.5918367346938775,0.5918367346938775,0.5918367346938775,0.5918367346938775,0.5918367346938775,0.5918367346938775,0.5918367346938775,0.5918367346938775,0.5918367346938775,0.5918367346938775,0.5918367346938775,0.5918367346938775,0.5918367346938775,0.5918367346938775,0.5918367346938775,0.5918367346938775,0.5918367346938775,0.5918367346938775,0.5918367346938775,0.5918367346938775,0.5918367346938775,0.5918367346938775,0.5918367346938775,0.5918367346938775,0.5918367346938775,0.5918367346938775,0.5918367346938775,0.5918367346938775,0.5918367346938775,0.5918367346938775,0.5918367346938775,0.5918367346938775,0.5918367346938775,0.5918367346938775,0.5918367346938775,0.5918367346938775,0.5918367346938775,0.4965986394557823,0.4557823129251701,0.43197278911564624,0.3979591836734694,0.38095238095238093,0.35714285714285715,0.3333333333333333,0.3231292517006803,0.3197278911564626,0.3197278911564626,0.3197278911564626,0.3197278911564626,0.3197278911564626,0.3197278911564626,0.3197278911564626,0.3163265306122449,0.3129251700680272,0.30612244897959184,0.30612244897959184,0.30612244897959184,0.30612244897959184,0.30612244897959184,0.30612244897959184,0.30612244897959184,0.30612244897959184,0.30612244897959184,0.30612244897959184,0.30612244897959184,0.30612244897959184,0.30612244897959184,0.30612244897959184,0.30612244897959184,0.30612244897959184,0.30612244897959184,0.30612244897959184,0.30612244897959184,0.30612244897959184,0.30612244897959184,0.30612244897959184,0.30612244897959184,0.30612244897959184,0.30612244897959184,0.30612244897959184,0.30612244897959184,0.30612244897959184,0.30612244897959184,0.30612244897959184,0.30612244897959184,0.30612244897959184,0.30612244897959184,0.30612244897959184,0.30612244897959184,0.30612244897959184,0.30612244897959184,0.30612244897959184,0.30612244897959184,0.30612244897959184,0.30612244897959184,0.30612244897959184,0.30612244897959184,0.30612244897959184,0.30612244897959184,0.30612244897959184,0.30612244897959184,0.30612244897959184,0.30612244897959184,0.30612244897959184,0.30612244897959184,0.30612244897959184,0.30612244897959184,0.30612244897959184,0.30612244897959184,0.30612244897959184,0.30612244897959184,0.30612244897959184,0.30612244897959184,0.30612244897959184,0.30612244897959184,0.30612244897959184,0.30612244897959184,0.30612244897959184,0.30612244897959184,0.30612244897959184,0.30612244897959184,0.30612244897959184,0.30612244897959184,0.30612244897959184,0.30612244897959184,0.30612244897959184,0.30612244897959184,0.30612244897959184,0.30612244897959184,0.30612244897959184,0.30612244897959184,0.30612244897959184,0.30612244897959184,0.30612244897959184,0.30612244897959184,0.30612244897959184,0.30612244897959184,0.30612244897959184,0.30612244897959184,0.30612244897959184,0.30612244897959184,0.30612244897959184,0.30612244897959184,0.30612244897959184,0.30612244897959184,0.30612244897959184,0.30612244897959184,0.30612244897959184,0.30612244897959184,0.30612244897959184,0.30612244897959184,0.30612244897959184,0.30612244897959184,0.30612244897959184,0.30612244897959184,0.30612244897959184,0.30612244897959184,0.30612244897959184,0.30612244897959184,0.30612244897959184,0.30612244897959184,0.30612244897959184,0.30612244897959184,0.30612244897959184,0.30612244897959184,0.30612244897959184,0.30612244897959184,0.30612244897959184,0.30612244897959184,0.30612244897959184,0.30612244897959184,0.30612244897959184,0.30612244897959184,0.30612244897959184,0.30612244897959184,0.30612244897959184,0.30612244897959184,0.30612244897959184,0.30612244897959184,0.30612244897959184,0.30612244897959184,0.30612244897959184,0.30612244897959184,0.30612244897959184,0.30612244897959184,0.30612244897959184,0.30612244897959184,0.30612244897959184,0.30612244897959184,0.30612244897959184,0.30612244897959184,0.30612244897959184,0.30612244897959184,0.30612244897959184,0.30612244897959184,0.30612244897959184,0.30612244897959184,0.30612244897959184,0.30612244897959184,0.30612244897959184,0.30612244897959184,0.30612244897959184,0.30612244897959184,0.30612244897959184,0.30612244897959184,0.30612244897959184,0.30612244897959184,0.30612244897959184,0.30612244897959184,0.30612244897959184,0.30612244897959184,0.30612244897959184,0.30612244897959184,0.30612244897959184,0.30612244897959184,0.30612244897959184,0.30612244897959184,0.30612244897959184,0.30612244897959184,0.30612244897959184,0.30612244897959184,0.30612244897959184,0.30612244897959184,0.30612244897959184,0.30612244897959184,0.30612244897959184,0.30612244897959184,0.30612244897959184,0.30612244897959184,0.30612244897959184,0.30612244897959184,0.30612244897959184,0.30612244897959184,0.30612244897959184,0.30612244897959184,0.30612244897959184,0.30612244897959184,0.30612244897959184,0.30612244897959184,0.30612244897959184,0.30612244897959184,0.30612244897959184,0.30612244897959184,0.30612244897959184,0.30612244897959184,0.30612244897959184,0.30612244897959184,0.30612244897959184,0.30612244897959184,0.30612244897959184,0.30612244897959184,0.30612244897959184,0.30612244897959184,0.30612244897959184,0.30612244897959184,0.30612244897959184,0.30612244897959184,0.30612244897959184,0.30612244897959184,0.30612244897959184,0.30612244897959184,0.30612244897959184,0.30612244897959184,0.30612244897959184,0.30612244897959184,0.30612244897959184,0.30612244897959184,0.30612244897959184,0.30612244897959184,0.30612244897959184,0.30612244897959184,0.30612244897959184,0.30612244897959184,0.30612244897959184,0.30612244897959184,0.30612244897959184,0.30612244897959184,0.30612244897959184,0.2925170068027211,0.2755102040816326,0.2653061224489796,0.2585034013605442,0.25510204081632654,0.25510204081632654,0.25510204081632654,0.25510204081632654,0.25510204081632654,0.25170068027210885,0.25170068027210885,0.24829931972789115,0.24489795918367346,0.24149659863945577,0.24149659863945577,0.24149659863945577,0.24149659863945577,0.24149659863945577,0.24149659863945577,0.24149659863945577,0.24149659863945577,0.24149659863945577,0.24149659863945577,0.24149659863945577,0.24149659863945577,0.23809523809523808,0.22789115646258504,0.22448979591836735,0.21428571428571427,0.2108843537414966,0.2108843537414966,0.2108843537414966,0.20748299319727892,0.20408163265306123,0.19727891156462585,0.19727891156462585,0.1870748299319728,0.1836734693877551,0.1836734693877551,0.18027210884353742,0.18027210884353742,0.17687074829931973,0.17346938775510204,0.17346938775510204,0.17346938775510204,0.17346938775510204,0.17346938775510204,0.17346938775510204,0.17346938775510204,0.17346938775510204,0.17346938775510204,0.17346938775510204,0.17346938775510204,0.17346938775510204,0.17346938775510204,0.17346938775510204,0.17346938775510204,0.17346938775510204,0.17346938775510204,0.17346938775510204,0.17346938775510204,0.17346938775510204,0.17346938775510204,0.17346938775510204,0.17346938775510204,0.17346938775510204,0.17346938775510204,0.17346938775510204,0.17346938775510204,0.17346938775510204,0.17346938775510204,0.17346938775510204,0.17346938775510204,0.17346938775510204,0.17346938775510204,0.17346938775510204,0.17346938775510204,0.17346938775510204,0.17346938775510204,0.17346938775510204,0.17346938775510204,0.17346938775510204,0.17346938775510204,0.17346938775510204,0.17346938775510204,0.17346938775510204,0.17346938775510204,0.17346938775510204,0.17346938775510204,0.17346938775510204,0.17346938775510204,0.17346938775510204,0.17346938775510204,0.17346938775510204,0.17346938775510204,0.17346938775510204,0.17346938775510204,0.17346938775510204,0.17346938775510204,0.17346938775510204,0.17346938775510204,0.17346938775510204,0.17346938775510204,0.20068027210884354,0.22108843537414966,0.23469387755102042,0.2585034013605442,0.2789115646258503,0.2925170068027211,0.3129251700680272,0.32653061224489793,0.3333333333333333,0.3401360544217687,0.3435374149659864,0.3435374149659864,0.3435374149659864,0.3435374149659864,0.3435374149659864,0.3435374149659864,0.3435374149659864,0.3435374149659864,0.3435374149659864,0.3435374149659864,0.3435374149659864,0.3435374149659864,0.3435374149659864,0.3435374149659864,0.3435374149659864,0.3435374149659864,0.3435374149659864,0.3435374149659864,0.3435374149659864,0.3435374149659864,0.3435374149659864,0.3435374149659864,0.3435374149659864,0.3435374149659864,0.3435374149659864,0.3435374149659864,0.3435374149659864,0.3435374149659864,0.3435374149659864,0.3435374149659864,0.3435374149659864,0.3435374149659864,0.3435374149659864,0.3435374149659864,0.3435374149659864,0.3435374149659864,0.3435374149659864,0.3435374149659864,0.3435374149659864,0.3435374149659864,0.3435374149659864,0.3435374149659864,0.3435374149659864,0.3435374149659864,0.3435374149659864,0.3435374149659864,0.3435374149659864,0.3435374149659864,0.3435374149659864,0.3435374149659864,0.3435374149659864,0.3435374149659864,0.3435374149659864,0.3435374149659864,0.3435374149659864,0.3435374149659864,0.3435374149659864,0.3435374149659864,0.3435374149659864,0.3435374149659864,0.3435374149659864,0.3435374149659864,0.3435374149659864,0.3435374149659864,0.3435374149659864,0.3435374149659864,0.3435374149659864,0.3435374149659864,0.3435374149659864,0.3435374149659864,0.3435374149659864,0.3435374149659864,0.3435374149659864,0.3435374149659864,0.3435374149659864,0.3435374149659864,0.3435374149659864,0.3435374149659864,0.3435374149659864,0.3435374149659864,0.3435374149659864,0.3435374149659864,0.3435374149659864,0.3435374149659864,0.3435374149659864,0.40476190476190477,0.46938775510204084,0.5748299319727891,0.6326530612244898,0.673469387755102,0.7244897959183674,0.7414965986394558,0.7551020408163265,0.7653061224489796,0.7687074829931972,0.7687074829931972,0.7721088435374149,0.7789115646258503,0.7925170068027211,0.8095238095238095,0.8367346938775511,0.8537414965986394,0.8741496598639455,0.9319727891156463,0.9727891156462585,1.0272108843537415,1.054421768707483,1.0714285714285714,1.0850340136054422,1.0850340136054422,1.08843537414966,1.08843537414966,1.08843537414966,1.08843537414966,1.08843537414966,1.0816326530612246,1.0816326530612246,1.0782312925170068,1.0782312925170068,1.0748299319727892,1.0714285714285714,1.0714285714285714,1.0714285714285714,1.0680272108843538,1.0680272108843538,1.0578231292517006,1.0442176870748299,1.0374149659863945,1.030612244897959,1.0272108843537415,1.0238095238095237,1.0204081632653061,1.0204081632653061,1.0170068027210883,1.0170068027210883,1.0170068027210883,1.0170068027210883,1.0170068027210883,1.0170068027210883,1.0170068027210883,1.0170068027210883,1.0170068027210883,1.0170068027210883,1.0170068027210883,1.0170068027210883,1.0170068027210883,1.0170068027210883,1.0170068027210883,1.0170068027210883,1.0170068027210883,1.0170068027210883,1.0170068027210883,1.0170068027210883,1.0170068027210883,1.0170068027210883,1.0170068027210883,1.0170068027210883,1.0170068027210883,1.0170068027210883,1.0170068027210883,1.0170068027210883,1.0170068027210883,1.0170068027210883,1.0170068027210883,1.0170068027210883,1.0170068027210883,1.0170068027210883,1.0170068027210883,1.0170068027210883,1.0170068027210883,1.0170068027210883,1.0170068027210883,1.0170068027210883,1.0170068027210883,1.0170068027210883,1.0170068027210883,1.0170068027210883,1.0170068027210883,1.0170068027210883,1.0170068027210883,1.0170068027210883,1.0170068027210883,1.0170068027210883,1.0170068027210883,1.0170068027210883,0.7789115646258503,0.5102040816326531,0.1870748299319728,0.09183673469387756,0.034013605442176874,0.01020408163265306,0,-0.006802721088435374,-0.013605442176870748,-0.017006802721088437,-0.02040816326530612,-0.02040816326530612,-0.02040816326530612,-0.034013605442176874,-0.04421768707482993,-0.047619047619047616,-0.05102040816326531,-0.05442176870748299,-0.05442176870748299,-0.05102040816326531,-0.04421768707482993,-0.034013605442176874,-0.034013605442176874,-0.030612244897959183,-0.023809523809523808,-0.023809523809523808,-0.02040816326530612,-0.02040816326530612,-0.02040816326530612,-0.017006802721088437,-0.017006802721088437,-0.017006802721088437,-0.017006802721088437,-0.017006802721088437,-0.017006802721088437,-0.017006802721088437,-0.017006802721088437,-0.017006802721088437,-0.017006802721088437,-0.017006802721088437,-0.017006802721088437,-0.017006802721088437,-0.017006802721088437,-0.017006802721088437,-0.017006802721088437,-0.017006802721088437,-0.017006802721088437,-0.017006802721088437,-0.017006802721088437,-0.017006802721088437,-0.017006802721088437,-0.017006802721088437,-0.017006802721088437,-0.017006802721088437,-0.017006802721088437,-0.017006802721088437,-0.017006802721088437,-0.017006802721088437,-0.017006802721088437,-0.017006802721088437,-0.017006802721088437,-0.017006802721088437,-0.017006802721088437,-0.017006802721088437,-0.017006802721088437,-0.017006802721088437,-0.017006802721088437,-0.017006802721088437,-0.017006802721088437,-0.017006802721088437,-0.017006802721088437,-0.017006802721088437,-0.017006802721088437,-0.017006802721088437,-0.017006802721088437,-0.017006802721088437,-0.017006802721088437,-0.017006802721088437,-0.017006802721088437,-0.017006802721088437,-0.017006802721088437,-0.017006802721088437,-0.017006802721088437,-0.017006802721088437,-0.017006802721088437,-0.017006802721088437,-0.017006802721088437,-0.017006802721088437,-0.017006802721088437,-0.017006802721088437,-0.017006802721088437,-0.017006802721088437,-0.017006802721088437,-0.017006802721088437,-0.017006802721088437,-0.017006802721088437,-0.017006802721088437,-0.017006802721088437,-0.017006802721088437,-0.017006802721088437,-0.017006802721088437,-0.017006802721088437,-0.017006802721088437,-0.017006802721088437,-0.017006802721088437,-0.017006802721088437,-0.017006802721088437,-0.017006802721088437,-0.017006802721088437,-0.017006802721088437,-0.017006802721088437,-0.017006802721088437,-0.017006802721088437,-0.017006802721088437,-0.017006802721088437,-0.017006802721088437,-0.017006802721088437,-0.017006802721088437,-0.017006802721088437,-0.017006802721088437,-0.017006802721088437,-0.07482993197278912,-0.09183673469387756,-0.10884353741496598,-0.11564625850340136,-0.11224489795918367,-0.1054421768707483,-0.09523809523809523,-0.08843537414965986,-0.0782312925170068,-0.07142857142857142,-0.061224489795918366,-0.05782312925170068,-0.05442176870748299,-0.05442176870748299,-0.05442176870748299,-0.05442176870748299,-0.05442176870748299,-0.05442176870748299,-0.05442176870748299,-0.05442176870748299,-0.05442176870748299,-0.05442176870748299,-0.05442176870748299,-0.05442176870748299,-0.05442176870748299,-0.05442176870748299,-0.05442176870748299,-0.05442176870748299,-0.05442176870748299,-0.05442176870748299,-0.05442176870748299,-0.05442176870748299,-0.05442176870748299,-0.05442176870748299,-0.05442176870748299,-0.05442176870748299,-0.05442176870748299,-0.05442176870748299,-0.05442176870748299,-0.05442176870748299,-0.05442176870748299,-0.05442176870748299,-0.05442176870748299,-0.05442176870748299,-0.05442176870748299,-0.05442176870748299,-0.05442176870748299],"y":[-2.8333333333333335,-2.8333333333333335,-2.8333333333333335,-2.8333333333333335,-2.8333333333333335,-2.8333333333333335,-2.8333333333333335,-2.8333333333333335,-2.8333333333333335,-2.8333333333333335,-2.8333333333333335,-2.8333333333333335,-2.8333333333333335,-2.8333333333333335,-2.8333333333333335,-2.8333333333333335,-2.8333333333333335,-2.8333333333333335,-2.8333333333333335,-2.8333333333333335,-2.8333333333333335,-2.8333333333333335,-2.8333333333333335,-2.8333333333333335,-2.8333333333333335,-2.8333333333333335,1.338095238095238,1.5095238095238095,1.6523809523809523,1.8333333333333333,1.9476190476190476,2.0714285714285716,2.261904761904762,2.3380952380952382,2.3857142857142857,2.4238095238095236,2.4523809523809526,2.519047619047619,2.5761904761904764,2.6142857142857143,2.6523809523809523,2.6523809523809523,2.6523809523809523,2.6523809523809523,2.6523809523809523,2.6523809523809523,2.6523809523809523,2.6523809523809523,2.6523809523809523,2.6523809523809523,2.6523809523809523,2.6523809523809523,2.6523809523809523,2.6523809523809523,2.6523809523809523,2.6523809523809523,2.6523809523809523,2.6523809523809523,2.6523809523809523,2.6523809523809523,2.6523809523809523,2.6523809523809523,2.6523809523809523,2.6523809523809523,2.6523809523809523,2.6523809523809523,2.6523809523809523,2.6523809523809523,2.6523809523809523,2.6523809523809523,2.6523809523809523,2.6523809523809523,2.6523809523809523,2.6523809523809523,2.6523809523809523,2.6523809523809523,2.6523809523809523,2.6523809523809523,2.6523809523809523,2.6523809523809523,2.6523809523809523,2.6523809523809523,2.6523809523809523,2.6523809523809523,2.6523809523809523,2.6523809523809523,2.6523809523809523,2.6523809523809523,2.6523809523809523,2.6523809523809523,2.6523809523809523,2.6523809523809523,2.6523809523809523,2.6523809523809523,2.6523809523809523,2.6523809523809523,2.6523809523809523,2.6523809523809523,2.6523809523809523,2.6523809523809523,2.6523809523809523,2.6523809523809523,2.6523809523809523,2.6523809523809523,2.6523809523809523,2.6523809523809523,2.6523809523809523,2.6523809523809523,2.6523809523809523,2.6523809523809523,2.6523809523809523,2.6523809523809523,2.6523809523809523,2.6523809523809523,2.6523809523809523,2.6523809523809523,2.6523809523809523,2.6523809523809523,2.6523809523809523,2.6523809523809523,2.6523809523809523,2.6523809523809523,2.6523809523809523,2.6523809523809523,2.6523809523809523,2.6523809523809523,2.6523809523809523,2.6523809523809523,2.6523809523809523,2.5476190476190474,2.4047619047619047,2.2523809523809524,2.1952380952380954,2.138095238095238,2.052380952380952,2.0047619047619047,1.9285714285714286,1.9,1.8714285714285714,1.8523809523809525,1.8428571428571427,1.8333333333333333,1.8333333333333333,1.8238095238095238,1.8238095238095238,1.8238095238095238,1.8238095238095238,1.8238095238095238,1.8238095238095238,1.8238095238095238,1.8238095238095238,1.8238095238095238,1.8238095238095238,1.8238095238095238,1.8238095238095238,1.8238095238095238,1.8333333333333333,1.8333333333333333,1.8428571428571427,1.8428571428571427,1.8333333333333333,1.8047619047619048,1.776190476190476,1.7571428571428571,1.7190476190476192,1.7190476190476192,1.7,1.7,1.6904761904761905,1.6904761904761905,1.6904761904761905,1.6904761904761905,1.6904761904761905,1.6904761904761905,1.6904761904761905,1.6904761904761905,1.6904761904761905,1.6904761904761905,1.6904761904761905,1.6904761904761905,1.6904761904761905,1.6904761904761905,1.6904761904761905,1.6904761904761905,1.6904761904761905,1.6904761904761905,1.6904761904761905,1.6904761904761905,1.6904761904761905,1.6904761904761905,1.6904761904761905,1.6904761904761905,1.6904761904761905,1.6904761904761905,1.6904761904761905,1.6904761904761905,1.6904761904761905,1.6904761904761905,1.6904761904761905,1.6904761904761905,1.6904761904761905,1.6904761904761905,1.6904761904761905,1.6904761904761905,1.6904761904761905,1.6904761904761905,1.6904761904761905,1.6904761904761905,1.6904761904761905,1.6904761904761905,1.6904761904761905,1.6904761904761905,1.6904761904761905,1.6904761904761905,1.6904761904761905,1.6904761904761905,1.6904761904761905,1.6904761904761905,1.6904761904761905,1.6904761904761905,1.6904761904761905,1.6904761904761905,1.6904761904761905,1.6904761904761905,1.6904761904761905,1.6904761904761905,1.6904761904761905,1.6904761904761905,1.6904761904761905,1.6904761904761905,1.6904761904761905,1.6904761904761905,1.6904761904761905,1.6904761904761905,1.6904761904761905,1.6904761904761905,1.6904761904761905,1.6904761904761905,1.6904761904761905,1.6904761904761905,1.6904761904761905,1.6904761904761905,1.6904761904761905,1.6904761904761905,1.6904761904761905,1.6904761904761905,1.6904761904761905,1.6904761904761905,1.6904761904761905,1.6904761904761905,1.6904761904761905,1.6904761904761905,1.6904761904761905,1.6904761904761905,1.6904761904761905,1.6904761904761905,1.6904761904761905,1.6904761904761905,1.6904761904761905,1.6904761904761905,1.6904761904761905,1.6904761904761905,1.6904761904761905,1.6904761904761905,1.6904761904761905,1.6904761904761905,1.6904761904761905,1.6904761904761905,1.6904761904761905,1.6904761904761905,1.6904761904761905,1.6904761904761905,1.5761904761904761,1.2047619047619047,0.9380952380952381,0.7285714285714285,0.6333333333333333,0.5571428571428572,0.5,0.4714285714285714,0.46190476190476193,0.46190476190476193,0.4523809523809524,0.4523809523809524,0.4523809523809524,0.4523809523809524,0.43333333333333335,0.4238095238095238,0.3952380952380952,0.36666666666666664,0.35714285714285715,0.3476190476190476,0.3476190476190476,0.3476190476190476,0.3476190476190476,0.3476190476190476,0.3476190476190476,0.3476190476190476,0.3476190476190476,0.3476190476190476,0.3476190476190476,0.3476190476190476,0.3476190476190476,0.3761904761904762,0.38571428571428573,0.40476190476190477,0.4238095238095238,0.4238095238095238,0.43333333333333335,0.44285714285714284,0.4523809523809524,0.4523809523809524,0.46190476190476193,0.46190476190476193,0.4714285714285714,0.49047619047619045,0.49047619047619045,0.5095238095238095,0.5190476190476191,0.5380952380952381,0.5476190476190477,0.5761904761904761,0.5761904761904761,0.5952380952380952,0.5952380952380952,0.6047619047619047,0.6142857142857143,0.6142857142857143,0.6238095238095238,0.6238095238095238,0.6238095238095238,0.6238095238095238,0.6238095238095238,0.6238095238095238,0.6428571428571429,0.6428571428571429,0.6523809523809524,0.6523809523809524,0.6523809523809524,0.6523809523809524,0.6523809523809524,0.6523809523809524,0.6523809523809524,0.6523809523809524,0.6523809523809524,0.6523809523809524,0.6523809523809524,0.6523809523809524,0.6523809523809524,0.6523809523809524,0.6428571428571429,0.6142857142857143,0.5761904761904761,0.46190476190476193,0.43333333333333335,0.43333333333333335,0.43333333333333335,0.4238095238095238,0.40476190476190477,0.38571428571428573,0.35714285714285715,0.3476190476190476,0.3380952380952381,0.3380952380952381,0.3380952380952381,0.32857142857142857,0.32857142857142857,0.32857142857142857,0.32857142857142857,0.32857142857142857,0.32857142857142857,0.319047619047619,0.30952380952380953,0.2714285714285714,0.21428571428571427,0.11904761904761904,0.08095238095238096,0.07142857142857142,0.06190476190476191,0.08095238095238096,0.1380952380952381,0.23333333333333334,0.319047619047619,0.40476190476190477,0.5,0.5666666666666667,0.6142857142857143,0.6142857142857143,0.6238095238095238,0.6238095238095238,0.6333333333333333,0.6333333333333333,0.6333333333333333,0.6238095238095238,0.6142857142857143,0.6142857142857143,0.6142857142857143,0.6047619047619047,0.5952380952380952,0.5761904761904761,0.5476190476190477,0.5380952380952381,0.5285714285714286,0.5190476190476191,0.5190476190476191,0.5190476190476191,0.5190476190476191,0.5095238095238095,0.5095238095238095,0.5095238095238095,0.5095238095238095,0.5095238095238095,0.5095238095238095,0.5095238095238095,0.5,0.5,0.5,0.5,0.5,0.5,0.5,0.5,0.5,0.5,0.5,0.5,0.5,0.5,0.5,0.5,0.5,0.5,0.5,0.5,0.5,0.5,0.5,0.5,0.5,0.5,0.5,0.5,0.5,0.5,0.5,0.5,0.5,0.5,0.5,0.5,0.5,0.5,0.5,0.5,0.5,0.5,0.5,0.5,0.5,0.5,0.5,0.5,0.5,0.5,0.5,0.5,0.5,0.5,0.5,0.5,0.5666666666666667,0.8047619047619048,1.1095238095238096,1.2809523809523808,1.480952380952381,1.5666666666666667,1.6428571428571428,1.6904761904761905,1.7190476190476192,1.7190476190476192,1.7380952380952381,1.7380952380952381,1.7476190476190476,1.7476190476190476,1.7571428571428571,1.7571428571428571,1.7571428571428571,1.7571428571428571,1.7571428571428571,1.7571428571428571,1.7666666666666666,1.776190476190476,1.8047619047619048,1.8333333333333333,1.8428571428571427,1.861904761904762,1.861904761904762,1.8714285714285714,1.8714285714285714,1.8714285714285714,1.8714285714285714,1.8714285714285714,1.8714285714285714,1.8714285714285714,1.8714285714285714,1.8714285714285714,1.8714285714285714,1.8714285714285714,1.8714285714285714,1.8714285714285714,1.8714285714285714,1.8714285714285714,1.8714285714285714,1.8714285714285714,1.8714285714285714,1.8714285714285714,1.8714285714285714,1.8714285714285714,1.8714285714285714,1.8714285714285714,1.8714285714285714,1.8714285714285714,1.8714285714285714,1.8714285714285714,1.8714285714285714,1.8714285714285714,1.8714285714285714,1.8714285714285714,1.8714285714285714,1.8714285714285714,1.8714285714285714,1.8714285714285714,1.8714285714285714,1.8714285714285714,1.8714285714285714,1.8714285714285714,1.8714285714285714,1.8714285714285714,1.8714285714285714,1.8714285714285714,1.8714285714285714,1.8714285714285714,1.8714285714285714,1.8714285714285714,1.8714285714285714,1.8714285714285714,1.8714285714285714,1.8714285714285714,1.8714285714285714,1.8714285714285714,1.8714285714285714,1.8714285714285714,1.8714285714285714,1.8714285714285714,1.8714285714285714,1.8714285714285714,1.8714285714285714,1.8714285714285714,1.8714285714285714,1.8714285714285714,1.8714285714285714,1.8714285714285714,1.8714285714285714,1.8714285714285714,1.8714285714285714,1.8714285714285714,1.8714285714285714,1.8714285714285714,1.8714285714285714,1.8714285714285714,1.8714285714285714,1.8714285714285714,1.8714285714285714,1.8714285714285714,1.8714285714285714,1.8714285714285714,1.8714285714285714,1.8714285714285714,1.8714285714285714,1.8714285714285714,1.8714285714285714,1.8714285714285714,1.8714285714285714,1.8714285714285714,1.8714285714285714,1.8714285714285714,1.8714285714285714,1.8714285714285714,1.8714285714285714,1.8714285714285714,1.8714285714285714,1.8714285714285714,1.8714285714285714,1.8714285714285714,1.8714285714285714,1.8714285714285714,1.8714285714285714,1.8714285714285714,1.8714285714285714,1.8714285714285714,1.8714285714285714,1.8714285714285714,1.8714285714285714,1.8714285714285714,1.8714285714285714,1.8714285714285714,1.8714285714285714,1.8714285714285714,1.8714285714285714,1.8714285714285714,1.8714285714285714,1.8714285714285714,1.8714285714285714,1.8714285714285714,1.8714285714285714,1.8714285714285714,1.8714285714285714,1.8714285714285714,1.8714285714285714,1.8714285714285714,1.8714285714285714,1.8714285714285714,1.8714285714285714,1.8714285714285714,1.8714285714285714,1.8714285714285714,1.8714285714285714,1.8714285714285714,1.8714285714285714,1.8714285714285714,1.8714285714285714,1.8714285714285714,1.8714285714285714,1.8714285714285714,1.8714285714285714,1.8714285714285714,1.8714285714285714,1.8714285714285714,1.8714285714285714,1.8714285714285714,1.8714285714285714,1.8714285714285714,1.8714285714285714,1.8714285714285714,1.8714285714285714,1.8714285714285714,1.8714285714285714,1.8714285714285714,1.8714285714285714,1.8714285714285714,1.8714285714285714,1.8714285714285714,1.8714285714285714,1.8714285714285714,1.8714285714285714,1.8714285714285714,1.8714285714285714,1.8714285714285714,1.8714285714285714,1.8714285714285714,1.8714285714285714,1.8714285714285714,1.8714285714285714,1.8714285714285714,1.8714285714285714,1.8714285714285714,1.8714285714285714,1.8714285714285714,1.8714285714285714,1.8714285714285714,1.8714285714285714,1.8714285714285714,1.8714285714285714,1.8714285714285714,1.8714285714285714,1.8714285714285714,1.8714285714285714,1.8714285714285714,1.8714285714285714,1.8714285714285714,1.8714285714285714,1.8714285714285714,1.8714285714285714,1.8714285714285714,1.8714285714285714,1.8714285714285714,1.8714285714285714,1.8714285714285714,1.8714285714285714,1.8714285714285714,1.8714285714285714,1.8714285714285714,1.8714285714285714,1.8714285714285714,1.8714285714285714,1.8714285714285714,1.8714285714285714,1.8714285714285714,1.8714285714285714,1.8714285714285714,1.8714285714285714,1.8714285714285714,1.8714285714285714,1.8714285714285714,1.8714285714285714,1.8714285714285714,1.8714285714285714,1.8714285714285714,1.8714285714285714,1.8714285714285714,1.8714285714285714,1.8714285714285714,1.8714285714285714,1.8714285714285714,1.8714285714285714,1.8714285714285714,1.8714285714285714,1.8714285714285714,1.8714285714285714,1.8714285714285714,1.8714285714285714,1.8714285714285714,1.8714285714285714,1.8714285714285714,1.8714285714285714,1.8714285714285714,1.880952380952381,1.880952380952381,1.8904761904761904,1.8904761904761904,1.9,1.9095238095238096,1.9095238095238096,1.9190476190476191,1.9285714285714286,1.9476190476190476,1.9666666666666666,1.9857142857142858,2.0047619047619047,2.0238095238095237,2.033333333333333,2.0619047619047617,2.0714285714285716,2.080952380952381,2.0904761904761906,2.1,2.1,2.119047619047619,2.1285714285714286,2.138095238095238,2.138095238095238,2.138095238095238,2.138095238095238,2.1285714285714286,2.1285714285714286,2.119047619047619,2.119047619047619,2.119047619047619,2.1095238095238096,2.1095238095238096,2.1095238095238096,2.1095238095238096,2.1095238095238096,2.1095238095238096,2.1095238095238096,2.1095238095238096,2.1095238095238096,2.1095238095238096,2.1095238095238096,2.1095238095238096,2.1095238095238096,2.1095238095238096,2.1095238095238096,2.1095238095238096,2.1095238095238096,2.1095238095238096,2.1095238095238096,2.1095238095238096,2.1095238095238096,2.1095238095238096,2.1095238095238096,2.1095238095238096,2.1095238095238096,2.1095238095238096,2.1095238095238096,2.1095238095238096,2.1095238095238096,2.1095238095238096,2.1095238095238096,2.1095238095238096,2.1095238095238096,2.1095238095238096,2.1095238095238096,2.1095238095238096,2.1095238095238096,2.1095238095238096,2.1095238095238096,2.1095238095238096,2.1095238095238096,2.1095238095238096,2.1095238095238096,2.1095238095238096,2.1095238095238096,2.1095238095238096,2.1095238095238096,2.1095238095238096,2.1095238095238096,2.1095238095238096,2.1095238095238096,2.1095238095238096,2.1095238095238096,2.1095238095238096,2.1095238095238096,2.1095238095238096,2.1095238095238096,2.1095238095238096,2.1095238095238096,2.1095238095238096,2.1095238095238096,2.1095238095238096,2.0428571428571427,2.0047619047619047,1.9476190476190476,1.7952380952380953,1.6333333333333333,1.4523809523809523,1.1666666666666667,1.0904761904761904,1.0333333333333334,0.9952380952380953,0.9571428571428572,0.8809523809523809,0.7285714285714285,0.5190476190476191,0.2904761904761905,0.19523809523809524,0.14761904761904762,0.08095238095238096,0.05238095238095238,0.014285714285714285,-0.05238095238095238,-0.10952380952380952,-0.14761904761904762,-0.18571428571428572,-0.19523809523809524,-0.19523809523809524,-0.20476190476190476,-0.21428571428571427,-0.21428571428571427,-0.21428571428571427,-0.21428571428571427,-0.21428571428571427,-0.21428571428571427,-0.21428571428571427,-0.21428571428571427,-0.20476190476190476,-0.20476190476190476,-0.18571428571428572,-0.14761904761904762,-0.10952380952380952,-0.08095238095238096,-0.07142857142857142,-0.06190476190476191,-0.06190476190476191,-0.05238095238095238,-0.05238095238095238,-0.05238095238095238,-0.05238095238095238,-0.05238095238095238,-0.05238095238095238,-0.05238095238095238,-0.05238095238095238,-0.05238095238095238,-0.05238095238095238,-0.05238095238095238,-0.05238095238095238,-0.05238095238095238,-0.05238095238095238,-0.05238095238095238,-0.05238095238095238,-0.05238095238095238,-0.05238095238095238,-0.05238095238095238,-0.05238095238095238,-0.05238095238095238,-0.05238095238095238,-0.05238095238095238,-0.05238095238095238,-0.05238095238095238,-0.05238095238095238,-0.05238095238095238,-0.05238095238095238,-0.05238095238095238,-0.05238095238095238,-0.05238095238095238,-0.05238095238095238,-0.05238095238095238,-0.05238095238095238,-0.05238095238095238,-0.05238095238095238,-0.05238095238095238,-0.05238095238095238,-0.05238095238095238,-0.05238095238095238,-0.05238095238095238,-0.05238095238095238,-0.05238095238095238,-0.05238095238095238,-0.05238095238095238,-0.05238095238095238,-0.05238095238095238,-0.05238095238095238,-0.05238095238095238,-0.05238095238095238,-0.05238095238095238,-0.05238095238095238,-0.05238095238095238,-0.05238095238095238,-0.05238095238095238,-0.05238095238095238,-0.05238095238095238,-0.05238095238095238,-0.05238095238095238,-0.05238095238095238,-0.05238095238095238,-0.05238095238095238,-0.05238095238095238,-0.05238095238095238,-0.05238095238095238,-0.05238095238095238,-0.05238095238095238,-0.004761904761904762,0.11904761904761904,0.35714285714285715,0.46190476190476193,0.5761904761904761,0.7285714285714285,0.8333333333333334,0.919047619047619,1.0523809523809524,1.1476190476190475,1.1857142857142857,1.223809523809524,1.2619047619047619,1.338095238095238,1.3952380952380952,1.4523809523809523,1.5095238095238095,1.5285714285714285,1.5285714285714285,1.5476190476190477,1.5476190476190477,1.5571428571428572,1.5666666666666667,1.5666666666666667,1.5666666666666667,1.5761904761904761,1.5857142857142856,1.6047619047619048,1.6142857142857143,1.6428571428571428,1.6428571428571428,1.661904761904762,1.6714285714285715,1.680952380952381,1.6904761904761905,1.7095238095238094,1.7095238095238094,1.7190476190476192,1.7190476190476192,1.7190476190476192,1.7190476190476192,1.7190476190476192,1.7190476190476192,1.7190476190476192,1.7190476190476192,1.7190476190476192,1.7190476190476192,1.7190476190476192,1.7190476190476192,1.7190476190476192,1.7190476190476192,1.7190476190476192,1.7190476190476192,1.7190476190476192,1.7190476190476192,1.7190476190476192,1.7190476190476192,1.7190476190476192,1.7190476190476192,1.7190476190476192,1.7190476190476192,1.7190476190476192,1.7190476190476192,1.7190476190476192,1.7190476190476192,1.7190476190476192,1.7190476190476192,1.7190476190476192,1.7190476190476192,1.7190476190476192,1.7190476190476192,1.7190476190476192,1.7190476190476192,1.7190476190476192,1.7190476190476192,1.7190476190476192,1.7190476190476192,1.7190476190476192,1.7190476190476192,1.7190476190476192,1.7190476190476192,1.7190476190476192,1.7190476190476192,1.7190476190476192,1.7190476190476192,1.7190476190476192,1.7190476190476192,1.7190476190476192,1.7190476190476192,1.7190476190476192,1.7190476190476192,1.7190476190476192,1.7190476190476192,1.7190476190476192,1.7190476190476192,1.7190476190476192,1.7190476190476192,1.7190476190476192,1.7190476190476192,1.7190476190476192,1.7190476190476192,1.7190476190476192,1.7190476190476192,1.7190476190476192,1.7190476190476192,1.7190476190476192,1.7190476190476192,1.7190476190476192,1.7190476190476192,1.7190476190476192,1.7190476190476192,1.7190476190476192,1.7190476190476192,1.7190476190476192,1.7190476190476192,1.7190476190476192,1.7190476190476192,1.7190476190476192,1.7190476190476192,1.7190476190476192,1.7190476190476192,1.7190476190476192,1.7190476190476192,1.7190476190476192,1.7190476190476192,1.7190476190476192,1.7190476190476192,1.7190476190476192,1.7190476190476192,1.7190476190476192,1.7190476190476192,1.7190476190476192,1.7190476190476192,1.7190476190476192,1.7190476190476192,1.7190476190476192,1.7190476190476192,1.7190476190476192,1.7190476190476192,1.7190476190476192,1.7190476190476192,1.7190476190476192,1.7190476190476192,1.7190476190476192,1.7190476190476192,1.7190476190476192,1.7190476190476192,1.7190476190476192,1.7190476190476192,1.7190476190476192,1.7190476190476192,1.7190476190476192,1.7190476190476192,1.7190476190476192,1.7190476190476192,1.7190476190476192,1.7190476190476192,1.7190476190476192,1.7190476190476192,1.7190476190476192,1.7190476190476192,1.7190476190476192,1.7190476190476192,1.7190476190476192,1.7190476190476192,1.7190476190476192,1.7190476190476192,1.7190476190476192,1.7190476190476192,1.7190476190476192,1.7190476190476192,1.7190476190476192,1.7190476190476192,1.7190476190476192,1.7190476190476192,1.7190476190476192,1.7190476190476192,1.7190476190476192,1.7190476190476192,1.7190476190476192,1.7190476190476192,1.7190476190476192,1.7190476190476192,1.7190476190476192,1.7190476190476192,1.7190476190476192,1.7190476190476192,1.7190476190476192,1.7190476190476192,1.7190476190476192,1.7190476190476192,1.7190476190476192,1.7190476190476192,1.7190476190476192,1.7190476190476192,1.7190476190476192,1.7190476190476192,1.7190476190476192,1.7190476190476192,1.7190476190476192,1.7190476190476192,1.7190476190476192,1.7190476190476192,1.7190476190476192,1.7190476190476192,1.7190476190476192,1.7190476190476192,1.7190476190476192,1.7190476190476192,1.7190476190476192,1.7190476190476192,1.7190476190476192,1.7190476190476192,1.7190476190476192,1.7190476190476192,1.7190476190476192,1.7190476190476192,1.7190476190476192,1.7190476190476192,1.7190476190476192,1.7190476190476192,1.7190476190476192,1.7190476190476192,1.7190476190476192,1.7190476190476192,1.7190476190476192,1.7190476190476192,1.7190476190476192,1.7190476190476192,1.7190476190476192,1.7190476190476192,1.7190476190476192,1.7190476190476192,1.7190476190476192,1.7190476190476192,1.7190476190476192,1.7190476190476192,1.7190476190476192,1.7190476190476192,1.7190476190476192,1.7190476190476192,1.7190476190476192,1.7190476190476192,1.5666666666666667,1.4238095238095239,1.2714285714285714,1.2047619047619047,1.138095238095238,1.0333333333333334,0.9571428571428572,0.8428571428571429,0.8047619047619048,0.7761904761904762,0.7285714285714285,0.6904761904761905,0.6619047619047619,0.6428571428571429,0.6428571428571429,0.6238095238095238,0.6238095238095238,0.6238095238095238,0.6142857142857143,0.6142857142857143,0.6142857142857143,0.6142857142857143,0.6142857142857143,0.6142857142857143,0.6142857142857143,0.6142857142857143,0.6142857142857143,0.6142857142857143,0.6142857142857143,0.6142857142857143,0.6142857142857143,0.6142857142857143,0.6142857142857143,0.5857142857142857,0.5666666666666667,0.5380952380952381,0.5,0.4714285714285714,0.43333333333333335,0.35714285714285715,0.30952380952380953,0.2714285714285714,0.2523809523809524,0.23333333333333334,0.23333333333333334,0.23333333333333334,0.21428571428571427,0.19523809523809524,0.16666666666666666,0.1380952380952381,0.11904761904761904,0.10952380952380952,0.08095238095238096,0.06190476190476191,0.014285714285714285,-0.014285714285714285,-0.023809523809523808,-0.03333333333333333,-0.03333333333333333,-0.05238095238095238,-0.05238095238095238,-0.05238095238095238,-0.03333333333333333,-0.014285714285714285,0.004761904761904762,0.004761904761904762,0.004761904761904762,0.004761904761904762,0.004761904761904762,0.004761904761904762,0.004761904761904762,0.004761904761904762,0.004761904761904762,0.004761904761904762,0.004761904761904762,0.004761904761904762,0.004761904761904762,0.004761904761904762,0.004761904761904762,0.004761904761904762,0.004761904761904762,0.004761904761904762,0.004761904761904762,0.004761904761904762,0.004761904761904762,0.004761904761904762,0.004761904761904762,0.004761904761904762,0.004761904761904762,0.004761904761904762,0.004761904761904762,0.004761904761904762,0.004761904761904762,0.004761904761904762,0.004761904761904762,0.004761904761904762,0.004761904761904762,0.004761904761904762,0.004761904761904762,0.004761904761904762,0.004761904761904762,0.004761904761904762,0.004761904761904762,0.004761904761904762,0.004761904761904762,0.004761904761904762,0.004761904761904762,0.004761904761904762,0.004761904761904762,0.004761904761904762,0.004761904761904762,0.004761904761904762,0.004761904761904762,0.004761904761904762,0.004761904761904762,0.004761904761904762,0.004761904761904762,0.004761904761904762,0.6142857142857143,0.9285714285714286,1.2047619047619047,1.6428571428571428,1.8428571428571427,2.0619047619047617,2.3095238095238093,2.414285714285714,2.4714285714285715,2.519047619047619,2.538095238095238,2.557142857142857,2.557142857142857,2.557142857142857,2.5952380952380953,2.6142857142857143,2.6333333333333333,2.6523809523809523,2.6619047619047618,2.6714285714285713,2.6714285714285713,2.6714285714285713,2.6714285714285713,2.6714285714285713,2.6714285714285713,2.6714285714285713,2.6714285714285713,2.6714285714285713,2.6714285714285713,2.6714285714285713,2.6714285714285713,2.6714285714285713,2.6714285714285713,2.6714285714285713,2.6714285714285713,2.6714285714285713,2.6714285714285713,2.6714285714285713,2.6714285714285713,2.6714285714285713,2.6714285714285713,2.6714285714285713,2.6714285714285713,2.6714285714285713,2.6714285714285713,2.6714285714285713,2.6714285714285713,2.6714285714285713,2.6714285714285713,2.6714285714285713,2.6714285714285713,2.6714285714285713,2.6714285714285713,2.6714285714285713,2.6714285714285713,2.6714285714285713,2.6714285714285713,2.6714285714285713,2.6714285714285713,2.6714285714285713,2.6714285714285713,2.6714285714285713,2.6714285714285713,2.6714285714285713,2.6714285714285713,2.6714285714285713,2.6714285714285713,2.6714285714285713,2.6714285714285713,2.6714285714285713,2.6714285714285713,2.6714285714285713,2.6714285714285713,2.6714285714285713,2.6714285714285713,2.6714285714285713,2.6714285714285713,2.6714285714285713,2.6714285714285713,2.6714285714285713,2.6714285714285713,2.6714285714285713,2.6714285714285713,2.6714285714285713,2.6714285714285713,2.6714285714285713,2.6714285714285713,2.6714285714285713,2.6714285714285713,2.6714285714285713,2.6714285714285713,2.6714285714285713,2.6714285714285713,2.6714285714285713,2.6714285714285713,2.6714285714285713,2.6714285714285713,2.6714285714285713,2.6714285714285713,2.6714285714285713,2.6714285714285713,2.6714285714285713,2.6714285714285713,2.6714285714285713,2.6714285714285713,2.6714285714285713,2.6714285714285713,2.6714285714285713,2.6714285714285713,2.6714285714285713,2.6714285714285713,2.6714285714285713,2.6714285714285713,2.6714285714285713,2.6714285714285713,2.6714285714285713,2.6714285714285713,2.6714285714285713,2.6714285714285713,2.6714285714285713,2.6714285714285713,2.6714285714285713,2.6714285714285713,2.6714285714285713,2.6714285714285713,2.6714285714285713,2.6714285714285713,2.6714285714285713,2.6714285714285713,2.6714285714285713,2.6714285714285713,2.6714285714285713,2.6714285714285713,2.6714285714285713,2.6714285714285713,2.6714285714285713,2.6714285714285713,2.6714285714285713,2.6714285714285713,2.6714285714285713,2.6714285714285713,2.6714285714285713,2.6714285714285713,2.6714285714285713,2.6714285714285713,2.6714285714285713,2.6714285714285713,2.6714285714285713,2.6714285714285713,2.6714285714285713,2.6714285714285713,2.6714285714285713,2.6714285714285713,2.6714285714285713,2.6714285714285713,2.6714285714285713,2.6714285714285713,2.6714285714285713,2.6714285714285713,2.6714285714285713,2.6714285714285713,2.6714285714285713,2.6714285714285713,2.6714285714285713,2.6714285714285713,2.6714285714285713,2.6714285714285713,2.6714285714285713,2.6714285714285713,2.6714285714285713,2.6714285714285713,2.6714285714285713,2.6714285714285713,2.6714285714285713,2.6714285714285713,2.6714285714285713,2.6714285714285713,2.6714285714285713,2.6714285714285713,2.6714285714285713,2.6714285714285713,2.6714285714285713,2.6714285714285713,2.6714285714285713,2.6714285714285713,2.6714285714285713,2.6714285714285713,2.6714285714285713,2.6714285714285713,2.6714285714285713,2.6714285714285713,2.6714285714285713,2.6714285714285713,2.6714285714285713,2.6714285714285713,2.6714285714285713,2.6714285714285713,2.6714285714285713,2.6714285714285713,2.6714285714285713,2.6714285714285713,2.6714285714285713,2.6714285714285713,2.6714285714285713,2.6714285714285713,2.6714285714285713,2.6714285714285713,2.6714285714285713,2.6714285714285713,2.6714285714285713,2.6714285714285713,2.6714285714285713,2.6714285714285713,2.6714285714285713,2.6714285714285713,2.6714285714285713,2.6714285714285713,2.6714285714285713,2.6714285714285713,2.6714285714285713,2.6714285714285713,2.6714285714285713,2.6714285714285713,2.6714285714285713,2.6714285714285713,2.6714285714285713,2.6714285714285713,2.6714285714285713,2.6714285714285713,2.6714285714285713,2.6714285714285713,2.6714285714285713,2.6714285714285713,2.6714285714285713,2.6714285714285713,2.6714285714285713,2.6714285714285713,2.6714285714285713,2.6714285714285713,2.6714285714285713,2.5761904761904764,2.0428571428571427,1.680952380952381,1.3666666666666667,1.1857142857142857,1.0714285714285714,0.9952380952380953,0.919047619047619,0.8809523809523809,0.8428571428571429,0.7761904761904762,0.7285714285714285,0.6619047619047619,0.6428571428571429,0.6238095238095238,0.6142857142857143,0.6047619047619047,0.5952380952380952,0.5666666666666667,0.5380952380952381,0.48095238095238096,0.46190476190476193,0.44285714285714284,0.4238095238095238,0.4238095238095238,0.40476190476190477,0.3380952380952381,0.2904761904761905,0.2619047619047619,0.22380952380952382,0.20476190476190476,0.19523809523809524,0.16666666666666666,0.14761904761904762,0.11904761904761904,0.09047619047619047,0.08095238095238096,0.04285714285714286,0.023809523809523808,0.023809523809523808,0.004761904761904762,0.004761904761904762,-0.004761904761904762,-0.014285714285714285,-0.014285714285714285,-0.014285714285714285,-0.014285714285714285,-0.014285714285714285,-0.014285714285714285,-0.014285714285714285,-0.014285714285714285,-0.014285714285714285,-0.014285714285714285,-0.014285714285714285,-0.014285714285714285,-0.014285714285714285,-0.014285714285714285,-0.014285714285714285,-0.014285714285714285,-0.014285714285714285,-0.014285714285714285,-0.014285714285714285,-0.014285714285714285,-0.014285714285714285,-0.014285714285714285,-0.014285714285714285,-0.014285714285714285,-0.014285714285714285,-0.014285714285714285,-0.014285714285714285,-0.014285714285714285,-0.014285714285714285,-0.014285714285714285,-0.014285714285714285,-0.014285714285714285,-0.014285714285714285,-0.014285714285714285,-0.014285714285714285,-0.014285714285714285,-0.014285714285714285,-0.014285714285714285,-0.014285714285714285,-0.014285714285714285,-0.014285714285714285,-0.014285714285714285,-0.014285714285714285,-0.014285714285714285,-0.014285714285714285,-0.014285714285714285,-0.014285714285714285,-0.014285714285714285,-0.014285714285714285,-0.014285714285714285,-0.014285714285714285,-0.014285714285714285,-0.014285714285714285,-0.014285714285714285,-0.014285714285714285,-0.014285714285714285,-0.014285714285714285,-0.014285714285714285,-0.014285714285714285,0.4142857142857143,0.7095238095238096,1.0809523809523809,1.2619047619047619,1.4047619047619047,1.5761904761904761,1.6904761904761905,1.7952380952380953,1.9190476190476191,1.9952380952380953,2.0428571428571427,2.080952380952381,2.0904761904761906,2.1,2.1,2.1,2.1,2.1,2.1,2.1,2.1,2.1,2.1,2.1,2.1,2.1,2.1,2.1,2.1,2.1,2.1,2.1,2.1,2.1,2.1,2.1,2.1,2.1,2.1,2.1,2.1,2.1,2.1,2.1,2.1,2.1,2.1,2.1,2.1,2.1,2.1,2.1,2.1,2.1,2.1,2.1,2.1,2.1,2.1,2.1,2.1,2.1,2.1,2.1,2.1,2.1,2.1,2.1,2.1,2.1,2.1,2.1,2.1,2.1,2.1,2.1,2.1,2.1,2.1,2.1,2.1,2.1,2.1,2.1,2.1,2.1,2.1,2.1,2.1,2.1,2.1,2.1,2.1,2.1,2.1,2.1,2.1,1.9476190476190476,1.8142857142857143,1.6428571428571428,1.5857142857142856,1.5380952380952382,1.5,1.4904761904761905,1.4904761904761905,1.480952380952381,1.4714285714285715,1.4714285714285715,1.4714285714285715,1.4619047619047618,1.4523809523809523,1.4238095238095239,1.3761904761904762,1.3571428571428572,1.3095238095238095,1.1952380952380952,1.1,0.9952380952380953,0.9571428571428572,0.9285714285714286,0.9,0.8904761904761904,0.8904761904761904,0.8904761904761904,0.8904761904761904,0.8904761904761904,0.8904761904761904,0.8904761904761904,0.8904761904761904,0.8904761904761904,0.8904761904761904,0.8904761904761904,0.8904761904761904,0.8904761904761904,0.8904761904761904,0.8904761904761904,0.8904761904761904,0.8904761904761904,0.9095238095238095,0.9095238095238095,0.9095238095238095,0.9095238095238095,0.9095238095238095,0.9095238095238095,0.9095238095238095,0.9095238095238095,0.9095238095238095,0.9095238095238095,0.9095238095238095,0.9095238095238095,0.9095238095238095,0.9095238095238095,0.9095238095238095,0.9095238095238095,0.9095238095238095,0.9095238095238095,0.9095238095238095,0.9095238095238095,0.9095238095238095,0.9095238095238095,0.9095238095238095,0.9095238095238095,0.9095238095238095,0.9095238095238095,0.9095238095238095,0.9095238095238095,0.9095238095238095,0.9095238095238095,0.9095238095238095,0.9095238095238095,0.9095238095238095,0.9095238095238095,0.9095238095238095,0.9095238095238095,0.9095238095238095,0.9095238095238095,0.9095238095238095,0.9095238095238095,0.9095238095238095,0.9095238095238095,0.9095238095238095,0.9095238095238095,0.9095238095238095,0.9095238095238095,0.9095238095238095,0.9095238095238095,0.9095238095238095,0.9095238095238095,0.9095238095238095,0.9095238095238095,0.9095238095238095,0.9095238095238095,0.9095238095238095,0.9095238095238095,0.9095238095238095,0.9095238095238095,0.9095238095238095,0.8428571428571429,0.6333333333333333,0.2904761904761905,0.16666666666666666,0.08095238095238096,0.04285714285714286,0.023809523809523808,0.004761904761904762,0.004761904761904762,0.004761904761904762,0.004761904761904762,0.004761904761904762,0.004761904761904762,0.014285714285714285,0.03333333333333333,0.04285714285714286,0.04285714285714286,0.04285714285714286,0.04285714285714286,0.023809523809523808,0.014285714285714285,0.004761904761904762,0.004761904761904762,0.004761904761904762,-0.014285714285714285,-0.023809523809523808,-0.023809523809523808,-0.03333333333333333,-0.03333333333333333,-0.03333333333333333,-0.03333333333333333,-0.03333333333333333,-0.03333333333333333,-0.03333333333333333,-0.03333333333333333,-0.03333333333333333,-0.03333333333333333,-0.03333333333333333,-0.03333333333333333,-0.03333333333333333,-0.03333333333333333,-0.03333333333333333,-0.03333333333333333,-0.03333333333333333,-0.03333333333333333,-0.03333333333333333,-0.03333333333333333,-0.03333333333333333,-0.03333333333333333,-0.03333333333333333,-0.03333333333333333,-0.03333333333333333,-0.03333333333333333,-0.03333333333333333,-0.03333333333333333,-0.03333333333333333,-0.03333333333333333,-0.03333333333333333,-0.03333333333333333,-0.03333333333333333,-0.03333333333333333,-0.03333333333333333,-0.03333333333333333,-0.03333333333333333,-0.03333333333333333,-0.03333333333333333,-0.03333333333333333,-0.03333333333333333,-0.03333333333333333,-0.03333333333333333,-0.03333333333333333,-0.03333333333333333,-0.03333333333333333,-0.03333333333333333,-0.03333333333333333,-0.03333333333333333,-0.03333333333333333,-0.03333333333333333,-0.03333333333333333,-0.03333333333333333,-0.03333333333333333,-0.03333333333333333,-0.03333333333333333,-0.03333333333333333,-0.03333333333333333,-0.03333333333333333,-0.03333333333333333,-0.03333333333333333,-0.03333333333333333,-0.03333333333333333,-0.03333333333333333,-0.03333333333333333,-0.03333333333333333,-0.03333333333333333,-0.03333333333333333,-0.03333333333333333,-0.03333333333333333,-0.03333333333333333,-0.03333333333333333,-0.03333333333333333,-0.03333333333333333,-0.03333333333333333,-0.03333333333333333,-0.03333333333333333,-0.03333333333333333,-0.03333333333333333,-0.03333333333333333,-0.03333333333333333,-0.03333333333333333,-0.03333333333333333,-0.03333333333333333,-0.03333333333333333,-0.03333333333333333,-0.03333333333333333,-0.03333333333333333,-0.03333333333333333,-0.03333333333333333,-0.03333333333333333,-0.03333333333333333,-0.03333333333333333,-0.03333333333333333,0.32857142857142857,0.5380952380952381,0.6904761904761905,0.9571428571428572,1.1095238095238096,1.2523809523809524,1.4428571428571428,1.5476190476190477,1.6333333333333333,1.7571428571428571,1.8238095238095238,1.880952380952381,1.9190476190476191,1.9190476190476191,1.9190476190476191,1.9190476190476191,1.9190476190476191,1.9190476190476191,1.9190476190476191,1.9190476190476191,1.9190476190476191,1.9190476190476191,1.9190476190476191,1.9190476190476191,1.9190476190476191,1.9190476190476191,1.9190476190476191,1.9190476190476191,1.9190476190476191,1.9190476190476191,1.9190476190476191,1.9190476190476191,1.9190476190476191,1.9190476190476191,1.9190476190476191,1.9190476190476191,1.9190476190476191,1.9190476190476191,1.9190476190476191,1.9190476190476191,1.9190476190476191,1.9190476190476191,1.9190476190476191,1.9190476190476191,1.9190476190476191,1.9190476190476191,1.9190476190476191]},"final_keyboard_state":["R","D","E","B","Z","A"],"num_clicks":6,"points":14,"cheat":false,"trial_type":"Hangman","trial_index":5,"time_elapsed":82598,"internal_node_id":"0.0-4.0","protocol_sum":"","subject_identifier":505,"subject_sum":[214,229,162,11,48,248,114,22,178,199,88,245,231,162,60,67,125,188,61,250,28,203,23,124,71,77,225,82,187,14,247,49],"subject_pair":252,"STUDY_ID":"66a3ed3c5d10d0e7d8a6b9da","PROLIFIC_PID":"668557c57d3089ceba4a2d09","SESSION_ID":"66a415f0b663c61a28970eb7","practice_instructions":1,"leaderboard_instructions":0,"bonus":0,"reveal_word":true,"self_rating":"3","confidence":"86"},{"view_history":"[{\"page_index\":0,\"viewing_time\":5317.0999999940395},{\"page_index\":1,\"viewing_time\":19275.5}]","rt":24593.40000000596,"trial_type":"instructions","trial_index":6,"time_elapsed":107192,"internal_node_id":"0.0-5.0","protocol_sum":"","subject_identifier":505,"subject_sum":[214,229,162,11,48,248,114,22,178,199,88,245,231,162,60,67,125,188,61,250,28,203,23,124,71,77,225,82,187,14,247,49],"subject_pair":252,"STUDY_ID":"66a3ed3c5d10d0e7d8a6b9da","PROLIFIC_PID":"668557c57d3089ceba4a2d09","SESSION_ID":"66a415f0b663c61a28970eb7","practice_instructions":1,"leaderboard_instructions":0,"bonus":0,"reveal_word":true,"self_rating":"3","confidence":"86"},{"rt":8349.300000011921,"responses":"{\"Q0\":\"...from <b>a previous session</b> that is part of the upcoming tournament.\"}","question_order":"[0]","trial_type":"survey-multi-choice","trial_index":7,"time_elapsed":115543,"internal_node_id":"0.0-6.0","protocol_sum":"","subject_identifier":505,"subject_sum":[214,229,162,11,48,248,114,22,178,199,88,245,231,162,60,67,125,188,61,250,28,203,23,124,71,77,225,82,187,14,247,49],"subject_pair":252,"correct":false,"test_part":"multichoice_leaderboard","STUDY_I