[{"success":true,"trial_type":"fullscreen","trial_index":0,"time_elapsed":2964,"internal_node_id":"0.0-0.0","protocol_sum":"","subject_identifier":435,"subject_sum":[22,186,223,198,32,44,179,248,136,158,15,39,121,177,146,24,175,76,187,115,110,86,172,173,206,129,72,171,169,167,169,248],"subject_pair":217,"STUDY_ID":"66a22c0758a3d5c9d26873c6","PROLIFIC_PID":"66834c57f0317d8e753b7bcd","SESSION_ID":"66a2e394d8b7a795f40f87ad","practice_instructions":1,"leaderboard_instructions":0,"bonus":0,"reveal_word":true,"self_rating":"2","confidence":"76"},{"view_history":"[{\"page_index\":0,\"viewing_time\":3744.199999809265}]","rt":3744.399999856949,"trial_type":"instructions","trial_index":1,"time_elapsed":6712,"internal_node_id":"0.0-1.0","protocol_sum":"","subject_identifier":435,"subject_sum":[22,186,223,198,32,44,179,248,136,158,15,39,121,177,146,24,175,76,187,115,110,86,172,173,206,129,72,171,169,167,169,248],"subject_pair":217,"STUDY_ID":"66a22c0758a3d5c9d26873c6","PROLIFIC_PID":"66834c57f0317d8e753b7bcd","SESSION_ID":"66a2e394d8b7a795f40f87ad","practice_instructions":1,"leaderboard_instructions":0,"bonus":0,"reveal_word":true,"self_rating":"2","confidence":"76"},{"view_history":"[{\"page_index\":0,\"viewing_time\":18368.799999952316}]","rt":18369.299999952316,"trial_type":"instructions","trial_index":2,"time_elapsed":25082,"internal_node_id":"0.0-2.0-0.0","protocol_sum":"","subject_identifier":435,"subject_sum":[22,186,223,198,32,44,179,248,136,158,15,39,121,177,146,24,175,76,187,115,110,86,172,173,206,129,72,171,169,167,169,248],"subject_pair":217,"STUDY_ID":"66a22c0758a3d5c9d26873c6","PROLIFIC_PID":"66834c57f0317d8e753b7bcd","SESSION_ID":"66a2e394d8b7a795f40f87ad","practice_instructions":1,"leaderboard_instructions":0,"bonus":0,"reveal_word":true,"self_rating":"2","confidence":"76"},{"rt":6464.899999856949,"responses":"{\"Q0\":\"... reveal the word with as <b>few letter guesses</b> as possible\"}","question_order":"[0]","trial_type":"survey-multi-choice","trial_index":3,"time_elapsed":31548,"internal_node_id":"0.0-2.0-1.0","protocol_sum":"","subject_identifier":435,"subject_sum":[22,186,223,198,32,44,179,248,136,158,15,39,121,177,146,24,175,76,187,115,110,86,172,173,206,129,72,171,169,167,169,248],"subject_pair":217,"correct":true,"test_part":"multichoice_nonpretend","STUDY_ID":"66a22c0758a3d5c9d26873c6","PROLIFIC_PID":"66834c57f0317d8e753b7bcd","SESSION_ID":"66a2e394d8b7a795f40f87ad","practice_instructions":1,"leaderboard_instructions":0,"bonus":0,"reveal_word":true,"self_rating":"2","confidence":"76"},{"view_history":"[{\"page_index\":0,\"viewing_time\":1864.3999998569489}]","rt":1864.5999999046326,"trial_type":"instructions","trial_index":4,"time_elapsed":33413,"internal_node_id":"0.0-3.0","protocol_sum":"","subject_identifier":435,"subject_sum":[22,186,223,198,32,44,179,248,136,158,15,39,121,177,146,24,175,76,187,115,110,86,172,173,206,129,72,171,169,167,169,248],"subject_pair":217,"STUDY_ID":"66a22c0758a3d5c9d26873c6","PROLIFIC_PID":"66834c57f0317d8e753b7bcd","SESSION_ID":"66a2e394d8b7a795f40f87ad","practice_instructions":1,"leaderboard_instructions":0,"bonus":0,"reveal_word":true,"self_rating":"2","confidence":"76"},{"word":"ZEBRA","click_log":{"letter":["","A","N","D","E","Z","B","R"],"t":[0,16254.900000095367,25444.400000095367,28038.10000014305,31226,37580.10000014305,42022.10000014305,43695],"hit":[null,1,0,0,1,1,1,1],"asked":["","A","AN","AND","ANDE","ANDEZ","ANDEZB","ANDEZBR"],"word_state":["_____","____A","____A","____A","_E__A","ZE__A","ZEB_A","ZEBRA"]},"hover_log":{"letter":["?","?","?","?","?","?","?","?","?","?","?","?","?","?","?","?","?","?","?","?","?","?","?","?","?","?","?","?","?","?","?","?","?","?","?","?","?","?","?","?","?","?","?","?","?","?","?","?","?","?","?","?","?","?","?","?","?","?","?","?","?","?","B","B","?","?","?","?","?","?","?","?","?","?","?","?","?","?","?","?","?","?","?","?","?","?","?","?","?","?","?","?","?","?","?","?","?","?","?","?","?","?","?","?","?","?","?","?","?","?","?","?","?","?","?","?","?","?","?","?","?","?","?","?","?","?","?","?","?","?","?","?","?","?","?","?","?","?","?","?","?","?","?","?","?","?","?","?","?","?","?","?","?","?","?","?","?","?","?","?","?","?","?","?","?","?","?","?","?","?","?","?","?","?","?","?","?","?","?","?","?","?","?","?","?","?","?","?","?","?","?","?","?","?","?","?","?","?","?","?","?","?","?","?","?","?","?","?","?","?","?","?","?","?","J","J","J","?","?","?","?","?","B","B","B","B","B","B","?","?","?","?","?","?","?","?","?","?","?","?","?","?","?","?","?","?","?","?","?","?","?","?","?","?","?","?","?","?","?","?","?","?","?","?","?","?","?","?","?","?","?","?","?","?","?","?","?","?","?","?","?","?","?","?","?","?","?","?","?","?","?","?","?","?","?","?","?","?","?","?","?","?","?","?","?","?","?","?","?","?","?","?","?","?","?","?","?","?","?","?","?","?","?","?","?","?","?","?","?","?","?","?","?","?","?","?","?","?","?","?","?","?","?","?","?","?","?","?","?","?","?","?","?","?","?","?","?","?","?","?","?","?","?","?","?","?","?","?","?","?","?","?","?","?","?","?","?","?","?","?","?","?","?","?","?","?","?","?","?","?","?","?","?","?","?","?","?","?","?","?","?","?","?","?","?","?","?","?","?","?","?","?","?","?","?","?","?","?","?","?","?","?","?","?","?","?","?","?","?","?","?","?","?","?","?","?","?","?","?","?","?","?","?","?","?","?","?","?","?","?","?","?","?","?","?","?","?","?","?","?","?","?","?","?","?","?","?","?","?","?","?","?","?","?","?","?","?","?","?","?","?","?","?","?","?","?","?","?","?","?","?","?","?","?","?","?","?","?","?","?","?","?","?","?","?","?","?","?","?","?","?","?","?","?","?","?","?","?","?","?","?","?","?","?","?","?","?","?","?","?","?","?","?","?","?","?","?","?","?","?","?","?","?","?","?","?","?","?","?","?","?","?","?","?","?","?","?","?","?","?","?","?","?","?","?","?","?","?","?","?","?","?","?","?","?","?","?","?","?","?","?","?","?","?","?","?","?","?","?","?","?","?","?","?","?","?","?","?","?","?","?","?","?","?","?","?","?","?","?","?","?","?","?","?","?","?","?","?","?","?","?","?","?","?","?","?","?","?","?","?","?","?","?","?","?","?","?","?","?","?","?","?","?","?","?","?","?","?","?","?","?","?","?","?","?","?","?","?","?","?","?","?","?","?","?","?","?","?","?","?","?","?","?","?","?","?","?","?","?","?","?","?","?","?","?","?","?","?","?","?","?","?","?","?","?","?","?","?","?","?","?","?","?","?","?","?","?","?","?","?","?","?","?","?","?","?","?","?","?","?","?","?","?","?","?","?","?","?","?","?","?","?","?","?","?","?","?","?","?","?","?","?","?","?","?","?","?","?","?","?","?","?","?","?","?","?","?","?","?","?","?","?","?","?","?","?","?","?","?","?","?","?","?","?","?","?","?","?","?","?","?","?","?","?","?","?","?","?","?","?","?","?","?","?","?","?","?","?","?","?","?","?","?","?","?","?","?","?","?","?","?","?","?","?","?","?","?","?","?","?","?","?","?","?","?","?","?","?","?","?","?","?","?","?","?","?","?","?","?","?","?","?","?","?","?","?","?","?","?","?","?","?","?","?","?","?","?","?","?","?","?","?","?","?","?","?","?","?","?","?","?","?","?","?","?","?","?","?","?","?","?","?","?","?","?","?","?","?","?","?","?","?","E","E","E","E","E","E","E","E","E","E","E","E","E","E","E","E","E","E","E","E","E","E","E","E","E","E","E","E","E","?","?","?","?","?","?","?","?","?","?","?","?","?","?","?","?","?","?","?","?","?","?","?","?","?","?","?","A","A","A","A","A","A","A","A","A","A","A","A","A","A","A","A","A","A","A","A","A","A","A","A","A","A","A","A","A","A","A","A","A","A","A","A","A","A","A","A","A","A","A","A","A","A","A","A","A","A","A","A","A","A","A","A","A","A","A","A","A","A","A","A","A","A","A","A","A","A","A","A","A","A","A","A","A","A","?","B","B","C","?","D","E","E","?","?","?","?","?","?","?","?","?","?","?","?","?","?","?","?","?","?","?","?","G","?","P","P","Y","Y","?","?","?","?","?","?","?","?","?","?","?","?","?","?","?","?","?","?","?","?","?","?","?","?","?","?","?","?","?","?","?","?","?","?","?","?","?","?","?","?","?","?","?","?","?","?","?","?","?","?","?","?","?","?","?","?","?","?","?","?","?","?","?","?","?","?","?","?","?","?","?","?","?","?","?","?","?","?","?","?","?","?","?","?","?","?","?","?","?","?","?","?","?","?","?","?","?","?","?","?","?","?","?","?","?","?","?","?","?","?","?","?","?","?","?","?","?","?","?","?","?","?","?","?","?","?","?","?","?","?","?","?","?","?","?","?","?","?","?","?","?","?","?","?","?","?","?","?","?","?","?","?","?","?","?","?","?","?","?","?","?","?","?","?","?","?","?","?","?","?","?","?","?","?","?","?","?","?","?","?","?","?","?","?","?","?","?","?","?","?","?","?","?","Y","?","?","?","O","?","?","?","F","F","?","?","?","?","?","?","?","?","?","?","?","?","?","?","?","?","?","?","?","?","?","?","?","?","?","?","?","?","?","?","?","?","?","?","?","?","?","?","?","?","?","?","?","?","?","?","?","?","?","?","?","?","?","?","?","?","?","?","?","?","?","?","?","?","?","?","?","?","?","?","?","?","?","?","?","?","?","?","?","?","?","?","?","?","?","?","?","?","?","?","?","?","?","?","?","?","?","?","?","?","?","?","?","?","?","?","?","?","?","?","?","?","?","?","?","?","?","?","?","?","?","?","?","?","?","?","?","?","?","?","?","?","?","?","?","?","?","?","?","?","?","F","F","F","F","F","F","F","?","?","?","?","?","?","?","?","?","?","?","G","G","G","G","?","?","?","?","?","H","H","H","H","H","H","H","H","H","?","?","?","?","?","?","?","?","?","?","C","C","C","C","C","C","C","C","C","C","C","?","?","?","M","M","M","M","N","N","N","N","N","N","N","N","?","?","?","?","?","?","?","?","?","?","?","?","?","?","?","?","?","?","?","?","N","N","N","N","N","N","N","N","N","N","N","N","N","N","N","N","N","N","N","N","N","N","N","N","N","N","N","N","N","N","N","N","N","N","N","N","N","N","N","N","N","N","N","N","N","N","N","N","N","N","N","N","N","N","N","N","N","N","N","N","N","N","N","N","N","N","N","N","N","N","N","N","N","N","N","N","N","N","N","N","N","N","N","N","N","N","N","N","N","N","N","N","N","N","N","N","N","N","N","N","N","N","N","N","N","N","N","N","N","N","N","N","N","N","N","N","N","N","N","N","N","N","N","N","N","N","N","N","N","N","N","N","N","N","N","N","N","N","?","?","?","?","?","?","?","?","?","?","?","?","?","?","?","?","D","D","D","D","D","D","D","D","D","D","D","D","D","D","D","D","D","D","D","D","D","D","D","D","D","D","D","D","D","D","D","D","D","D","D","D","D","D","D","D","D","D","D","D","D","D","D","D","D","D","D","D","D","D","D","D","D","D","D","D","D","D","D","D","D","D","D","D","D","D","D","D","D","D","D","D","D","D","D","D","D","D","D","D","D","D","D","D","D","D","?","C","C","C","C","C","?","?","?","?","?","B","B","B","B","B","B","B","B","B","B","B","B","B","B","B","B","B","B","B","B","B","B","B","B","B","B","B","B","B","B","B","B","B","B","B","B","B","?","C","C","C","C","C","C","C","C","C","C","?","?","?","?","?","?","D","D","E","E","F","F","F","F","F","F","?","G","G","G","G","G","G","G","G","G","G","G","G","F","F","F","F","F","F","F","F","F","F","F","F","F","F","F","F","F","?","E","E","E","E","E","E","E","E","E","E","E","E","E","E","E","E","E","E","E","E","E","E","E","E","E","E","E","E","E","E","E","E","E","E","E","E","E","E","E","E","E","E","E","E","E","E","E","E","E","E","E","E","E","E","E","E","E","E","E","E","E","E","E","E","E","E","E","E","E","E","E","E","E","E","E","E","E","E","E","E","E","E","E","E","E","E","E","E","E","E","E","E","E","E","E","E","E","E","E","E","E","E","E","E","E","E","E","E","E","E","E","E","E","E","E","E","E","E","E","E","E","E","E","E","E","E","E","E","E","E","E","E","E","E","E","E","E","E","E","E","E","E","E","E","E","E","E","E","E","E","E","E","E","E","E","E","E","E","E","E","E","E","E","E","E","E","E","E","E","E","E","E","E","E","E","E","E","E","E","E","E","E","E","E","E","E","E","E","E","E","E","E","E","E","E","E","E","E","E","E","E","E","E","E","E","E","E","E","E","E","E","E","E","E","E","E","E","E","E","E","E","E","E","E","E","E","E","E","E","E","E","E","E","E","E","E","E","E","E","E","E","E","E","E","E","E","E","E","E","E","E","E","E","E","E","E","E","E","E","E","E","E","E","E","E","E","E","E","E","E","E","E","E","E","E","E","E","E","E","E","E","E","E","E","E","E","E","E","E","E","E","E","E","E","E","E","E","E","E","E","E","E","E","E","E","E","E","E","E","E","E","E","E","E","E","E","E","E","E","E","E","E","E","E","E","E","E","E","E","E","E","E","E","E","E","E","?","F","?","?","?","P","P","P","P","P","P","P","P","P","?","?","?","?","Q","?","?","?","?","?","?","?","?","?","?","?","?","?","?","?","?","Z","Z","Z","Z","Z","Z","Z","Z","Z","Z","Z","Z","Z","Z","Z","Z","Z","Z","Z","Z","Z","Z","Z","Z","Z","Z","Z","Z","Z","Z","Z","Z","Z","Z","Z","Z","Z","Z","Z","Z","Z","Z","Z","Z","Z","Z","Z","Z","Z","Z","Z","Z","Z","Z","Z","Z","Z","Z","Z","Z","Z","Z","Z","Z","Z","Z","Z","Z","Z","Z","Z","Z","Z","Z","Z","Z","Z","Z","Z","Z","Z","Z","Z","Z","Z","Z","Z","Z","Z","Z","Z","Z","Z","Z","Z","Z","Z","Z","Z","Z","Z","Z","Z","Z","Z","Z","Z","Z","Z","Z","Z","Z","Z","Z","Z","Z","Z","Z","Z","Z","Z","Z","Z","Z","Z","Z","Z","?","?","?","Q","Q","?","?","?","?","?","?","?","?","P","?","?","?","?","?","?","?","?","?","?","?","?","?","?","?","?","?","?","?","?","?","?","?","?","?","?","?","?","?","?","?","?","?","?","?","?","?","?","?","?","?","?","?","?","?","?","?","?","?","?","?","?","?","?","?","?","?","?","?","?","?","?","?","?","?","N","?","?","M","?","?","?","?","C","C","C","C","C","C","C","C","C","C","C","C","C","C","C","C","?","?","?","?","?","?","?","?","?","B","B","B","B","B","B","B","B","B","B","B","B","B","B","B","B","B","B","B","B","B","B","B","B","B","B","B","B","B","B","B","B","B","B","B","B","B","B","B","B","B","B","B","B","B","B","B","B","B","B","B","B","B","B","B","B","B","B","B","B","B","B","B","B","B","B","B","B","B","B","B","B","B","B","B","B","B","B","B","B","B","B","B","B","B","B","B","B","B","B","B","B","C","?","?","?","?","?","N","?","?","O","?","P","P","Q","Q","Q","Q","?","R","R","R","R","R","R","R","R","R","R","R","R","R","?","?","?","?","?","?","?","?","?","?","R","R","R","R","R","R","R","R","R","R","R","R","R","R","R","R","R","R","R","R","R","R","R","R","R","R","R","R","R","R","R","R","R","R","R","R","R","R","R","R","R","R","R","R","R","R","R","R","R","R","R","R","R","R","R","R","R","R","R","R","R","R","R","R","R","R","R","R","R","R","R","R","R","R","R","R","R","R","R","R","R","R","R","R","R","R","R","R","R","R","R","R","R","R","R","R","R","R","R","R","R","R","R","R","R","R","R","R","R","R","R","R","R","R","R","R","R","R","R","R","R","R","R","R","R","R","R","R","R","R","R","R","R","R","R","R","R","R","R","R","R","R","R","R","R","R","R","R","R","R"],"t":[36,46,64,83,98,115,131,148,165,182,198,215,232,248,264,282,298,316,332,347,365,381,397,413,430,447,464,481,497,515,531,548,565,582,597,614,631,648,665,681,698,715,732,748,765,781,798,814,831,847,864,880,897,915,930,947,964,981,998,1015,1031,1048,1066,1081,1098,1114,1131,1146,1163,1180,1197,1213,1230,1247,1264,1280,1298,1313,1330,1346,1363,1380,1397,1413,1430,1447,1464,1481,1498,1516,1532,1548,1565,1582,1598,1615,1631,1648,1666,1681,1698,1716,1732,1748,1765,1781,1798,1814,1831,1848,1864,1881,1898,1915,1932,1947,1965,1981,1998,2015,2031,2048,2066,2082,2097,2115,2131,2148,2165,2181,2198,2215,2231,2248,2265,2281,2298,2315,2332,2348,2365,2382,2398,2414,2431,2448,2466,2481,2498,2515,2532,2548,2565,2582,2598,2616,2632,2649,2665,2683,2699,2714,2730,2748,2765,2782,2798,2815,2831,2849,2865,2882,2899,2916,2931,2949,2965,2983,2998,3015,3031,3048,3065,3082,3099,3116,3132,3149,3165,3182,3197,3215,3232,3248,3265,3283,3298,3315,3332,3349,3366,3382,3398,3414,3432,3449,3465,3481,3499,3515,3533,3548,3565,3583,3599,3614,3632,3649,3665,3681,3698,3716,3732,3748,3765,3783,3798,3815,3832,3848,3865,3882,3898,3916,3932,3949,3965,3983,3998,4016,4032,4049,4066,4082,4099,4116,4131,4149,4165,4183,4204,4231,4248,4265,4282,4298,4315,4332,4349,4365,4382,4398,4416,4432,4448,4466,4482,4499,4516,4532,4549,4565,4581,4599,4615,4632,4649,4666,4681,4699,4715,4732,4748,4764,4783,4799,4815,4832,4848,4865,4882,4899,4916,4932,4949,4965,4981,5000,5015,5032,5049,5066,5082,5099,5115,5132,5148,5164,5181,5197,5214,5230,5247,5264,5281,5297,5314,5332,5349,5366,5383,5398,5415,5432,5449,5466,5482,5499,5516,5532,5549,5566,5582,5599,5616,5633,5649,5666,5682,5697,5714,5732,5749,5766,5781,5798,5815,5831,5848,5866,5881,5900,5916,5933,5949,5966,5983,6000,6017,6032,6049,6066,6083,6099,6115,6133,6149,6166,6182,6199,6215,6233,6249,6265,6281,6299,6316,6332,6349,6366,6382,6398,6415,6432,6449,6466,6483,6499,6517,6532,6549,6566,6583,6599,6616,6632,6649,6666,6683,6700,6716,6732,6749,6766,6782,6799,6816,6832,6850,6866,6883,6899,6915,6933,6950,6966,6983,7001,7016,7032,7049,7066,7083,7099,7116,7133,7149,7166,7182,7198,7215,7232,7250,7266,7282,7298,7317,7332,7349,7366,7383,7399,7416,7433,7450,7466,7483,7500,7516,7532,7548,7566,7583,7600,7616,7633,7650,7666,7683,7700,7716,7732,7749,7766,7782,7799,7816,7833,7849,7867,7883,7899,7917,7933,7950,7967,7982,7999,8016,8033,8050,8067,8083,8098,8116,8133,8151,8167,8184,8199,8217,8234,8250,8267,8283,8300,8315,8333,8350,8367,8383,8400,8416,8433,8450,8466,8482,8500,8517,8533,8550,8567,8582,8600,8617,8633,8650,8666,8681,8699,8716,8733,8750,8767,8783,8800,8817,8834,8850,8866,8882,8900,8917,8933,8949,8966,8984,9000,9017,9034,9050,9067,9083,9100,9117,9134,9150,9167,9183,9200,9217,9233,9251,9266,9282,9299,9317,9333,9348,9365,9381,9398,9415,9433,9450,9467,9484,9500,9516,9534,9550,9567,9583,9600,9617,9634,9650,9667,9684,9700,9717,9733,9750,9767,9784,9800,9817,9833,9850,9867,9884,9900,9917,9934,9949,9967,9983,9999,10016,10033,10049,10068,10084,10100,10117,10135,10151,10167,10183,10199,10216,10233,10249,10267,10282,10299,10316,10333,10350,10366,10383,10400,10418,10433,10451,10467,10484,10500,10517,10535,10550,10568,10583,10601,10616,10632,10650,10668,10685,10701,10717,10735,10751,10766,10783,10801,10818,10834,10851,10868,10885,10901,10918,10934,10950,10968,10984,11000,11017,11034,11050,11066,11084,11101,11118,11134,11151,11167,11184,11202,11219,11234,11251,11267,11284,11301,11317,11334,11351,11367,11384,11399,11417,11434,11451,11467,11484,11502,11517,11535,11551,11567,11587,11599,11617,11633,11651,11668,11684,11701,11717,11735,11751,11768,11784,11801,11817,11834,11851,11867,11885,11901,11918,11935,11949,11967,11984,12001,12018,12034,12051,12067,12084,12101,12117,12134,12151,12168,12184,12201,12217,12234,12251,12267,12284,12301,12317,12334,12351,12368,12384,12401,12417,12433,12451,12468,12485,12501,12517,12534,12551,12567,12585,12601,12618,12634,12651,12668,12684,12701,12718,12735,12751,12767,12785,12801,12818,12833,12851,12868,12884,12901,12916,12934,12951,12968,12984,13001,13016,13033,13050,13068,13085,13101,13118,13135,13151,13168,13184,13201,13218,13235,13250,13266,13283,13300,13316,13333,13350,13367,13385,13401,13418,13434,13450,13467,13485,13501,13518,13534,13552,13571,13584,13600,13618,13634,13652,13668,13685,13701,13718,13735,13751,13768,13785,13802,13819,13833,13851,13868,13884,13901,13918,13934,13950,13967,13984,14001,14018,14034,14051,14067,14083,14101,14119,14135,14150,14167,14185,14202,14218,14235,14252,14268,14285,14301,14318,14335,14352,14368,14385,14401,14418,14436,14451,14467,14483,14501,14517,14534,14550,14567,14585,14602,14618,14634,14651,14668,14685,14701,14718,14735,14751,14767,14784,14801,14818,14834,14851,14868,14884,14901,14918,14935,14951,14967,14984,15001,15017,15034,15051,15068,15084,15101,15119,15135,15151,15168,15185,15202,15218,15236,15253,15268,15285,15303,15318,15335,15351,15368,15384,15401,15418,15434,15451,15468,15484,15501,15518,15535,15551,15567,15584,15602,15618,15634,15651,15668,15685,15702,15718,15735,15751,15768,15785,15801,15817,15834,15851,15868,15885,15901,15919,15935,15951,15970,15984,16001,16018,16035,16053,16069,16085,16102,16117,16135,16152,16169,16185,16201,16219,16235,16252,16268,16285,16303,16320,16336,16353,16369,16386,16402,16419,16435,16453,16469,16486,16503,16519,16535,16551,16569,16586,16603,16620,16635,16652,16669,16685,16702,16718,16736,16751,16769,16785,16802,16819,16836,16852,16869,16886,16903,16919,16936,16951,16968,16986,17002,17019,17036,17052,17069,17085,17102,17120,17136,17152,17168,17186,17202,17218,17235,17254,17267,17284,17301,17319,17335,17351,17369,17386,17402,17419,17437,17452,17469,17486,17502,17520,17535,17551,17568,17585,17602,17618,17635,17652,17668,17685,17702,17719,17735,17752,17769,17786,17802,17819,17836,17853,17869,17886,17903,17919,17936,17953,17969,17986,18003,18020,18036,18053,18070,18086,18103,18120,18137,18153,18170,18186,18203,18219,18236,18253,18269,18286,18303,18319,18336,18353,18370,18386,18403,18419,18435,18453,18469,18486,18503,18519,18536,18553,18569,18585,18602,18619,18636,18653,18670,18685,18701,18719,18736,18753,18769,18786,18803,18820,18836,18853,18870,18886,18903,18920,18936,18953,18970,18987,19003,19020,19036,19053,19070,19086,19103,19118,19137,19153,19169,19186,19203,19219,19236,19253,19269,19286,19303,19320,19336,19353,19370,19386,19403,19419,19436,19452,19470,19486,19503,19520,19536,19553,19570,19586,19603,19620,19635,19653,19669,19686,19703,19720,19737,19753,19770,19787,19803,19820,19837,19853,19870,19886,19903,19920,19936,19953,19970,19987,20003,20020,20037,20053,20069,20087,20103,20120,20137,20151,20169,20186,20203,20220,20237,20253,20270,20286,20303,20320,20336,20353,20370,20386,20403,20420,20437,20453,20470,20487,20501,20519,20537,20553,20570,20586,20603,20619,20637,20652,20670,20686,20703,20720,20736,20753,20770,20787,20804,20820,20837,20853,20869,20887,20904,20921,20936,20953,20969,20985,21002,21019,21035,21052,21069,21086,21103,21119,21136,21153,21171,21186,21203,21220,21237,21253,21270,21287,21303,21320,21337,21353,21370,21387,21403,21420,21437,21454,21470,21487,21504,21521,21537,21553,21571,21587,21607,21619,21637,21654,21671,21686,21704,21721,21738,21755,21771,21788,21803,21821,21837,21855,21871,21887,21904,21921,21938,21954,21971,21987,22005,22021,22038,22054,22071,22088,22104,22121,22137,22154,22171,22188,22204,22220,22238,22254,22271,22287,22304,22321,22338,22355,22370,22388,22404,22419,22437,22454,22472,22487,22504,22521,22537,22555,22571,22587,22604,22621,22637,22654,22671,22687,22705,22719,22738,22754,22771,22788,22804,22821,22837,22854,22870,22888,22905,22921,22938,22955,22972,22988,23005,23022,23036,23053,23071,23087,23105,23121,23137,23155,23171,23188,23205,23221,23237,23254,23270,23288,23305,23320,23337,23354,23371,23387,23404,23421,23438,23455,23472,23489,23504,23521,23538,23555,23571,23586,23604,23621,23637,23654,23671,23688,23705,23720,23737,23754,23771,23787,23804,23821,23837,23854,23871,23888,23904,23920,23938,23955,23971,23987,24004,24022,24037,24053,24070,24088,24104,24120,24137,24155,24170,24187,24204,24221,24237,24254,24271,24289,24305,24322,24339,24355,24372,24388,24404,24421,24438,24453,24471,24488,24503,24521,24537,24555,24571,24587,24604,24622,24637,24654,24671,24688,24706,24722,24738,24755,24771,24788,24805,24822,24838,24855,24871,24888,24904,24921,24940,24955,24972,24988,25003,25021,25037,25054,25071,25088,25105,25122,25139,25155,25171,25188,25205,25222,25237,25254,25271,25287,25303,25320,25336,25353,25369,25387,25403,25420,25436,25455,25471,25488,25506,25522,25539,25556,25572,25589,25604,25620,25637,25654,25672,25689,25706,25722,25739,25755,25772,25789,25804,25820,25838,25855,25872,25889,25906,25922,25939,25955,25973,25989,26005,26023,26038,26055,26071,26087,26103,26120,26137,26153,26170,26187,26204,26221,26237,26254,26270,26287,26305,26323,26339,26355,26372,26390,26406,26422,26439,26455,26473,26488,26506,26523,26539,26555,26571,26588,26604,26621,26637,26655,26672,26688,26706,26723,26740,26754,26772,26790,26806,26822,26837,26855,26872,26888,26906,26923,26939,26955,26972,26989,27007,27022,27039,27057,27073,27088,27106,27123,27140,27155,27172,27190,27206,27222,27238,27257,27274,27287,27304,27321,27339,27355,27372,27389,27407,27422,27439,27455,27472,27489,27506,27523,27539,27554,27572,27588,27605,27622,27640,27656,27673,27689,27706,27722,27739,27756,27773,27790,27806,27822,27839,27856,27871,27889,27905,27922,27939,27955,27973,27989,28006,28022,28041,28055,28071,28090,28106,28123,28139,28156,28173,28189,28206,28222,28240,28256,28272,28290,28306,28323,28339,28356,28373,28390,28406,28423,28439,28457,28473,28489,28506,28523,28540,28556,28573,28590,28606,28623,28640,28661,28688,28705,28722,28739,28756,28772,28789,28805,28822,28839,28856,28872,28888,28905,28922,28939,28955,28972,28989,29005,29022,29037,29054,29071,29087,29104,29121,29137,29154,29171,29187,29204,29221,29237,29254,29271,29287,29304,29321,29337,29354,29371,29387,29404,29421,29437,29454,29471,29487,29504,29521,29538,29554,29571,29587,29604,29620,29637,29654,29671,29687,29704,29722,29738,29754,29771,29787,29804,29821,29837,29854,29871,29888,29904,29921,29938,29954,29972,29989,30005,30022,30039,30055,30071,30088,30105,30123,30138,30155,30171,30188,30204,30221,30237,30254,30271,30288,30304,30321,30338,30354,30371,30388,30404,30421,30437,30454,30472,30487,30504,30521,30538,30555,30571,30588,30604,30621,30638,30654,30671,30688,30705,30721,30738,30754,30771,30787,30804,30821,30838,30854,30871,30888,30905,30921,30938,30954,30972,30988,31004,31021,31038,31054,31071,31088,31105,31121,31138,31154,31172,31188,31204,31221,31238,31254,31271,31288,31305,31321,31338,31354,31371,31388,31405,31421,31438,31454,31471,31488,31504,31521,31538,31554,31571,31588,31605,31621,31638,31655,31672,31688,31704,31721,31738,31755,31771,31788,31805,31821,31838,31855,31872,31888,31905,31921,31938,31955,31972,31988,32004,32021,32038,32055,32071,32088,32104,32121,32138,32155,32172,32188,32205,32221,32238,32255,32271,32288,32305,32321,32338,32355,32372,32388,32405,32422,32439,32455,32472,32488,32505,32522,32538,32555,32572,32589,32606,32623,32640,32657,32673,32688,32706,32723,32739,32756,32773,32790,32805,32823,32839,32857,32873,32890,32905,32921,32938,32956,32972,32989,33005,33022,33039,33056,33072,33089,33106,33122,33139,33156,33173,33189,33207,33222,33239,33255,33272,33289,33307,33323,33339,33355,33373,33390,33406,33424,33440,33456,33474,33490,33506,33524,33540,33557,33572,33590,33606,33623,33640,33656,33673,33690,33707,33724,33739,33757,33774,33789,33806,33822,33839,33855,33872,33888,33905,33922,33938,33956,33972,33988,34005,34022,34038,34055,34072,34089,34105,34122,34139,34155,34172,34188,34205,34222,34238,34255,34272,34288,34305,34322,34338,34355,34372,34389,34406,34422,34439,34456,34472,34489,34505,34522,34539,34555,34572,34589,34605,34622,34639,34656,34672,34689,34706,34722,34739,34755,34772,34789,34806,34822,34839,34856,34872,34889,34906,34923,34939,34957,34974,34989,35006,35023,35040,35057,35074,35090,35108,35123,35139,35156,35174,35190,35205,35223,35240,35255,35273,35290,35306,35323,35340,35356,35374,35390,35407,35422,35440,35457,35474,35490,35507,35523,35539,35556,35572,35590,35606,35623,35639,35656,35673,35690,35707,35723,35740,35756,35773,35789,35806,35823,35840,35856,35873,35890,35906,35923,35939,35956,35973,35990,36006,36023,36039,36056,36073,36090,36107,36123,36140,36156,36173,36191,36207,36224,36241,36257,36273,36290,36306,36323,36340,36356,36373,36389,36406,36423,36439,36456,36473,36489,36506,36523,36540,36557,36573,36589,36606,36623,36640,36656,36673,36689,36706,36723,36740,36756,36773,36790,36806,36823,36839,36856,36873,36890,36906,36923,36940,36956,36973,36990,37007,37024,37040,37056,37073,37089,37106,37123,37140,37157,37173,37190,37207,37223,37240,37257,37274,37290,37306,37323,37340,37357,37373,37390,37407,37423,37440,37456,37474,37490,37506,37523,37540,37556,37573,37589,37606,37624,37641,37657,37674,37691,37707,37724,37742,37757,37774,37791,37808,37825,37841,37857,37875,37891,37907,37925,37941,37958,37975,37992,38008,38025,38041,38057,38074,38091,38108,38125,38142,38158,38175,38191,38208,38224,38242,38257,38275,38291,38308,38324,38341,38358,38375,38391,38408,38424,38441,38458,38475,38492,38508,38525,38542,38558,38573,38590,38607,38625,38642,38658,38676,38691,38708,38726,38742,38758,38776,38791,38808,38825,38841,38857,38874,38891,38908,38924,38941,38957,38974,38991,39008,39024,39041,39057,39074,39090,39107,39124,39141,39157,39174,39191,39207,39223,39240,39257,39273,39290,39307,39324,39341,39357,39374,39391,39407,39424,39440,39457,39474,39491,39507,39525,39542,39558,39575,39590,39606,39624,39640,39657,39674,39691,39708,39724,39742,39758,39776,39792,39809,39825,39843,39859,39876,39892,39909,39924,39941,39958,39975,39992,40009,40026,40041,40059,40076,40093,40107,40125,40142,40158,40175,40192,40208,40225,40242,40258,40276,40292,40309,40325,40342,40357,40374,40391,40408,40424,40440,40457,40475,40490,40507,40524,40541,40557,40574,40591,40607,40624,40641,40657,40674,40690,40707,40724,40741,40757,40774,40791,40807,40824,40841,40857,40874,40891,40908,40924,40941,40958,40975,40991,41007,41024,41041,41057,41075,41091,41108,41124,41141,41158,41174,41191,41207,41224,41241,41258,41274,41291,41308,41325,41341,41358,41374,41391,41408,41424,41442,41458,41475,41491,41508,41524,41541,41558,41575,41591,41608,41625,41642,41658,41674,41691,41708,41725,41741,41758,41775,41791,41808,41825,41842,41858,41875,41891,41908,41924,41941,41958,41975,41992,42008,42024,42041,42058,42075,42092,42108,42126,42142,42158,42175,42192,42209,42226,42243,42259,42276,42293,42309,42326,42342,42359,42376,42392,42408,42425,42442,42458,42475,42492,42509,42525,42541,42558,42575,42592,42608,42624,42642,42659,42675,42692,42708,42726,42741,42758,42775,42792,42808,42825,42842,42858,42874,42891,42908,42925,42941,42958,42975,42992,43008,43025,43042,43058,43075,43092,43108,43125,43141,43158,43175,43191,43208,43225,43241,43258,43275,43291,43308,43325,43342,43359,43375,43392,43408,43425,43442,43458,43475,43492,43508,43525,43542,43559,43575,43592,43608,43625,43642,43658,43675,43692,43710,43725,43742,43759,43776,43792,43810,43826,43843,43859,43876,43893,43909,43926,43943,43958,43976,43993,44010,44026,44044,44059,44077,44093,44109,44126,44144,44159,44176,44193,44209,44225,44242,44259,44277,44293,44310,44326,44343,44359,44377,44394,44410,44426,44443,44459,44475,44491,44508,44525,44542,44560,44577,44594,44610,44627,44644,44661,44677,44693,44710,44727,44743,44760,44777,44793,44810,44826,44844,44860,44877,44893,44910,44926,44944,44960,44977,44994,45011,45027,45044,45060,45077,45094,45109,45126,45143,45161,45177,45194,45209,45227,45242,45258,45276,45294,45311,45327,45344,45361,45377,45394,45410,45427,45444,45460,45476,45494,45510,45527,45543,45561,45577,45594,45611,45627,45644,45660,45677,45694,45714],"hit":[null],"x":[-2.3316326530612246,-2.3316326530612246,-2.3316326530612246,-2.3316326530612246,-2.3316326530612246,-2.3316326530612246,-2.3316326530612246,-2.3316326530612246,-2.3316326530612246,-2.3316326530612246,-2.3316326530612246,-2.3316326530612246,-2.3316326530612246,-2.3316326530612246,-2.3316326530612246,-2.3316326530612246,-2.3316326530612246,-2.3316326530612246,-2.3316326530612246,-2.3316326530612246,-2.3316326530612246,-2.3316326530612246,-2.3316326530612246,-2.3316326530612246,-2.3316326530612246,-2.3316326530612246,-2.3316326530612246,-2.3316326530612246,-2.3316326530612246,-2.3316326530612246,-2.3316326530612246,-2.3316326530612246,-2.3316326530612246,-2.3316326530612246,-2.3316326530612246,-2.3316326530612246,-2.3316326530612246,-2.3316326530612246,-2.3316326530612246,-2.3316326530612246,-2.3316326530612246,-2.3316326530612246,-2.3316326530612246,-2.3316326530612246,-2.3316326530612246,-2.3316326530612246,-2.3316326530612246,-2.3316326530612246,-2.3316326530612246,-2.3316326530612246,-2.3316326530612246,-2.3316326530612246,-2.3316326530612246,-2.3316326530612246,-2.3316326530612246,-2.3316326530612246,-2.3316326530612246,-2.3316326530612246,-2.3316326530612246,0.08276643989240232,0.11337868479036149,0.14399092968832067,0.17460317458627986,0.19841269839580367,0.23582766438219824,0.2664399092801574,0.2936507936338989,0.3412698412529465,0.36848072560668804,0.3956916099604295,0.41269841268151797,0.43650793649104175,0.4501133786679125,0.4637188208447833,0.47392290247743635,0.47732426302165404,0.48412698411008936,0.48412698411008936,0.48752834465430706,0.5011337868311778,0.5181405895522663,0.5351473922733547,0.5623582766270961,0.5997732426134907,0.640589569144103,0.6643990929536268,0.6882086167631506,0.7086167800284567,0.7188208616611098,0.7222222222053275,0.7256235827495452,0.7256235827495452,0.7256235827495452,0.7256235827495452,0.7256235827495452,0.7256235827495452,0.7324263038379806,0.7698412698243751,0.814058956899205,0.8650793650624703,0.912698412681518,0.9739229024774363,1.0011337868311778,1.031746031729137,1.0555555555386609,1.08616780043662,1.1065759637019261,1.1235827664230145,1.1303854875114498,1.1541950113209738,1.1678004534978446,1.184807256218933,1.2222222222053274,1.249433106559069,1.2732426303685929,1.3004535147223344,1.3412698412529465,1.368480725606688,1.3956916099604295,1.4126984126815179,1.422902494314171,1.422902494314171,1.4263038548583886,1.4263038548583886,1.4263038548583886,1.4263038548583886,1.4263038548583886,1.4263038548583886,1.4263038548583886,1.422902494314171,1.4092970521373003,1.3956916099604295,1.3616780045182526,1.3480725623413818,1.3242630385318581,1.3072562358107696,1.2732426303685929,1.249433106559069,1.215419501116892,1.1643990929536268,1.1031746031577085,0.987528344654307,0.8990929705046472,0.8004535147223343,0.6848072562189329,0.6201814058787969,0.5691609977155315,0.5113378684638309,0.47732426302165404,0.20521541948423905,0.20521541948423905,-0.03968253969943442,-0.03968253969943442,-0.03968253969943442,-0.03968253969943442,-0.03968253969943442,-0.03968253969943442,-0.03968253969943442,-0.03968253969943442,-0.03968253969943442,-0.03968253969943442,-0.03968253969943442,-0.03968253969943442,-0.03968253969943442,-0.03968253969943442,-0.03968253969943442,-0.03968253969943442,-0.03968253969943442,-0.03968253969943442,-0.03968253969943442,-0.03968253969943442,-0.03968253969943442,-0.03968253969943442,-0.03968253969943442,-0.03968253969943442,-0.03968253969943442,-0.03968253969943442,-0.03968253969943442,-0.03968253969943442,-0.03968253969943442,-0.03968253969943442,-0.03968253969943442,-0.03968253969943442,-0.03968253969943442,-0.03968253969943442,-0.03968253969943442,-0.03968253969943442,-0.03968253969943442,-0.03968253969943442,-0.03968253969943442,-0.03968253969943442,-0.03968253969943442,-0.03968253969943442,-0.03968253969943442,-0.03968253969943442,-0.03968253969943442,-0.03968253969943442,-0.03968253969943442,-0.03968253969943442,-0.03968253969943442,-0.03968253969943442,-0.03968253969943442,-0.03968253969943442,-0.03968253969943442,-0.03968253969943442,-0.03968253969943442,-0.03968253969943442,-0.03968253969943442,-0.03968253969943442,-0.03968253969943442,-0.03968253969943442,-0.03968253969943442,-0.03968253969943442,-0.02947845806678136,-0.002267573713039865,0.028344671184919318,0.04535147390600775,0.06235827662709619,0.07256235825974926,0.09637188206927307,0.10657596370192612,0.11678004533457918,0.13038548751144993,0.140589569144103,0.15079365077675605,0.1643990929536268,0.17800453513049755,0.19841269839580367,0.21882086166110978,0.23242630383798055,0.25283446710328666,0.2868480725454635,0.30725623581076966,0.3242630385318581,0.3446712017971642,0.36507936506247035,0.3752834466951234,0.38208616778355875,0.38888888887199413,0.38888888887199413,0.38888888887199413,0.38888888887199413,0.38888888887199413,0.38888888887199413,0.38888888887199413,0.38888888887199413,0.38888888887199413,0.38888888887199413,0.38888888887199413,0.38888888887199413,0.38888888887199413,0.38888888887199413,0.38888888887199413,0.38888888887199413,0.38888888887199413,0.38888888887199413,0.38888888887199413,0.38888888887199413,0.38888888887199413,0.38888888887199413,0.38888888887199413,0.38888888887199413,0.38888888887199413,0.38888888887199413,0.38888888887199413,0.38888888887199413,0.38888888887199413,0.38888888887199413,0.38888888887199413,0.38888888887199413,0.38888888887199413,0.38888888887199413,0.38888888887199413,0.38888888887199413,0.38888888887199413,0.38888888887199413,0.38888888887199413,0.38888888887199413,0.38888888887199413,0.38888888887199413,0.38888888887199413,0.38888888887199413,0.38888888887199413,0.38888888887199413,0.38888888887199413,0.38888888887199413,0.38888888887199413,0.38888888887199413,0.38888888887199413,0.38888888887199413,0.38888888887199413,0.38888888887199413,0.38888888887199413,0.38888888887199413,0.38888888887199413,0.38888888887199413,0.38888888887199413,0.38888888887199413,0.38888888887199413,0.38888888887199413,0.38888888887199413,0.38888888887199413,0.38888888887199413,0.38888888887199413,0.38888888887199413,0.38888888887199413,0.38888888887199413,0.38888888887199413,0.38888888887199413,0.38888888887199413,0.38888888887199413,0.38888888887199413,0.38888888887199413,0.38888888887199413,0.38888888887199413,0.38888888887199413,0.38888888887199413,0.38888888887199413,0.38888888887199413,0.38888888887199413,0.38888888887199413,0.38888888887199413,0.38888888887199413,0.38888888887199413,0.38888888887199413,0.38888888887199413,0.38888888887199413,0.38888888887199413,0.38888888887199413,0.38888888887199413,0.38888888887199413,0.38888888887199413,0.38888888887199413,0.38888888887199413,0.38888888887199413,0.38888888887199413,0.38888888887199413,0.38888888887199413,0.38888888887199413,0.38888888887199413,0.38888888887199413,0.38888888887199413,0.38888888887199413,0.38888888887199413,0.38888888887199413,0.38888888887199413,0.38888888887199413,0.38888888887199413,0.38888888887199413,0.38888888887199413,0.38888888887199413,0.38888888887199413,0.38888888887199413,0.38888888887199413,0.38888888887199413,0.38888888887199413,0.38888888887199413,0.38888888887199413,0.38888888887199413,0.38888888887199413,0.38888888887199413,0.38888888887199413,0.38888888887199413,0.38888888887199413,0.38888888887199413,0.38888888887199413,0.38888888887199413,0.38888888887199413,0.38888888887199413,0.38888888887199413,0.38888888887199413,0.38888888887199413,0.38888888887199413,0.38888888887199413,0.38888888887199413,0.38888888887199413,0.38888888887199413,0.38888888887199413,0.38888888887199413,0.38888888887199413,0.38888888887199413,0.38888888887199413,0.38888888887199413,0.38888888887199413,0.38888888887199413,0.38888888887199413,0.38888888887199413,0.38888888887199413,0.38888888887199413,0.38888888887199413,0.38888888887199413,0.38888888887199413,0.38888888887199413,0.38888888887199413,0.38888888887199413,0.38888888887199413,0.38888888887199413,0.38888888887199413,0.38888888887199413,0.38888888887199413,0.38888888887199413,0.38888888887199413,0.38888888887199413,0.38888888887199413,0.38888888887199413,0.38888888887199413,0.38888888887199413,0.38888888887199413,0.38888888887199413,0.38888888887199413,0.38888888887199413,0.38888888887199413,0.38888888887199413,0.38888888887199413,0.38888888887199413,0.38888888887199413,0.38888888887199413,0.38888888887199413,0.38888888887199413,0.38888888887199413,0.38888888887199413,0.38888888887199413,0.38888888887199413,0.38888888887199413,0.38888888887199413,0.38888888887199413,0.38888888887199413,0.38888888887199413,0.38888888887199413,0.38888888887199413,0.38888888887199413,0.38888888887199413,0.38888888887199413,0.38888888887199413,0.38888888887199413,0.38888888887199413,0.38888888887199413,0.38888888887199413,0.38888888887199413,0.38888888887199413,0.38888888887199413,0.38888888887199413,0.38888888887199413,0.38888888887199413,0.38888888887199413,0.38888888887199413,0.38888888887199413,0.38888888887199413,0.38888888887199413,0.38888888887199413,0.38888888887199413,0.38888888887199413,0.38888888887199413,0.38888888887199413,0.38888888887199413,0.38888888887199413,0.38888888887199413,0.38888888887199413,0.38888888887199413,0.38888888887199413,0.38888888887199413,0.38888888887199413,0.38888888887199413,0.38888888887199413,0.38888888887199413,0.38888888887199413,0.38888888887199413,0.38888888887199413,0.38888888887199413,0.38888888887199413,0.38888888887199413,0.38888888887199413,0.38888888887199413,0.38888888887199413,0.38888888887199413,0.38888888887199413,0.38888888887199413,0.38888888887199413,0.38888888887199413,0.38888888887199413,0.38888888887199413,0.38888888887199413,0.38888888887199413,0.38888888887199413,0.38888888887199413,0.38888888887199413,0.38888888887199413,0.38888888887199413,0.38888888887199413,0.38888888887199413,0.38888888887199413,0.38888888887199413,0.38888888887199413,0.38888888887199413,0.38888888887199413,0.38888888887199413,0.38888888887199413,0.38888888887199413,0.38888888887199413,0.38888888887199413,0.38888888887199413,0.38888888887199413,0.38888888887199413,0.38888888887199413,0.38888888887199413,0.38888888887199413,0.38888888887199413,0.38888888887199413,0.38888888887199413,0.38888888887199413,0.38888888887199413,0.38888888887199413,0.38888888887199413,0.38888888887199413,0.38888888887199413,0.38888888887199413,0.38888888887199413,0.38888888887199413,0.38888888887199413,0.38888888887199413,0.38888888887199413,0.38888888887199413,0.38888888887199413,0.38888888887199413,0.38888888887199413,0.38888888887199413,0.38888888887199413,0.38888888887199413,0.38888888887199413,0.38888888887199413,0.38888888887199413,0.38888888887199413,0.38888888887199413,0.38888888887199413,0.38888888887199413,0.38888888887199413,0.38888888887199413,0.38888888887199413,0.38888888887199413,0.38888888887199413,0.38888888887199413,0.38888888887199413,0.38888888887199413,0.38888888887199413,0.38888888887199413,0.38888888887199413,0.38888888887199413,0.38888888887199413,0.38888888887199413,0.38888888887199413,0.38888888887199413,0.38888888887199413,0.38888888887199413,0.38888888887199413,0.38888888887199413,0.38888888887199413,0.38888888887199413,0.38888888887199413,0.38888888887199413,0.38888888887199413,0.38888888887199413,0.38888888887199413,0.38888888887199413,0.38888888887199413,0.38888888887199413,0.38888888887199413,0.38888888887199413,0.38888888887199413,0.38888888887199413,0.38888888887199413,0.38888888887199413,0.38888888887199413,0.38888888887199413,0.38888888887199413,0.38888888887199413,0.38888888887199413,0.38888888887199413,0.38888888887199413,0.38888888887199413,0.38888888887199413,0.38888888887199413,0.38888888887199413,0.38888888887199413,0.38888888887199413,0.38888888887199413,0.38888888887199413,0.38888888887199413,0.38888888887199413,0.38888888887199413,0.38888888887199413,0.38888888887199413,0.38888888887199413,0.38888888887199413,0.38888888887199413,0.38208616778355875,0.3752834466951234,0.36848072560668804,0.3548752834298173,0.3548752834298173,0.3480725623413819,0.3480725623413819,0.3480725623413819,0.3480725623413819,0.3480725623413819,0.3480725623413819,0.3480725623413819,0.3480725623413819,0.3480725623413819,0.3480725623413819,0.3480725623413819,0.3480725623413819,0.3412698412529465,0.33446712016451113,0.31746031744342273,0.2936507936338989,0.2698412698243751,0.23922902492641593,0.22562358274954517,0.21882086166110978,0.21882086166110978,0.21882086166110978,0.21882086166110978,0.21882086166110978,0.21882086166110978,0.21882086166110978,0.21882086166110978,0.21882086166110978,0.21882086166110978,0.21882086166110978,0.21882086166110978,0.21882086166110978,0.22222222220532747,0.22222222220532747,0.22562358274954517,0.22902494329376286,0.22902494329376286,0.22902494329376286,0.22902494329376286,0.22902494329376286,0.22902494329376286,0.22902494329376286,0.22902494329376286,0.22902494329376286,0.22902494329376286,0.22902494329376286,0.22902494329376286,0.22902494329376286,0.22902494329376286,0.22902494329376286,0.22902494329376286,0.22902494329376286,0.22902494329376286,0.22902494329376286,0.22902494329376286,0.22902494329376286,0.22902494329376286,0.22902494329376286,0.22902494329376286,0.22902494329376286,0.22902494329376286,0.22902494329376286,0.22902494329376286,0.22902494329376286,0.22902494329376286,0.22902494329376286,0.22902494329376286,0.22902494329376286,0.22902494329376286,0.22902494329376286,0.22902494329376286,0.22902494329376286,0.22902494329376286,0.22902494329376286,0.22902494329376286,0.22902494329376286,0.22902494329376286,0.22902494329376286,0.22902494329376286,0.22902494329376286,0.22902494329376286,0.22902494329376286,0.22902494329376286,0.22902494329376286,0.22902494329376286,0.22902494329376286,0.22902494329376286,0.22902494329376286,0.22902494329376286,0.22902494329376286,0.22902494329376286,0.22902494329376286,0.22902494329376286,0.22902494329376286,0.22902494329376286,0.22902494329376286,0.22902494329376286,0.22902494329376286,0.22902494329376286,0.22902494329376286,0.22902494329376286,0.22902494329376286,0.22902494329376286,0.22902494329376286,0.22902494329376286,0.22902494329376286,0.22902494329376286,0.22902494329376286,0.22902494329376286,0.22902494329376286,0.22902494329376286,0.22902494329376286,0.22902494329376286,0.22902494329376286,0.22902494329376286,0.22902494329376286,0.22902494329376286,0.22902494329376286,0.22902494329376286,0.22902494329376286,0.22902494329376286,0.22902494329376286,0.22902494329376286,0.22902494329376286,0.22902494329376286,0.22902494329376286,0.22902494329376286,0.22902494329376286,0.22902494329376286,0.22902494329376286,0.22902494329376286,0.22902494329376286,0.22902494329376286,0.22902494329376286,0.22902494329376286,0.22902494329376286,0.22902494329376286,0.22902494329376286,0.22902494329376286,0.22902494329376286,0.22902494329376286,0.22902494329376286,0.22902494329376286,0.22902494329376286,0.22902494329376286,0.22902494329376286,0.22902494329376286,0.22902494329376286,0.22902494329376286,0.22902494329376286,0.22902494329376286,0.22902494329376286,0.22902494329376286,0.22902494329376286,0.22902494329376286,0.22902494329376286,0.22902494329376286,0.22902494329376286,0.22902494329376286,0.22902494329376286,0.22902494329376286,0.22902494329376286,0.22902494329376286,0.22902494329376286,0.22902494329376286,0.22902494329376286,0.22902494329376286,0.22902494329376286,0.22902494329376286,0.22902494329376286,0.22902494329376286,0.22902494329376286,0.22902494329376286,0.22902494329376286,0.22902494329376286,0.22902494329376286,0.22902494329376286,0.22902494329376286,0.22902494329376286,0.22902494329376286,0.22902494329376286,0.22902494329376286,0.22902494329376286,0.22902494329376286,0.22902494329376286,0.22902494329376286,0.22902494329376286,0.22902494329376286,0.22902494329376286,0.22902494329376286,0.22902494329376286,0.22902494329376286,0.22902494329376286,0.22902494329376286,0.22902494329376286,0.22902494329376286,0.22902494329376286,0.22902494329376286,0.22902494329376286,0.22902494329376286,0.22902494329376286,0.22902494329376286,0.22902494329376286,0.22902494329376286,0.22902494329376286,0.22902494329376286,0.22902494329376286,0.22902494329376286,0.22902494329376286,0.22902494329376286,0.22902494329376286,0.22902494329376286,0.22902494329376286,0.22902494329376286,0.22902494329376286,0.22902494329376286,0.22902494329376286,0.22902494329376286,0.22902494329376286,0.22902494329376286,0.22902494329376286,0.22902494329376286,0.22902494329376286,0.22902494329376286,0.22902494329376286,0.22902494329376286,0.22902494329376286,0.22902494329376286,0.22902494329376286,0.22902494329376286,0.22902494329376286,0.22902494329376286,0.22902494329376286,0.22902494329376286,0.22902494329376286,0.22902494329376286,0.22902494329376286,0.22902494329376286,0.22902494329376286,0.22902494329376286,0.22902494329376286,0.22902494329376286,0.22902494329376286,0.22902494329376286,0.22902494329376286,0.22902494329376286,0.22902494329376286,0.22902494329376286,0.22902494329376286,0.22902494329376286,0.22902494329376286,0.22902494329376286,0.22902494329376286,0.22902494329376286,0.22902494329376286,0.22902494329376286,0.22902494329376286,0.22902494329376286,0.22902494329376286,0.22902494329376286,0.22902494329376286,0.22902494329376286,0.22902494329376286,0.22902494329376286,0.22902494329376286,0.22902494329376286,0.22902494329376286,0.22902494329376286,0.22902494329376286,0.23922902492641593,0.2766439909128105,0.33106575962029344,0.36167800451825266,0.38888888887199413,0.4058956915930826,0.41609977322573566,0.41950113376995335,0.42290249431417104,0.42290249431417104,0.42290249431417104,0.42290249431417104,0.42290249431417104,0.42290249431417104,0.42290249431417104,0.42970521540260637,0.4569160997563479,0.47732426302165404,0.49433106574274244,0.5011337868311778,0.5045351473753955,0.5079365079196132,0.5113378684638309,0.5147392290080486,0.5181405895522663,0.5249433106407017,0.531746031729137,0.5521541949944432,0.5623582766270961,0.5793650793481846,0.6031746031577084,0.6133786847903615,0.6201814058787969,0.6201814058787969,0.6201814058787969,0.6201814058787969,0.6235827664230146,0.6235827664230146,0.6235827664230146,0.6235827664230146,0.6235827664230146,0.6235827664230146,0.6235827664230146,0.6235827664230146,0.6235827664230146,0.6201814058787969,0.6201814058787969,0.6133786847903615,0.6065759637019261,0.6031746031577084,0.5997732426134907,0.5997732426134907,0.5725623582597492,0.5045351473753955,0.42290249431417104,0.33106575962029344,0.2868480725454635,0.24603174601485128,0.23242630383798055,0.22222222220532747,0.22222222220532747,0.22222222220532747,0.21882086166110978,0.21201814057267443,0.17800453513049755,0.15079365077675605,0.09977324261349074,0.06235827662709619,0.03514739227335469,0.021541950096483943,0.01473922900804857,0.011337868463830883,0.007936507919613195,0.007936507919613195,0.007936507919613195,0.007936507919613195,0.007936507919613195,0.007936507919613195,0.007936507919613195,0.011337868463830883,0.011337868463830883,0.011337868463830883,0.011337868463830883,0.011337868463830883,0.011337868463830883,0.011337868463830883,0.011337868463830883,0.011337868463830883,0.011337868463830883,0.011337868463830883,0.011337868463830883,0.011337868463830883,0.011337868463830883,0.011337868463830883,0.011337868463830883,0.011337868463830883,0.011337868463830883,0.011337868463830883,0.011337868463830883,0.011337868463830883,0.011337868463830883,0.011337868463830883,0.011337868463830883,0.011337868463830883,0.011337868463830883,0.011337868463830883,0.011337868463830883,0.011337868463830883,0.011337868463830883,0.011337868463830883,0.011337868463830883,0.011337868463830883,0.011337868463830883,0.011337868463830883,0.011337868463830883,0.011337868463830883,0.011337868463830883,0.011337868463830883,0.011337868463830883,0.011337868463830883,0.011337868463830883,0.011337868463830883,0.011337868463830883,0.011337868463830883,0.011337868463830883,0.011337868463830883,0.011337868463830883,0.011337868463830883,0.011337868463830883,0.011337868463830883,0.011337868463830883,0.011337868463830883,0.011337868463830883,0.011337868463830883,0.011337868463830883,0.011337868463830883,0.011337868463830883,0.011337868463830883,0.011337868463830883,0.011337868463830883,0.011337868463830883,0.011337868463830883,0.011337868463830883,0.011337868463830883,0.011337868463830883,0.011337868463830883,0.011337868463830883,0.011337868463830883,0.011337868463830883,0.011337868463830883,0.011337868463830883,0.011337868463830883,0.011337868463830883,0.011337868463830883,0.011337868463830883,0.011337868463830883,0.011337868463830883,0.011337868463830883,0.07596371880396693,0.13038548751144993,0.19160997730736828,0.25283446710328666,0.3548752834298173,0.42970521540260637,0.531746031729137,0.5589569160828785,0.6371882085998853,0.6746031745862798,0.7086167800284567,0.7358276643821983,0.7562358276475043,0.7698412698243751,0.7698412698243751,0.7732426303685928,0.7732426303685928,0.7766439909128104,0.7800453514570281,0.7834467120012458,0.7834467120012458,0.7834467120012458,0.7834467120012458,0.7834467120012458,0.7834467120012458,0.7868480725454635,0.7902494330896812,0.7936507936338989,0.8072562358107697,0.8208616779876404,0.8344671201645112,0.8446712017971643,0.848072562341382,0.8446712017971643,0.8310657596202935,0.8242630385318581,0.8242630385318581,0.8242630385318581,0.8242630385318581,0.8242630385318581,0.8242630385318581,0.8242630385318581,0.8242630385318581,0.8242630385318581,0.8242630385318581,0.8242630385318581,0.8242630385318581,0.8242630385318581,0.8242630385318581,0.8242630385318581,0.8242630385318581,0.8242630385318581,0.8242630385318581,0.8242630385318581,0.8242630385318581,0.8242630385318581,0.8242630385318581,0.8242630385318581,0.8242630385318581,0.8242630385318581,0.8242630385318581,0.8242630385318581,0.8242630385318581,0.8242630385318581,0.8242630385318581,0.8242630385318581,0.8242630385318581,0.8242630385318581,0.8242630385318581,0.8242630385318581,0.8242630385318581,0.8242630385318581,0.8242630385318581,0.8242630385318581,0.8242630385318581,0.8242630385318581,0.8242630385318581,0.8242630385318581,0.8242630385318581,0.8242630385318581,0.8242630385318581,0.8242630385318581,0.8242630385318581,0.8242630385318581,0.8242630385318581,0.8242630385318581,0.8242630385318581,0.8242630385318581,0.8242630385318581,0.8242630385318581,0.8242630385318581,0.8242630385318581,0.8242630385318581,0.8242630385318581,0.8242630385318581,0.8242630385318581,0.8242630385318581,0.8242630385318581,0.8242630385318581,0.8242630385318581,0.8242630385318581,0.8242630385318581,0.8242630385318581,0.8242630385318581,0.8242630385318581,0.8242630385318581,0.8242630385318581,0.8242630385318581,0.8242630385318581,0.8242630385318581,0.8242630385318581,0.8242630385318581,0.8242630385318581,0.8242630385318581,0.8242630385318581,0.8242630385318581,0.8242630385318581,0.8242630385318581,0.8242630385318581,0.8242630385318581,0.8242630385318581,0.8242630385318581,0.8242630385318581,0.8242630385318581,0.8242630385318581,0.8242630385318581,0.8242630385318581,0.8242630385318581,0.8242630385318581,0.8242630385318581,0.8242630385318581,0.8242630385318581,0.8242630385318581,0.8242630385318581,0.8242630385318581,0.8242630385318581,0.8242630385318581,0.8242630385318581,0.8242630385318581,0.8242630385318581,0.8242630385318581,0.8242630385318581,0.8242630385318581,0.8242630385318581,0.8242630385318581,0.8242630385318581,0.8242630385318581,0.8242630385318581,0.8242630385318581,0.8242630385318581,0.8242630385318581,0.8242630385318581,0.8242630385318581,0.8242630385318581,0.8242630385318581,0.8242630385318581,0.8242630385318581,0.8242630385318581,0.8242630385318581,0.8242630385318581,0.8242630385318581,0.8242630385318581,0.8242630385318581,0.8242630385318581,0.8242630385318581,0.8242630385318581,0.8242630385318581,0.8242630385318581,0.8242630385318581,0.8242630385318581,0.8242630385318581,0.8242630385318581,0.8242630385318581,0.8242630385318581,0.8242630385318581,0.8242630385318581,0.8242630385318581,0.8242630385318581,0.8242630385318581,0.8242630385318581,0.8242630385318581,0.8242630385318581,0.8242630385318581,0.8242630385318581,0.8242630385318581,0.8242630385318581,0.8242630385318581,0.8242630385318581,0.8242630385318581,0.8242630385318581,0.8242630385318581,0.8242630385318581,0.8242630385318581,0.8242630385318581,0.8242630385318581,0.8242630385318581,0.8242630385318581,0.8242630385318581,0.8242630385318581,0.8242630385318581,0.8242630385318581,0.8242630385318581,0.8242630385318581,0.8242630385318581,0.8242630385318581,0.8242630385318581,0.8242630385318581,0.8242630385318581,0.8242630385318581,0.8242630385318581,0.8242630385318581,0.8242630385318581,0.8242630385318581,0.8242630385318581,0.8242630385318581,0.8242630385318581,0.8242630385318581,0.8242630385318581,0.8242630385318581,0.8242630385318581,0.8242630385318581,0.8242630385318581,0.8242630385318581,0.8242630385318581,0.8242630385318581,0.8242630385318581,0.8242630385318581,0.803854875266552,0.7902494330896812,0.7834467120012458,0.7732426303685928,0.7630385487359397,0.7562358276475043,0.7528344671032867,0.749433106559069,0.7358276643821983,0.7290249432937629,0.7222222222053275,0.7222222222053275,0.7222222222053275,0.7222222222053275,0.7222222222053275,0.7222222222053275,0.7222222222053275,0.7222222222053275,0.7222222222053275,0.7222222222053275,0.7222222222053275,0.7222222222053275,0.7222222222053275,0.7222222222053275,0.7222222222053275,0.7222222222053275,0.7222222222053275,0.7222222222053275,0.7222222222053275,0.7222222222053275,0.7222222222053275,0.7222222222053275,0.7222222222053275,0.7222222222053275,0.7222222222053275,0.7222222222053275,0.7222222222053275,0.7222222222053275,0.7222222222053275,0.7222222222053275,0.7222222222053275,0.7222222222053275,0.7222222222053275,0.7222222222053275,0.7222222222053275,0.7222222222053275,0.7222222222053275,0.7222222222053275,0.7222222222053275,0.7222222222053275,0.7222222222053275,0.7222222222053275,0.7222222222053275,0.7222222222053275,0.7222222222053275,0.7222222222053275,0.7222222222053275,0.7222222222053275,0.7222222222053275,0.7222222222053275,0.7222222222053275,0.7222222222053275,0.7222222222053275,0.7222222222053275,0.7222222222053275,0.7222222222053275,0.7222222222053275,0.7222222222053275,0.7222222222053275,0.7222222222053275,0.7222222222053275,0.7222222222053275,0.7222222222053275,0.7222222222053275,0.7222222222053275,0.7222222222053275,0.7222222222053275,0.7222222222053275,0.7222222222053275,0.7222222222053275,0.7222222222053275,0.7222222222053275,0.7222222222053275,0.7222222222053275,0.7222222222053275,0.7222222222053275,0.7222222222053275,0.7222222222053275,0.7222222222053275,0.7222222222053275,0.7222222222053275,0.7222222222053275,0.7222222222053275,0.7222222222053275,0.7222222222053275,0.7222222222053275,0.7222222222053275,0.7222222222053275,0.7222222222053275,0.7222222222053275,0.7222222222053275,0.7222222222053275,0.7222222222053275,0.7222222222053275,0.7222222222053275,0.7222222222053275,0.7222222222053275,0.7222222222053275,0.7222222222053275,0.7222222222053275,0.7222222222053275,0.7222222222053275,0.7222222222053275,0.7222222222053275,0.7222222222053275,0.7222222222053275,0.7222222222053275,0.7222222222053275,0.7222222222053275,0.7222222222053275,0.7222222222053275,0.7222222222053275,0.7222222222053275,0.7222222222053275,0.7222222222053275,0.7222222222053275,0.7222222222053275,0.7222222222053275,0.7222222222053275,0.7222222222053275,0.7222222222053275,0.7222222222053275,0.7222222222053275,0.7222222222053275,0.7222222222053275,0.7222222222053275,0.7222222222053275,0.7222222222053275,0.7222222222053275,0.7222222222053275,0.7154195011168921,0.7086167800284567,0.7018140589400214,0.6882086167631506,0.6780045351304975,0.6746031745862798,0.6678004534978444,0.6643990929536268,0.6643990929536268,0.6643990929536268,0.6643990929536268,0.6643990929536268,0.6643990929536268,0.6643990929536268,0.6712018140420621,0.6780045351304975,0.7018140589400214,0.7154195011168921,0.7256235827495452,0.7324263038379806,0.7324263038379806,0.7324263038379806,0.7358276643821983,0.739229024926416,0.7426303854706336,0.7562358276475043,0.7630385487359397,0.7902494330896812,0.803854875266552,0.8242630385318581,0.848072562341382,0.8786848072393411,0.8990929705046472,0.912698412681518,0.9195011337699533,0.9331065759468241,0.9399092970352595,0.9501133786679126,0.9535147392121303,0.9603174603005655,0.9637188208447832,0.9705215419332186,0.9739229024774363,0.9739229024774363,0.9739229024774363,0.9739229024774363,0.9705215419332186,0.9535147392121303,0.9263038548583887,0.8854875283277764,0.8344671201645112,0.7154195011168921,0.596371882069273,0.49092970519852475,0.41609977322573566,0.3514739228855996,0.3276643990760758,0.31405895689920504,0.30725623581076966,0.3004535147223343,0.3004535147223343,0.3004535147223343,0.2970521541781166,0.2970521541781166,0.2970521541781166,0.2970521541781166,0.2970521541781166,0.30385487526655197,0.3242630385318581,0.3480725623413819,0.3752834466951234,0.4092970521373003,0.43310657594682406,0.4569160997563479,0.48412698411008936,0.5283446711849193,0.5555555555386608,0.5725623582597492,0.5895691609808377,0.5997732426134907,0.6065759637019261,0.6167800453345792,0.6269841269672323,0.6371882085998853,0.640589569144103,0.640589569144103,0.640589569144103,0.6439909296883207,0.6439909296883207,0.6473922902325384,0.6473922902325384,0.6473922902325384,0.6473922902325384,0.6473922902325384,0.6473922902325384,0.6439909296883207,0.6439909296883207,0.640589569144103,0.640589569144103,0.640589569144103,0.640589569144103,0.6371882085998853,0.6371882085998853,0.6133786847903615,0.6133786847903615,0.5929705215250554,0.5929705215250554,0.5929705215250554,0.5895691609808377,0.5895691609808377,0.5895691609808377,0.5895691609808377,0.5895691609808377,0.5895691609808377,0.5895691609808377,0.5895691609808377,0.5895691609808377,0.5895691609808377,0.5895691609808377,0.5895691609808377,0.5895691609808377,0.5895691609808377,0.5895691609808377,0.5895691609808377,0.5895691609808377,0.5895691609808377,0.5895691609808377,0.5895691609808377,0.5895691609808377,0.5895691609808377,0.5895691609808377,0.5895691609808377,0.5895691609808377,0.5895691609808377,0.5895691609808377,0.5895691609808377,0.5895691609808377,0.5895691609808377,0.5895691609808377,0.5895691609808377,0.5895691609808377,0.5895691609808377,0.5895691609808377,0.5895691609808377,0.5895691609808377,0.5895691609808377,0.5895691609808377,0.5895691609808377,0.5895691609808377,0.5895691609808377,0.5895691609808377,0.5895691609808377,0.5895691609808377,0.5895691609808377,0.5895691609808377,0.5895691609808377,0.5895691609808377,0.5895691609808377,0.5895691609808377,0.5895691609808377,0.5895691609808377,0.5895691609808377,0.5895691609808377,0.5895691609808377,0.5895691609808377,0.5895691609808377,0.5895691609808377,0.5895691609808377,0.5895691609808377,0.5895691609808377,0.5895691609808377,0.5895691609808377,0.5895691609808377,0.5895691609808377,0.5895691609808377,0.5895691609808377,0.5895691609808377,0.5895691609808377,0.58616780043662,0.5759637188039669,0.5657596371713138,0.5657596371713138,0.5623582766270961,0.5623582766270961,0.5623582766270961,0.5623582766270961,0.5589569160828785,0.5589569160828785,0.5589569160828785,0.5589569160828785,0.5589569160828785,0.5589569160828785,0.5589569160828785,0.5589569160828785,0.5589569160828785,0.5589569160828785,0.5589569160828785,0.5589569160828785,0.5589569160828785,0.5521541949944432,0.5419501133617901,0.531746031729137,0.5249433106407017,0.5249433106407017,0.521541950096484,0.521541950096484,0.521541950096484,0.521541950096484,0.521541950096484,0.521541950096484,0.521541950096484,0.521541950096484,0.521541950096484,0.521541950096484,0.521541950096484,0.521541950096484,0.521541950096484,0.521541950096484,0.521541950096484,0.521541950096484,0.521541950096484,0.521541950096484,0.521541950096484,0.521541950096484,0.521541950096484,0.521541950096484,0.521541950096484,0.521541950096484,0.521541950096484,0.521541950096484,0.521541950096484,0.521541950096484,0.521541950096484,0.521541950096484,0.521541950096484,0.521541950096484,0.521541950096484,0.521541950096484,0.521541950096484,0.521541950096484,0.5147392290080486,0.5113378684638309,0.48752834465430706,0.4807256235658717,0.4637188208447833,0.4569160997563479,0.4569160997563479,0.4535147392121302,0.4535147392121302,0.4535147392121302,0.4535147392121302,0.4535147392121302,0.4535147392121302,0.4535147392121302,0.4535147392121302,0.4535147392121302,0.4535147392121302,0.4535147392121302,0.4501133786679125,0.4501133786679125,0.4501133786679125,0.4501133786679125,0.4501133786679125,0.4501133786679125,0.4501133786679125,0.4501133786679125,0.4501133786679125,0.4501133786679125,0.4501133786679125,0.4501133786679125,0.4501133786679125,0.4501133786679125,0.4501133786679125,0.4501133786679125,0.4501133786679125,0.4501133786679125,0.4501133786679125,0.4501133786679125,0.4501133786679125,0.4501133786679125,0.4501133786679125,0.4501133786679125,0.4501133786679125,0.4501133786679125,0.4501133786679125,0.4501133786679125,0.4501133786679125,0.4501133786679125,0.4501133786679125,0.4501133786679125,0.4501133786679125,0.4501133786679125,0.4501133786679125,0.4501133786679125,0.4501133786679125,0.4501133786679125,0.4501133786679125,0.4501133786679125,0.4501133786679125,0.4501133786679125,0.4501133786679125,0.4501133786679125,0.4501133786679125,0.4501133786679125,0.4501133786679125,0.4501133786679125,0.4501133786679125,0.4501133786679125,0.4501133786679125,0.4501133786679125,0.4501133786679125,0.4501133786679125,0.4501133786679125,0.4501133786679125,0.4501133786679125,0.4501133786679125,0.4501133786679125,0.4501133786679125,0.4501133786679125,0.4501133786679125,0.4501133786679125,0.4501133786679125,0.4501133786679125,0.4501133786679125,0.4501133786679125,0.4501133786679125,0.4501133786679125,0.4501133786679125,0.4501133786679125,0.4501133786679125,0.4501133786679125,0.4501133786679125,0.4501133786679125,0.4501133786679125,0.4501133786679125,0.4501133786679125,0.4501133786679125,0.4501133786679125,0.4501133786679125,0.4501133786679125,0.4501133786679125,0.4501133786679125,0.4501133786679125,0.4501133786679125,0.44331065757947713,0.41950113376995335,0.3922902494162118,0.36507936506247035,0.3208616779876404,0.2936507936338989,0.2732426303685928,0.25623582764750436,0.23242630383798055,0.22222222220532747,0.20521541948423905,0.20181405894002136,0.19841269839580367,0.19841269839580367,0.19501133785158598,0.19501133785158598,0.19501133785158598,0.19501133785158598,0.19501133785158598,0.19501133785158598,0.19501133785158598,0.19501133785158598,0.19501133785158598,0.19501133785158598,0.19501133785158598,0.19501133785158598,0.19501133785158598,0.19501133785158598,0.19501133785158598,0.19501133785158598,0.19501133785158598,0.19501133785158598,0.19501133785158598,0.19501133785158598,0.19501133785158598,0.19501133785158598,0.19501133785158598,0.19501133785158598,0.19501133785158598,0.19501133785158598,0.19501133785158598,0.19501133785158598,0.19501133785158598,0.19501133785158598,0.19501133785158598,0.19501133785158598,0.19501133785158598,0.19501133785158598,0.19501133785158598,0.19501133785158598,0.19501133785158598,0.21201814057267443,0.23922902492641593,0.25283446710328666,0.2664399092801574,0.2732426303685928,0.2732426303685928,0.2766439909128105,0.2766439909128105,0.28004535145702814,0.28004535145702814,0.2936507936338989,0.3004535147223343,0.30725623581076966,0.31405895689920504,0.33446712016451113,0.3514739228855996,0.3786848072393411,0.43310657594682406,0.4807256235658717,0.531746031729137,0.5929705215250554,0.6678004534978444,0.695011337851586,0.7086167800284567,0.7222222222053275,0.7426303854706336,0.7562358276475043,0.7800453514570281,0.814058956899205,0.8276643990760758,0.8378684807087289,0.8446712017971643,0.8446712017971643,0.8446712017971643,0.8446712017971643,0.8446712017971643,0.8446712017971643,0.8446712017971643,0.8446712017971643,0.8378684807087289,0.7698412698243751,0.7426303854706336,0.7222222222053275,0.7154195011168921,0.7120181405726744,0.7086167800284567,0.7086167800284567,0.7086167800284567,0.7086167800284567,0.7086167800284567,0.705215419484239,0.705215419484239,0.7018140589400214,0.7018140589400214,0.7018140589400214,0.7018140589400214,0.6882086167631506,0.6541950113209737,0.6235827664230146,0.6031746031577084,0.5929705215250554,0.5895691609808377,0.5895691609808377,0.5895691609808377,0.5895691609808377,0.5895691609808377,0.5895691609808377,0.5895691609808377,0.5895691609808377,0.5895691609808377,0.5895691609808377,0.5895691609808377,0.5895691609808377,0.5895691609808377,0.5895691609808377,0.5895691609808377,0.5895691609808377,0.5895691609808377,0.5895691609808377,0.5895691609808377,0.5895691609808377,0.5895691609808377,0.5895691609808377,0.5895691609808377,0.5895691609808377,0.5895691609808377,0.5895691609808377,0.5895691609808377,0.5895691609808377,0.5895691609808377,0.5895691609808377,0.5895691609808377,0.5895691609808377,0.5895691609808377,0.5895691609808377,0.5895691609808377,0.5895691609808377,0.5895691609808377,0.5895691609808377,0.5895691609808377,0.5895691609808377,0.5895691609808377,0.5895691609808377,0.5895691609808377,0.5895691609808377,0.5895691609808377,0.5895691609808377,0.5895691609808377,0.5895691609808377,0.5895691609808377,0.5895691609808377,0.5895691609808377,0.5895691609808377,0.5895691609808377,0.5895691609808377,0.5895691609808377,0.5895691609808377,0.5895691609808377,0.5895691609808377,0.5895691609808377,0.5895691609808377,0.5895691609808377,0.5895691609808377,0.5895691609808377,0.5895691609808377,0.5895691609808377,0.5895691609808377,0.5895691609808377,0.5895691609808377,0.5895691609808377,0.5895691609808377,0.5895691609808377,0.5895691609808377,0.5895691609808377,0.5895691609808377,0.5895691609808377,0.5895691609808377,0.5895691609808377,0.5895691609808377,0.5895691609808377,0.5895691609808377,0.5895691609808377,0.5895691609808377,0.5895691609808377,0.5895691609808377,0.5895691609808377,0.5895691609808377,0.5895691609808377,0.5895691609808377,0.5895691609808377,0.5895691609808377,0.5895691609808377,0.5895691609808377,0.5895691609808377,0.5895691609808377,0.5895691609808377,0.5895691609808377,0.5895691609808377,0.5895691609808377,0.5895691609808377,0.5895691609808377,0.5895691609808377,0.5895691609808377,0.5895691609808377,0.5895691609808377,0.5895691609808377,0.5895691609808377,0.5895691609808377,0.5895691609808377,0.5895691609808377,0.5895691609808377,0.5895691609808377,0.5895691609808377,0.5895691609808377,0.5895691609808377,0.5895691609808377,0.5895691609808377,0.5895691609808377,0.5895691609808377,0.5895691609808377,0.5895691609808377,0.5895691609808377,0.5895691609808377,0.5895691609808377,0.5895691609808377,0.5895691609808377,0.5895691609808377,0.5895691609808377,0.5895691609808377,0.5895691609808377,0.5895691609808377,0.5895691609808377,0.5895691609808377,0.5895691609808377,0.5895691609808377,0.5895691609808377,0.5895691609808377,0.5895691609808377,0.5895691609808377,0.5895691609808377,0.5895691609808377,0.5895691609808377,0.5895691609808377,0.5895691609808377,0.5895691609808377,0.5895691609808377,0.5895691609808377,0.5895691609808377,0.5895691609808377,0.5895691609808377,0.5895691609808377,0.5895691609808377,0.5895691609808377,0.5895691609808377,0.5895691609808377,0.5895691609808377,0.5895691609808377,0.5895691609808377,0.5895691609808377,0.5895691609808377,0.5895691609808377,0.5895691609808377,0.5895691609808377,0.5895691609808377,0.5895691609808377,0.5895691609808377,0.5895691609808377,0.5895691609808377,0.5895691609808377,0.5895691609808377,0.5895691609808377,0.5895691609808377,0.5895691609808377,0.5895691609808377,0.5895691609808377,0.5895691609808377,0.5895691609808377,0.5895691609808377,0.5895691609808377,0.5895691609808377,0.5895691609808377,0.5895691609808377,0.5895691609808377,0.5895691609808377,0.5895691609808377,0.5895691609808377,0.5895691609808377,0.5895691609808377,0.5895691609808377,0.5895691609808377,0.5895691609808377,0.5895691609808377,0.5895691609808377,0.5895691609808377,0.5895691609808377,0.5895691609808377,0.5895691609808377,0.5895691609808377,0.5895691609808377,0.5895691609808377,0.5895691609808377,0.5895691609808377,0.5895691609808377,0.5895691609808377,0.5895691609808377,0.5895691609808377,0.5895691609808377,0.5895691609808377,0.5895691609808377,0.5895691609808377,0.5895691609808377,0.5895691609808377,0.5895691609808377,0.5895691609808377,0.5895691609808377,0.5895691609808377,0.5895691609808377,0.5895691609808377,0.5895691609808377,0.5895691609808377,0.5895691609808377,0.5895691609808377,0.5895691609808377,0.5895691609808377,0.5895691609808377,0.5895691609808377,0.5895691609808377,0.5895691609808377,0.5895691609808377,0.5895691609808377,0.5895691609808377,0.5895691609808377,0.5895691609808377,0.5895691609808377,0.5895691609808377,0.5895691609808377,0.5895691609808377,0.5895691609808377,0.5895691609808377,0.5895691609808377,0.5895691609808377,0.5895691609808377,0.5895691609808377,0.5895691609808377,0.5895691609808377,0.5895691609808377,0.5895691609808377,0.5895691609808377,0.5895691609808377,0.5895691609808377,0.5895691609808377,0.5895691609808377,0.5895691609808377,0.5895691609808377,0.5895691609808377,0.5895691609808377,0.5895691609808377,0.5895691609808377,0.5895691609808377,0.5895691609808377,0.5895691609808377,0.5895691609808377,0.5895691609808377,0.5895691609808377,0.5895691609808377,0.5895691609808377,0.5895691609808377,0.5895691609808377,0.5895691609808377,0.5895691609808377,0.5895691609808377,0.5895691609808377,0.5895691609808377,0.5895691609808377,0.5895691609808377,0.5895691609808377,0.5895691609808377,0.5895691609808377,0.5895691609808377,0.5895691609808377,0.5895691609808377,0.5895691609808377,0.5895691609808377,0.5895691609808377,0.5895691609808377,0.5895691609808377,0.5895691609808377,0.5895691609808377,0.5895691609808377,0.5895691609808377,0.5895691609808377,0.5895691609808377,0.5895691609808377,0.5895691609808377,0.5895691609808377,0.5895691609808377,0.5895691609808377,0.5895691609808377,0.5895691609808377,0.5895691609808377,0.5895691609808377,0.5895691609808377,0.5895691609808377,0.5895691609808377,0.5895691609808377,0.5895691609808377,0.5895691609808377,0.5895691609808377,0.5895691609808377,0.5895691609808377,0.5895691609808377,0.5895691609808377,0.5895691609808377,0.5895691609808377,0.5895691609808377,0.5895691609808377,0.5895691609808377,0.5895691609808377,0.5895691609808377,0.5895691609808377,0.5895691609808377,0.5895691609808377,0.5895691609808377,0.5895691609808377,0.5895691609808377,0.5895691609808377,0.5895691609808377,0.5895691609808377,0.5895691609808377,0.5895691609808377,0.5895691609808377,0.5895691609808377,0.5895691609808377,0.5997732426134907,0.640589569144103,0.6780045351304975,0.7222222222053275,0.7630385487359397,0.814058956899205,0.8446712017971643,0.868480725606688,0.8854875283277764,0.8922902494162118,0.8990929705046472,0.8990929705046472,0.8990929705046472,0.9024943310488649,0.9092970521373003,0.9195011337699533,0.9297052154026064,0.9399092970352595,0.9467120181236949,0.9535147392121303,0.9637188208447832,0.9739229024774363,0.977324263021654,0.9807256235658717,0.9841269841100894,0.987528344654307,0.987528344654307,0.987528344654307,0.987528344654307,0.987528344654307,0.987528344654307,0.987528344654307,0.987528344654307,0.987528344654307,0.987528344654307,0.9909297051985247,0.9909297051985247,0.9943310657427424,0.9977324262869601,0.9977324262869601,0.9977324262869601,0.9977324262869601,0.9977324262869601,0.9977324262869601,0.9977324262869601,0.9977324262869601,1.0011337868311778,1.0011337868311778,1.0011337868311778,1.0011337868311778,1.0011337868311778,1.0011337868311778,1.0011337868311778,1.0011337868311778,1.0011337868311778,1.0011337868311778,1.0011337868311778,1.0011337868311778,1.0011337868311778,1.0011337868311778,1.0011337868311778,1.0011337868311778,1.0011337868311778,1.0011337868311778,1.0011337868311778,1.0011337868311778,1.0011337868311778,1.0011337868311778,1.0011337868311778,1.0011337868311778,1.0011337868311778,1.0011337868311778,1.0011337868311778,1.0011337868311778,1.0011337868311778,1.0011337868311778,1.0011337868311778,1.0011337868311778,1.0011337868311778,1.0011337868311778,1.0011337868311778,1.0011337868311778,1.0011337868311778,1.0011337868311778,1.0011337868311778,1.0011337868311778,1.0011337868311778,1.0011337868311778,1.0011337868311778,1.0011337868311778,1.0011337868311778,1.0011337868311778,1.0011337868311778,1.0011337868311778,1.0011337868311778,1.0011337868311778,1.0011337868311778,1.0011337868311778,1.0011337868311778,1.0011337868311778,1.0011337868311778,1.0011337868311778,1.0011337868311778,1.0011337868311778,1.0011337868311778,1.0011337868311778,1.0011337868311778,1.0011337868311778,1.0011337868311778,1.0011337868311778,1.0011337868311778,1.0011337868311778,1.0011337868311778,1.0011337868311778,1.0011337868311778,1.0011337868311778,1.0011337868311778,1.0011337868311778,1.0011337868311778,1.0011337868311778,1.0011337868311778,1.0011337868311778,1.0011337868311778,1.0011337868311778,1.0011337868311778,1.0011337868311778,1.0011337868311778,1.0011337868311778,1.0011337868311778,1.0011337868311778,1.0011337868311778,1.0011337868311778,1.0011337868311778,1.0011337868311778,1.0011337868311778,1.0011337868311778,1.0011337868311778,1.0011337868311778,1.0011337868311778,1.0011337868311778,1.0011337868311778,1.0011337868311778,1.0011337868311778,1.0011337868311778,1.0011337868311778,1.0011337868311778,1.0011337868311778,1.0011337868311778,1.0011337868311778,1.0011337868311778,1.0011337868311778,1.0011337868311778,1.0011337868311778,1.0011337868311778,1.0011337868311778,1.0011337868311778,1.0011337868311778,1.0011337868311778,1.0011337868311778,1.0011337868311778,1.0011337868311778,1.0011337868311778,1.0011337868311778,0.9943310657427424,0.9841269841100894,0.9739229024774363,0.9671201813890009,0.9535147392121303,0.9399092970352595,0.9331065759468241,0.9297052154026064,0.9297052154026064,0.9297052154026064,0.9297052154026064,0.9263038548583887,0.9263038548583887,0.8990929705046472,0.8378684807087289,0.8004535147223343,0.7868480725454635,0.7834467120012458,0.7800453514570281,0.7800453514570281,0.7800453514570281,0.7800453514570281,0.7800453514570281,0.7800453514570281,0.7800453514570281,0.7800453514570281,0.7800453514570281,0.7800453514570281,0.7800453514570281,0.7800453514570281,0.7800453514570281,0.7800453514570281,0.7800453514570281,0.7800453514570281,0.7800453514570281,0.7800453514570281,0.7800453514570281,0.7800453514570281,0.7800453514570281,0.7800453514570281,0.7800453514570281,0.7800453514570281,0.7800453514570281,0.7800453514570281,0.7800453514570281,0.7800453514570281,0.7800453514570281,0.7800453514570281,0.7800453514570281,0.7800453514570281,0.7800453514570281,0.7800453514570281,0.7800453514570281,0.7800453514570281,0.7800453514570281,0.7800453514570281,0.7800453514570281,0.7800453514570281,0.7800453514570281,0.7800453514570281,0.7800453514570281,0.7800453514570281,0.7800453514570281,0.7800453514570281,0.7800453514570281,0.7800453514570281,0.7800453514570281,0.7800453514570281,0.7800453514570281,0.7800453514570281,0.7800453514570281,0.7800453514570281,0.7800453514570281,0.7800453514570281,0.7800453514570281,0.7800453514570281,0.7630385487359397,0.6848072562189329,0.63038548751145,0.5793650793481846,0.5113378684638309,0.47052154193321866,0.42970521540260637,0.3956916099604295,0.35827664397403497,0.3242630385318581,0.3004535147223343,0.2834467120012458,0.2766439909128105,0.2698412698243751,0.2664399092801574,0.2664399092801574,0.26303854873593974,0.25623582764750436,0.25283446710328666,0.24603174601485128,0.2426303854706336,0.23922902492641593,0.23922902492641593,0.23922902492641593,0.23922902492641593,0.23582766438219824,0.23242630383798055,0.22562358274954517,0.21882086166110978,0.21201814057267443,0.20521541948423905,0.20521541948423905,0.20521541948423905,0.20521541948423905,0.20181405894002136,0.20181405894002136,0.19841269839580367,0.19841269839580367,0.19841269839580367,0.19841269839580367,0.19501133785158598,0.19160997730736828,0.18480725621893293,0.17800453513049755,0.17460317458627986,0.17120181404206217,0.17120181404206217,0.17120181404206217,0.17120181404206217,0.17120181404206217,0.17120181404206217,0.17120181404206217,0.17120181404206217,0.17120181404206217,0.16780045349784448,0.16780045349784448,0.16780045349784448,0.16780045349784448,0.16780045349784448,0.16780045349784448,0.16780045349784448,0.16780045349784448,0.16780045349784448,0.16780045349784448,0.16780045349784448,0.16780045349784448,0.16780045349784448,0.16780045349784448,0.16780045349784448,0.16780045349784448,0.16780045349784448,0.16780045349784448,0.16780045349784448,0.16780045349784448,0.16780045349784448,0.16780045349784448,0.16780045349784448,0.16780045349784448,0.16780045349784448,0.16780045349784448,0.16780045349784448,0.16780045349784448,0.16780045349784448,0.16780045349784448,0.16780045349784448,0.16780045349784448,0.16780045349784448,0.16780045349784448,0.16780045349784448,0.16780045349784448,0.16780045349784448,0.16780045349784448,0.16780045349784448,0.16780045349784448,0.16780045349784448,0.16780045349784448,0.16780045349784448,0.16780045349784448,0.16780045349784448,0.16780045349784448,0.16780045349784448,0.16780045349784448,0.16780045349784448,0.16780045349784448,0.16780045349784448,0.16780045349784448,0.16780045349784448,0.16780045349784448,0.16780045349784448,0.16780045349784448,0.16780045349784448,0.16780045349784448,0.16780045349784448,0.16780045349784448,0.16780045349784448,0.16780045349784448,0.16780045349784448,0.16780045349784448,0.16780045349784448,0.16780045349784448,0.16780045349784448,0.16780045349784448,0.16780045349784448,0.16780045349784448,0.16780045349784448,0.16780045349784448,0.16780045349784448,0.20181405894002136,0.2732426303685928,0.3208616779876404,0.36848072560668804,0.41269841268151797,0.47732426302165404,0.521541950096484,0.5657596371713138,0.6099773242461438,0.6575963718651914,0.7324263038379806,0.7800453514570281,0.8310657596202935,0.9024943310488649,0.9535147392121303,0.987528344654307,1.0079365079196132,1.0283446711849193,1.0657596371713138,1.0895691609808378,1.1099773242461437,1.1371882085998852,1.150793650776756,1.1609977324094092,1.1712018140420621,1.1780045351304975,1.1780045351304975,1.1780045351304975,1.1780045351304975,1.1814058956747153,1.1814058956747153,1.1814058956747153,1.184807256218933,1.184807256218933,1.184807256218933,1.184807256218933,1.184807256218933,1.184807256218933,1.184807256218933,1.184807256218933,1.184807256218933,1.184807256218933,1.1814058956747153,1.1814058956747153,1.1814058956747153,1.1780045351304975,1.1780045351304975,1.1780045351304975,1.1780045351304975,1.1780045351304975,1.1780045351304975,1.1780045351304975,1.1780045351304975,1.1780045351304975,1.1780045351304975,1.1780045351304975,1.1780045351304975,1.1780045351304975,1.1780045351304975,1.1780045351304975,1.1780045351304975,1.1780045351304975,1.1780045351304975,1.1780045351304975,1.1780045351304975,1.1780045351304975,1.1780045351304975,1.1780045351304975,1.1780045351304975,1.1780045351304975,1.1780045351304975,1.1780045351304975,1.1780045351304975,1.1780045351304975,1.1780045351304975,1.1780045351304975,1.1780045351304975,1.1780045351304975,1.1780045351304975,1.1780045351304975,1.1780045351304975,1.1780045351304975,1.1780045351304975,1.1780045351304975,1.1780045351304975,1.1780045351304975,1.1780045351304975,1.1780045351304975,1.1780045351304975,1.1780045351304975,1.1780045351304975,1.1780045351304975,1.1780045351304975,1.1780045351304975,1.1780045351304975,1.1780045351304975,1.1780045351304975,1.1780045351304975,1.1780045351304975,1.1780045351304975,1.1780045351304975,1.1780045351304975,1.1780045351304975,1.1780045351304975,1.1780045351304975,1.1780045351304975,1.1780045351304975,1.1780045351304975,1.1780045351304975,1.1780045351304975,1.1780045351304975,1.1780045351304975,1.1780045351304975,1.1780045351304975,1.1780045351304975,1.1780045351304975,1.1780045351304975,1.1780045351304975,1.1780045351304975,1.1780045351304975,1.1780045351304975,1.1780045351304975,1.1780045351304975,1.1780045351304975,1.1780045351304975,1.1780045351304975,1.1780045351304975,1.1780045351304975,1.1780045351304975,1.1780045351304975,1.1780045351304975,1.1780045351304975,1.1780045351304975,1.1780045351304975,1.1780045351304975,1.1780045351304975,1.1780045351304975,1.1780045351304975,1.1780045351304975,1.1780045351304975,1.1780045351304975,1.1780045351304975,1.1780045351304975,1.1780045351304975,1.1780045351304975,1.1780045351304975,1.1780045351304975,1.1780045351304975,1.1780045351304975,1.1780045351304975,1.1780045351304975,1.1780045351304975,1.1780045351304975,1.1780045351304975,1.1780045351304975,1.1780045351304975,1.1780045351304975,1.1780045351304975,1.1780045351304975,1.1780045351304975,1.1780045351304975,1.1780045351304975,1.1780045351304975,1.1780045351304975,1.1780045351304975,1.1780045351304975,1.1780045351304975,1.1780045351304975,1.1780045351304975,1.1780045351304975,1.1780045351304975,1.1780045351304975,1.1780045351304975,1.1780045351304975,1.1780045351304975,1.1780045351304975,1.1780045351304975,1.1780045351304975,1.1780045351304975,1.1780045351304975,1.1780045351304975,1.1780045351304975,1.1780045351304975,1.1780045351304975,1.1780045351304975,1.1780045351304975,1.1780045351304975,1.1780045351304975,1.1780045351304975,1.1780045351304975,1.1780045351304975,1.1780045351304975],"y":[-4.234126984126986,-4.234126984126986,-4.234126984126986,-4.234126984126986,-4.234126984126986,-4.234126984126986,-4.234126984126986,-4.234126984126986,-4.234126984126986,-4.234126984126986,-4.234126984126986,-4.234126984126986,-4.234126984126986,-4.234126984126986,-4.234126984126986,-4.234126984126986,-4.234126984126986,-4.234126984126986,-4.234126984126986,-4.234126984126986,-4.234126984126986,-4.234126984126986,-4.234126984126986,-4.234126984126986,-4.234126984126986,-4.234126984126986,-4.234126984126986,-4.234126984126986,-4.234126984126986,-4.234126984126986,-4.234126984126986,-4.234126984126986,-4.234126984126986,-4.234126984126986,-4.234126984126986,-4.234126984126986,-4.234126984126986,-4.234126984126986,-4.234126984126986,-4.234126984126986,-4.234126984126986,-4.234126984126986,-4.234126984126986,-4.234126984126986,-4.234126984126986,-4.234126984126986,-4.234126984126986,-4.234126984126986,-4.234126984126986,-4.234126984126986,-4.234126984126986,-4.234126984126986,-4.234126984126986,-4.234126984126986,-4.234126984126986,-4.234126984126986,-4.234126984126986,-4.234126984126986,-4.234126984126986,0.4642856658451145,0.33095233251178113,0.20714280870225724,0.08333328489273337,-0.040476238916790516,-0.24047623891679062,-0.373809572250124,-0.5166667151072669,-0.7261905246310766,-0.8404762389167909,-0.9357143341548863,-0.9928571912977434,-1.0690476674882197,-1.1071429055834578,-1.1261905246310768,-1.1452381436786958,-1.1452381436786958,-1.164285762726315,-1.164285762726315,-1.164285762726315,-1.164285762726315,-1.183333381773934,-1.1928571912977435,-1.202381000821553,-1.2214286198691722,-1.2404762389167912,-1.2500000484406006,-1.2595238579644101,-1.2690476674882198,-1.2785714770120293,-1.2785714770120293,-1.2785714770120293,-1.2785714770120293,-1.2785714770120293,-1.2785714770120293,-1.2785714770120293,-1.2785714770120293,-1.2880952865358388,-1.345238143678696,-1.4119048103453626,-1.526190524631077,-1.6214286198691723,-1.7547619532025058,-1.8214286198691725,-1.8880952865358391,-1.9547619532025058,-2.0404762389167916,-2.0976190960596486,-2.1452381436786965,-2.1833333817739344,-2.240476238916792,-2.2880952865358393,-2.3166667151072677,-2.4023810008215536,-2.459523857964411,-2.516666715107268,-2.564285762726316,-2.6309524293929822,-2.6690476674882206,-2.7071429055834586,-2.7261905246310776,-2.7452381436786966,-2.754761953202506,-2.754761953202506,-2.754761953202506,-2.754761953202506,-2.754761953202506,-2.754761953202506,-2.754761953202506,-2.7261905246310776,-2.6880952865358396,-2.6023810008215538,-2.516666715107268,-2.3833333817739346,-2.3166667151072677,-2.240476238916792,-2.1833333817739344,-2.0976190960596486,-2.030952429392982,-1.9452381436786963,-1.850000048440601,-1.7261905246310771,-1.4595238579644103,-1.2690476674882198,-1.0880952865358386,-0.8404762389167909,-0.7166667151072671,-0.6119048103453623,-0.4976190960596479,-0.41190481034536214,0.14999995155940007,0.14999995155940007,0.6928570944165432,0.6928570944165432,0.6928570944165432,0.6928570944165432,0.6928570944165432,0.6928570944165432,0.6928570944165432,0.6928570944165432,0.6928570944165432,0.6928570944165432,0.6928570944165432,0.6928570944165432,0.6928570944165432,0.6928570944165432,0.6928570944165432,0.6928570944165432,0.6928570944165432,0.6928570944165432,0.6928570944165432,0.6928570944165432,0.6928570944165432,0.6928570944165432,0.6928570944165432,0.6928570944165432,0.6928570944165432,0.6928570944165432,0.6928570944165432,0.6928570944165432,0.6928570944165432,0.6928570944165432,0.6928570944165432,0.6928570944165432,0.6928570944165432,0.6928570944165432,0.6928570944165432,0.6928570944165432,0.6928570944165432,0.6928570944165432,0.6928570944165432,0.6928570944165432,0.6928570944165432,0.6928570944165432,0.6928570944165432,0.6928570944165432,0.6928570944165432,0.6928570944165432,0.6928570944165432,0.6928570944165432,0.6928570944165432,0.6928570944165432,0.6928570944165432,0.6928570944165432,0.6928570944165432,0.6928570944165432,0.6928570944165432,0.6928570944165432,0.6928570944165432,0.6928570944165432,0.6928570944165432,0.6928570944165432,0.6928570944165432,0.6928570944165432,0.6833332848927337,0.6071428087022575,0.5309523325117812,0.49285709441654313,0.454761856321305,0.40714280870225733,0.3214285229879716,0.2642856658451144,0.20714280870225724,0.14999995155940007,0.130952332511781,0.09285709441654288,0.07380947536892384,0.035714237273685716,-0.05000004844060005,-0.11666671510726674,-0.19285719129774298,-0.2785714770120287,-0.4214286198691717,-0.535714334154886,-0.6309524293929814,-0.7452381436786957,-0.85952385796441,-0.9261905246310768,-0.9738095722501243,-1.0119048103453625,-1.0309524293929815,-1.0309524293929815,-1.0309524293929815,-1.0309524293929815,-1.0309524293929815,-1.0309524293929815,-1.0309524293929815,-1.0309524293929815,-1.0309524293929815,-1.0309524293929815,-1.0309524293929815,-1.0309524293929815,-1.0309524293929815,-1.0309524293929815,-1.0309524293929815,-1.0309524293929815,-1.0309524293929815,-1.0309524293929815,-1.0309524293929815,-1.0309524293929815,-1.0309524293929815,-1.0309524293929815,-1.0309524293929815,-1.0309524293929815,-1.0309524293929815,-1.0309524293929815,-1.0309524293929815,-1.0309524293929815,-1.0309524293929815,-1.0309524293929815,-1.0309524293929815,-1.0309524293929815,-1.0309524293929815,-1.0309524293929815,-1.0309524293929815,-1.0309524293929815,-1.0309524293929815,-1.0309524293929815,-1.0309524293929815,-1.0309524293929815,-1.0309524293929815,-1.0309524293929815,-1.0309524293929815,-1.0309524293929815,-1.0309524293929815,-1.0309524293929815,-1.0309524293929815,-1.0309524293929815,-1.0309524293929815,-1.0309524293929815,-1.0309524293929815,-1.0309524293929815,-1.0309524293929815,-1.0309524293929815,-1.0309524293929815,-1.0309524293929815,-1.0309524293929815,-1.0309524293929815,-1.0309524293929815,-1.0309524293929815,-1.0309524293929815,-1.0309524293929815,-1.0309524293929815,-1.0309524293929815,-1.0309524293929815,-1.0309524293929815,-1.0309524293929815,-1.0309524293929815,-1.0309524293929815,-1.0309524293929815,-1.0309524293929815,-1.0309524293929815,-1.0309524293929815,-1.0309524293929815,-1.0309524293929815,-1.0309524293929815,-1.0309524293929815,-1.0309524293929815,-1.0309524293929815,-1.0309524293929815,-1.0309524293929815,-1.0309524293929815,-1.0309524293929815,-1.0309524293929815,-1.0309524293929815,-1.0309524293929815,-1.0309524293929815,-1.0309524293929815,-1.0309524293929815,-1.0309524293929815,-1.0309524293929815,-1.0309524293929815,-1.0309524293929815,-1.0309524293929815,-1.0309524293929815,-1.0309524293929815,-1.0309524293929815,-1.0309524293929815,-1.0309524293929815,-1.0309524293929815,-1.0309524293929815,-1.0309524293929815,-1.0309524293929815,-1.0309524293929815,-1.0309524293929815,-1.0309524293929815,-1.0309524293929815,-1.0309524293929815,-1.0309524293929815,-1.0309524293929815,-1.0309524293929815,-1.0309524293929815,-1.0309524293929815,-1.0309524293929815,-1.0309524293929815,-1.0309524293929815,-1.0309524293929815,-1.0309524293929815,-1.0309524293929815,-1.0309524293929815,-1.0309524293929815,-1.0309524293929815,-1.0309524293929815,-1.0309524293929815,-1.0309524293929815,-1.0309524293929815,-1.0309524293929815,-1.0309524293929815,-1.0309524293929815,-1.0309524293929815,-1.0309524293929815,-1.0309524293929815,-1.0309524293929815,-1.0309524293929815,-1.0309524293929815,-1.0309524293929815,-1.0309524293929815,-1.0309524293929815,-1.0309524293929815,-1.0309524293929815,-1.0309524293929815,-1.0309524293929815,-1.0309524293929815,-1.0309524293929815,-1.0309524293929815,-1.0309524293929815,-1.0309524293929815,-1.0309524293929815,-1.0309524293929815,-1.0309524293929815,-1.0309524293929815,-1.0309524293929815,-1.0309524293929815,-1.0309524293929815,-1.0309524293929815,-1.0309524293929815,-1.0309524293929815,-1.0309524293929815,-1.0309524293929815,-1.0309524293929815,-1.0309524293929815,-1.0309524293929815,-1.0309524293929815,-1.0309524293929815,-1.0309524293929815,-1.0309524293929815,-1.0309524293929815,-1.0309524293929815,-1.0309524293929815,-1.0309524293929815,-1.0309524293929815,-1.0309524293929815,-1.0309524293929815,-1.0309524293929815,-1.0309524293929815,-1.0309524293929815,-1.0309524293929815,-1.0309524293929815,-1.0309524293929815,-1.0309524293929815,-1.0309524293929815,-1.0309524293929815,-1.0309524293929815,-1.0309524293929815,-1.0309524293929815,-1.0309524293929815,-1.0309524293929815,-1.0309524293929815,-1.0309524293929815,-1.0309524293929815,-1.0309524293929815,-1.0309524293929815,-1.0309524293929815,-1.0309524293929815,-1.0309524293929815,-1.0309524293929815,-1.0309524293929815,-1.0309524293929815,-1.0309524293929815,-1.0309524293929815,-1.0309524293929815,-1.0309524293929815,-1.0309524293929815,-1.0309524293929815,-1.0309524293929815,-1.0309524293929815,-1.0309524293929815,-1.0309524293929815,-1.0309524293929815,-1.0309524293929815,-1.0309524293929815,-1.0309524293929815,-1.0309524293929815,-1.0309524293929815,-1.0309524293929815,-1.0309524293929815,-1.0309524293929815,-1.0309524293929815,-1.0309524293929815,-1.0309524293929815,-1.0309524293929815,-1.0309524293929815,-1.0309524293929815,-1.0309524293929815,-1.0309524293929815,-1.0309524293929815,-1.0309524293929815,-1.0309524293929815,-1.0309524293929815,-1.0309524293929815,-1.0309524293929815,-1.0309524293929815,-1.0309524293929815,-1.0309524293929815,-1.0309524293929815,-1.0309524293929815,-1.0309524293929815,-1.0309524293929815,-1.0309524293929815,-1.0309524293929815,-1.0309524293929815,-1.0309524293929815,-1.0309524293929815,-1.0309524293929815,-1.0309524293929815,-1.0309524293929815,-1.0309524293929815,-1.0309524293929815,-1.0309524293929815,-1.0309524293929815,-1.0309524293929815,-1.0309524293929815,-1.0309524293929815,-1.0309524293929815,-1.0309524293929815,-1.0309524293929815,-1.0309524293929815,-1.0309524293929815,-1.0309524293929815,-1.0309524293929815,-1.0309524293929815,-1.0309524293929815,-1.0309524293929815,-1.0309524293929815,-1.0309524293929815,-1.0309524293929815,-1.0309524293929815,-1.0309524293929815,-1.0309524293929815,-1.0309524293929815,-1.0309524293929815,-1.0309524293929815,-1.0309524293929815,-1.0309524293929815,-1.0309524293929815,-1.0309524293929815,-1.0309524293929815,-1.0309524293929815,-1.0309524293929815,-1.0309524293929815,-1.0309524293929815,-1.0309524293929815,-1.0309524293929815,-1.0309524293929815,-1.0309524293929815,-1.0309524293929815,-1.0309524293929815,-1.0309524293929815,-1.0309524293929815,-1.0309524293929815,-1.0309524293929815,-1.0309524293929815,-1.0309524293929815,-1.0309524293929815,-1.0309524293929815,-1.0309524293929815,-1.0309524293929815,-1.0309524293929815,-1.0309524293929815,-1.0309524293929815,-1.0309524293929815,-1.0309524293929815,-1.0309524293929815,-1.0309524293929815,-1.0309524293929815,-1.0309524293929815,-1.0309524293929815,-1.0309524293929815,-1.0309524293929815,-1.0309524293929815,-1.0309524293929815,-1.0309524293929815,-1.0309524293929815,-1.0309524293929815,-1.0309524293929815,-1.0309524293929815,-1.0309524293929815,-1.0309524293929815,-1.0309524293929815,-1.0309524293929815,-1.0309524293929815,-1.0309524293929815,-1.0309524293929815,-1.0309524293929815,-1.0309524293929815,-1.0309524293929815,-1.0309524293929815,-1.0309524293929815,-1.0309524293929815,-1.0309524293929815,-1.0309524293929815,-1.0309524293929815,-1.0309524293929815,-1.0309524293929815,-1.0309524293929815,-1.0309524293929815,-1.0309524293929815,-1.0309524293929815,-1.0309524293929815,-1.0309524293929815,-1.0309524293929815,-1.0309524293929815,-1.0309524293929815,-1.0309524293929815,-1.0309524293929815,-1.0309524293929815,-1.0309524293929815,-1.0309524293929815,-1.0309524293929815,-1.0309524293929815,-1.0309524293929815,-1.0309524293929815,-1.0309524293929815,-1.0309524293929815,-1.0690476674882197,-1.2214286198691722,-1.3738095722501247,-1.5452381436786962,-1.7928571912977438,-1.9071429055834581,-1.9833333817739345,-2.011904810345363,-2.0214286198691727,-2.0214286198691727,-2.0214286198691727,-2.0214286198691727,-2.0214286198691727,-2.0214286198691727,-2.0214286198691727,-2.0214286198691727,-2.0214286198691727,-2.0214286198691727,-2.0214286198691727,-2.0023810008215537,-1.9833333817739345,-1.9452381436786963,-1.9071429055834581,-1.811904810345363,-1.7833333817739343,-1.7642857627263153,-1.7642857627263153,-1.7547619532025058,-1.7547619532025058,-1.7547619532025058,-1.7547619532025058,-1.7547619532025058,-1.7547619532025058,-1.7547619532025058,-1.7547619532025058,-1.7547619532025058,-1.7547619532025058,-1.7547619532025058,-1.7547619532025058,-1.7547619532025058,-1.7547619532025058,-1.7547619532025058,-1.7547619532025058,-1.7547619532025058,-1.7547619532025058,-1.7547619532025058,-1.7547619532025058,-1.7547619532025058,-1.7547619532025058,-1.7547619532025058,-1.7547619532025058,-1.7547619532025058,-1.7547619532025058,-1.7547619532025058,-1.7547619532025058,-1.7547619532025058,-1.7547619532025058,-1.7547619532025058,-1.7547619532025058,-1.7547619532025058,-1.7547619532025058,-1.7547619532025058,-1.7547619532025058,-1.7547619532025058,-1.7547619532025058,-1.7547619532025058,-1.7547619532025058,-1.7547619532025058,-1.7547619532025058,-1.7547619532025058,-1.7547619532025058,-1.7547619532025058,-1.7547619532025058,-1.7547619532025058,-1.7547619532025058,-1.7547619532025058,-1.7547619532025058,-1.7547619532025058,-1.7547619532025058,-1.7547619532025058,-1.7547619532025058,-1.7547619532025058,-1.7547619532025058,-1.7547619532025058,-1.7547619532025058,-1.7547619532025058,-1.7547619532025058,-1.7547619532025058,-1.7547619532025058,-1.7547619532025058,-1.7547619532025058,-1.7547619532025058,-1.7547619532025058,-1.7547619532025058,-1.7547619532025058,-1.7547619532025058,-1.7547619532025058,-1.7547619532025058,-1.7547619532025058,-1.7547619532025058,-1.7547619532025058,-1.7547619532025058,-1.7547619532025058,-1.7547619532025058,-1.7547619532025058,-1.7547619532025058,-1.7547619532025058,-1.7547619532025058,-1.7547619532025058,-1.7547619532025058,-1.7547619532025058,-1.7547619532025058,-1.7547619532025058,-1.7547619532025058,-1.7547619532025058,-1.7547619532025058,-1.7547619532025058,-1.7547619532025058,-1.7547619532025058,-1.7547619532025058,-1.7547619532025058,-1.7547619532025058,-1.7547619532025058,-1.7547619532025058,-1.7547619532025058,-1.7547619532025058,-1.7547619532025058,-1.7547619532025058,-1.7547619532025058,-1.7547619532025058,-1.7547619532025058,-1.7547619532025058,-1.7547619532025058,-1.7547619532025058,-1.7547619532025058,-1.7547619532025058,-1.7547619532025058,-1.7547619532025058,-1.7547619532025058,-1.7547619532025058,-1.7547619532025058,-1.7547619532025058,-1.7547619532025058,-1.7547619532025058,-1.7547619532025058,-1.7547619532025058,-1.7547619532025058,-1.7547619532025058,-1.7547619532025058,-1.7547619532025058,-1.7547619532025058,-1.7547619532025058,-1.7547619532025058,-1.7547619532025058,-1.7547619532025058,-1.7547619532025058,-1.7547619532025058,-1.7547619532025058,-1.7547619532025058,-1.7547619532025058,-1.7547619532025058,-1.7547619532025058,-1.7547619532025058,-1.7547619532025058,-1.7547619532025058,-1.7547619532025058,-1.7547619532025058,-1.7547619532025058,-1.7547619532025058,-1.7547619532025058,-1.7547619532025058,-1.7547619532025058,-1.7547619532025058,-1.7547619532025058,-1.7547619532025058,-1.7547619532025058,-1.7547619532025058,-1.7547619532025058,-1.7547619532025058,-1.7547619532025058,-1.7547619532025058,-1.7547619532025058,-1.7547619532025058,-1.7547619532025058,-1.7547619532025058,-1.7547619532025058,-1.7547619532025058,-1.7547619532025058,-1.7547619532025058,-1.7547619532025058,-1.7547619532025058,-1.7547619532025058,-1.7547619532025058,-1.7547619532025058,-1.7547619532025058,-1.7547619532025058,-1.7547619532025058,-1.7547619532025058,-1.7547619532025058,-1.7547619532025058,-1.7547619532025058,-1.7547619532025058,-1.7547619532025058,-1.7547619532025058,-1.7547619532025058,-1.7547619532025058,-1.7547619532025058,-1.7547619532025058,-1.7547619532025058,-1.7547619532025058,-1.7547619532025058,-1.7547619532025058,-1.7547619532025058,-1.7547619532025058,-1.7547619532025058,-1.7547619532025058,-1.7547619532025058,-1.7547619532025058,-1.7547619532025058,-1.7547619532025058,-1.7547619532025058,-1.7547619532025058,-1.7547619532025058,-1.7547619532025058,-1.7547619532025058,-1.7547619532025058,-1.7547619532025058,-1.7547619532025058,-1.7547619532025058,-1.7547619532025058,-1.7547619532025058,-1.7547619532025058,-1.7547619532025058,-1.7547619532025058,-1.7547619532025058,-1.7547619532025058,-1.7547619532025058,-1.7547619532025058,-1.7547619532025058,-1.7547619532025058,-1.7547619532025058,