[{"success":true,"trial_type":"fullscreen","trial_index":0,"time_elapsed":3789,"internal_node_id":"0.0-0.0","protocol_sum":"","subject_identifier":120,"subject_sum":[57,250,158,193,144,238,231,182,244,223,241,16,13,99,67,225,9,24,208,68,199,94,172,143,158,154,37,150,23,63,128,201],"subject_pair":60,"STUDY_ID":"669a702db1122fc5150a13ce","PROLIFIC_PID":"667981b52e50d351183dfbc6","SESSION_ID":"669b0812f8a31bf01a099486","practice_instructions":1,"leaderboard_instructions":0,"bonus":0,"reveal_word":false,"self_rating":"2","confidence":"75"},{"view_history":"[{\"page_index\":0,\"viewing_time\":3040.5}]","rt":3041.0999994277954,"trial_type":"instructions","trial_index":1,"time_elapsed":6832,"internal_node_id":"0.0-1.0","protocol_sum":"","subject_identifier":120,"subject_sum":[57,250,158,193,144,238,231,182,244,223,241,16,13,99,67,225,9,24,208,68,199,94,172,143,158,154,37,150,23,63,128,201],"subject_pair":60,"STUDY_ID":"669a702db1122fc5150a13ce","PROLIFIC_PID":"667981b52e50d351183dfbc6","SESSION_ID":"669b0812f8a31bf01a099486","practice_instructions":1,"leaderboard_instructions":0,"bonus":0,"reveal_word":false,"self_rating":"2","confidence":"75"},{"view_history":"[{\"page_index\":0,\"viewing_time\":24000.300000190735}]","rt":24000.699999809265,"trial_type":"instructions","trial_index":2,"time_elapsed":30833,"internal_node_id":"0.0-2.0-0.0","protocol_sum":"","subject_identifier":120,"subject_sum":[57,250,158,193,144,238,231,182,244,223,241,16,13,99,67,225,9,24,208,68,199,94,172,143,158,154,37,150,23,63,128,201],"subject_pair":60,"STUDY_ID":"669a702db1122fc5150a13ce","PROLIFIC_PID":"667981b52e50d351183dfbc6","SESSION_ID":"669b0812f8a31bf01a099486","practice_instructions":1,"leaderboard_instructions":0,"bonus":0,"reveal_word":false,"self_rating":"2","confidence":"75"},{"rt":10297.199999809265,"responses":"{\"Q0\":\"... reveal the word with as <b>few letter guesses</b> as possible\"}","question_order":"[0]","trial_type":"survey-multi-choice","trial_index":3,"time_elapsed":41133,"internal_node_id":"0.0-2.0-1.0","protocol_sum":"","subject_identifier":120,"subject_sum":[57,250,158,193,144,238,231,182,244,223,241,16,13,99,67,225,9,24,208,68,199,94,172,143,158,154,37,150,23,63,128,201],"subject_pair":60,"correct":true,"test_part":"multichoice_nonpretend","STUDY_ID":"669a702db1122fc5150a13ce","PROLIFIC_PID":"667981b52e50d351183dfbc6","SESSION_ID":"669b0812f8a31bf01a099486","practice_instructions":1,"leaderboard_instructions":0,"bonus":0,"reveal_word":false,"self_rating":"2","confidence":"75"},{"view_history":"[{\"page_index\":0,\"viewing_time\":1979.5}]","rt":1979.8999996185303,"trial_type":"instructions","trial_index":4,"time_elapsed":43114,"internal_node_id":"0.0-3.0","protocol_sum":"","subject_identifier":120,"subject_sum":[57,250,158,193,144,238,231,182,244,223,241,16,13,99,67,225,9,24,208,68,199,94,172,143,158,154,37,150,23,63,128,201],"subject_pair":60,"STUDY_ID":"669a702db1122fc5150a13ce","PROLIFIC_PID":"667981b52e50d351183dfbc6","SESSION_ID":"669b0812f8a31bf01a099486","practice_instructions":1,"leaderboard_instructions":0,"bonus":0,"reveal_word":false,"self_rating":"2","confidence":"75"},{"word":"ZEBRA","click_log":{"letter":["","B","I","A","D","E","Z","R"],"t":[0,10083.400000572205,11446,17812.699999809265,26913.10000038147,28212.60000038147,33765.800000190735,35866.400000572205],"hit":[null,1,0,1,0,1,1,1],"asked":["","B","BI","BIA","BIAD","BIADE","BIADEZ","BIADEZR"],"word_state":["_____","__B__","__B__","__B_A","__B_A","_EB_A","ZEB_A","ZEBRA"]},"hover_log":{"letter":["?","?","?","?","?","?","?","?","?","?","?","?","?","?","?","?","?","?","?","?","?","?","?","?","?","?","?","?","?","?","?","?","?","?","?","?","?","?","?","?","?","?","?","?","?","?","J","?","?","K","?","?","?","?","?","?","?","?","?","?","?","?","?","?","?","?","?","?","?","?","?","?","?","?","?","?","?","?","?","?","?","?","?","?","?","?","?","?","?","?","?","?","?","?","?","?","?","?","?","?","?","?","?","?","?","?","?","?","?","?","?","?","?","?","?","?","?","?","?","?","?","?","?","?","?","?","?","?","?","?","?","?","?","?","?","?","?","?","?","?","?","?","?","?","?","?","?","?","?","?","?","?","?","?","?","?","?","?","?","?","?","?","?","?","?","?","?","?","?","?","?","?","?","?","?","?","?","?","?","?","?","?","?","?","?","?","?","?","?","?","?","?","?","?","?","?","?","?","?","?","?","?","?","?","?","?","?","?","?","?","?","?","?","?","?","?","?","?","?","?","?","?","?","?","?","?","?","?","?","?","?","?","?","?","?","?","?","?","?","?","?","?","?","?","?","?","?","?","?","?","?","?","?","?","?","?","?","?","?","?","?","?","?","?","?","?","?","?","?","?","?","?","?","?","?","?","?","?","?","?","?","?","?","?","?","?","?","?","?","?","?","?","?","?","?","?","?","?","?","?","?","?","?","?","?","?","?","?","?","?","?","?","?","?","?","?","?","?","?","?","?","?","?","?","?","?","?","?","?","?","?","?","?","?","?","?","?","?","?","?","?","?","?","?","?","?","?","?","?","?","?","?","?","?","?","?","?","?","?","?","?","?","?","?","?","?","?","?","?","?","?","?","?","?","?","?","?","?","?","?","?","?","?","?","?","?","?","?","?","?","?","?","?","?","?","?","?","?","?","?","?","?","?","?","?","?","?","?","?","?","?","?","?","?","?","?","?","?","?","?","?","?","?","?","?","?","?","?","?","?","?","?","?","?","?","?","?","?","?","?","?","?","?","?","?","?","?","?","?","?","?","?","?","?","?","?","?","?","?","?","?","?","?","?","?","?","?","?","?","?","?","?","?","?","?","?","?","?","?","?","?","?","?","?","?","?","?","?","?","?","?","?","?","?","?","?","?","?","?","?","?","?","?","?","?","?","?","L","L","L","?","?","V","V","V","V","V","V","V","V","V","V","V","V","?","?","?","M","M","M","M","M","M","M","M","M","M","M","M","M","M","M","M","M","M","M","M","M","M","M","M","?","?","D","D","D","D","D","D","D","D","D","?","?","C","C","C","C","C","C","C","C","C","C","C","C","C","C","C","C","C","C","?","?","?","?","B","B","B","B","B","B","B","B","B","B","B","B","B","B","B","B","B","B","B","B","B","B","B","B","B","B","B","B","B","B","B","B","B","B","B","C","D","E","?","F","?","?","?","?","?","?","?","?","?","?","?","?","?","?","?","?","?","?","?","?","?","G","G","G","G","G","G","G","G","?","H","H","H","H","H","H","?","?","?","I","I","I","I","I","I","I","I","I","I","I","I","I","I","I","I","I","I","I","I","I","I","I","I","I","I","I","I","I","I","I","I","I","I","I","I","I","I","I","I","I","I","I","I","I","I","I","I","I","I","I","I","I","I","I","I","I","I","I","I","I","I","I","I","I","I","I","I","I","I","I","I","I","I","I","I","I","I","I","I","I","I","I","I","I","I","I","I","I","I","I","I","I","I","I","I","I","I","I","I","I","I","I","I","I","I","I","I","I","I","I","I","I","I","I","I","I","I","I","I","I","I","I","I","I","I","I","I","I","I","I","I","I","I","I","?","?","?","G","G","?","F","F","F","F","F","F","F","F","F","F","F","F","F","F","F","F","F","F","F","F","F","?","E","E","E","E","E","E","E","E","E","E","E","E","E","E","E","E","E","E","E","E","E","E","E","E","E","E","E","E","E","E","E","E","E","E","E","E","E","E","E","E","E","E","E","E","E","E","E","E","E","E","E","E","E","E","E","E","E","E","?","?","?","?","?","?","?","?","?","?","?","?","?","?","?","?","?","?","?","?","?","?","?","?","?","?","?","?","?","?","?","?","?","?","?","?","?","?","?","?","?","?","?","?","?","?","?","?","?","?","?","?","?","?","?","?","?","?","?","?","?","?","?","?","?","?","?","?","?","?","?","?","?","?","?","?","?","?","?","?","?","?","?","?","?","?","?","?","?","?","?","?","?","?","?","?","?","?","?","?","?","?","?","?","?","?","?","?","?","?","?","?","?","?","?","?","?","?","?","?","?","?","?","?","?","?","?","?","?","?","?","?","?","?","?","?","?","?","?","?","?","?","?","?","?","?","?","?","?","?","?","?","D","?","B","B","B","A","A","A","A","A","A","A","A","A","A","A","A","A","A","A","A","A","A","A","A","A","A","A","A","A","A","A","A","A","A","A","A","A","A","A","A","A","A","A","A","A","A","A","A","A","A","A","A","A","A","A","A","A","A","A","A","A","A","A","A","A","A","A","A","A","A","A","A","A","A","A","A","A","A","A","A","A","A","A","A","A","A","A","A","A","A","A","A","A","A","A","A","A","A","A","A","A","A","A","A","A","A","A","A","A","A","A","A","A","A","A","A","A","A","A","A","A","A","A","A","A","A","A","A","A","A","A","A","A","A","A","A","A","A","A","A","A","A","A","A","A","A","A","A","A","A","A","A","A","A","A","A","A","A","A","A","A","A","A","A","A","A","A","A","A","A","A","A","B","?","?","O","P","?","Q","Q","?","?","?","?","?","?","?","?","?","?","?","?","?","?","?","?","?","?","?","?","?","?","?","?","?","?","?","?","?","?","?","?","?","?","?","?","?","?","?","?","?","?","?","?","?","?","?","?","?","?","?","?","?","?","?","?","?","?","?","?","?","?","?","?","?","?","?","?","?","?","?","?","?","?","?","?","?","?","?","?","?","?","?","?","?","?","?","?","?","?","?","?","?","?","?","?","?","?","?","?","?","?","?","?","?","?","?","?","?","?","?","?","?","?","?","?","?","?","?","?","?","?","?","?","?","?","?","?","?","?","?","?","?","?","?","?","?","?","?","?","?","?","?","?","?","?","?","?","?","?","?","?","?","?","?","?","?","?","?","?","?","?","?","?","?","?","?","?","W","W","W","W","W","W","W","W","W","W","W","W","W","W","W","W","W","W","W","?","?","?","N","N","?","?","?","D","D","D","D","D","D","D","D","D","D","D","D","D","D","D","D","D","D","D","D","D","D","D","D","D","D","D","D","D","D","D","D","D","D","D","D","D","D","D","D","D","D","D","D","D","D","D","D","D","D","D","D","D","D","D","D","D","D","D","D","D","D","D","D","D","D","D","D","D","D","D","D","D","D","D","D","D","D","D","D","D","D","D","D","D","D","D","D","D","D","D","D","D","D","D","D","D","D","D","D","D","D","D","D","D","D","D","D","D","D","D","D","D","D","D","D","D","D","D","D","D","D","D","D","D","D","D","D","D","D","D","D","D","D","D","D","D","D","D","D","D","D","D","D","D","D","D","D","D","D","D","D","D","D","D","D","D","D","D","D","D","D","D","D","D","D","D","D","D","D","D","D","D","D","D","D","D","D","D","D","D","D","D","D","D","D","D","D","D","D","D","D","D","D","D","D","D","D","D","D","D","D","D","D","D","D","D","D","D","D","D","D","D","D","D","D","D","D","D","D","D","D","D","D","D","D","D","D","D","D","D","D","D","D","D","D","D","D","D","D","D","?","E","E","E","E","E","E","E","E","E","E","E","E","E","E","E","E","E","E","E","E","E","E","E","E","E","E","E","E","E","E","E","E","E","E","E","E","E","E","E","E","E","E","E","E","E","E","E","E","E","E","E","E","E","E","E","E","E","E","E","E","E","E","E","E","E","E","E","E","E","E","E","E","E","E","E","E","E","E","E","E","E","E","E","E","E","E","E","E","E","E","E","E","E","E","E","E","E","E","E","E","E","E","E","E","E","E","E","E","E","E","E","E","E","E","E","E","?","?","?","?","?","?","?","?","?","?","?","?","?","?","?","?","?","?","?","?","?","?","?","?","?","?","?","?","?","?","?","?","?","?","?","?","?","?","?","?","?","?","?","?","?","?","?","?","?","?","?","?","?","?","?","?","?","?","?","?","?","?","?","?","?","?","?","?","?","?","?","?","?","?","?","?","?","?","?","?","?","?","?","?","?","?","?","?","?","?","?","?","?","?","?","?","?","?","?","?","?","?","?","?","?","?","?","?","?","?","?","?","?","?","?","?","?","?","?","?","?","?","?","?","?","?","?","?","?","?","?","?","?","?","?","?","?","?","?","?","?","?","?","?","?","?","?","?","?","?","?","?","?","?","?","?","?","?","?","?","?","?","?","?","?","?","?","?","?","?","?","?","?","?","?","?","?","?","?","?","?","?","?","?","?","?","?","?","D","?","L","?","?","?","?","?","?","?","?","?","?","?","?","?","U","V","?","X","X","Y","Y","Y","Y","Y","Y","Y","Y","Y","Y","Y","Y","?","Z","Z","Z","Z","Z","Z","Z","Z","Z","Z","Z","Z","Z","Z","Z","Z","Z","Z","Z","Z","Z","Z","Z","Z","Z","Z","Z","Z","Z","Z","Z","Z","Z","Z","Z","Z","Z","Z","Z","Z","Z","Z","Z","Z","Z","Z","Z","Z","Z","Z","Z","Z","Z","Z","Z","Z","Z","Z","Z","Z","Z","Z","Z","Z","Z","Z","Z","Z","Z","Z","Z","Z","?","?","?","O","O","N","N","?","?","?","M","M","M","M","M","M","M","M","M","M","M","M","M","M","M","M","?","?","?","L","L","L","L","L","?","?","?","L","L","M","N","O","O","P","P","P","P","P","P","P","P","P","P","P","P","P","P","?","Q","Q","?","R","R","R","R","R","R","R","R","R","R","R","R","R","R","R","R","R","R","R","R","R","R","R","R","R","R","R","R","R","R","R","R","R","R","R","R","R","R","R","R","R","R","R","R","R","R","R","R","R","R","R","R","R","R","R","R","R","R","R","R","R","R","R","R","R","R","R","R","R","R","R","R","R","R","R","R","R","R","R","R","R","R","R","R","R","R","R","R","R","R","R","R","R","R","R","R","R","R","R","R","R","R","R","R","R","R","R","R","R","R","R","R","R","R","R","R","R","R","R","R","R","R","R","R","R","R","R","R","R","R","R","R","R","R","R","R","R","R","R","R","R","R","R","R","R"],"t":[26,32,47,64,79,96,113,130,147,165,181,198,214,232,248,265,281,299,315,331,348,364,381,398,414,430,452,464,480,498,514,531,547,564,581,597,614,631,647,664,681,698,714,731,747,764,782,798,814,831,847,864,881,899,915,931,948,965,981,998,1014,1032,1048,1065,1082,1099,1116,1132,1149,1165,1182,1199,1215,1232,1249,1265,1282,1299,1314,1331,1348,1365,1382,1399,1415,1432,1449,1465,1482,1497,1513,1531,1547,1564,1581,1598,1614,1631,1648,1665,1681,1698,1715,1732,1749,1764,1781,1797,1815,1832,1848,1865,1882,1898,1915,1932,1948,1965,1982,1998,2014,2032,2048,2064,2081,2097,2115,2132,2148,2165,2182,2198,2215,2232,2248,2265,2281,2297,2315,2332,2348,2365,2382,2399,2415,2430,2449,2464,2481,2497,2515,2530,2547,2565,2580,2598,2615,2632,2648,2664,2681,2698,2714,2731,2747,2764,2781,2797,2815,2830,2847,2864,2881,2898,2914,2931,2948,2965,2982,2998,3014,3030,3047,3064,3080,3098,3115,3132,3148,3164,3180,3199,3214,3232,3247,3265,3281,3298,3315,3331,3347,3364,3381,3397,3415,3432,3448,3464,3481,3497,3515,3531,3548,3564,3581,3597,3614,3630,3648,3665,3680,3697,3714,3731,3748,3765,3781,3797,3815,3832,3848,3865,3881,3898,3914,3931,3948,3963,3981,3998,4014,4030,4048,4064,4082,4098,4114,4131,4147,4164,4181,4198,4215,4231,4247,4264,4280,4298,4314,4331,4348,4364,4380,4398,4415,4431,4448,4464,4481,4497,4513,4530,4547,4563,4581,4597,4614,4631,4648,4665,4681,4697,4714,4731,4748,4764,4781,4798,4815,4831,4847,4864,4881,4897,4914,4930,4948,4965,4981,4998,5015,5031,5048,5065,5081,5096,5115,5131,5148,5165,5181,5198,5215,5231,5247,5264,5280,5298,5315,5331,5347,5364,5380,5397,5415,5431,5448,5464,5481,5497,5515,5531,5548,5565,5580,5598,5614,5631,5648,5665,5681,5698,5715,5730,5748,5763,5781,5798,5815,5831,5848,5863,5881,5898,5915,5931,5948,5965,5981,5998,6015,6031,6047,6065,6080,6096,6113,6131,6148,6165,6181,6198,6215,6231,6248,6265,6281,6297,6315,6331,6348,6365,6382,6397,6415,6431,6448,6464,6479,6497,6515,6532,6548,6565,6580,6597,6615,6630,6646,6663,6680,6697,6715,6731,6748,6765,6781,6798,6815,6830,6848,6864,6880,6897,6914,6931,6948,6965,6982,6998,7015,7031,7048,7064,7081,7098,7115,7130,7148,7165,7181,7197,7214,7231,7248,7265,7281,7298,7315,7331,7348,7364,7381,7398,7415,7431,7448,7465,7481,7497,7514,7531,7548,7565,7580,7597,7613,7632,7647,7664,7681,7698,7715,7731,7747,7765,7781,7797,7815,7832,7847,7865,7881,7897,7914,7931,7948,7965,7981,7998,8015,8031,8047,8065,8081,8098,8115,8131,8147,8165,8181,8197,8214,8231,8247,8264,8281,8298,8315,8331,8348,8365,8382,8398,8414,8431,8447,8465,8480,8497,8514,8531,8547,8563,8581,8596,8613,8630,8648,8664,8681,8697,8714,8730,8747,8764,8780,8797,8814,8831,8848,8864,8880,8897,8914,8929,8947,8964,8981,8998,9013,9031,9048,9064,9080,9097,9114,9131,9148,9164,9179,9197,9214,9230,9248,9264,9281,9298,9314,9331,9348,9364,9380,9397,9413,9431,9448,9464,9481,9498,9513,9531,9547,9564,9580,9596,9613,9631,9647,9664,9681,9697,9714,9731,9746,9763,9781,9798,9814,9830,9847,9863,9881,9898,9915,9931,9947,9964,9980,9998,10014,10031,10048,10064,10082,10098,10115,10131,10147,10163,10181,10198,10214,10232,10248,10265,10281,10298,10314,10332,10348,10364,10380,10398,10413,10431,10447,10464,10481,10496,10513,10530,10547,10564,10581,10597,10614,10630,10646,10663,10680,10698,10715,10731,10748,10765,10780,10798,10813,10831,10848,10865,10881,10897,10913,10931,10947,10964,10981,10997,11014,11031,11047,11064,11081,11098,11115,11131,11147,11164,11181,11197,11213,11231,11248,11264,11281,11298,11314,11331,11347,11364,11381,11398,11413,11431,11448,11464,11481,11498,11515,11531,11548,11565,11580,11597,11614,11631,11648,11665,11681,11698,11715,11731,11748,11764,11782,11798,11815,11832,11848,11865,11882,11898,11914,11932,11949,11965,11982,11997,12015,12030,12048,12065,12082,12099,12114,12131,12147,12164,12182,12198,12215,12231,12248,12265,12282,12297,12315,12332,12348,12364,12381,12398,12415,12432,12448,12465,12481,12498,12514,12531,12548,12565,12581,12598,12615,12632,12648,12665,12681,12697,12714,12731,12749,12765,12782,12798,12814,12832,12847,12864,12881,12897,12914,12931,12947,12965,12981,12997,13015,13032,13049,13064,13082,13097,13115,13132,13148,13165,13181,13198,13215,13231,13248,13265,13281,13297,13315,13331,13347,13364,13381,13397,13413,13431,13448,13464,13481,13498,13514,13531,13548,13565,13581,13597,13615,13631,13646,13663,13681,13698,13715,13731,13748,13765,13780,13797,13815,13832,13848,13865,13881,13897,13915,13931,13948,13964,13981,13998,14014,14030,14048,14065,14081,14098,14115,14131,14148,14165,14181,14197,14214,14231,14248,14265,14281,14297,14315,14332,14347,14365,14382,14399,14415,14431,14447,14464,14481,14498,14515,14532,14548,14564,14581,14598,14615,14632,14648,14665,14681,14698,14715,14731,14749,14764,14781,14798,14815,14831,14848,14864,14881,14898,14915,14931,14946,14964,14980,14998,15014,15031,15048,15064,15081,15098,15113,15130,15148,15165,15180,15197,15215,15231,15248,15264,15282,15298,15315,15331,15347,15364,15380,15397,15414,15432,15448,15464,15481,15498,15513,15530,15548,15564,15580,15598,15613,15630,15648,15664,15681,15697,15715,15731,15747,15764,15781,15798,15814,15831,15848,15864,15881,15897,15915,15931,15948,15964,15981,15998,16014,16031,16047,16065,16080,16098,16114,16130,16148,16164,16181,16198,16215,16231,16248,16265,16281,16298,16315,16331,16348,16365,16382,16398,16414,16431,16447,16465,16481,16498,16514,16531,16547,16563,16580,16596,16614,16630,16648,16665,16681,16698,16715,16731,16747,16765,16780,16797,16814,16831,16848,16865,16882,16898,16915,16931,16948,16963,16981,16997,17014,17031,17048,17064,17081,17098,17114,17131,17147,17164,17181,17198,17215,17230,17248,17265,17282,17298,17314,17331,17348,17364,17381,17397,17414,17431,17448,17465,17481,17497,17514,17532,17548,17564,17581,17597,17614,17631,17647,17665,17681,17697,17715,17731,17748,17764,17780,17798,17815,17831,17848,17864,17880,17898,17915,17931,17948,17965,17981,17997,18015,18031,18048,18064,18080,18097,18115,18131,18148,18165,18181,18198,18214,18232,18247,18265,18282,18298,18315,18331,18349,18365,18382,18398,18415,18432,18449,18465,18482,18499,18514,18530,18547,18564,18580,18598,18614,18631,18649,18664,18681,18698,18715,18731,18748,18765,18782,18798,18814,18832,18848,18865,18882,18897,18915,18931,18948,18964,18981,18997,19014,19032,19048,19065,19080,19098,19115,19131,19147,19165,19182,19198,19215,19232,19248,19265,19282,19299,19315,19332,19348,19365,19381,19398,19414,19431,19448,19465,19482,19498,19515,19531,19547,19564,19581,19598,19615,19631,19648,19665,19680,19698,19715,19732,19748,19765,19782,19798,19814,19831,19848,19865,19882,19899,19915,19932,19949,19965,19982,19998,20015,20032,20048,20064,20081,20098,20115,20132,20148,20164,20181,20198,20214,20230,20248,20265,20281,20298,20314,20331,20348,20365,20381,20398,20415,20431,20448,20464,20481,20498,20515,20531,20547,20564,20581,20597,20614,20631,20647,20665,20680,20699,20715,20732,20748,20765,20782,20798,20814,20832,20848,20865,20882,20899,20915,20932,20949,20964,20980,20997,21014,21031,21048,21064,21081,21099,21115,21132,21148,21165,21182,21199,21215,21232,21248,21265,21282,21299,21314,21332,21348,21365,21382,21398,21415,21431,21449,21464,21482,21499,21514,21531,21548,21565,21581,21598,21614,21631,21648,21665,21681,21698,21715,21732,21748,21764,21782,21797,21815,21832,21848,21865,21882,21898,21915,21932,21949,21965,21982,21999,22015,22032,22049,22065,22082,22099,22115,22132,22147,22165,22182,22198,22215,22232,22248,22265,22282,22299,22315,22332,22349,22365,22382,22398,22415,22432,22448,22465,22481,22498,22515,22531,22547,22564,22580,22597,22614,22631,22649,22665,22681,22697,22714,22731,22747,22765,22781,22798,22814,22831,22849,22864,22882,22898,22914,22931,22947,22964,22981,22997,23014,23031,23047,23064,23081,23098,23114,23132,23148,23165,23181,23198,23214,23231,23248,23264,23281,23298,23315,23331,23348,23365,23381,23398,23414,23431,23448,23464,23481,23498,23515,23531,23547,23565,23580,23597,23614,23631,23648,23664,23681,23698,23715,23731,23747,23765,23781,23798,23815,23832,23847,23865,23881,23898,23915,23931,23947,23964,23980,23997,24015,24030,24048,24064,24081,24098,24115,24132,24148,24165,24181,24197,24215,24231,24247,24265,24281,24298,24315,24332,24348,24365,24381,24397,24414,24432,24449,24464,24482,24497,24515,24530,24548,24565,24581,24597,24615,24631,24648,24664,24681,24698,24715,24731,24748,24765,24782,24799,24814,24832,24849,24865,24882,24898,24914,24932,24949,24965,24982,24998,25014,25031,25047,25064,25080,25099,25115,25132,25149,25165,25182,25198,25214,25232,25249,25266,25281,25297,25314,25331,25347,25364,25381,25397,25414,25430,25447,25464,25481,25497,25514,25530,25547,25564,25581,25597,25614,25631,25648,25665,25681,25699,25714,25732,25748,25765,25782,25799,25815,25832,25848,25864,25882,25899,25915,25932,25949,25965,25982,25998,26015,26031,26047,26065,26082,26098,26115,26131,26148,26164,26181,26198,26215,26231,26248,26265,26282,26298,26315,26332,26348,26365,26381,26398,26415,26432,26448,26464,26481,26498,26515,26532,26548,26565,26581,26597,26613,26630,26648,26665,26681,26698,26715,26731,26751,26764,26781,26798,26815,26831,26848,26864,26880,26898,26914,26931,26948,26964,26981,26997,27014,27031,27047,27064,27081,27098,27115,27131,27148,27165,27182,27199,27215,27232,27249,27265,27282,27299,27315,27331,27349,27365,27382,27399,27415,27431,27447,27464,27481,27498,27515,27532,27548,27565,27581,27597,27615,27631,27647,27664,27681,27698,27714,27730,27748,27765,27782,27798,27814,27831,27848,27865,27882,27898,27915,27931,27948,27965,27981,27997,28015,28031,28048,28065,28081,28097,28115,28132,28147,28165,28180,28198,28215,28231,28248,28264,28281,28298,28315,28331,28348,28365,28382,28398,28414,28431,28446,28463,28481,28498,28515,28531,28547,28565,28581,28597,28614,28632,28648,28665,28681,28698,28715,28732,28748,28765,28781,28798,28815,28832,28848,28865,28882,28898,28915,28931,28948,28965,28980,28999,29015,29032,29048,29064,29081,29098,29114,29132,29148,29165,29182,29199,29216,29231,29247,29264,29281,29298,29315,29331,29349,29364,29382,29398,29415,29432,29448,29465,29482,29498,29515,29532,29547,29564,29581,29597,29614,29631,29648,29664,29681,29698,29715,29731,29748,29764,29782,29798,29815,29832,29849,29865,29880,29897,29913,29931,29948,29965,29981,29998,30015,30031,30047,30065,30081,30097,30115,30131,30147,30164,30181,30198,30215,30232,30248,30265,30282,30298,30315,30331,30348,30365,30381,30398,30415,30431,30448,30465,30481,30498,30515,30532,30548,30565,30581,30597,30615,30631,30648,30665,30680,30698,30715,30731,30748,30764,30782,30797,30813,30831,30848,30865,30881,30898,30915,30931,30947,30965,30981,30998,31015,31031,31048,31064,31081,31096,31114,31132,31148,31165,31182,31198,31216,31232,31249,31266,31282,31298,31314,31331,31348,31365,31382,31399,31414,31432,31448,31464,31482,31498,31515,31532,31549,31566,31581,31598,31615,31632,31648,31666,31682,31699,31715,31732,31749,31765,31782,31799,31815,31832,31848,31865,31882,31899,31915,31932,31948,31965,31982,31999,32015,32032,32049,32065,32082,32099,32115,32132,32149,32166,32182,32199,32215,32232,32248,32265,32282,32299,32315,32332,32349,32364,32382,32399,32415,32432,32449,32465,32482,32499,32515,32531,32548,32565,32583,32597,32613,32630,32648,32665,32681,32698,32715,32732,32748,32763,32781,32798,32815,32832,32848,32865,32882,32899,32915,32931,32949,32965,32980,32998,33014,33031,33048,33064,33081,33098,33113,33130,33148,33165,33182,33198,33215,33231,33248,33264,33280,33298,33315,33332,33348,33364,33381,33397,33415,33431,33448,33464,33480,33498,33515,33532,33547,33565,33581,33597,33615,33631,33647,33664,33681,33698,33715,33731,33747,33765,33782,33798,33815,33831,33848,33865,33882,33897,33915,33932,33948,33965,33982,33999,34015,34032,34048,34065,34082,34099,34115,34131,34149,34165,34180,34198,34216,34232,34248,34265,34282,34298,34315,34332,34348,34365,34381,34397,34415,34431,34448,34465,34481,34497,34515,34531,34547,34565,34581,34598,34613,34631,34647,34664,34680,34697,34715,34732,34749,34765,34782,34798,34815,34832,34848,34865,34880,34898,34915,34932,34947,34965,34980,34997,35015,35031,35048,35065,35081,35098,35115,35131,35148,35165,35182,35198,35215,35231,35248,35264,35282,35298,35314,35331,35347,35365,35382,35398,35415,35431,35448,35465,35481,35497,35514,35531,35548,35564,35581,35598,35615,35631,35648,35664,35682,35698,35714,35731,35749,35765,35781,35798,35815,35830,35848,35865,35885,35898,35913,35931,35948,35965,35982,35999,36016,36032,36049,36065,36082,36098,36116,36132,36149,36165,36181,36199,36216,36232,36249,36265,36283,36299,36316,36332,36348,36364,36382,36399,36416,36433,36449,36466,36482,36499,36516,36532,36548,36565,36582,36603,36632,36648,36665,36682,36699,36715,36732,36748,36765,36782,36799,36814,36832,36848,36865,36882,36899,36915,36932,36947,36965,36982,36997,37014,37032,37049,37065,37081,37098,37114,37131,37148,37164,37182,37199,37215,37232,37249,37265,37282,37297,37315,37332,37349,37365,37382,37398,37414,37432,37448,37465,37480,37497,37515,37531,37548,37566,37580,37598,37613,37632,37648,37665,37681,37697,37715,37732,37749,37765,37782,37799,37815,37832,37849,37865,37883],"hit":[null],"x":[-1.8775510204081634,-1.8775510204081634,-1.8775510204081634,-1.8775510204081634,-1.8775510204081634,-1.8775510204081634,-1.8775510204081634,-1.8775510204081634,-1.8775510204081634,-1.8775510204081634,-1.8775510204081634,-1.8775510204081634,-1.8775510204081634,-1.8775510204081634,-1.8775510204081634,-1.8775510204081634,-1.8775510204081634,-1.8775510204081634,-1.8775510204081634,-1.8775510204081634,-1.8775510204081634,-1.8775510204081634,-1.8775510204081634,-1.8775510204081634,-1.8775510204081634,-1.8775510204081634,-1.8775510204081634,-1.8775510204081634,-1.8775510204081634,-1.8775510204081634,-1.8775510204081634,-1.8775510204081634,-1.8775510204081634,-1.8775510204081634,-1.8775510204081634,-1.8775510204081634,-1.8775510204081634,-1.8775510204081634,-1.8775510204081634,-1.8775510204081634,-1.8775510204081634,-1.8775510204081634,-1.8775510204081634,-1.8775510204081634,-1.8775510204081634,-1.8775510204081634,0.02040816326530612,0.06462585034013606,0.0782312925170068,0.14625850340136054,0.17006802721088435,0.19047619047619047,0.20068027210884354,0.20408163265306123,0.20408163265306123,0.20408163265306123,0.20408163265306123,0.20408163265306123,0.20408163265306123,0.20408163265306123,0.20408163265306123,0.20408163265306123,0.20408163265306123,0.20408163265306123,0.20408163265306123,0.20408163265306123,0.20408163265306123,0.20408163265306123,0.20408163265306123,0.20408163265306123,0.20408163265306123,0.20408163265306123,0.20408163265306123,0.20408163265306123,0.20408163265306123,0.20408163265306123,0.20408163265306123,0.20408163265306123,0.20408163265306123,0.20408163265306123,0.20408163265306123,0.20408163265306123,0.20408163265306123,0.20408163265306123,0.20408163265306123,0.20408163265306123,0.20408163265306123,0.20408163265306123,0.20408163265306123,0.20408163265306123,0.20408163265306123,0.20408163265306123,0.20408163265306123,0.20408163265306123,0.20408163265306123,0.20408163265306123,0.20408163265306123,0.20408163265306123,0.20408163265306123,0.20408163265306123,0.20408163265306123,0.20408163265306123,0.20408163265306123,0.20408163265306123,0.20408163265306123,0.20408163265306123,0.20408163265306123,0.20408163265306123,0.20408163265306123,0.20408163265306123,0.20408163265306123,0.20408163265306123,0.20408163265306123,0.20408163265306123,0.20408163265306123,0.20408163265306123,0.20408163265306123,0.20408163265306123,0.20408163265306123,0.20408163265306123,0.20408163265306123,0.20408163265306123,0.20408163265306123,0.20408163265306123,0.20408163265306123,0.20408163265306123,0.20408163265306123,0.20408163265306123,0.20408163265306123,0.20408163265306123,0.20408163265306123,0.20408163265306123,0.20408163265306123,0.20408163265306123,0.20408163265306123,0.20408163265306123,0.20408163265306123,0.20408163265306123,0.20408163265306123,0.20408163265306123,0.20408163265306123,0.20408163265306123,0.20408163265306123,0.20408163265306123,0.20408163265306123,0.20408163265306123,0.20408163265306123,0.20408163265306123,0.20408163265306123,0.20408163265306123,0.20408163265306123,0.20408163265306123,0.20408163265306123,0.20408163265306123,0.20408163265306123,0.20408163265306123,0.20408163265306123,0.20408163265306123,0.20408163265306123,0.20408163265306123,0.20408163265306123,0.20408163265306123,0.20408163265306123,0.20408163265306123,0.20408163265306123,0.20408163265306123,0.20408163265306123,0.20408163265306123,0.20408163265306123,0.20408163265306123,0.20408163265306123,0.20408163265306123,0.20408163265306123,0.20408163265306123,0.20408163265306123,0.20408163265306123,0.20408163265306123,0.20408163265306123,0.20408163265306123,0.20408163265306123,0.20408163265306123,0.20408163265306123,0.20408163265306123,0.20408163265306123,0.20408163265306123,0.20408163265306123,0.20408163265306123,0.20408163265306123,0.20408163265306123,0.20408163265306123,0.20408163265306123,0.20408163265306123,0.20408163265306123,0.20408163265306123,0.20408163265306123,0.20408163265306123,0.20408163265306123,0.20408163265306123,0.20408163265306123,0.20408163265306123,0.20408163265306123,0.20408163265306123,0.20408163265306123,0.20408163265306123,0.20408163265306123,0.20408163265306123,0.20408163265306123,0.20408163265306123,0.20408163265306123,0.20408163265306123,0.20408163265306123,0.20408163265306123,0.20408163265306123,0.20408163265306123,0.20408163265306123,0.20408163265306123,0.20408163265306123,0.20408163265306123,0.20408163265306123,0.20408163265306123,0.20408163265306123,0.20408163265306123,0.20408163265306123,0.20408163265306123,0.20408163265306123,0.20408163265306123,0.20408163265306123,0.20408163265306123,0.20408163265306123,0.20408163265306123,0.20408163265306123,0.20408163265306123,0.20408163265306123,0.20408163265306123,0.20408163265306123,0.20408163265306123,0.20408163265306123,0.20408163265306123,0.20408163265306123,0.20408163265306123,0.20408163265306123,0.20408163265306123,0.20408163265306123,0.20408163265306123,0.20408163265306123,0.20408163265306123,0.20408163265306123,0.20408163265306123,0.20408163265306123,0.20408163265306123,0.20408163265306123,0.20408163265306123,0.20408163265306123,0.20408163265306123,0.20408163265306123,0.20408163265306123,0.20408163265306123,0.20408163265306123,0.20408163265306123,0.20408163265306123,0.20408163265306123,0.20408163265306123,0.20408163265306123,0.20408163265306123,0.20408163265306123,0.20408163265306123,0.20408163265306123,0.20408163265306123,0.20408163265306123,0.20408163265306123,0.20408163265306123,0.20408163265306123,0.20408163265306123,0.20408163265306123,0.20408163265306123,0.20408163265306123,0.20408163265306123,0.20408163265306123,0.20408163265306123,0.20408163265306123,0.20408163265306123,0.20408163265306123,0.20408163265306123,0.20408163265306123,0.20408163265306123,0.20408163265306123,0.20408163265306123,0.20408163265306123,0.20408163265306123,0.20408163265306123,0.20408163265306123,0.20408163265306123,0.20408163265306123,0.20408163265306123,0.20408163265306123,0.20408163265306123,0.20408163265306123,0.20408163265306123,0.20408163265306123,0.20408163265306123,0.20408163265306123,0.20408163265306123,0.20408163265306123,0.20408163265306123,0.20408163265306123,0.20408163265306123,0.20408163265306123,0.20408163265306123,0.20408163265306123,0.20408163265306123,0.20408163265306123,0.20408163265306123,0.20408163265306123,0.20408163265306123,0.20408163265306123,0.20408163265306123,0.20408163265306123,0.20408163265306123,0.20408163265306123,0.20408163265306123,0.20408163265306123,0.20408163265306123,0.20408163265306123,0.20408163265306123,0.20408163265306123,0.20408163265306123,0.20408163265306123,0.20408163265306123,0.20408163265306123,0.20408163265306123,0.20408163265306123,0.20408163265306123,0.20408163265306123,0.20408163265306123,0.20408163265306123,0.20408163265306123,0.20408163265306123,0.20408163265306123,0.20408163265306123,0.20408163265306123,0.20408163265306123,0.20408163265306123,0.20408163265306123,0.20408163265306123,0.20408163265306123,0.20408163265306123,0.20408163265306123,0.20408163265306123,0.20408163265306123,0.20408163265306123,0.20408163265306123,0.20408163265306123,0.20408163265306123,0.20408163265306123,0.20408163265306123,0.20408163265306123,0.20408163265306123,0.20408163265306123,0.20408163265306123,0.20408163265306123,0.20408163265306123,0.20408163265306123,0.20408163265306123,0.20408163265306123,0.20408163265306123,0.20408163265306123,0.20408163265306123,0.20408163265306123,0.20408163265306123,0.20408163265306123,0.20408163265306123,0.20408163265306123,0.20408163265306123,0.20408163265306123,0.20408163265306123,0.20408163265306123,0.20408163265306123,0.20408163265306123,0.20408163265306123,0.20408163265306123,0.20408163265306123,0.20408163265306123,0.20408163265306123,0.20408163265306123,0.20408163265306123,0.20408163265306123,0.20408163265306123,0.20408163265306123,0.20408163265306123,0.20408163265306123,0.20408163265306123,0.20408163265306123,0.20408163265306123,0.20408163265306123,0.20408163265306123,0.20408163265306123,0.20408163265306123,0.20408163265306123,0.20408163265306123,0.20408163265306123,0.20408163265306123,0.20408163265306123,0.20408163265306123,0.20408163265306123,0.20408163265306123,0.20408163265306123,0.20408163265306123,0.20408163265306123,0.20408163265306123,0.20408163265306123,0.20408163265306123,0.20408163265306123,0.20408163265306123,0.20408163265306123,0.20408163265306123,0.20408163265306123,0.20408163265306123,0.20408163265306123,0.20408163265306123,0.20408163265306123,0.20408163265306123,0.20408163265306123,0.20408163265306123,0.20408163265306123,0.20408163265306123,0.20408163265306123,0.20408163265306123,0.20408163265306123,0.20408163265306123,0.20408163265306123,0.20408163265306123,0.20408163265306123,0.20408163265306123,0.20408163265306123,0.20408163265306123,0.20408163265306123,0.20408163265306123,0.20408163265306123,0.20408163265306123,0.20408163265306123,0.20408163265306123,0.20408163265306123,0.20408163265306123,0.20408163265306123,0.20408163265306123,0.20408163265306123,0.20408163265306123,0.20408163265306123,0.20408163265306123,0.20408163265306123,0.20408163265306123,0.20408163265306123,0.20408163265306123,0.20408163265306123,0.20408163265306123,0.20408163265306123,0.20408163265306123,0.20408163265306123,0.20408163265306123,0.20408163265306123,0.20408163265306123,0.20408163265306123,0.20408163265306123,0.20408163265306123,0.20408163265306123,0.20408163265306123,0.20408163265306123,0.20408163265306123,0.20408163265306123,0.20408163265306123,0.20408163265306123,0.20408163265306123,0.20408163265306123,0.20408163265306123,0.20408163265306123,0.20408163265306123,0.20408163265306123,0.20408163265306123,0.20408163265306123,0.20408163265306123,0.20408163265306123,0.20408163265306123,0.20408163265306123,0.20408163265306123,0.20408163265306123,0.20408163265306123,0.20408163265306123,0.20408163265306123,0.20408163265306123,0.20408163265306123,0.20408163265306123,0.20408163265306123,0.20408163265306123,0.20408163265306123,0.20408163265306123,0.20408163265306123,0.20408163265306123,0.20408163265306123,0.20408163265306123,0.20408163265306123,0.20408163265306123,0.20408163265306123,0.20408163265306123,0.20408163265306123,0.20408163265306123,0.21428571428571427,0.22789115646258504,0.2653061224489796,0.2891156462585034,0.3231292517006803,0.36054421768707484,0.3979591836734694,0.43197278911564624,0.4421768707482993,0.4557823129251701,0.46258503401360546,0.46598639455782315,0.46938775510204084,0.47278911564625853,0.47278911564625853,0.47278911564625853,0.47278911564625853,0.46938775510204084,0.46598639455782315,0.45918367346938777,0.4489795918367347,0.4387755102040816,0.43537414965986393,0.42857142857142855,0.42517006802721086,0.42517006802721086,0.42517006802721086,0.42517006802721086,0.4217687074829932,0.4217687074829932,0.41836734693877553,0.41836734693877553,0.41836734693877553,0.41836734693877553,0.41836734693877553,0.41836734693877553,0.41836734693877553,0.41836734693877553,0.41836734693877553,0.41836734693877553,0.41836734693877553,0.41836734693877553,0.41836734693877553,0.41836734693877553,0.41836734693877553,0.41836734693877553,0.41836734693877553,0.4217687074829932,0.42517006802721086,0.42517006802721086,0.42517006802721086,0.41836734693877553,0.41156462585034015,0.40476190476190477,0.3945578231292517,0.38095238095238093,0.3707482993197279,0.36394557823129253,0.3469387755102041,0.3435374149659864,0.3333333333333333,0.3299319727891156,0.32653061224489793,0.3231292517006803,0.3163265306122449,0.30952380952380953,0.29591836734693877,0.282312925170068,0.272108843537415,0.2619047619047619,0.25170068027210885,0.24489795918367346,0.23809523809523808,0.23469387755102042,0.23129251700680273,0.23129251700680273,0.22789115646258504,0.22448979591836735,0.22108843537414966,0.21428571428571427,0.20748299319727892,0.20068027210884354,0.19047619047619047,0.1836734693877551,0.18027210884353742,0.17346938775510204,0.17006802721088435,0.16326530612244897,0.1598639455782313,0.15306122448979592,0.14625850340136054,0.14285714285714285,0.14285714285714285,0.14285714285714285,0.14285714285714285,0.14285714285714285,0.14285714285714285,0.14285714285714285,0.14285714285714285,0.14285714285714285,0.13945578231292516,0.13945578231292516,0.13945578231292516,0.13945578231292516,0.13945578231292516,0.13945578231292516,0.13945578231292516,0.13945578231292516,0.13945578231292516,0.13945578231292516,0.13945578231292516,0.13945578231292516,0.13945578231292516,0.13945578231292516,0.14965986394557823,0.1836734693877551,0.2857142857142857,0.40816326530612246,0.5170068027210885,0.6462585034013606,0.7074829931972789,0.7448979591836735,0.7721088435374149,0.7789115646258503,0.7789115646258503,0.7789115646258503,0.7789115646258503,0.7789115646258503,0.7789115646258503,0.7789115646258503,0.7789115646258503,0.7789115646258503,0.7789115646258503,0.7789115646258503,0.7789115646258503,0.782312925170068,0.7891156462585034,0.8061224489795918,0.8197278911564626,0.8333333333333334,0.8435374149659864,0.8503401360544217,0.8571428571428571,0.8605442176870748,0.8639455782312925,0.8673469387755102,0.8741496598639455,0.8775510204081632,0.8809523809523809,0.8979591836734694,0.9251700680272109,0.9455782312925171,0.9693877551020408,0.9931972789115646,1.0136054421768708,1.034013605442177,1.0510204081632653,1.064625850340136,1.0714285714285714,1.0816326530612246,1.0952380952380953,1.1054421768707483,1.1156462585034013,1.1224489795918366,1.129251700680272,1.1326530612244898,1.1326530612244898,1.1326530612244898,1.1326530612244898,1.1360544217687074,1.1360544217687074,1.1360544217687074,1.1360544217687074,1.1360544217687074,1.1360544217687074,1.1360544217687074,1.1360544217687074,1.1360544217687074,1.1360544217687074,1.1360544217687074,1.1360544217687074,1.1360544217687074,1.1360544217687074,1.1360544217687074,1.1360544217687074,1.1360544217687074,1.1360544217687074,1.1360544217687074,1.1360544217687074,1.1360544217687074,1.1360544217687074,1.1360544217687074,1.1360544217687074,1.1360544217687074,1.1360544217687074,1.1360544217687074,1.1360544217687074,1.1360544217687074,1.1360544217687074,1.1360544217687074,1.1360544217687074,1.1360544217687074,1.1360544217687074,1.1360544217687074,1.1360544217687074,1.1360544217687074,1.1360544217687074,1.1360544217687074,1.1360544217687074,1.1360544217687074,1.1360544217687074,1.1360544217687074,1.1360544217687074,1.1360544217687074,1.1360544217687074,1.1360544217687074,1.1360544217687074,1.1360544217687074,1.1360544217687074,1.1360544217687074,1.1360544217687074,1.1360544217687074,1.1360544217687074,1.1360544217687074,1.1360544217687074,1.1360544217687074,1.1360544217687074,1.1360544217687074,1.1360544217687074,1.1360544217687074,1.1360544217687074,1.1360544217687074,1.1360544217687074,1.1360544217687074,1.1360544217687074,1.1360544217687074,1.1360544217687074,1.1360544217687074,1.1360544217687074,1.1360544217687074,1.1360544217687074,1.1360544217687074,1.1360544217687074,1.1360544217687074,1.1360544217687074,1.1360544217687074,1.1360544217687074,1.1360544217687074,1.1360544217687074,1.1360544217687074,1.1360544217687074,1.1360544217687074,1.1360544217687074,1.1360544217687074,1.1360544217687074,1.1360544217687074,1.1360544217687074,1.1360544217687074,1.1360544217687074,1.1360544217687074,1.1360544217687074,1.1360544217687074,1.1360544217687074,1.1360544217687074,1.1360544217687074,1.1360544217687074,1.1360544217687074,1.1360544217687074,1.1360544217687074,1.1360544217687074,1.1360544217687074,1.1360544217687074,1.1360544217687074,1.1360544217687074,1.1360544217687074,1.1360544217687074,1.1360544217687074,1.1360544217687074,1.1360544217687074,1.1360544217687074,1.1360544217687074,1.1360544217687074,1.1360544217687074,1.1360544217687074,1.1360544217687074,1.1360544217687074,1.1360544217687074,1.1360544217687074,1.1360544217687074,1.1360544217687074,1.1360544217687074,1.1360544217687074,1.1360544217687074,1.1360544217687074,1.1258503401360545,1.0850340136054422,1.0578231292517006,0.9149659863945578,0.8639455782312925,0.8333333333333334,0.7857142857142857,0.7619047619047619,0.7517006802721088,0.7448979591836735,0.7448979591836735,0.7448979591836735,0.7448979591836735,0.7448979591836735,0.7448979591836735,0.7448979591836735,0.7448979591836735,0.7448979591836735,0.7448979591836735,0.7448979591836735,0.7448979591836735,0.7448979591836735,0.7448979591836735,0.7448979591836735,0.7414965986394558,0.7244897959183674,0.7040816326530612,0.6802721088435374,0.6496598639455783,0.6156462585034014,0.5952380952380952,0.5748299319727891,0.5612244897959183,0.5544217687074829,0.5544217687074829,0.5544217687074829,0.5544217687074829,0.5544217687074829,0.5544217687074829,0.5544217687074829,0.5544217687074829,0.5544217687074829,0.5544217687074829,0.5544217687074829,0.5544217687074829,0.5544217687074829,0.5544217687074829,0.5544217687074829,0.5544217687074829,0.5544217687074829,0.5544217687074829,0.5544217687074829,0.5544217687074829,0.5544217687074829,0.5544217687074829,0.5544217687074829,0.5544217687074829,0.5544217687074829,0.5544217687074829,0.5544217687074829,0.5544217687074829,0.5544217687074829,0.5544217687074829,0.5544217687074829,0.5544217687074829,0.5544217687074829,0.5544217687074829,0.5544217687074829,0.5544217687074829,0.5544217687074829,0.5544217687074829,0.5544217687074829,0.5544217687074829,0.5544217687074829,0.5544217687074829,0.5544217687074829,0.5544217687074829,0.5544217687074829,0.5544217687074829,0.5544217687074829,0.5544217687074829,0.5544217687074829,0.5544217687074829,0.5544217687074829,0.5544217687074829,0.5544217687074829,0.54421768707483,0.5238095238095238,0.48639455782312924,0.445578231292517,0.4217687074829932,0.3979591836734694,0.3843537414965986,0.37755102040816324,0.3741496598639456,0.3707482993197279,0.3707482993197279,0.3707482993197279,0.3707482993197279,0.3707482993197279,0.3707482993197279,0.3707482993197279,0.3707482993197279,0.3707482993197279,0.3707482993197279,0.3707482993197279,0.3707482993197279,0.3707482993197279,0.36394557823129253,0.3469387755102041,0.32653061224489793,0.2925170068027211,0.2619047619047619,0.24489795918367346,0.23129251700680273,0.22108843537414966,0.22108843537414966,0.22108843537414966,0.22108843537414966,0.22108843537414966,0.22108843537414966,0.22108843537414966,0.22108843537414966,0.22108843537414966,0.21768707482993196,0.21768707482993196,0.21768707482993196,0.21768707482993196,0.21768707482993196,0.21768707482993196,0.23129251700680273,0.24829931972789115,0.2653061224489796,0.2857142857142857,0.29931972789115646,0.30952380952380953,0.3163265306122449,0.3197278911564626,0.32653061224489793,0.3299319727891156,0.3333333333333333,0.336734693877551,0.3435374149659864,0.35034013605442177,0.35714285714285715,0.36394557823129253,0.37755102040816324,0.3877551020408163,0.3979591836734694,0.40476190476190477,0.41156462585034015,0.41496598639455784,0.41836734693877553,0.42517006802721086,0.42857142857142855,0.43537414965986393,0.445578231292517,0.46598639455782315,0.4965986394557823,0.5340136054421769,0.5816326530612245,0.6224489795918368,0.6462585034013606,0.673469387755102,0.6870748299319728,0.6972789115646258,0.7006802721088435,0.7040816326530612,0.7040816326530612,0.7040816326530612,0.7040816326530612,0.7040816326530612,0.7040816326530612,0.7040816326530612,0.7040816326530612,0.7040816326530612,0.7040816326530612,0.7040816326530612,0.7040816326530612,0.7040816326530612,0.7040816326530612,0.7040816326530612,0.7040816326530612,0.7040816326530612,0.7040816326530612,0.7040816326530612,0.7040816326530612,0.7040816326530612,0.7040816326530612,0.7006802721088435,0.6938775510204082,0.6700680272108843,0.6394557823129252,0.6054421768707483,0.564625850340136,0.5272108843537415,0.5102040816326531,0.4965986394557823,0.4965986394557823,0.4965986394557823,0.4965986394557823,0.4965986394557823,0.4965986394557823,0.4965986394557823,0.4965986394557823,0.4965986394557823,0.4965986394557823,0.4965986394557823,0.4965986394557823,0.4965986394557823,0.4965986394557823,0.4965986394557823,0.4965986394557823,0.4965986394557823,0.4965986394557823,0.4965986394557823,0.5,0.5034013605442177,0.5136054421768708,0.5238095238095238,0.5340136054421769,0.5476190476190477,0.5544217687074829,0.5612244897959183,0.564625850340136,0.564625850340136,0.564625850340136,0.564625850340136,0.564625850340136,0.564625850340136,0.564625850340136,0.564625850340136,0.564625850340136,0.564625850340136,0.564625850340136,0.564625850340136,0.564625850340136,0.54421768707483,0.5136054421768708,0.4523809523809524,0.35714285714285715,0.19047619047619047,0.1292517006802721,0.08843537414965986,0.05782312925170068,0.04421768707482993,0.03741496598639456,0.034013605442176874,0.034013605442176874,0.030612244897959183,0.030612244897959183,0.030612244897959183,0.030612244897959183,0.030612244897959183,0.030612244897959183,0.027210884353741496,0.023809523809523808,0.017006802721088437,0.017006802721088437,0.013605442176870748,0.013605442176870748,0.013605442176870748,0.013605442176870748,0.013605442176870748,0.013605442176870748,0.013605442176870748,0.013605442176870748,0.013605442176870748,0.013605442176870748,0.013605442176870748,0.013605442176870748,0.013605442176870748,0.013605442176870748,0.013605442176870748,0.013605442176870748,0.013605442176870748,0.013605442176870748,0.013605442176870748,0.013605442176870748,0.013605442176870748,0.013605442176870748,0.013605442176870748,0.013605442176870748,0.013605442176870748,0.013605442176870748,0.013605442176870748,0.013605442176870748,0.013605442176870748,0.013605442176870748,0.013605442176870748,0.013605442176870748,0.013605442176870748,0.013605442176870748,0.013605442176870748,0.013605442176870748,0.013605442176870748,0.013605442176870748,0.013605442176870748,0.013605442176870748,0.013605442176870748,0.013605442176870748,0.013605442176870748,0.013605442176870748,0.013605442176870748,0.013605442176870748,0.013605442176870748,0.013605442176870748,0.013605442176870748,0.013605442176870748,0.013605442176870748,0.013605442176870748,0.013605442176870748,0.013605442176870748,0.013605442176870748,0.013605442176870748,0.013605442176870748,0.013605442176870748,0.013605442176870748,0.013605442176870748,0.013605442176870748,0.013605442176870748,0.013605442176870748,0.013605442176870748,0.013605442176870748,0.013605442176870748,0.013605442176870748,0.013605442176870748,0.013605442176870748,0.013605442176870748,0.013605442176870748,0.013605442176870748,0.013605442176870748,0.013605442176870748,0.013605442176870748,0.013605442176870748,0.013605442176870748,0.013605442176870748,0.013605442176870748,0.013605442176870748,0.013605442176870748,0.013605442176870748,0.013605442176870748,0.013605442176870748,0.013605442176870748,0.013605442176870748,0.013605442176870748,0.013605442176870748,0.013605442176870748,0.013605442176870748,0.013605442176870748,0.013605442176870748,0.013605442176870748,0.013605442176870748,0.013605442176870748,0.013605442176870748,0.013605442176870748,0.013605442176870748,0.013605442176870748,0.013605442176870748,0.013605442176870748,0.013605442176870748,0.013605442176870748,0.013605442176870748,0.013605442176870748,0.013605442176870748,0.013605442176870748,0.013605442176870748,0.013605442176870748,0.013605442176870748,0.013605442176870748,0.013605442176870748,0.013605442176870748,0.013605442176870748,0.013605442176870748,0.013605442176870748,0.013605442176870748,0.013605442176870748,0.013605442176870748,0.013605442176870748,0.013605442176870748,0.013605442176870748,0.013605442176870748,0.013605442176870748,0.013605442176870748,0.013605442176870748,0.013605442176870748,0.013605442176870748,0.013605442176870748,0.013605442176870748,0.013605442176870748,0.013605442176870748,0.013605442176870748,0.013605442176870748,0.013605442176870748,0.013605442176870748,0.013605442176870748,0.013605442176870748,0.013605442176870748,0.013605442176870748,0.013605442176870748,0.013605442176870748,0.013605442176870748,0.013605442176870748,0.013605442176870748,0.013605442176870748,0.013605442176870748,0.013605442176870748,0.013605442176870748,0.013605442176870748,0.013605442176870748,0.013605442176870748,0.04421768707482993,0.09863945578231292,0.35374149659863946,0.5816326530612245,0.7380952380952381,0.8469387755102041,0.9489795918367347,0.9795918367346939,1,1.0068027210884354,1.0068027210884354,1.0068027210884354,1.0068027210884354,1.0068027210884354,1.0068027210884354,1.0068027210884354,1.0068027210884354,1.0068027210884354,1.0068027210884354,1.0068027210884354,1.0068027210884354,1.0068027210884354,1.0068027210884354,1.0068027210884354,1.0068027210884354,1.0068027210884354,1.0068027210884354,1.0068027210884354,1.0068027210884354,1.0068027210884354,1.0068027210884354,1.0068027210884354,1.0068027210884354,1.0068027210884354,1.0068027210884354,1.0068027210884354,1.0068027210884354,1.0068027210884354,1.0068027210884354,1.0068027210884354,1.0068027210884354,1.0068027210884354,1.0068027210884354,1.0068027210884354,1.0068027210884354,1.0068027210884354,1.0068027210884354,1.0068027210884354,1.0068027210884354,1.0068027210884354,1.0068027210884354,1.0068027210884354,1.0068027210884354,1.0068027210884354,1.0068027210884354,1.0068027210884354,1.0068027210884354,1.0068027210884354,1.0068027210884354,1.0068027210884354,1.0068027210884354,1.0068027210884354,1.0068027210884354,1.0068027210884354,1.0068027210884354,1.0068027210884354,1.0068027210884354,1.0068027210884354,1.0068027210884354,1.0068027210884354,1.0068027210884354,1.0068027210884354,1.0068027210884354,1.0068027210884354,1.0068027210884354,1.0068027210884354,1.0068027210884354,1.0068027210884354,1.0068027210884354,1.0068027210884354,1.0068027210884354,1.0068027210884354,1.0068027210884354,1.0068027210884354,1.0068027210884354,1.0068027210884354,1.0068027210884354,1.0068027210884354,1.0068027210884354,1.0068027210884354,1.0068027210884354,1.0068027210884354,1.0068027210884354,1.0068027210884354,1.0068027210884354,1.0068027210884354,1.0068027210884354,1.0068027210884354,1.0068027210884354,1.0068027210884354,1.0068027210884354,1.0068027210884354,1.0068027210884354,1.0068027210884354,1.0068027210884354,1.0068027210884354,1.0068027210884354,1.0068027210884354,1.0068027210884354,1.0068027210884354,1.0068027210884354,1.0068027210884354,1.0068027210884354,1.0068027210884354,1.0068027210884354,1.0068027210884354,1.0068027210884354,1.0068027210884354,1.0068027210884354,1.0068027210884354,1.0068027210884354,1.0068027210884354,1.0068027210884354,1.0068027210884354,1.0068027210884354,1.0068027210884354,1.0068027210884354,1.0068027210884354,1.0068027210884354,1.0068027210884354,1.0068027210884354,1.0068027210884354,1.0068027210884354,1.0068027210884354,1.0068027210884354,1.0068027210884354,1.0068027210884354,1.0068027210884354,1.0068027210884354,1.0068027210884354,1.0068027210884354,1.0068027210884354,1.0068027210884354,1.0068027210884354,1.0068027210884354,1.0068027210884354,1.0068027210884354,1.0068027210884354,1.0068027210884354,1.0068027210884354,1.0068027210884354,1.0068027210884354,1.0068027210884354,1.0068027210884354,1.0068027210884354,1.0068027210884354,1.0068027210884354,1.0068027210884354,1.0068027210884354,1.0068027210884354,1.0068027210884354,1.0068027210884354,1.0068027210884354,1.0068027210884354,1.0068027210884354,1.0068027210884354,1.0068027210884354,1.0068027210884354,0.9965986394557823,0.9965986394557823,0.9523809523809523,0.8571428571428571,0.8095238095238095,0.7448979591836735,0.6870748299319728,0.6564625850340136,0.6258503401360545,0.6122448979591837,0.608843537414966,0.608843537414966,0.608843537414966,0.608843537414966,0.608843537414966,0.608843537414966,0.608843537414966,0.608843537414966,0.608843537414966,0.608843537414966,0.608843537414966,0.608843537414966,0.608843537414966,0.608843537414966,0.608843537414966,0.608843537414966,0.608843537414966,0.608843537414966,0.608843537414966,0.6020408163265306,0.5850340136054422,0.564625850340136,0.5408163265306123,0.5136054421768708,0.48639455782312924,0.46938775510204084,0.4557823129251701,0.4489795918367347,0.4421768707482993,0.4387755102040816,0.4387755102040816,0.4387755102040816,0.4387755102040816,0.4387755102040816,0.4387755102040816,0.4387755102040816,0.4387755102040816,0.4387755102040816,0.4387755102040816,0.4387755102040816,0.4387755102040816,0.4387755102040816,0.4387755102040816,0.4387755102040816,0.4387755102040816,0.4387755102040816,0.4387755102040816,0.43537414965986393,0.43197278911564624,0.43197278911564624,0.43197278911564624,0.43197278911564624,0.43197278911564624,0.43197278911564624,0.43197278911564624,0.43197278911564624,0.43197278911564624,0.43197278911564624,0.43197278911564624,0.43197278911564624,0.43197278911564624,0.43197278911564624,0.43197278911564624,0.43197278911564624,0.43197278911564624,0.43197278911564624,0.43197278911564624,0.43197278911564624,0.43197278911564624,0.43197278911564624,0.43197278911564624,0.43197278911564624,0.43197278911564624,0.43197278911564624,0.43197278911564624,0.43197278911564624,0.43197278911564624,0.43197278911564624,0.43197278911564624,0.43197278911564624,0.43197278911564624,0.43197278911564624,0.43197278911564624,0.43197278911564624,0.43197278911564624,0.43197278911564624,0.43197278911564624,0.43197278911564624,0.43197278911564624,0.43197278911564624,0.43197278911564624,0.43197278911564624,0.43197278911564624,0.43197278911564624,0.43197278911564624,0.43197278911564624,0.43197278911564624,0.43197278911564624,0.43197278911564624,0.43197278911564624,0.43197278911564624,0.43197278911564624,0.43197278911564624,0.43197278911564624,0.43197278911564624,0.43197278911564624,0.43197278911564624,0.43197278911564624,0.43197278911564624,0.43197278911564624,0.43197278911564624,0.43197278911564624,0.43197278911564624,0.43197278911564624,0.43197278911564624,0.43197278911564624,0.43197278911564624,0.43197278911564624,0.43197278911564624,0.43197278911564624,0.43197278911564624,0.43197278911564624,0.43197278911564624,0.43197278911564624,0.43197278911564624,0.43197278911564624,0.43197278911564624,0.43197278911564624,0.43197278911564624,0.43197278911564624,0.43197278911564624,0.43197278911564624,0.43197278911564624,0.43197278911564624,0.43197278911564624,0.43197278911564624,0.43197278911564624,0.43197278911564624,0.43197278911564624,0.43197278911564624,0.43197278911564624,0.43197278911564624,0.43197278911564624,0.43197278911564624,0.43197278911564624,0.43197278911564624,0.43197278911564624,0.43197278911564624,0.43197278911564624,0.43197278911564624,0.43197278911564624,0.43197278911564624,0.43197278911564624,0.43197278911564624,0.43197278911564624,0.43197278911564624,0.43197278911564624,0.43197278911564624,0.43197278911564624,0.43197278911564624,0.43197278911564624,0.43197278911564624,0.43197278911564624,0.43197278911564624,0.43197278911564624,0.43197278911564624,0.43197278911564624,0.43197278911564624,0.43197278911564624,0.43197278911564624,0.43197278911564624,0.43197278911564624,0.43197278911564624,0.43197278911564624,0.43197278911564624,0.43197278911564624,0.43197278911564624,0.43197278911564624,0.43197278911564624,0.43197278911564624,0.43197278911564624,0.43197278911564624,0.43197278911564624,0.43197278911564624,0.43197278911564624,0.43197278911564624,0.43197278911564624,0.43197278911564624,0.43197278911564624,0.43197278911564624,0.43197278911564624,0.43197278911564624,0.43197278911564624,0.43197278911564624,0.43197278911564624,0.43197278911564624,0.43197278911564624,0.43197278911564624,0.43197278911564624,0.43197278911564624,0.43197278911564624,0.43197278911564624,0.43197278911564624,0.43197278911564624,0.43197278911564624,0.43197278911564624,0.43197278911564624,0.43197278911564624,0.43197278911564624,0.43197278911564624,0.43197278911564624,0.43197278911564624,0.43197278911564624,0.43197278911564624,0.43197278911564624,0.43197278911564624,0.43197278911564624,0.43197278911564624,0.43197278911564624,0.43197278911564624,0.43197278911564624,0.43197278911564624,0.43197278911564624,0.43197278911564624,0.43197278911564624,0.43197278911564624,0.43197278911564624,0.43197278911564624,0.43197278911564624,0.43197278911564624,0.43197278911564624,0.43197278911564624,0.43197278911564624,0.43197278911564624,0.43197278911564624,0.43197278911564624,0.43197278911564624,0.43197278911564624,0.43197278911564624,0.43197278911564624,0.43197278911564624,0.43197278911564624,0.43197278911564624,0.43197278911564624,0.43197278911564624,0.43197278911564624,0.43197278911564624,0.43197278911564624,0.43197278911564624,0.43197278911564624,0.43197278911564624,0.43197278911564624,0.43197278911564624,0.43197278911564624,0.43197278911564624,0.43197278911564624,0.43197278911564624,0.43197278911564624,0.43197278911564624,0.43197278911564624,0.43197278911564624,0.43197278911564624,0.43197278911564624,0.43537414965986393,0.4387755102040816,0.46258503401360546,0.48639455782312924,0.5034013605442177,0.5272108843537415,0.54421768707483,0.564625850340136,0.5816326530612245,0.5918367346938775,0.5952380952380952,0.5952380952380952,0.5986394557823129,0.5986394557823129,0.5986394557823129,0.5952380952380952,0.5884353741496599,0.5850340136054422,0.5782312925170068,0.5748299319727891,0.5748299319727891,0.5714285714285714,0.5680272108843537,0.5680272108843537,0.5680272108843537,0.5680272108843537,0.5680272108843537,0.5680272108843537,0.5680272108843537,0.5680272108843537,0.5680272108843537,0.5680272108843537,0.5680272108843537,0.5680272108843537,0.5680272108843537,0.5680272108843537,0.5680272108843537,0.5680272108843537,0.5680272108843537,0.5680272108843537,0.5680272108843537,0.5680272108843537,0.5680272108843537,0.5680272108843537,0.5680272108843537,0.5680272108843537,0.5680272108843537,0.5680272108843537,0.5680272108843537,0.5680272108843537,0.5680272108843537,0.5680272108843537,0.5680272108843537,0.5680272108843537,0.5680272108843537,0.5680272108843537,0.5680272108843537,0.5680272108843537,0.5680272108843537,0.5680272108843537,0.5680272108843537,0.5680272108843537,0.5680272108843537,0.5680272108843537,0.5680272108843537,0.5680272108843537,0.5680272108843537,0.5680272108843537,0.5680272108843537,0.5680272108843537,0.5680272108843537,0.5680272108843537,0.5680272108843537,0.5680272108843537,0.5680272108843537,0.5680272108843537,0.5680272108843537,0.5680272108843537,0.5680272108843537,0.5680272108843537,0.5680272108843537,0.5680272108843537,0.5680272108843537,0.5680272108843537,0.5680272108843537,0.5680272108843537,0.5680272108843537,0.5680272108843537,0.5680272108843537,0.5680272108843537,0.5680272108843537,0.5680272108843537,0.5680272108843537,0.5680272108843537,0.5680272108843537,0.5680272108843537,0.5680272108843537,0.5680272108843537,0.5680272108843537,0.5680272108843537,0.5680272108843537,0.5680272108843537,0.5680272108843537,0.5680272108843537,0.5680272108843537,0.5680272108843537,0.5680272108843537,0.5680272108843537,0.5680272108843537,0.5680272108843537,0.5680272108843537,0.5680272108843537,0.5680272108843537,0.5680272108843537,0.5680272108843537,0.5680272108843537,0.5680272108843537,0.5680272108843537,0.5680272108843537,0.5680272108843537,0.5680272108843537,0.5374149659863946,0.5102040816326531,0.42517006802721086,0.3877551020408163,0.3469387755102041,0.32653061224489793,0.30952380952380953,0.29591836734693877,0.2891156462585034,0.2857142857142857,0.282312925170068,0.282312925170068,0.282312925170068,0.282312925170068,0.2789115646258503,0.2789115646258503,0.2789115646258503,0.2789115646258503,0.2789115646258503,0.2755102040816326,0.2687074829931973,0.25510204081632654,0.24489795918367346,0.23129251700680273,0.22108843537414966,0.21428571428571427,0.2108843537414966,0.20748299319727892,0.20408163265306123,0.20408163265306123,0.20408163265306123,0.20408163265306123,0.20408163265306123,0.20408163265306123,0.20408163265306123,0.20408163265306123,0.20408163265306123,0.20408163265306123,0.20408163265306123,0.20408163265306123,0.20408163265306123,0.20408163265306123,0.20408163265306123,0.20408163265306123,0.20748299319727892,0.24149659863945577,0.282312925170068,0.35714285714285715,0.4523809523809524,0.5170068027210885,0.5612244897959183,0.5918367346938775,0.6020408163265306,0.6020408163265306,0.6020408163265306,0.6020408163265306,0.6020408163265306,0.6020408163265306,0.6020408163265306,0.6020408163265306,0.6020408163265306,0.6020408163265306,0.6020408163265306,0.6020408163265306,0.6020408163265306,0.6020408163265306,0.6190476190476191,0.6564625850340136,0.6904761904761905,0.7517006802721088,0.7857142857142857,0.8163265306122449,0.8299319727891157,0.8333333333333334,0.8333333333333334,0.8333333333333334,0.8333333333333334,0.8333333333333334,0.8333333333333334,0.8333333333333334,0.8333333333333334,0.8333333333333334,0.8333333333333334,0.8333333333333334,0.8333333333333334,0.8333333333333334,0.8333333333333334,0.8333333333333334,0.8333333333333334,0.8333333333333334,0.8333333333333334,0.8333333333333334,0.8333333333333334,0.8333333333333334,0.8333333333333334,0.8333333333333334,0.8333333333333334,0.8333333333333334,0.8333333333333334,0.8333333333333334,0.8333333333333334,0.8333333333333334,0.8333333333333334,0.8333333333333334,0.8333333333333334,0.8333333333333334,0.8333333333333334,0.8333333333333334,0.8333333333333334,0.8333333333333334,0.8333333333333334,0.8333333333333334,0.8333333333333334,0.8333333333333334,0.8333333333333334,0.8333333333333334,0.8333333333333334,0.8333333333333334,0.8333333333333334,0.8333333333333334,0.8333333333333334,0.8333333333333334,0.8333333333333334,0.8333333333333334,0.8333333333333334,0.8333333333333334,0.8333333333333334,0.8333333333333334,0.8333333333333334,0.8333333333333334,0.8333333333333334,0.8333333333333334,0.8333333333333334,0.8333333333333334,0.8333333333333334,0.8333333333333334,0.8333333333333334,0.8333333333333334,0.8333333333333334,0.8333333333333334,0.8333333333333334,0.8333333333333334,0.8333333333333334,0.8333333333333334,0.8333333333333334,0.8333333333333334,0.8333333333333334,0.8333333333333334,0.8333333333333334,0.8333333333333334,0.8333333333333334,0.8333333333333334,0.8333333333333334,0.8333333333333334,0.8333333333333334,0.8333333333333334,0.8333333333333334,0.8333333333333334,0.8333333333333334,0.8333333333333334,0.8333333333333334,0.8333333333333334,0.8333333333333334,0.8333333333333334,0.8333333333333334,0.8333333333333334,0.8333333333333334,0.8333333333333334,0.8333333333333334,0.8333333333333334,0.8333333333333334,0.8333333333333334,0.8333333333333334,0.8333333333333334,0.8333333333333334,0.8333333333333334,0.8333333333333334,0.8333333333333334,0.8333333333333334,0.8333333333333334,0.8333333333333334,0.8333333333333334,0.8333333333333334,0.826530612244898,0.8163265306122449,0.7210884353741497,0.6326530612244898,0.5238095238095238,0.41496598639455784,0.3435374149659864,0.2925170068027211,0.23809523809523808,0.21768707482993196,0.20408163265306123,0.20408163265306123,0.20408163265306123,0.20408163265306123,0.20408163265306123,0.20408163265306123,0.20408163265306123,0.20408163265306123,0.20408163265306123,0.21768707482993196,0.24829931972789115,0.29591836734693877,0.41496598639455784,0.48639455782312924,0.6666666666666666,0.7551020408163265,0.8061224489795918,0.8469387755102041,0.8673469387755102,0.8673469387755102,0.8673469387755102,0.8673469387755102,0.8673469387755102,0.8673469387755102,0.8673469387755102,0.8673469387755102,0.8673469387755102,0.8673469387755102,0.9183673469387755,0.9523809523809523,0.9659863945578231,0.9897959183673469,1.0204081632653061,1.034013605442177,1.0408163265306123,1.0408163265306123,1.0408163265306123,1.0374149659863945,1.030612244897959,1.0238095238095237,1.0170068027210883,1.0136054421768708,1.010204081632653,1.010204081632653,1.0068027210884354,1.0068027210884354,1,1,0.9965986394557823,0.9965986394557823,0.9965986394557823,0.9965986394557823,0.9965986394557823,0.9965986394557823,0.9965986394557823,0.9965986394557823,0.9965986394557823,0.9965986394557823,0.9965986394557823,0.9965986394557823,0.9965986394557823,0.9965986394557823,0.9965986394557823,0.9965986394557823,0.9965986394557823,0.9965986394557823,0.9965986394557823,0.9965986394557823,0.9965986394557823,0.9965986394557823,0.9965986394557823,0.9965986394557823,0.9965986394557823,0.9965986394557823,0.9965986394557823,0.9965986394557823,0.9965986394557823,0.9965986394557823,0.9965986394557823,0.9965986394557823,0.9965986394557823,0.9965986394557823,0.9965986394557823,0.9965986394557823,0.9965986394557823,0.9965986394557823,0.9965986394557823,0.9965986394557823,0.9965986394557823,0.9965986394557823,0.9965986394557823,0.9965986394557823,0.9965986394557823,0.9965986394557823,0.9965986394557823,0.9965986394557823,0.9965986394557823,0.9965986394557823,0.9965986394557823,0.9931972789115646,0.9659863945578231,0.9149659863945578,0.8503401360544217,0.7959183673469388,0.7312925170068028,0.6700680272108843,0.6122448979591837,0.564625850340136,0.5238095238095238,0.4965986394557823,0.47619047619047616,0.46258503401360546,0.4557823129251701,0.4557823129251701,0.4557823129251701,0.4557823129251701,0.4557823129251701,0.4557823129251701,0.4557823129251701,0.4557823129251701,0.4557823129251701,0.4557823129251701,0.4557823129251701,0.4557823129251701,0.4557823129251701,0.43537414965986393,0.40816326530612246,0.391156462585034,0.3401360544217687,0.3197278911564626,0.29931972789115646,0.2755102040816326,0.2585034013605442,0.24489795918367346,0.23129251700680273,0.22448979591836735,0.22108843537414966,0.22108843537414966,0.24489795918367346,0.3299319727891156,0.3877551020408163,0.5680272108843537,0.6938775510204082,0.7619047619047619,0.8061224489795918,0.8367346938775511,0.8503401360544217,0.8503401360544217,0.8503401360544217,0.8503401360544217,0.8503401360544217,0.8503401360544217,0.8503401360544217,0.8503401360544217,0.8503401360544217,0.8503401360544217,0.8503401360544217,0.8843537414965986,0.9183673469387755,0.9625850340136054,1.0170068027210883,1.0782312925170068,1.1088435374149659,1.1360544217687074,1.1428571428571428,1.1496598639455782,1.153061224489796,1.153061224489796,1.153061224489796,1.1496598639455782,1.1360544217687074,1.129251700680272,1.1258503401360545,1.1224489795918366,1.119047619047619,1.119047619047619,1.119047619047619,1.119047619047619,1.119047619047619,1.119047619047619,1.119047619047619,1.119047619047619,1.119047619047619,1.119047619047619,1.119047619047619,1.119047619047619,1.119047619047619,1.119047619047619,1.119047619047619,1.119047619047619,1.119047619047619,1.119047619047619,1.119047619047619,1.119047619047619,1.119047619047619,1.119047619047619,1.119047619047619,1.119047619047619,1.119047619047619,1.119047619047619,1.119047619047619,1.119047619047619,1.119047619047619,1.119047619047619,1.119047619047619,1.119047619047619,1.119047619047619,1.119047619047619,1.119047619047619,1.119047619047619,1.119047619047619,1.119047619047619,1.119047619047619,1.119047619047619,1.119047619047619,1.119047619047619,1.119047619047619,1.119047619047619,1.119047619047619,1.119047619047619,1.119047619047619,1.119047619047619,1.119047619047619,1.119047619047619,1.119047619047619,1.119047619047619,1.119047619047619,1.119047619047619,1.119047619047619,1.119047619047619,1.119047619047619,1.119047619047619,1.119047619047619,1.119047619047619,1.119047619047619,1.119047619047619,1.119047619047619,1.119047619047619,1.119047619047619,1.119047619047619,1.119047619047619,1.119047619047619,1.119047619047619,1.119047619047619,1.119047619047619,1.119047619047619,1.119047619047619,1.119047619047619,1.119047619047619,1.119047619047619,1.119047619047619,1.119047619047619,1.119047619047619,1.119047619047619,1.119047619047619,1.119047619047619,1.119047619047619,1.119047619047619,1.119047619047619,1.119047619047619,1.119047619047619,1.119047619047619,1.119047619047619,1.119047619047619,1.119047619047619,1.119047619047619,1.119047619047619,1.119047619047619,1.119047619047619,1.119047619047619,1.119047619047619,1.119047619047619,1.119047619047619,1.119047619047619,1.119047619047619,1.119047619047619,1.119047619047619,1.119047619047619,1.119047619047619,1.119047619047619,1.119047619047619,1.119047619047619,1.119047619047619,1.119047619047619,1.119047619047619,1.119047619047619,1.119047619047619,1.119047619047619,1.119047619047619,1.119047619047619,1.119047619047619,1.119047619047619,1.119047619047619,1.119047619047619,1.119047619047619,1.119047619047619,1.119047619047619,1.119047619047619,1.119047619047619,1.119047619047619,1.119047619047619,1.119047619047619,1.119047619047619,1.119047619047619,1.119047619047619,1.119047619047619,1.119047619047619],"y":[-3.472222222222222,-3.472222222222222,-3.472222222222222,-3.472222222222222,-3.472222222222222,-3.472222222222222,-3.472222222222222,-3.472222222222222,-3.472222222222222,-3.472222222222222,-3.472222222222222,-3.472222222222222,-3.472222222222222,-3.472222222222222,-3.472222222222222,-3.472222222222222,-3.472222222222222,-3.472222222222222,-3.472222222222222,-3.472222222222222,-3.472222222222222,-3.472222222222222,-3.472222222222222,-3.472222222222222,-3.472222222222222,-3.472222222222222,-3.472222222222222,-3.472222222222222,-3.472222222222222,-3.472222222222222,-3.472222222222222,-3.472222222222222,-3.472222222222222,-3.472222222222222,-3.472222222222222,-3.472222222222222,-3.472222222222222,-3.472222222222222,-3.472222222222222,-3.472222222222222,-3.472222222222222,-3.472222222222222,-3.472222222222222,-3.472222222222222,-3.472222222222222,-3.472222222222222,0.6230158730158732,0.5182539682539684,0.4896825396825399,0.3373015873015875,0.29920634920634936,0.2611111111111113,0.24206349206349223,0.2325396825396827,0.2325396825396827,0.2325396825396827,0.24206349206349223,0.24206349206349223,0.24206349206349223,0.24206349206349223,0.24206349206349223,0.24206349206349223,0.24206349206349223,0.24206349206349223,0.24206349206349223,0.24206349206349223,0.24206349206349223,0.24206349206349223,0.24206349206349223,0.24206349206349223,0.24206349206349223,0.24206349206349223,0.24206349206349223,0.24206349206349223,0.24206349206349223,0.24206349206349223,0.24206349206349223,0.24206349206349223,0.24206349206349223,0.24206349206349223,0.24206349206349223,0.24206349206349223,0.24206349206349223,0.24206349206349223,0.24206349206349223,0.24206349206349223,0.24206349206349223,0.24206349206349223,0.24206349206349223,0.24206349206349223,0.24206349206349223,0.24206349206349223,0.24206349206349223,0.24206349206349223,0.24206349206349223,0.24206349206349223,0.24206349206349223,0.24206349206349223,0.24206349206349223,0.24206349206349223,0.24206349206349223,0.24206349206349223,0.24206349206349223,0.24206349206349223,0.24206349206349223,0.24206349206349223,0.24206349206349223,0.24206349206349223,0.24206349206349223,0.24206349206349223,0.24206349206349223,0.24206349206349223,0.24206349206349223,0.24206349206349223,0.24206349206349223,0.24206349206349223,0.24206349206349223,0.24206349206349223,0.24206349206349223,0.24206349206349223,0.24206349206349223,0.24206349206349223,0.24206349206349223,0.24206349206349223,0.24206349206349223,0.24206349206349223,0.24206349206349223,0.24206349206349223,0.24206349206349223,0.24206349206349223,0.24206349206349223,0.24206349206349223,0.24206349206349223,0.24206349206349223,0.24206349206349223,0.24206349206349223,0.24206349206349223,0.24206349206349223,0.24206349206349223,0.24206349206349223,0.24206349206349223,0.24206349206349223,0.24206349206349223,0.24206349206349223,0.24206349206349223,0.24206349206349223,0.24206349206349223,0.24206349206349223,0.24206349206349223,0.24206349206349223,0.24206349206349223,0.24206349206349223,0.24206349206349223,0.24206349206349223,0.24206349206349223,0.24206349206349223,0.24206349206349223,0.24206349206349223,0.24206349206349223,0.24206349206349223,0.24206349206349223,0.24206349206349223,0.24206349206349223,0.24206349206349223,0.24206349206349223,0.24206349206349223,0.24206349206349223,0.24206349206349223,0.24206349206349223,0.24206349206349223,0.24206349206349223,0.24206349206349223,0.24206349206349223,0.24206349206349223,0.24206349206349223,0.24206349206349223,0.24206349206349223,0.24206349206349223,0.24206349206349223,0.24206349206349223,0.24206349206349223,0.24206349206349223,0.24206349206349223,0.24206349206349223,0.24206349206349223,0.24206349206349223,0.24206349206349223,0.24206349206349223,0.24206349206349223,0.24206349206349223,0.24206349206349223,0.24206349206349223,0.24206349206349223,0.24206349206349223,0.24206349206349223,0.24206349206349223,0.24206349206349223,0.24206349206349223,0.24206349206349223,0.24206349206349223,0.24206349206349223,0.24206349206349223,0.24206349206349223,0.24206349206349223,0.24206349206349223,0.24206349206349223,0.24206349206349223,0.24206349206349223,0.24206349206349223,0.24206349206349223,0.24206349206349223,0.24206349206349223,0.24206349206349223,0.24206349206349223,0.24206349206349223,0.24206349206349223,0.24206349206349223,0.24206349206349223,0.24206349206349223,0.24206349206349223,0.24206349206349223,0.24206349206349223,0.24206349206349223,0.24206349206349223,0.24206349206349223,0.24206349206349223,0.24206349206349223,0.24206349206349223,0.24206349206349223,0.24206349206349223,0.24206349206349223,0.24206349206349223,0.24206349206349223,0.24206349206349223,0.24206349206349223,0.24206349206349223,0.24206349206349223,0.24206349206349223,0.24206349206349223,0.24206349206349223,0.24206349206349223,0.24206349206349223,0.24206349206349223,0.24206349206349223,0.24206349206349223,0.24206349206349223,0.24206349206349223,0.24206349206349223,0.24206349206349223,0.24206349206349223,0.24206349206349223,0.24206349206349223,0.24206349206349223,0.24206349206349223,0.24206349206349223,0.24206349206349223,0.24206349206349223,0.24206349206349223,0.24206349206349223,0.24206349206349223,0.24206349206349223,0.24206349206349223,0.24206349206349223,0.24206349206349223,0.24206349206349223,0.24206349206349223,0.24206349206349223,0.24206349206349223,0.24206349206349223,0.24206349206349223,0.24206349206349223,0.24206349206349223,0.24206349206349223,0.24206349206349223,0.24206349206349223,0.24206349206349223,0.24206349206349223,0.24206349206349223,0.24206349206349223,0.24206349206349223,0.24206349206349223,0.24206349206349223,0.24206349206349223,0.24206349206349223,0.24206349206349223,0.24206349206349223,0.24206349206349223,0.24206349206349223,0.24206349206349223,0.24206349206349223,0.24206349206349223,0.24206349206349223,0.24206349206349223,0.24206349206349223,0.24206349206349223,0.24206349206349223,0.24206349206349223,0.24206349206349223,0.24206349206349223,0.24206349206349223,0.24206349206349223,0.24206349206349223,0.24206349206349223,0.24206349206349223,0.24206349206349223,0.24206349206349223,0.24206349206349223,0.24206349206349223,0.24206349206349223,0.24206349206349223,0.24206349206349223,0.24206349206349223,0.24206349206349223,0.24206349206349223,0.24206349206349223,0.24206349206349223,0.24206349206349223,0.24206349206349223,0.24206349206349223,0.24206349206349223,0.24206349206349223,0.24206349206349223,0.24206349206349223,0.24206349206349223,0.24206349206349223,0.24206349206349223,0.24206349206349223,0.24206349206349223,0.24206349206349223,0.24206349206349223,0.24206349206349223,0.24206349206349223,0.24206349206349223,0.24206349206349223,0.24206349206349223,0.24206349206349223,0.24206349206349223,0.24206349206349223,0.24206349206349223,0.24206349206349223,0.24206349206349223,0.24206349206349223,0.24206349206349223,0.24206349206349223,0.24206349206349223,0.24206349206349223,0.24206349206349223,0.24206349206349223,0.24206349206349223,0.24206349206349223,0.24206349206349223,0.24206349206349223,0.24206349206349223,0.24206349206349223,0.24206349206349223,0.24206349206349223,0.24206349206349223,0.24206349206349223,0.24206349206349223,0.24206349206349223,0.24206349206349223,0.24206349206349223,0.24206349206349223,0.24206349206349223,0.24206349206349223,0.24206349206349223,0.24206349206349223,0.24206349206349223,0.24206349206349223,0.24206349206349223,0.24206349206349223,0.24206349206349223,0.24206349206349223,0.24206349206349223,0.24206349206349223,0.24206349206349223,0.24206349206349223,0.24206349206349223,0.24206349206349223,0.24206349206349223,0.24206349206349223,0.24206349206349223,0.24206349206349223,0.24206349206349223,0.24206349206349223,0.24206349206349223,0.24206349206349223,0.24206349206349223,0.24206349206349223,0.24206349206349223,0.24206349206349223,0.24206349206349223,0.24206349206349223,0.24206349206349223,0.24206349206349223,0.24206349206349223,0.24206349206349223,0.24206349206349223,0.24206349206349223,0.24206349206349223,0.24206349206349223,0.24206349206349223,0.24206349206349223,0.24206349206349223,0.24206349206349223,0.24206349206349223,0.24206349206349223,0.24206349206349223,0.24206349206349223,0.24206349206349223,0.24206349206349223,0.24206349206349223,0.24206349206349223,0.24206349206349223,0.24206349206349223,0.24206349206349223,0.24206349206349223,0.24206349206349223,0.24206349206349223,0.24206349206349223,0.24206349206349223,0.24206349206349223,0.24206349206349223,0.24206349206349223,0.24206349206349223,0.24206349206349223,0.24206349206349223,0.24206349206349223,0.24206349206349223,0.24206349206349223,0.24206349206349223,0.24206349206349223,0.24206349206349223,0.24206349206349223,0.24206349206349223,0.24206349206349223,0.24206349206349223,0.24206349206349223,0.24206349206349223,0.24206349206349223,0.24206349206349223,0.24206349206349223,0.24206349206349223,0.24206349206349223,0.24206349206349223,0.24206349206349223,0.24206349206349223,0.24206349206349223,0.24206349206349223,0.24206349206349223,0.24206349206349223,0.24206349206349223,0.24206349206349223,0.24206349206349223,0.24206349206349223,0.24206349206349223,0.24206349206349223,0.24206349206349223,0.24206349206349223,0.24206349206349223,0.24206349206349223,0.24206349206349223,0.24206349206349223,0.24206349206349223,0.24206349206349223,0.24206349206349223,0.24206349206349223,0.24206349206349223,0.24206349206349223,0.24206349206349223,0.24206349206349223,0.24206349206349223,0.24206349206349223,0.24206349206349223,0.24206349206349223,0.24206349206349223,0.24206349206349223,0.24206349206349223,0.24206349206349223,0.24206349206349223,0.24206349206349223,0.24206349206349223,0.24206349206349223,0.24206349206349223,0.24206349206349223,0.24206349206349223,0.24206349206349223,0.24206349206349223,0.24206349206349223,0.24206349206349223,0.24206349206349223,0.24206349206349223,0.24206349206349223,0.24206349206349223,0.24206349206349223,0.24206349206349223,0.24206349206349223,0.24206349206349223,0.24206349206349223,0.24206349206349223,0.24206349206349223,0.24206349206349223,0.24206349206349223,0.24206349206349223,0.24206349206349223,0.28015873015873033,0.31825396825396846,0.4325396825396827,0.4992063492063494,0.6039682539682542,0.7182539682539685,0.8134920634920637,0.8801587301587304,0.8992063492063493,0.9277777777777779,0.9373015873015875,0.946825396825397,0.946825396825397,0.946825396825397,0.946825396825397,0.9373015873015875,0.9277777777777779,0.9087301587301589,0.8801587301587304,0.8325396825396827,0.7753968253968255,0.7087301587301589,0.6515873015873017,0.5944444444444447,0.5563492063492065,0.5373015873015875,0.5182539682539684,0.5182539682539684,0.5182539682539684,0.5182539682539684,0.5182539682539684,0.5182539682539684,0.5182539682539684,0.5182539682539684,0.5182539682539684,0.5182539682539684,0.5182539682539684,0.5182539682539684,0.5182539682539684,0.5182539682539684,0.5182539682539684,0.5182539682539684,0.5087301587301589,0.4706349206349208,0.4134920634920637,0.346825396825397,0.28015873015873033,0.2325396825396827,0.146825396825397,0.10873015873015891,0.07063492063492081,0.03253968253968272,0.013492063492063673,0.0039682539682541484,0.0039682539682541484,-0.005555555555555375,-0.005555555555555375,-0.0150793650793649,-0.0150793650793649,-0.0150793650793649,-0.0150793650793649,-0.0150793650793649,-0.0150793650793649,-0.0150793650793649,-0.0150793650793649,-0.024603174603174422,-0.024603174603174422,-0.024603174603174422,-0.024603174603174422,-0.024603174603174422,-0.024603174603174422,-0.024603174603174422,-0.024603174603174422,-0.024603174603174422,-0.024603174603174422,-0.024603174603174422,-0.024603174603174422,-0.024603174603174422,-0.03412698412698394,-0.03412698412698394,-0.03412698412698394,-0.03412698412698394,-0.04365079365079347,-0.04365079365079347,-0.04365079365079347,-0.05317460317460299,-0.05317460317460299,-0.06269841269841252,-0.06269841269841252,-0.07222222222222204,-0.07222222222222204,-0.08174603174603157,-0.08174603174603157,-0.08174603174603157,-0.08174603174603157,-0.08174603174603157,-0.08174603174603157,-0.08174603174603157,-0.08174603174603157,-0.08174603174603157,-0.09126984126984108,-0.09126984126984108,-0.09126984126984108,-0.09126984126984108,-0.09126984126984108,-0.09126984126984108,-0.09126984126984108,-0.09126984126984108,-0.09126984126984108,-0.09126984126984108,-0.09126984126984108,-0.09126984126984108,-0.09126984126984108,-0.09126984126984108,-0.09126984126984108,-0.09126984126984108,-0.09126984126984108,-0.08174603174603157,-0.0150793650793649,0.06111111111111129,0.10873015873015891,0.146825396825397,0.17539682539682558,0.19444444444444461,0.19444444444444461,0.19444444444444461,0.19444444444444461,0.19444444444444461,0.19444444444444461,0.19444444444444461,0.19444444444444461,0.19444444444444461,0.19444444444444461,0.19444444444444461,0.19444444444444461,0.19444444444444461,0.19444444444444461,0.19444444444444461,0.19444444444444461,0.19444444444444461,0.1849206349206351,0.16587301587301606,0.146825396825397,0.12777777777777796,0.10873015873015891,0.08968253968253986,0.08015873015873035,0.06111111111111129,0.051587301587301765,0.04206349206349225,0.03253968253968272,0.03253968253968272,0.03253968253968272,0.03253968253968272,0.03253968253968272,0.03253968253968272,0.03253968253968272,0.03253968253968272,0.03253968253968272,0.03253968253968272,0.03253968253968272,0.03253968253968272,0.03253968253968272,0.04206349206349225,0.04206349206349225,0.04206349206349225,0.04206349206349225,0.04206349206349225,0.04206349206349225,0.04206349206349225,0.04206349206349225,0.04206349206349225,0.051587301587301765,0.051587301587301765,0.051587301587301765,0.051587301587301765,0.051587301587301765,0.051587301587301765,0.051587301587301765,0.051587301587301765,0.051587301587301765,0.051587301587301765,0.051587301587301765,0.051587301587301765,0.051587301587301765,0.051587301587301765,0.051587301587301765,0.051587301587301765,0.051587301587301765,0.051587301587301765,0.051587301587301765,0.051587301587301765,0.051587301587301765,0.051587301587301765,0.051587301587301765,0.051587301587301765,0.051587301587301765,0.051587301587301765,0.051587301587301765,0.051587301587301765,0.051587301587301765,0.051587301587301765,0.051587301587301765,0.051587301587301765,0.051587301587301765,0.051587301587301765,0.051587301587301765,0.051587301587301765,0.051587301587301765,0.051587301587301765,0.051587301587301765,0.051587301587301765,0.051587301587301765,0.051587301587301765,0.051587301587301765,0.051587301587301765,0.051587301587301765,0.051587301587301765,0.051587301587301765,0.051587301587301765,0.051587301587301765,0.051587301587301765,0.051587301587301765,0.051587301587301765,0.051587301587301765,0.051587301587301765,0.051587301587301765,0.051587301587301765,0.051587301587301765,0.051587301587301765,0.051587301587301765,0.051587301587301765,0.051587301587301765,0.051587301587301765,0.051587301587301765,0.051587301587301765,0.051587301587301765,0.051587301587301765,0.051587301587301765,0.051587301587301765,0.051587301587301765,0.051587301587301765,0.051587301587301765,0.051587301587301765,0.051587301587301765,0.051587301587301765,0.051587301587301765,0.051587301587301765,0.051587301587301765,0.051587301587301765,0.051587301587301765,0.051587301587301765,0.051587301587301765,0.051587301587301765,0.051587301587301765,0.051587301587301765,0.051587301587301765,0.051587301587301765,0.051587301587301765,0.051587301587301765,0.051587301587301765,0.051587301587301765,0.051587301587301765,0.051587301587301765,0.051587301587301765,0.051587301587301765,0.051587301587301765,0.051587301587301765,0.051587301587301765,0.051587301587301765,0.051587301587301765,0.051587301587301765,0.051587301587301765,0.051587301587301765,0.051587301587301765,0.051587301587301765,0.051587301587301765,0.051587301587301765,0.051587301587301765,0.051587301587301765,0.051587301587301765,0.051587301587301765,0.051587301587301765,0.051587301587301765,0.051587301587301765,0.051587301587301765,0.051587301587301765,0.051587301587301765,0.051587301587301765,0.051587301587301765,0.051587301587301765,0.051587301587301765,0.051587301587301765,0.051587301587301765,0.051587301587301765,0.08015873015873035,0.09920634920634938,0.11825396825396843,0.11825396825396843,0.11825396825396843,0.09920634920634938,0.07063492063492081,0.051587301587301765,0.04206349206349225,0.04206349206349225,0.04206349206349225,0.04206349206349225,0.04206349206349225,0.04206349206349225,0.04206349206349225,0.04206349206349225,0.04206349206349225,0.04206349206349225,0.04206349206349225,0.04206349206349225,0.04206349206349225,0.04206349206349225,0.04206349206349225,0.04206349206349225,0.03253968253968272,0.023015873015873198,0.013492063492063673,0.013492063492063673,0.013492063492063673,0.013492063492063673,0.013492063492063673,0.013492063492063673,0.013492063492063673,0.013492063492063673,0.0039682539682541484,0.0039682539682541484,0.0039682539682541484,0.0039682539682541484,0.0039682539682541484,0.0039682539682541484,0.0039682539682541484,0.0039682539682541484,0.0039682539682541484,0.0039682539682541484,0.0039682539682541484,0.0039682539682541484,0.0039682539682541484,0.0039682539682541484,0.0039682539682541484,0.0039682539682541484,0.0039682539682541484,0.0039682539682541484,0.0039682539682541484,0.0039682539682541484,0.0039682539682541484,0.0039682539682541484,0.0039682539682541484,0.0039682539682541484,0.0039682539682541484,0.0039682539682541484,0.0039682539682541484,0.0039682539682541484,0.0039682539682541484,0.0039682539682541484,0.0039682539682541484,0.0039682539682541484,0.0039682539682541484,0.0039682539682541484,0.0039682539682541484,0.0039682539682541484,0.0039682539682541484,0.0039682539682541484,0.0039682539682541484,0.0039682539682541484,0.0039682539682541484,0.0039682539682541484,0.0039682539682541484,0.0039682539682541484,0.0039682539682541484,0.0039682539682541484,0.0039682539682541484,0.0039682539682541484,0.0039682539682541484,0.0039682539682541484,-0.024603174603174422,-0.11031746031746013,-0.3007936507936506,-0.6246031746031744,-1.0055555555555553,-1.2436507936507935,-1.472222222222222,-1.5674603174603172,-1.6341269841269839,-1.6626984126984126,-1.672222222222222,-1.672222222222222,-1.672222222222222,-1.6626984126984126,-1.6626984126984126,-1.6626984126984126,-1.6626984126984126,-1.6626984126984126,-1.6626984126984126,-1.6626984126984126,-1.6626984126984126,-1.6626984126984126,-1.6626984126984126,-1.653174603174603,-1.615079365079365,-1.5769841269841267,-1.51031746031746,-1.4626984126984126,-1.4246031746031744,-1.396031746031746,-1.3865079365079362,-1.3865079365079362,-1.3769841269841268,-1.3769841269841268,-1.3769841269841268,-1.3769841269841268,-1.3769841269841268,-1.3674603174603173,-1.3674603174603173,-1.3674603174603173,-1.3579365079365078,-1.3579365079365078,-1.3579365079365078,-1.3579365079365078,-1.3579365079365078,-1.3579365079365078,-1.3579365079365078,-1.3579365079365078,-1.3579365079365078,-1.3579365079365078,-1.3579365079365078,-1.3579365079365078,-1.3579365079365078,-1.3579365079365078,-1.3579365079365078,-1.3579365079365078,-1.3579365079365078,-1.3484126984126983,-1.3484126984126983,-1.3484126984126983,-1.3388888888888888,-1.329365079365079,-1.3198412698412696,-1.3198412698412696,-1.31031746031746,-1.31031746031746,-1.31031746031746,-1.31031746031746,-1.31031746031746,-1.31031746031746,-1.31031746031746,-1.31031746031746,-1.31031746031746,-1.31031746031746,-1.3198412698412696,-1.329365079365079,-1.3388888888888888,-1.3484126984126983,-1.3484126984126983,-1.3579365079365078,-1.3579365079365078,-1.3674603174603173,-1.3674603174603173,-1.3674603174603173,-1.3769841269841268,-1.396031746031746,-1.396031746031746,-1.396031746031746,-1.396031746031746,-1.396031746031746,-1.396031746031746,-1.396031746031746,-1.396031746031746,-1.396031746031746,-1.396031746031746,-1.396031746031746,-1.396031746031746,-1.396031746031746,-1.396031746031746,-1.396031746031746,-1.396031746031746,-1.396031746031746,-1.396031746031746,-1.3674603174603173,-1.31031746031746,-1.2246031746031745,-1.0817460317460315,-0.9293650793650792,-0.8150793650793648,-0.691269841269841,-0.5769841269841268,-0.5198412698412697,-0.4626984126984125,-0.453174603174603,-0.453174603174603,-0.453174603174603,-0.453174603174603,-0.453174603174603,-0.453174603174603,-0.453174603174603,-0.453174603174603,-0.453174603174603,-0.453174603174603,-0.453174603174603,-0.453174603174603,-0.453174603174603,-0.453174603174603,-0.453174603174603,-0.453174603174603,-0.44365079365079346,-0.4246031746031744,-0.39603174603174585,-0.3865079365079363,-0.3388888888888887,-0.31031746031746016,-0.2817460317460316,-0.253174603174603,-0.22460317460317442,-0.20555555555555538,-0.19603174603174586,-0.18650793650793632,-0.18650793650793632,-0.18650793650793632,-0.18650793650793632,-0.18650793650793632,-0.18650793650793632,-0.18650793650793632,-0.18650793650793632,-0.18650793650793632,-0.18650793650793632,-0.18650793650793632,-0.18650793650793632,-0.18650793650793632,-0.1769841269841268,-0.14841269841269822,-0.11031746031746013,-0.03412698412698394,-0.005555555555555375,0.013492063492063673,0.023015873015873198,0.03253968253968272,0.03253968253968272,0.03253968253968272,0.03253968253968272,0.03253968253968272,0.03253968253968272,0.03253968253968272,0.03253968253968272,0.03253968253968272,0.03253968253968272,0.03253968253968272,0.023015873015873198,0.023015873015873198,0.013492063492063673,0.013492063492063673,0.013492063492063673,0.0039682539682541484,0.0039682539682541484,0.0039682539682541484,0.0039682539682541484,0.0039682539682541484,0.0039682539682541484,0.0039682539682541484,0.0039682539682541484,0.0039682539682541484,0.0039682539682541484,0.0039682539682541484,0.0039682539682541484,0.0039682539682541484,0.0039682539682541484,0.0039682539682541484,0.0039682539682541484,0.0039682539682541484,0.0039682539682541484,0.0039682539682541484,0.0039682539682541484,0.0039682539682541484,0.0039682539682541484,0.0039682539682541484,0.0039682539682541484,0.0039682539682541484,0.0039682539682541484,0.0039682539682541484,0.0039682539682541484,0.0039682539682541484,0.0039682539682541484,0.0039682539682541484,0.0039682539682541484,0.0039682539682541484,0.0039682539682541484,0.0039682539682541484,0.0039682539682541484,0.0039682539682541484,0.0039682539682541484,0.0039682539682541484,0.0039682539682541484,0.0039682539682541484,0.0039682539682541484,0.0039682539682541484,0.0039682539682541484,0.0039682539682541484,0.0039682539682541484,0.0039682539682541484,0.0039682539682541484,0.0039682539682541484,0.0039682539682541484,0.0039682539682541484,0.0039682539682541484,0.0039682539682541484,0.0039682539682541484,0.0039682539682541484,0.0039682539682541484,0.0039682539682541484,0.0039682539682541484,0.0039682539682541484,0.0039682539682541484,0.0039682539682541484,0.0039682539682541484,0.0039682539682541484,0.0039682539682541484,0.0039682539682541484,0.0039682539682541484,0.0039682539682541484,0.0039682539682541484,0.0039682539682541484,0.0039682539682541484,0.0039682539682541484,0.0039682539682541484,0.0039682539682541484,0.0039682539682541484,0.0039682539682541484,0.0039682539682541484,0.0039682539682541484,0.0039682539682541484,0.0039682539682541484,0.0039682539682541484,0.0039682539682541484,0.0039682539682541484,0.0039682539682541484,0.0039682539682541484,0.0039682539682541484,0.0039682539682541484,0.0039682539682541484,0.0039682539682541484,0.0039682539682541484,0.0039682539682541484,0.0039682539682541484,0.0039682539682541484,0.0039682539682541484,0.0039682539682541484,0.0039682539682541484,0.0039682539682541484,0.0039682539682541484,0.0039682539682541484,0.0039682539682541484,0.0039682539682541484,0.0039682539682541484,0.0039682539682541484,0.0039682539682541484,0.0039682539682541484,0.0039682539682541484,0.0039682539682541484,0.0039682539682541484,0.0039682539682541484,0.0039682539682541484,0.0039682539682541484,0.0039682539682541484,0.0039682539682541484,0.0039682539682541484,0.0039682539682541484,0.0039682539682541484,0.0039682539682541484,0.0039682539682541484,0.0039682539682541484,0.0039682539682541484,0.0039682539682541484,0.0039682539682541484,0.0039682539682541484,0.0039682539682541484,0.0039682539682541484,0.0039682539682541484,0.0039682539682541484,0.0039682539682541484,0.0039682539682541484,0.0039682539682541484,0.0039682539682541484,0.0039682539682541484,0.0039682539682541484,0.0039682539682541484,0.0039682539682541484,0.0039682539682541484,0.0039682539682541484,0.0039682539682541484,0.0039682539682541484,0.0039682539682541484,0.0039682539682541484,0.0039682539682541484,0.0039682539682541484,0.0039682539682541484,0.0039682539682541484,0.0039682539682541484,0.0039682539682541484,0.0039682539682541484,0.0039682539682541484,0.0039682539682541484,0.0039682539682541484,0.0039682539682541484,0.013492063492063673,0.13730158730158748,0.29920634920634936,0.44206349206349227,0.5373015873015875,0.6230158730158732,0.6420634920634922,0.6611111111111113,0.6706349206349208,0.6706349206349208,0.6706349206349208,0.6706349206349208,0.6706349206349208,0.6706349206349208,0.6706349206349208,0.6706349206349208,0.6706349206349208,0.6706349206349208,0.6706349206349208,0.6706349206349208,0.6706349206349208,0.6706349206349208,0.6706349206349208,0.6706349206349208,0.6706349206349208,0.6706349206349208,0.6706349206349208,0.6706349206349208,0.6706349206349208,0.6706349206349208,0.6706349206349208,0.6706349206349208,0.6706349206349208,0.6706349206349208,0.6706349206349208,0.6706349206349208,0.6706349206349208,0.6706349206349208,0.6706349206349208,0.6706349206349208,0.6706349206349208,0.6706349206349208,0.6706349206349208,0.6706349206349208,0.6706349206349208,0.6706349206349208,0.6706349206349208,0.6706349206349208,0.6706349206349208,0.6706349206349208,0.6706349206349208,0.6706349206349208,0.6706349206349208,0.6706349206349208,0.6706349206349208,0.6706349206349208,0.6706349206349208,0.6706349206349208,0.6706349206349208,0.6706349206349208,0.6706349206349208,0.6706349206349208,0.6706349206349208,0.6706349206349208,0.6706349206349208,0.6706349206349208,0.6706349206349208,0.6706349206349208,0.6706349206349208,0.6706349206349208,0.6706349206349208,0.6706349206349208,0.6706349206349208,0.6706349206349208,0.6706349206349208,0.6706349206349208,0.6706349206349208,0.6706349206349208,0.6706349206349208,0.6706349206349208,0.6706349206349208,0.6706349206349208,0.6706349206349208,0.6706349206349208,0.6706349206349208,0.6706349206349208,0.6706349206349208,0.6706349206349208,0.6706349206349208,0.6706349206349208,0.6706349206349208,0.6706349206349208,0.6706349206349208,0.6706349206349208,0.6706349206349208,0.6706349206349208,0.6706349206349208,0.6706349206349208,0.6706349206349208,0.6706349206349208,0.6706349206349208,0.6706349206349208,0.6706349206349208,0.6706349206349208,0.6706349206349208,0.6706349206349208,0.6706349206349208,0.6706349206349208,0.6706349206349208,0.6706349206349208,0.6706349206349208,0.6706349206349208,0.6706349206349208,0.6706349206349208,0.6706349206349208,0.6706349206349208,0.6706349206349208,0.6706349206349208,0.6706349206349208,0.6706349206349208,0.6706349206349208,0.6706349206349208,0.6706349206349208,0.6706349206349208,0.6706349206349208,0.6706349206349208,0.6706349206349208,0.6706349206349208,0.6706349206349208,0.6706349206349208,0.6706349206349208,0.6706349206349208,0.6706349206349208,0.6706349206349208,0.6706349206349208,0.6706349206349208,0.6706349206349208,0.6706349206349208,0.6706349206349208,0.6706349206349208,0.6706349206349208,0.6706349206349208,0.6706349206349208,0.6706349206349208,0.6706349206349208,0.6706349206349208,0.6706349206349208,0.6706349206349208,0.6706349206349208,0.6706349206349208,0.6706349206349208,0.6706349206349208,0.6706349206349208,0.6706349206349208,0.6706349206349208,0.6706349206349208,0.6706349206349208,0.6706349206349208,0.6706349206349208,0.6706349206349208,0.6706349206349208,0.6706349206349208,0.6706349206349208,0.6706349206349208,0.6706349206349208,0.6706349206349208,0.6706349206349208,0.6706349206349208,0.6706349206349208,0.6896825396825399,0.7468253968253971,0.7753968253968255,0.8134920634920637,0.8420634920634923,0.8611111111111113,0.8801587301587304,0.8896825396825399,0.8896825396825399,0.8896825396825399,0.8896825396825399,0.8896825396825399,0.8896825396825399,0.8896825396825399,0.8896825396825399,0.8896825396825399,0.8896825396825399,0.8896825396825399,0.8896825396825399,0.8896825396825399,0.8896825396825399,0.8896825396825399,0.8896825396825399,0.8896825396825399,0.8896825396825399,0.8896825396825399,0.8611111111111113,0.8230158730158732,0.727777777777778,0.5944444444444447,0.45158730158730176,0.31825396825396846,0.20396825396825416,0.15634920634920654,0.10873015873015891,0.08968253968253986,0.08015873015873035,0.08015873015873035,0.08015873015873035,0.08015873015873035,0.08015873015873035,0.08015873015873035,0.08015873015873035,0.08015873015873035,0.08015873015873035,0.08015873015873035,0.08015873015873035,0.08015873015873035,0.08015873015873035,0.08015873015873035,0.08015873015873035,0.08015873015873035,0.08015873015873035,0.07063492063492081,0.04206349206349225,0.023015873015873198,0.013492063492063673,0.0039682539682541484,0.0039682539682541484,-0.005555555555555375,-0.005555555555555375,-0.005555555555555375,-0.005555555555555375,-0.005555555555555375,-0.005555555555555375,-0.005555555555555375,-0.005555555555555375,-0.005555555555555375,-0.005555555555555375,-0.005555555555555375,-0.005555555555555375,-0.005555555555555375,-0.005555555555555375,-0.005555555555555375,-0.005555555555555375,-0.005555555555555375,-0.005555555555555375,-0.005555555555555375,-0.005555555555555375,-0.005555555555555375,-0.005555555555555375,-0.005555555555555375,-0.005555555555555375,-0.005555555555555375,-0.005555555555555375,-0.005555555555555375,-0.005555555555555375,-0.005555555555555375,-0.005555555555555375,-0.005555555555555375,-0.005555555555555375,-0.005555555555555375,-0.005555555555555375,-0.005555555555555375,-0.005555555555555375,-0.005555555555555375,-0.005555555555555375,-0.005555555555555375,-0.005555555555555375,-0.005555555555555375,-0.005555555555555375,-0.005555555555555375,-0.005555555555555375,-0.005555555555555375,-0.005555555555555375,-0.005555555555555375,-0.005555555555555375,-0.005555555555555375,-0.005555555555555375,-0.005555555555555375,-0.005555555555555375,-0.005555555555555375,-0.0055555555555553