[{"success":true,"trial_type":"fullscreen","trial_index":0,"time_elapsed":2564,"internal_node_id":"0.0-0.0","protocol_sum":"","subject_identifier":502,"subject_sum":[199,93,63,31,91,205,105,20,208,51,28,229,236,23,192,219,143,32,112,162,212,40,95,142,63,241,28,108,161,145,104,255],"subject_pair":251,"STUDY_ID":"66a3ed3c5d10d0e7d8a6b9da","PROLIFIC_PID":"61004e962509f21ce295df3d","SESSION_ID":"66a3f2f88500773057c304f5","practice_instructions":1,"leaderboard_instructions":1,"bonus":0,"reveal_word":false,"self_rating":"3","confidence":"79"},{"view_history":"[{\"page_index\":0,\"viewing_time\":4882.599999904633}]","rt":4882.699999809265,"trial_type":"instructions","trial_index":1,"time_elapsed":7447,"internal_node_id":"0.0-1.0","protocol_sum":"","subject_identifier":502,"subject_sum":[199,93,63,31,91,205,105,20,208,51,28,229,236,23,192,219,143,32,112,162,212,40,95,142,63,241,28,108,161,145,104,255],"subject_pair":251,"STUDY_ID":"66a3ed3c5d10d0e7d8a6b9da","PROLIFIC_PID":"61004e962509f21ce295df3d","SESSION_ID":"66a3f2f88500773057c304f5","practice_instructions":1,"leaderboard_instructions":1,"bonus":0,"reveal_word":false,"self_rating":"3","confidence":"79"},{"view_history":"[{\"page_index\":0,\"viewing_time\":30630.900000095367}]","rt":30631.200000047684,"trial_type":"instructions","trial_index":2,"time_elapsed":38079,"internal_node_id":"0.0-2.0-0.0","protocol_sum":"","subject_identifier":502,"subject_sum":[199,93,63,31,91,205,105,20,208,51,28,229,236,23,192,219,143,32,112,162,212,40,95,142,63,241,28,108,161,145,104,255],"subject_pair":251,"STUDY_ID":"66a3ed3c5d10d0e7d8a6b9da","PROLIFIC_PID":"61004e962509f21ce295df3d","SESSION_ID":"66a3f2f88500773057c304f5","practice_instructions":1,"leaderboard_instructions":1,"bonus":0,"reveal_word":false,"self_rating":"3","confidence":"79"},{"rt":5857.200000047684,"responses":"{\"Q0\":\"... reveal the word with as <b>few letter guesses</b> as possible\"}","question_order":"[0]","trial_type":"survey-multi-choice","trial_index":3,"time_elapsed":43937,"internal_node_id":"0.0-2.0-1.0","protocol_sum":"","subject_identifier":502,"subject_sum":[199,93,63,31,91,205,105,20,208,51,28,229,236,23,192,219,143,32,112,162,212,40,95,142,63,241,28,108,161,145,104,255],"subject_pair":251,"correct":true,"test_part":"multichoice_nonpretend","STUDY_ID":"66a3ed3c5d10d0e7d8a6b9da","PROLIFIC_PID":"61004e962509f21ce295df3d","SESSION_ID":"66a3f2f88500773057c304f5","practice_instructions":1,"leaderboard_instructions":1,"bonus":0,"reveal_word":false,"self_rating":"3","confidence":"79"},{"view_history":"[{\"page_index\":0,\"viewing_time\":857.0999999046326}]","rt":857.2999999523163,"trial_type":"instructions","trial_index":4,"time_elapsed":44795,"internal_node_id":"0.0-3.0","protocol_sum":"","subject_identifier":502,"subject_sum":[199,93,63,31,91,205,105,20,208,51,28,229,236,23,192,219,143,32,112,162,212,40,95,142,63,241,28,108,161,145,104,255],"subject_pair":251,"STUDY_ID":"66a3ed3c5d10d0e7d8a6b9da","PROLIFIC_PID":"61004e962509f21ce295df3d","SESSION_ID":"66a3f2f88500773057c304f5","practice_instructions":1,"leaderboard_instructions":1,"bonus":0,"reveal_word":false,"self_rating":"3","confidence":"79"},{"word":"ZEBRA","click_log":{"letter":["","E","S","N","R","A","Z","B"],"t":[0,25692.400000095367,51529.5,74262.20000004768,77011.60000014305,80190.60000014305,91061.10000014305,92305.29999995232],"hit":[null,1,0,0,1,1,1,1],"asked":["","E","ES","ESN","ESNR","ESNRA","ESNRAZ","ESNRAZB"],"word_state":["_____","_E___","_E___","_E___","_E_R_","_E_RA","ZE_RA","ZEBRA"]},"hover_log":{"letter":["?","?","?","?","?","?","?","?","?","?","?","?","?","?","?","?","?","?","?","?","?","?","?","?","?","?","?","?","?","?","?","?","?","?","?","?","?","?","?","?","?","?","?","?","?","?","?","?","?","?","?","?","?","?","?","?","?","?","?","?","?","?","?","?","?","?","?","?","?","?","?","?","?","?","?","?","?","?","?","?","?","?","?","?","?","?","?","?","?","?","?","?","?","?","?","?","?","?","?","?","?","?","?","?","?","?","?","?","?","?","?","?","?","?","?","?","?","?","?","?","?","?","?","?","?","?","?","?","?","?","?","?","?","?","?","?","?","?","H","?","?","?","?","?","?","?","?","?","?","?","?","?","?","?","?","?","?","?","?","?","?","?","?","?","?","?","H","H","H","H","H","H","H","H","H","H","H","H","H","H","H","H","?","?","?","?","Q","?","?","?","?","?","R","R","R","R","R","R","R","?","?","?","?","?","?","?","?","?","?","R","R","Q","Q","P","?","O","?","?","?","?","?","?","?","?","?","?","?","?","N","N","N","?","?","?","?","?","?","?","?","?","?","?","?","?","?","?","?","?","?","?","?","?","?","?","?","?","?","?","?","?","?","?","?","?","?","?","?","?","?","?","?","?","?","?","?","?","?","?","?","?","?","?","?","?","?","?","?","?","?","?","?","?","?","?","?","?","?","?","?","?","?","?","?","?","?","?","?","?","?","?","?","?","?","?","?","?","?","?","?","?","?","?","?","?","?","?","?","?","?","?","?","?","?","?","?","?","?","?","?","?","?","?","?","?","?","?","?","?","?","?","?","?","?","?","?","?","?","?","?","?","?","?","?","?","?","?","?","?","?","?","?","?","?","?","?","?","?","?","?","?","?","?","?","?","?","?","?","?","?","?","?","?","?","?","?","?","?","?","?","?","?","?","?","?","?","?","?","?","?","?","?","?","?","?","?","?","?","?","?","?","?","?","?","?","?","?","?","?","?","?","?","?","?","?","?","?","?","?","?","?","?","?","?","?","?","?","?","?","?","?","?","?","?","?","?","?","?","?","?","?","?","?","?","?","?","?","?","?","?","?","?","?","?","?","?","?","?","?","?","?","?","?","?","?","?","?","?","?","?","?","?","?","?","?","?","?","?","?","?","?","?","?","?","?","?","B","B","?","?","?","?","?","?","M","?","?","?","?","E","E","E","E","E","E","E","?","?","?","?","?","?","?","?","?","?","?","?","?","?","?","?","?","?","?","?","?","?","?","?","?","?","?","?","?","?","?","?","?","?","?","?","?","?","?","?","?","?","?","?","?","?","?","?","?","?","?","?","?","?","?","?","?","?","?","?","?","?","?","?","?","?","?","?","?","?","?","?","?","?","?","?","?","?","?","?","?","?","?","?","?","?","?","?","?","?","?","?","?","?","?","?","?","?","?","?","?","?","?","?","?","?","?","?","?","?","?","?","?","?","?","?","?","?","?","?","?","?","?","?","?","?","?","?","?","?","?","?","?","?","?","?","?","?","?","?","?","?","?","?","?","?","?","?","?","?","?","?","?","?","?","?","?","?","?","?","?","?","?","?","?","?","?","?","?","?","?","?","?","?","?","?","?","?","?","?","?","?","?","?","?","?","?","?","?","?","?","?","?","?","?","?","?","?","?","?","?","?","?","?","?","?","?","?","?","?","?","?","?","?","?","?","?","?","?","?","?","?","?","?","?","?","?","?","?","?","?","?","?","?","?","?","?","?","?","?","?","?","?","?","?","?","?","?","?","?","?","?","?","?","?","?","?","?","?","?","?","?","?","?","?","?","?","?","?","?","?","?","?","?","?","?","?","?","?","?","?","?","?","?","?","?","?","?","?","?","?","?","?","?","?","?","?","?","?","?","?","?","?","?","?","?","?","?","?","?","?","?","?","?","?","?","?","?","?","?","?","?","?","?","?","?","?","?","?","?","?","?","?","?","?","?","?","?","?","?","?","?","?","?","?","?","?","?","?","?","?","?","?","?","?","?","?","?","?","?","?","?","?","?","?","?","?","?","?","?","?","?","?","?","?","?","?","?","?","?","?","?","?","?","?","?","?","?","?","?","?","?","?","?","?","?","?","?","?","?","?","?","?","?","?","?","?","?","?","?","?","?","?","?","S","S","?","?","?","?","?","?","?","?","?","?","?","?","?","?","?","?","?","?","?","?","?","?","?","?","?","?","?","?","?","?","?","?","?","?","?","?","?","?","?","?","?","?","?","?","?","?","?","?","?","?","?","?","?","?","?","?","?","?","?","?","?","?","?","?","?","?","?","T","T","?","?","?","?","?","?","?","?","?","?","?","?","?","?","?","?","?","?","?","?","?","?","?","?","?","?","?","?","?","?","?","?","?","?","?","?","?","?","?","?","?","?","?","?","?","?","?","?","?","?","?","?","?","?","?","?","?","?","?","?","?","?","?","?","?","?","?","?","?","?","?","?","?","?","?","?","?","?","?","?","?","?","?","?","?","?","?","?","?","?","?","?","?","?","?","?","?","?","?","?","?","?","?","?","?","?","?","?","?","?","?","?","?","?","?","?","?","?","?","?","?","?","?","?","?","?","?","?","?","?","?","?","?","?","?","?","?","?","?","?","?","?","?","?","?","?","?","?","?","?","?","?","?","?","?","?","?","?","?","?","?","?","?","?","?","?","?","?","?","C","?","L","?","?","?","?","?","?","?","?","?","?","?","?","?","?","?","?","?","?","?","?","?","?","?","?","?","?","?","?","?","?","?","?","?","?","?","?","?","?","?","?","?","?","?","?","?","?","?","?","?","?","?","?","?","?","?","?","?","?","?","?","?","?","?","?","?","?","?","?","?","?","?","?","?","?","?","?","?","?","?","?","?","?","?","?","?","?","?","?","?","?","?","?","?","?","?","?","?","?","?","?","?","?","?","?","?","?","?","?","?","?","?","?","?","?","?","?","?","?","?","?","?","?","?","?","?","?","?","?","?","?","?","?","?","?","?","?","?","?","?","?","?","?","?","?","?","?","?","?","?","?","?","?","?","?","?","?","?","?","?","?","?","?","?","?","?","?","?","?","?","?","?","?","?","?","?","?","?","?","?","?","?","?","?","?","?","?","?","?","?","Q","?","G","?","?","?","?","?","?","?","?","?","?","?","?","?","?","?","?","?","?","?","?","?","?","?","?","?","?","?","?","?","?","?","?","?","?","?","?","?","?","?","?","?","?","?","?","?","?","?","?","?","?","?","?","?","?","?","?","?","?","?","?","?","?","?","?","?","?","?","?","?","?","?","?","?","?","?","?","?","?","?","?","?","?","?","?","?","?","?","?","?","?","?","?","?","?","?","?","?","?","G","?","?","?","?","O","O","O","O","O","?","N","N","N","N","?","?","?","?","?","?","?","?","?","?","?","?","?","?","?","?","?","?","?","?","E","E","E","E","E","E","E","?","?","F","F","F","F","F","?","?","?","?","E","E","E","E","E","E","E","E","E","E","E","E","E","E","E","E","E","E","E","E","E","E","E","E","E","E","E","E","E","E","E","E","E","E","E","E","E","E","E","E","E","E","E","E","E","E","E","E","E","E","E","E","?","?","?","?","?","?","?","?","?","?","?","?","?","?","?","?","?","?","?","?","?","?","?","?","?","?","?","E","E","E","E","E","E","E","E","E","E","E","E","E","E","E","E","E","E","E","E","E","E","E","E","E","E","E","E","E","E","E","E","E","E","E","E","E","E","E","E","E","E","E","E","E","E","E","E","E","E","E","E","E","E","E","E","E","E","E","E","E","E","E","E","E","E","E","E","E","E","E","E","E","E","E","E","E","E","E","E","E","E","E","E","E","E","E","E","E","E","?","?","?","?","?","?","?","?","?","?","?","?","?","?","?","?","?","?","?","?","?","?","?","?","?","?","?","?","?","?","?","?","?","?","E","?","?","?","?","?","?","?","?","?","?","?","?","?","?","?","?","?","?","?","?","?","?","?","?","?","?","?","?","?","?","?","?","?","?","?","?","?","?","?","?","?","?","?","?","?","?","?","?","?","?","?","?","?","?","?","?","?","?","?","?","?","?","?","?","?","?","?","?","?","?","?","?","?","?","?","?","?","?","?","?","?","?","?","?","?","?","?","?","?","?","?","?","?","?","?","?","?","?","?","?","?","?","?","?","?","?","?","?","?","?","?","?","?","?","?","?","?","?","?","?","?","?","?","?","?","?","?","?","?","?","?","?","?","?","?","?","?","?","?","?","?","?","?","?","?","?","?","?","?","?","?","?","?","?","?","?","?","?","?","?","?","?","?","?","?","?","?","?","?","?","?","?","?","?","?","?","?","?","?","?","?","?","?","?","?","?","?","?","?","?","?","?","?","?","?","?","?","?","?","?","?","?","?","?","?","?","?","?","?","?","?","?","?","?","?","?","?","?","?","?","?","?","?","?","?","?","?","?","?","?","?","?","?","?","?","?","?","?","?","?","?","?","?","?","?","?","?","?","?","?","?","?","?","?","?","?","?","?","?","?","?","?","?","?","?","?","?","?","?","?","?","?","?","?","?","?","?","?","?","?","?","?","?","?","X","?","?","?","?","?","?","?","?","?","?","?","?","?","?","?","?","?","?","?","?","?","?","?","?","?","?","?","?","?","?","?","?","?","?","?","?","?","?","?","?","?","?","?","?","?","?","?","?","?","?","?","?","?","?","?","?","?","?","?","?","?","?","?","?","?","?","?","?","?","?","F","?","O","?","?","W","?","?","?","?","?","?","?","?","?","?","?","?","?","?","?","?","?","?","?","?","?","?","?","?","?","?","?","?","?","?","?","?","?","?","?","?","?","?","?","?","?","?","?","?","?","?","?","?","?","?","?","?","?","?","?","?","?","?","?","?","?","?","?","?","?","?","?","?","?","?","?","?","?","?","?","?","?","?","?","?","?","?","?","?","?","?","?","?","?","?","?","?","?","?","?","?","?","?","?","?","?","?","?","?","?","?","?","?","?","?","?","?","?","?","?","?","?","?","?","?","?","?","?","?","?","?","?","?","?","?","?","?","?","?","?","?","?","?","?","?","?","?","?","?","?","?","?","?","?","?","?","?","?","?","?","?","?","?","?","?","?","?","?","?","?","?","?","?","?","?","?","?","?","?","?","?","?","?","?","?","?","?","?","?","?","?","?","?","?","?","?","?","?","?","?","?","?","?","?","?","?","?","?","?","?","?","?","?","?","?","?","?","?","?","?","?","?","?","?","?","?","?","?","?","?","?","?","?","?","?","?","?","?","?","?","?","?","?","?","?","?","?","?","?","?","?","?","?","?","?","?","?","?","?","?","?","?","?","?","?","?","?","?","?","?","?","?","?","?","?","?","?","?","?","?","?","?","?","?","?","?","?","?","?","?","?","?","?","?","?","?","?","?","?","?","?","?","?","?","?","?","?","?","?","?","?","?","?","?","?","?","?","?","?","?","?","?","?","?","?","?","?","?","?","?","?","?","?","?","?","?","?","?","?","?","?","?","?","?","?","?","?","?","?","?","?","?","?","?","?","?","?","?","?","?","?","?","?","?","?","?","?","?","?","?","?","?","?","?","?","?","?","?","?","?","?","?","?","?","?","?","?","?","?","?","?","?","?","?","?","?","?","?","?","?","?","?","?","?","?","?","?","?","?","?","?","?","?","?","?","?","?","?","?","?","?","?","?","?","?","?","?","?","?","?","?","?","?","?","?","?","?","?","?","?","?","?","?","?","?","?","?","?","?","?","?","?","?","?","?","?","?","?","?","?","?","?","?","?","?","?","?","?","?","?","?","?","?","?","?","?","?","?","?","?","?","?","?","?","?","?","?","?","?","?","?","?","?","?","?","?","?","?","?","?","?","?","?","?","?","?","?","?","?","?","?","?","?","?","?","?","?","?","?","?","?","?","?","?","?","?","?","?","?","?","?","?","?","?","?","?","?","?","?","?","?","?","?","?","?","?","?","?","?","?","?","?","?","?","?","?","?","?","?","?","?","?","?","?","?","?","?","?","?","?","?","?","?","?","?","?","?","?","?","?","?","?","?","?","?","?","?","?","?","?","?","?","?","?","?","?","?","?","?","?","?","?","?","?","?","?","?","?","?","?","?","?","?","?","?","?","?","?","?","?","?","?","?","?","?","?","?","?","?","?","?","?","?","?","?","?","?","?","?","?","?","?","?","?","?","?","?","?","?","?","?","?","?","?","?","?","?","?","?","?","?","?","?","?","?","?","?","?","?","?","?","?","?","?","?","?","?","?","?","?","?","?","?","?","?","?","?","?","?","?","?","?","?","?","?","?","?","?","?","?","?","?","?","?","?","?","?","?","?","?","?","?","?","?","?","?","?","?","?","?","?","?","?","?","?","?","?","?","?","?","?","?","?","?","?","?","?","?","?","?","?","?","?","?","?","?","?","?","?","?","?","?","?","?","?","?","?","?","T","K","?","?","?","?","?","?","?","?","?","?","?","?","?","?","?","?","?","?","?","?","?","?","?","?","?","?","?","?","?","?","?","?","?","?","?","?","?","?","?","?","?","?","?","?","?","?","?","?","?","?","?","?","?","?","?","?","?","?","?","?","?","?","?","?","?","?","?","?","?","?","?","?","?","?","?","?","?","?","?","?","?","?","?","?","?","?","?","?","?","?","?","?","?","?","?","?","?","?","?","?","?","?","?","?","?","?","?","?","?","?","?","?","?","?","?","?","?","?","?","?","?","?","?","?","?","?","?","?","?","?","?","?","?","?","?","?","?","?","?","?","?","?","?","C","?","J","?","?","?","?","?","?","?","?","?","?","?","?","?","?","?","?","?","T","T","T","T","T","T","T","T","T","?","?","?","?","?","?","?","?","?","?","?","?","?","A","A","A","A","A","A","A","A","A","A","A","A","A","A","A","A","A","A","A","A","A","A","A","A","A","A","A","?","?","J","J","J","?","?","?","?","?","?","?","?","?","?","?","?","?","?","S","S","S","S","S","S","S","S","S","S","S","S","S","S","S","S","S","S","S","S","S","S","S","S","S","S","S","S","S","S","?","?","?","?","?","?","?","?","?","?","?","?","?","?","?","?","?","?","?","?","?","?","?","?","?","?","?","?","?","?","?","?","?","?","?","?","?","?","?","?","?","?","?","?","?","?","?","?","?","?","?","?","?","?","?","?","?","?","?","?","?","?","?","?","?","?","?","?","?","?","?","?","?","?","?","?","?","?","?","?","?","?","?","?","?","?","?","?","?","?","?","?","?","?","?","?","?","?","?","?","?","?","?","?","?","?","?","?","?","?","?","?","?","?","?","?","?","?","?","?","?","?","?","?","?","?","?","?","?","?","?","?","?","?","?","?","?","?","?","?","?","?","?","?","?","?","?","?","?","?","?","?","?","?","?","?","?","?","?","?","?","?","?","?","?","?","?","?","?","?","?","?","?","?","?","?","?","?","?","?","?","?","?","?","?","?","?","?","?","?","?","?","?","?","?","?","?","?","?","?","?","?","?","?","?","?","?","?","?","?","?","?","?","?","?","?","?","?","?","?","?","?","?","?","?","?","?","?","?","?","?","?","?","?","?","?","?","?","?","?","?","?","?","?","?","?","?","?","?","?","?","?","?","?","?","?","?","?","?","?","?","?","R","R","R","R","R","R","R","R","R","R","R","R","R","R","R","R","R","R","R","R","R","R","R","R","R","R","R","R","R","R","R","R","R","R","R","R","R","R","R","R","R","R","R","R","R","R","R","R","R","R","R","R","R","R","R","R","R","R","R","R","R","R","R","R","R","R","R","R","R","R","R","R","R","R","R","R","R","R","R","R","R","R","R","R","R","R","R","R","R","R","R","R","R","R","R","R","R","R","R","R","R","R","R","R","R","R","R","R","R","R","R","R","R","R","R","R","R","R","R","R","R","R","R","R","R","R","R","R","R","R","R","R","R","R","R","R","R","R","R","R","R","R","R","R","R","R","R","R","R","R","R","R","R","R","R","R","R","R","R","R","R","R","R","R","R","R","R","R","R","R","R","R","R","R","R","R","R","R","R","R","R","R","R","R","R","R","R","R","R","R","R","R","R","R","R","R","R","R","R","R","R","R","R","R","R","R","R","R","R","R","R","R","R","R","R","R","R","R","R","R","?","?","?","?","?","?","?","?","?","?","?","?","?","?","?","?","?","?","?","?","?","?","?","?","?","?","?","?","?","?","?","?","?","?","?","?","?","?","?","?","?","?","?","?","?","?","?","?","?","?","?","?","?","?","?","?","?","?","?","?","?","?","?","?","?","?","?","?","?","?","?","?","?","?","?","?","?","?","?","?","?","?","?","?","?","?","?","?","?","?","?","?","?","?","?","?","?","?","?","?","?","?","?","?","?","?","?","?","?","?","?","?","?","?","?","?","?","?","?","?","?","?","?","?","?","?","?","?","?","?","?","?","?","?","?","?","?","?","?","?","?","?","?","?","?","?","?","?","?","?","?","?","?","?","?","?","?","?","?","?","?","?","?","?","?","?","?","?","?","?","?","?","?","?","?","?","?","?","?","?","?","?","?","?","?","?","?","?","?","?","?","?","?","?","?","?","?","?","?","?","?","?","?","?","?","?","?","?","?","?","?","?","?","?","?","?","?","?","?","?","?","?","?","?","?","?","?","?","?","?","?","?","?","?","?","?","?","?","?","?","?","?","?","?","?","?","?","?","?","?","?","?","?","?","?","?","?","?","?","?","?","?","?","?","?","?","?","?","?","?","?","?","?","?","?","?","?","?","?","?","?","?","?","?","?","?","?","?","?","?","?","?","?","?","?","?","?","?","?","?","?","?","?","?","?","?","?","?","?","?","?","?","?","?","?","?","?","?","?","?","?","?","?","?","?","?","?","?","?","?","?","?","?","?","?","?","?","?","?","?","?","?","?","?","?","?","?","?","?","?","?","?","?","?","?","?","?","?","?","?","?","?","?","?","?","?","?","?","?","?","?","?","?","?","?","?","?","?","?","?","?","?","?","?","?","?","?","?","?","?","?","?","?","?","?","?","?","?","?","?","?","?","?","?","?","?","?","?","?","?","?","?","?","?","?","?","?","?","?","?","?","?","?","?","?","?","?","?","?","?","?","?","?","?","?","?","?","?","?","?","?","?","?","?","?","?","?","?","?","?","?","?","?","?","?","?","?","?","?","?","?","?","?","?","?","?","?","?","?","?","?","?","?","?","?","?","?","?","?","?","?","?","?","?","?","?","?","?","?","?","?","?","?","?","?","?","?","?","?","?","?","?","?","?","?","?","?","?","?","?","?","?","?","?","?","?","?","?","?","?","?","?","?","?","?","?","?","?","?","?","?","?","?","?","?","?","?","?","?","?","?","?","?","?","?","?","?","?","?","?","?","?","?","?","?","?","?","?","?","?","?","?","?","?","?","?","?","?","?","?","?","?","?","?","?","?","?","?","?","?","?","?","?","?","?","?","?","?","?","?","?","?","?","?","?","?","?","?","?","?","?","?","?","?","?","?","?","?","?","?","?","?","?","?","?","?","?","?","?","?","?","?","?","?","?","?","?","?","?","?","?","?","?","?","?","?","?","?","?","?","?","?","?","?","?","?","?","?","?","?","?","?","?","?","?","?","?","?","?","?","?","?","?","?","?","?","?","?","?","?","?","?","?","?","?","?","?","?","?","?","?","?","?","?","?","?","?","?","?","?","?","?","?","?","?","?","?","?","?","?","?","?","?","?","?","?","?","?","?","?","?","?","?","?","?","?","?","?","?","?","?","?","?","?","?","?","?","?","?","?","?","?","?","?","?","?","?","?","?","?","?","?","?","?","?","?","?","?","?","?","?","?","?","?","?","?","?","?","?","?","?","?","?","?","?","?","?","?","?","?","?","?","?","?","?","?","?","?","?","?","?","?","?","?","?","?","?","?","?","?","?","?","?","?","?","?","?","?","?","?","?","?","?","?","?","?","?","?","?","?","?","?","?","?","?","?","?","?","?","?","?","?","?","?","?","?","?","?","?","?","?","?","?","?","?","?","?","?","Y","?","?","?","O","O","O","O","O","O","O","O","?","?","N","N","N","N","N","N","N","N","N","N","N","N","N","N","N","N","N","N","N","N","N","N","N","N","N","N","?","?","?","?","?","?","?","?","?","?","?","?","?","?","?","?","?","?","?","?","?","?","?","?","?","?","?","?","?","?","?","?","?","?","?","?","?","?","?","?","?","?","?","?","?","?","?","?","?","?","?","?","?","?","?","?","?","?","?","?","?","?","?","?","?","?","?","?","?","?","?","?","?","?","?","?","?","?","?","?","?","?","?","?","?","?","?","?","?","?","?","?","?","?","?","?","?","?","?","?","?","?","?","P","P","P","P","P","P","P","P","P","P","P","P","P","P","P","P","P","P","P","P","P","P","P","P","P","P","P","P","?","Q","Q","R","R","R","R","R","R","R","R","R","R","R","R","R","R","R","R","R","R","R","R","R","R","R","R","R","R","R","R","R","R","R","?","?","?","?","?","?","?","?","?","?","?","?","?","?","?","?","?","?","?","?","?","?","?","?","?","?","?","?","?","?","?","?","?","?","?","?","?","?","?","?","?","?","?","?","?","?","?","?","?","?","?","?","?","?","?","?","?","?","?","?","?","?","?","?","?","?","?","?","?","?","?","?","?","?","?","?","?","?","?","?","?","?","?","?","?","?","?","?","?","?","?","?","?","?","?","?","?","?","?","?","?","?","?","?","?","?","?","?","?","?","?","?","?","?","?","?","?","?","?","?","?","?","?","?","?","?","?","?","?","?","?","?","?","?","?","?","?","?","?","?","?","?","?","?","?","?","?","?","?","?","?","?","?","?","?","K","K","K","?","?","?","?","?","?","?","?","?","?","A","A","A","A","A","A","A","A","A","A","A","A","A","A","A","A","A","A","A","A","A","A","A","?","?","?","U","?","?","?","?","?","?","?","?","?","?","?","?","?","?","?","?","?","?","?","?","?","?","?","?","?","?","?","?","?","?","?","?","?","?","?","?","?","?","?","?","?","?","?","?","?","?","?","?","?","?","?","?","?","?","?","?","?","?","?","?","?","?","?","?","?","?","?","?","?","?","?","?","?","?","?","?","?","?","?","?","?","?","?","?","?","?","?","?","?","?","?","?","?","?","?","?","?","?","?","?","?","?","?","?","?","?","?","?","?","?","?","?","?","?","?","?","?","?","?","?","?","?","?","?","?","?","?","?","?","?","?","?","?","?","?","?","?","?","?","?","?","?","?","?","?","?","?","?","?","?","?","?","?","?","?","?","?","?","?","?","?","?","?","?","?","?","?","?","?","?","?","?","?","?","?","?","?","?","?","?","?","?","?","?","?","?","?","?","?","?","?","?","?","?","?","?","?","?","?","?","?","?","?","?","?","?","?","?","?","?","?","?","?","?","?","?","?","?","?","?","?","?","?","?","?","?","?","?","?","?","?","?","?","?","?","?","?","?","?","?","?","?","?","?","?","?","?","?","?","?","?","?","?","?","?","?","?","?","?","?","?","?","?","?","?","?","?","?","?","?","?","?","?","?","?","?","?","?","?","?","?","?","?","?","?","?","?","?","?","?","?","?","?","?","?","?","?","?","?","?","?","?","?","?","?","?","?","?","?","?","?","?","?","?","?","?","?","?","?","?","?","?","?","?","?","?","?","?","?","?","?","?","?","?","?","?","?","?","?","?","?","?","?","?","?","?","?","?","?","?","?","?","?","?","?","?","?","?","?","?","?","?","?","?","?","?","?","?","?","?","?","?","?","?","?","?","?","?","?","?","?","?","?","?","?","?","?","?","?","?","?","?","?","?","?","?","?","?","?","?","?","?","?","?","?","?","?","?","?","?","?","?","?","?","?","?","?","?","?","?","?","?","?","?","?","?","?","?","?","?","?","?","?","?","?","?","?","?","?","?","?","?","?","?","?","?","?","?","?","?","?","?","?","?","?","?","?","?","?","?","?","?","?","?","?","?","?","?","?","?","?","?","?","?","?","?","?","?","?","?","?","?","?","?","?","?","?","?","?","?","?","?","?","?","?","?","?","?","?","?","?","?","?","?","?","?","?","?","?","?","?","?","?","?","?","?","?","?","?","?","?","?","?","?","?","?","?","?","?","?","?","?","?","?","?","?","?","?","?","?","?","?","?","?","?","?","?","?","?","?","?","?","?","?","?","?","?","?","?","?","?","?","?","?","?","?","?","?","?","?","?","?","?","?","?","?","?","?","?","?","?","?","?","?","?","?","?","?","?","?","?","?","?","?","?","?","?","?","?","?","?","?","?","?","?","?","?","?","?","?","?","?","?","?","Y","Y","Y","Y","?","?","Z","Z","Z","Z","Z","Z","Z","Z","Z","Z","Z","Z","Z","Z","Z","Z","Z","Z","Z","Z","Z","Z","Z","Z","Z","Z","Z","Z","Z","Z","Z","Z","Z","Z","Z","?","?","?","?","?","?","?","?","?","?","?","?","?","?","?","?","?","?","?","?","?","?","?","?","?","?","V","V","V","V","?","?","?","?","L","L","?","?","?","?","?","?","B","B","B","B","B","B","B","B","B","B","B","B","B","B","B","B","B","B","B","B","B","B","B","B","B","B","B","B","B","B","B","B","B","B","?","?","?","L","?","?","?","?","?","?","?","?","?","?","?","?","?","?","?","?","?","?","?","?","?","?","?","?","?","?","?","?","?","?","?","?","?","?","?","?","?","?","?","?","?","?","?","?","?","?","?","?","?","?","?","?","?","?","?","?","?","?","?","?","?","?","?","?","?","?","?","?","?","?","?","?","?","?","?","?","?","?","?","?","?","?","?","?","?","?","?","?","?","?","?","?","?","?","?","?","?"],"t":[33,42,59,75,92,109,125,142,158,175,192,208,225,242,259,276,293,309,326,342,359,376,392,409,425,443,459,476,492,509,526,542,559,576,592,609,626,642,659,677,696,714,729,745,762,777,793,810,827,843,860,877,893,910,927,944,960,977,993,1010,1027,1044,1060,1078,1095,1112,1129,1145,1162,1178,1195,1212,1228,1245,1261,1277,1295,1312,1329,1342,1360,1376,1393,1409,1427,1443,1460,1476,1493,1510,1526,1543,1560,1576,1593,1610,1627,1644,1659,1676,1692,1709,1726,1743,1760,1776,1794,1809,1826,1842,1859,1876,1892,1909,1926,1943,1960,1976,1992,2008,2025,2043,2060,2076,2093,2109,2126,2142,2160,2177,2193,2209,2227,2243,2259,2276,2293,2310,2328,2343,2360,2376,2392,2409,2426,2442,2459,2475,2492,2511,2529,2548,2563,2578,2595,2613,2629,2645,2662,2678,2694,2711,2727,2744,2761,2779,2795,2811,2827,2845,2861,2878,2894,2911,2928,2944,2961,2978,2993,3010,3027,3043,3060,3077,3094,3110,3128,3144,3160,3177,3193,3211,3227,3242,3259,3275,3292,3310,3327,3343,3359,3376,3392,3408,3425,3442,3458,3475,3493,3509,3526,3542,3560,3576,3592,3609,3625,3642,3658,3675,3691,3708,3725,3742,3758,3775,3792,3808,3825,3842,3859,3876,3893,3909,3926,3942,3960,3975,3992,4009,4026,4042,4059,4075,4092,4108,4125,4141,4158,4175,4191,4208,4225,4241,4260,4279,4296,4313,4328,4344,4361,4377,4394,4409,4426,4443,4459,4476,4493,4509,4526,4543,4561,4577,4593,4611,4627,4644,4662,4679,4696,4714,4728,4745,4761,4779,4796,4812,4829,4846,4861,4878,4895,4912,4928,4944,4961,4977,4994,5010,5028,5045,5061,5078,5094,5110,5125,5142,5158,5175,5192,5208,5225,5241,5258,5275,5292,5308,5326,5342,5359,5375,5392,5409,5426,5443,5459,5475,5492,5509,5526,5542,5559,5575,5593,5608,5625,5642,5660,5676,5693,5708,5726,5742,5759,5775,5793,5809,5826,5843,5859,5876,5893,5909,5925,5942,5959,5975,5992,6009,6026,6042,6059,6076,6093,6109,6125,6143,6159,6176,6193,6209,6226,6241,6258,6275,6292,6308,6325,6341,6358,6375,6393,6408,6425,6443,6459,6476,6492,6508,6525,6542,6560,6575,6592,6608,6625,6642,6658,6675,6691,6708,6725,6741,6758,6775,6791,6808,6824,6841,6858,6875,6891,6908,6925,6941,6958,6975,6991,7009,7026,7042,7059,7075,7092,7109,7126,7142,7159,7176,7192,7209,7225,7242,7259,7276,7294,7312,7328,7344,7362,7379,7394,7412,7430,7445,7462,7478,7493,7511,7527,7543,7560,7576,7593,7609,7626,7643,7660,7677,7694,7711,7728,7744,7761,7777,7794,7810,7826,7843,7859,7876,7892,7909,7926,7943,7959,7976,7993,8010,8027,8043,8059,8076,8095,8110,8126,8144,8160,8178,8193,8210,8226,8243,8260,8277,8293,8311,8327,8343,8360,8376,8392,8409,8427,8443,8459,8477,8492,8509,8526,8542,8559,8575,8592,8609,8626,8642,8659,8676,8692,8709,8725,8743,8759,8775,8793,8809,8826,8842,8858,8875,8892,8908,8925,8941,8958,8975,8991,9008,9025,9042,9058,9076,9093,9108,9125,9141,9158,9175,9192,9208,9224,9241,9258,9275,9291,9308,9325,9341,9358,9375,9391,9408,9425,9441,9458,9475,9491,9511,9527,9544,9560,9577,9594,9612,9627,9644,9662,9678,9695,9712,9727,9744,9761,9778,9794,9811,9827,9843,9859,9876,9892,9908,9926,9942,9958,9975,9992,10008,10025,10042,10058,10075,10091,10108,10124,10141,10158,10175,10191,10208,10225,10241,10258,10275,10292,10309,10325,10342,10359,10375,10392,10409,10426,10442,10459,10475,10492,10509,10525,10542,10559,10575,10592,10609,10625,10642,10659,10676,10692,10709,10725,10742,10759,10776,10792,10809,10825,10842,10859,10875,10892,10909,10925,10944,10959,10975,10992,11009,11025,11042,11059,11075,11092,11109,11125,11142,11159,11175,11192,11209,11225,11242,11260,11275,11292,11309,11325,11342,11360,11377,11394,11410,11427,11443,11460,11477,11494,11510,11528,11543,11559,11575,11592,11611,11627,11643,11660,11677,11694,11710,11727,11743,11760,11777,11793,11810,11827,11843,11860,11877,11893,11910,11927,11943,11960,11977,11994,12010,12027,12043,12060,12077,12093,12110,12127,12143,12160,12177,12194,12210,12227,12243,12260,12277,12294,12310,12327,12343,12360,12377,12393,12410,12427,12442,12459,12476,12492,12509,12526,12542,12559,12576,12593,12609,12626,12642,12659,12676,12692,12709,12726,12742,12759,12776,12792,12809,12826,12842,12859,12876,12892,12909,12926,12942,12959,12976,12992,13010,13027,13043,13060,13077,13094,13110,13127,13144,13159,13176,13191,13208,13225,13241,13258,13275,13292,13309,13325,13341,13358,13376,13391,13408,13424,13441,13458,13475,13491,13508,13525,13541,13558,13575,13591,13608,13625,13642,13659,13676,13691,13708,13725,13741,13758,13775,13791,13808,13825,13841,13858,13875,13891,13909,13925,13942,13958,13975,13991,14008,14024,14041,14058,14075,14091,14108,14124,14142,14158,14174,14191,14208,14225,14241,14258,14275,14292,14308,14325,14341,14358,14376,14391,14408,14425,14441,14458,14475,14491,14508,14525,14541,14558,14574,14592,14608,14625,14641,14658,14676,14692,14708,14725,14741,14758,14775,14793,14810,14827,14843,14860,14877,14894,14909,14925,14942,14959,14976,14993,15009,15026,15043,15063,15078,15095,15110,15127,15143,15160,15176,15192,15209,15226,15245,15260,15277,15294,15309,15325,15342,15358,15375,15392,15408,15425,15442,15458,15475,15492,15508,15525,15542,15558,15575,15592,15608,15626,15643,15659,15678,15692,15709,15725,15742,15758,15775,15791,15809,15825,15841,15858,15877,15893,15910,15927,15943,15960,15977,15993,16011,16027,16043,16060,16077,16093,16110,16126,16143,16160,16176,16193,16210,16227,16243,16260,16277,16293,16310,16327,16343,16360,16378,16394,16411,16427,16442,16459,16475,16492,16508,16526,16542,16558,16575,16591,16608,16625,16641,16658,16674,16691,16708,16725,16741,16759,16776,16792,16809,16825,16842,16858,16875,16892,16909,16926,16941,16958,16976,16992,17008,17026,17041,17058,17074,17091,17108,17124,17141,17158,17174,17191,17208,17225,17241,17258,17274,17292,17308,17325,17342,17358,17375,17393,17410,17427,17443,17460,17477,17493,17510,17527,17543,17560,17577,17593,17610,17627,17644,17660,17677,17693,17710,17728,17745,17761,17779,17796,17811,17827,17844,17860,17877,17894,17910,17926,17943,17960,17977,17993,18010,18028,18046,18061,18078,18094,18110,18126,18143,18159,18175,18192,18209,18226,18242,18259,18276,18294,18311,18327,18343,18360,18376,18392,18409,18426,18442,18459,18476,18493,18510,18527,18544,18560,18577,18593,18609,18626,18642,18660,18677,18693,18710,18727,18743,18760,18777,18793,18810,18827,18844,18861,18877,18893,18910,18927,18943,18960,18977,18993,19010,19027,19044,19060,19077,19093,19109,19125,19142,19160,19177,19194,19210,19227,19244,19260,19279,19294,19311,19328,19344,19360,19377,19394,19410,19427,19443,19460,19477,19495,19511,19529,19546,19562,19577,19594,19611,19627,19644,19660,19677,19694,19712,19727,19746,19759,19777,19793,19809,19826,19843,19860,19876,19893,19909,19926,19943,19959,19976,19993,20009,20027,20043,20058,20075,20091,20108,20125,20141,20158,20174,20191,20208,20224,20241,20258,20274,20291,20307,20325,20341,20357,20374,20391,20407,20424,20441,20457,20474,20491,20509,20525,20542,20558,20575,20592,20608,20625,20642,20658,20675,20693,20709,20725,20742,20758,20775,20792,20810,20827,20843,20860,20877,20893,20911,20927,20943,20960,20977,20993,21010,21027,21043,21060,21077,21094,21110,21127,21144,21160,21177,21193,21210,21227,21243,21260,21277,21294,21312,21328,21346,21360,21378,21394,21411,21427,21444,21461,21477,21493,21510,21527,21543,21560,21576,21593,21610,21626,21643,21660,21676,21693,21710,21727,21743,21760,21776,21793,21810,21827,21844,21860,21876,21893,21910,21927,21943,21960,21977,21993,22010,22027,22043,22061,22079,22096,22109,22126,22142,22158,22175,22192,22208,22226,22242,22259,22275,22292,22308,22324,22341,22358,22375,22392,22409,22425,22442,22459,22476,22491,22508,22525,22541,22558,22574,22591,22608,22625,22641,22658,22676,22693,22712,22727,22744,22762,22777,22792,22809,22826,22842,22858,22875,22892,22909,22925,22942,22958,22975,22991,23008,23024,23041,23059,23075,23091,23108,23125,23142,23157,23175,23191,23207,23224,23241,23258,23275,23291,23307,23324,23341,23358,23374,23391,23408,23424,23441,23458,23475,23492,23509,23526,23543,23560,23577,23592,23609,23626,23642,23659,23676,23696,23709,23725,23741,23759,23775,23792,23811,23827,23843,23861,23877,23893,23909,23926,23942,23958,23975,23991,24008,24025,24042,24058,24075,24092,24108,24125,24142,24158,24175,24193,24209,24226,24242,24258,24275,24292,24308,24325,24341,24358,24377,24392,24409,24426,24442,24460,24476,24493,24509,24526,24542,24559,24576,24592,24609,24626,24642,24659,24676,24692,24710,24726,24742,24758,24775,24792,24809,24826,24842,24860,24876,24892,24908,24925,24942,24958,24975,24992,25009,25025,25041,25058,25075,25092,25109,25125,25142,25159,25175,25192,25208,25225,25242,25259,25276,25291,25307,25324,25341,25358,25375,25391,25408,25425,25441,25458,25475,25492,25508,25524,25541,25558,25574,25591,25610,25633,25644,25662,25676,25692,25708,25724,25741,25758,25774,25791,25808,25824,25841,25858,25875,25891,25908,25924,25941,25958,25974,25991,26008,26024,26041,26059,26075,26092,26109,26125,26142,26159,26176,26191,26207,26224,26241,26258,26274,26292,26309,26326,26342,26363,26377,26397,26414,26428,26444,26462,26478,26492,26510,26526,26543,26559,26576,26594,26611,26626,26643,26659,26676,26692,26710,26726,26744,26759,26776,26793,26809,26826,26843,26859,26875,26893,26909,26928,26942,26959,26976,26992,27010,27025,27042,27059,27075,27091,27108,27125,27141,27158,27177,27194,27210,27227,27243,27260,27277,27294,27311,27325,27342,27359,27375,27393,27411,27427,27445,27460,27477,27494,27510,27527,27543,27560,27577,27594,27610,27627,27644,27660,27677,27693,27711,27727,27743,27760,27777,27793,27811,27827,27841,27858,27874,27891,27908,27924,27941,27958,27974,27991,28008,28024,28041,28058,28074,28091,28107,28124,28141,28158,28175,28192,28208,28226,28242,28260,28276,28293,28310,28326,28342,28359,28376,28392,28408,28425,28441,28458,28474,28491,28508,28524,28541,28558,28574,28592,28608,28624,28641,28657,28674,28691,28708,28724,28741,28760,28778,28795,28811,28827,28844,28860,28876,28894,28909,28926,28943,28959,28975,28991,29008,29025,29041,29058,29075,29092,29109,29125,29141,29159,29178,29192,29209,29226,29242,29259,29276,29292,29309,29326,29342,29359,29376,29392,29409,29425,29442,29459,29476,29492,29509,29526,29542,29559,29576,29593,29609,29626,29643,29659,29676,29692,29709,29726,29742,29759,29775,29792,29810,29827,29843,29860,29877,29893,29910,29927,29944,29960,29977,29993,30010,30027,30043,30059,30076,30093,30109,30126,30142,30159,30176,30193,30208,30225,30241,30258,30275,30291,30307,30324,30341,30357,30374,30391,30408,30424,30441,30458,30474,30491,30509,30524,30541,30558,30574,30591,30608,30624,30641,30658,30674,30691,30708,30725,30742,30759,30776,30792,30809,30826,30842,30859,30876,30892,30909,30925,30943,30959,30976,30992,31009,31026,31042,31059,31075,31092,31109,31125,31142,31159,31175,31192,31209,31226,31242,31259,31276,31292,31310,31327,31343,31360,31377,31393,31410,31427,31444,31460,31477,31493,31510,31527,31543,31560,31577,31593,31610,31627,31643,31660,31677,31693,31710,31726,31743,31760,31777,31793,31810,31827,31843,31860,31876,31893,31910,31927,31944,31960,31976,31993,32010,32027,32044,32059,32075,32093,32110,32127,32143,32160,32177,32194,32210,32227,32243,32260,32277,32293,32310,32327,32343,32360,32377,32393,32410,32427,32443,32460,32477,32493,32510,32527,32543,32560,32576,32594,32610,32626,32643,32660,32676,32693,32710,32727,32743,32760,32776,32793,32810,32827,32843,32860,32877,32893,32909,32925,32942,32960,32977,32993,33010,33027,33043,33060,33077,33093,33110,33127,33143,33160,33176,33193,33210,33227,33243,33260,33277,33294,33310,33326,33344,33360,33377,33392,33408,33425,33441,33458,33474,33491,33508,33525,33542,33558,33576,33592,33608,33625,33641,33658,33675,33691,33708,33724,33741,33758,33774,33791,33809,33825,33842,33859,33874,33891,33908,33924,33941,33958,33974,33992,34009,34025,34042,34059,34076,34092,34109,34124,34141,34158,34174,34191,34207,34224,34242,34258,34275,34292,34308,34324,34341,34358,34374,34391,34408,34424,34441,34458,34477,34493,34510,34527,34544,34561,34579,34594,34612,34628,34644,34662,34678,34694,34709,34726,34743,34760,34778,34793,34809,34825,34843,34858,34876,34893,34909,34924,34941,34958,34975,34992,35007,35024,35041,35058,35074,35091,35108,35124,35141,35158,35174,35191,35208,35225,35242,35260,35275,35293,35309,35326,35342,35359,35376,35392,35410,35425,35442,35459,35475,35493,35510,35526,35544,35561,35577,35595,35612,35628,35645,35662,35679,35693,35710,35726,35742,35759,35777,35792,35809,35825,35842,35859,35875,35892,35909,35925,35942,35959,35975,35992,36009,36025,36042,36059,36075,36092,36109,36126,36142,36159,36176,36192,36209,36225,36242,36259,36276,36293,36310,36327,36343,36360,36376,36393,36410,36426,36443,36460,36476,36493,36510,36526,36543,36560,36576,36593,36610,36626,36643,36660,36676,36693,36710,36726,36743,36760,36776,36794,36810,36827,36843,36859,36875,36892,36909,36926,36942,36959,36975,36991,37008,37025,37041,37058,37074,37091,37107,37124,37141,37158,37175,37192,37208,37225,37242,37258,37275,37291,37308,37325,37341,37358,37375,37392,37408,37425,37441,37458,37475,37492,37508,37525,37542,37559,37575,37593,37610,37626,37643,37660,37676,37693,37710,37726,37743,37760,37776,37793,37810,37826,37843,37860,37876,37893,37910,37926,37943,37960,37976,37993,38010,38027,38043,38060,38076,38093,38110,38126,38143,38160,38176,38193,38210,38226,38243,38260,38276,38293,38310,38326,38343,38360,38376,38393,38410,38427,38443,38460,38476,38493,38510,38526,38543,38560,38576,38593,38610,38626,38643,38660,38676,38693,38711,38726,38743,38760,38776,38793,38810,38826,38843,38860,38876,38893,38910,38926,38943,38960,38977,38992,39009,39026,39043,39060,39076,39093,39110,39126,39143,39160,39177,39193,39210,39226,39243,39260,39276,39293,39310,39326,39343,39360,39376,39393,39410,39426,39443,39460,39476,39493,39510,39526,39543,39560,39577,39593,39610,39626,39644,39660,39676,39693,39710,39726,39743,39760,39776,39793,39810,39827,39843,39860,39876,39893,39910,39926,39943,39960,39976,39993,40010,40026,40043,40060,40076,40093,40110,40127,40143,40159,40176,40192,40209,40225,40242,40257,40274,40291,40307,40324,40341,40358,40374,40391,40407,40424,40440,40458,40474,40491,40507,40524,40541,40557,40574,40591,40607,40624,40641,40657,40674,40690,40707,40724,40740,40758,40775,40792,40808,40825,40841,40858,40875,40892,40908,40925,40941,40958,40975,40991,41008,41025,41041,41059,41076,41093,41110,41126,41143,41160,41176,41193,41210,41226,41243,41260,41276,41293,41310,41326,41343,41360,41376,41393,41410,41426,41443,41459,41477,41493,41510,41526,41543,41560,41576,41593,41610,41626,41643,41660,41676,41693,41710,41727,41743,41760,41777,41793,41810,41827,41842,41859,41875,41892,41909,41925,41942,41959,41976,41993,42010,42026,42043,42060,42076,42093,42110,42126,42143,42160,42176,42193,42210,42226,42243,42260,42276,42293,42310,42326,42343,42360,42376,42393,42410,42426,42443,42460,42476,42493,42510,42526,42543,42560,42576,42593,42610,42626,42643,42660,42676,42693,42710,42726,42743,42760,42776,42793,42810,42827,42843,42860,42876,42893,42910,42926,42943,42960,42977,42993,43010,43027,43043,43060,43076,43093,43110,43126,43143,43160,43176,43193,43210,43225,43242,43262,43275,43292,43309,43325,43342,43359,43376,43392,43409,43425,43442,43459,43475,43492,43509,43525,43542,43558,43574,43591,43608,43624,43641,43657,43674,43691,43707,43724,43740,43757,43774,43794,43810,43826,43843,43860,43876,43893,43910,43926,43943,43960,43976,43993,44010,44027,44044,44061,44076,44093,44110,44126,44143,44158,44175,44193,44210,44226,44243,44260,44276,44294,44310,44326,44343,44360,44377,44393,44410,44426,44443,44460,44476,44493,44510,44526,44543,44560,44576,44593,44610,44626,44643,44660,44676,44694,44710,44726,44743,44760,44776,44793,44809,44826,44843,44859,44876,44893,44910,44926,44943,44960,44976,44993,45010,45026,45043,45060,45076,45093,45110,45126,45143,45160,45176,45193,45210,45226,45243,45260,45276,45293,45309,45326,45343,45359,45376,45393,45408,45424,45440,45457,45474,45490,45507,45524,45540,45557,45574,45591,45607,45623,45641,45657,45674,45690,45707,45724,45741,45757,45774,45791,45807,45824,45841,45857,45874,45891,45907,45924,45940,45957,45974,45991,46007,46024,46041,46057,46074,46091,46107,46124,46141,46158,46175,46191,46208,46225,46241,46258,46274,46291,46308,46325,46341,46358,46375,46391,46408,46425,46441,46458,46475,46491,46508,46524,46541,46558,46574,46591,46608,46625,46641,46658,46674,46692,46708,46725,46741,46757,46774,46791,46807,46824,46841,46857,46874,46891,46907,46924,46941,46957,46974,46990,47007,47024,47041,47057,47074,47090,47107,47125,47141,47157,47174,47191,47207,47225,47241,47257,47274,47291,47307,47324,47341,47357,47375,47392,47408,47425,47441,47458,47475,47492,47508,47524,47541,47558,47574,47591,47607,47624,47641,47657,47674,47691,47708,47724,47742,47758,47774,47792,47808,47825,47842,47858,47874,47890,47907,47924,47942,47957,47974,47991,48007,48024,48040,48057,48074,48091,48107,48124,48141,48157,48174,48190,48207,48224,48240,48258,48275,48292,48308,48325,48341,48358,48375,48391,48408,48425,48441,48458,48475,48491,48508,48525,48542,48558,48575,48591,48608,48625,48641,48658,48675,48692,48709,48726,48743,48760,48776,48793,48810,48826,48843,48860,48876,48893,48909,48927,48943,48959,48976,48993,49010,49026,49043,49059,49076,49093,49110,49127,49144,49161,49178,49193,49213,49227,49245,49260,49277,49293,49309,49327,49342,49360,49377,49392,49409,49425,49442,49458,49475,49492,49508,49527,49543,49560,49576,49594,49609,49625,49642,49659,49676,49691,49708,49724,49741,49758,49775,49792,49808,49825,49842,49859,49876,49892,49908,49926,49942,49958,49975,49991,50008,50026,50043,50060,50075,50091,50108,50125,50143,50158,50176,50191,50208,50224,50241,50258,50274,50291,50308,50324,50342,50357,50374,50391,50409,50425,50440,50458,50475,50491,50508,50524,50541,50557,50574,50590,50607,50624,50641,50657,50674,50690,50707,50724,50740,50757,50774,50790,50807,50824,50841,50858,50875,50891,50908,50924,50941,50959,50975,50992,51009,51025,51042,51058,51076,51091,51108,51124,51141,51158,51174,51191,51208,51225,51241,51258,51275,51291,51309,51325,51341,51358,51375,51391,51408,51424,51440,51457,51474,51490,51507,51524,51541,51557,51574,51590,51607,51624,51641,51657,51674,51690,51708,51724,51742,51757,51775,51791,51809,51824,51842,51860,51878,51894,51912,51928,51944,51960,51976,51993,52010,52026,52043,52059,52076,52093,52109,52126,52143,52160,52176,52193,52210,52226,52244,52260,52276,52293,52309,52326,52343,52359,52376,52393,52409,52426,52443,52459,52476,52493,52509,52526,52543,52559,52576,52593,52609,52626,52643,52660,52676,52693,52709,52726,52743,52759,52776,52793,52809,52826,52843,52859,52876,52893,52910,52926,52943,52959,52976,52993,53009,53026,53043,53059,53076,53093,53109,53126,53143,53159,53176,53193,53210,53226,53243,53260,53276,53293,53310,53326,53343,53360,53376,53393,53410,53425,53441,53457,53474,53491,53507,53524,53540,53557,53574,53590,53607,53624,53640,53657,53675,53691,53708,53725,53741,53758,53775,53791,53808,53824,53843,53859,53878,53894,53910,53926,53943,53960,53976,53993,54010,54026,54043,54060,54076,54093,54110,54126,54143,54160,54177,54193,54210,54226,54243,54260,54276,54293,54309,54326,54343,54360,54376,54393,54410,54426,54441,54458,54474,54491,54509,54526,54543,54559,54576,54593,54610,54627,54645,54660,54678,54693,54710,54727,54743,54759,54775,54792,54809,54825,54843,54859,54875,54892,54908,54925,54942,54958,54975,54992,55008,55025,55042,55058,55075,55092,55109,55125,55142,55159,55175,55192,55208,55226,55243,55260,55276,55294,55310,55326,55343,55359,55377,55392,55409,55426,55442,55458,55475,55491,55508,55525,55543,55558,55575,55593,55609,55626,55642,55659,55675,55692,55709,55725,55741,55758,55777,55793,55810,55825,55840,55857,55874,55892,55907,55924,55941,55958,55974,55991,56008,56024,56041,56058,56074,56091,56108,56125,56141,56158,56174,56192,56208,56227,56243,56259,56276,56293,56310,56326,56345,56360,56378,56395,56412,56427,56443,56461,56477,56494,56511,56526,56543,56559,56576,56593,56609,56625,56642,56659,56676,56692,56709,56725,56742,56759,56776,56791,56807,56824,56840,56857,56874,56890,56907,56924,56940,56957,56976,56992,57009,57026,57042,57059,57076,57092,57109,57126,57142,57159,57176,57193,57209,57226,57242,57258,57275,57291,57308,57326,57342,57358,57375,57391,57408,57425,57441,57458,57475,57491,57508,57525,57541,57558,57575,57591,57608,57625,57641,57658,57675,57691,57708,57725,57741,57758,57775,57792,57808,57825,57841,57858,57875,57891,57908,57925,57942,57958,57975,57992,58008,58025,58041,58058,58075,58091,58108,58125,58141,58158,58175,58191,58208,58225,58241,58258,58275,58291,58308,58325,58341,58358,58375,58391,58408,58425,58441,58458,58475,58492,58508,58525,58541,58558,58575,58591,58608,58625,58641,58659,58674,58691,58707,58724,58741,58757,58774,58791,58807,58826,58843,58859,58876,58893,58909,58926,58943,58959,58976,58993,59009,59026,59043,59059,59076,59093,59109,59126,59143,59159,59176,59193,59209,59226,59243,59259,59275,59292,59308,59325,59341,59358,59375,59392,59408,59425,59442,59458,59475,59492,59508,59525,59542,59558,59575,59592,59608,59625,59642,59659,59675,59692,59708,59725,59742,59758,59775,59793,59812,59828,59844,59862,59877,59897,59912,59928,59944,59959,59976,59992,60010,60027,60043,60060,60076,60092,60108,60124,60141,60159,60175,60191,60207,60223,60240,60257,60273,60290,60307,60323,60340,60357,60373,60390,60407,60424,60440,60457,60474,60490,60507,60524,60540,60557,60573,60590,60607,60623,60640,60657,60674,60690,60707,60725,60741,60758,60774,60791,60808,60824,60841,60858,60875,60891,60908,60925,60941,60958,60974,60991,61008,61025,61041,61058,61075,61091,61108,61125,61141,61158,61175,61191,61208,61225,61241,61259,61276,61293,61309,61326,61343,61359,61376,61393,61409,61426,61443,61460,61477,61491,61508,61525,61541,61558,61575,61591,61608,61625,61641,61658,61675,61691,61708,61725,61741,61758,61775,61792,61808,61825,61842,61858,61875,61891,61908,61925,61941,61958,61975,61991,62009,62025,62041,62058,62075,62091,62108,62125,62141,62158,62175,62191,62208,62225,62242,62258,62275,62291,62308,62325,62341,62358,62375,62392,62408,62425,62442,62458,62475,62492,62508,62525,62542,62558,62575,62592,62608,62625,62642,62658,62675,62692,62708,62725,62742,62758,62775,62792,62808,62825,62841,62858,62875,62893,62908,62925,62941,62959,62976,62992,63009,63027,63043,63060,63076,63093,63110,63126,63142,63159,63176,63193,63209,63226,63242,63260,63276,63293,63309,63325,63341,63358,63374,63391,63408,63424,63440,63457,63474,63490,63507,63524,63540,63557,63573,63590,63607,63623,63640,63657,63674,63690,63707,63725,63741,63758,63774,63791,63808,63824,63841,63858,63876,63892,63910,63926,63942,63959,63976,63993,64009,64026,64043,64059,64076,64092,64109,64126,64142,64159,64176,64192,64209,64226,64242,64259,64276,64293,64309,64326,64341,64358,64375,64391,64408,64424,64441,64458,64474,64491,64508,64524,64541,64558,64575,64591,64608,64624,64641,64658,64674,64691,64708,64725,64741,64758,64775,64791,64808,64825,64841,64858,64874,64891,64908,64924,64941,64958,64974,64991,65008,65025,65041,65058,65074,65091,65108,65125,65141,65158,65175,65191,65208,65225,65241,65258,65276,65293,65308,65325,65342,65358,65375,65392,65408,65425,65442,65458,65475,65492,65509,65526,65542,65559,65576,65593,65609,65626,65643,65659,65676,65693,65710,65726,65743,65760,65776,65792,65810,65826,65843,65859,65876,65893,65909,65926,65943,65959,65976,65993,66009,66026,66042,66059,66076,66093,66109,66126,66143,66159,66176,66193,66209,66226,66242,66259,66276,66293,66309,66326,66342,66359,66376,66393,66409,66426,66442,66459,66476,66492,66509,66526,66543,66560,66576,66593,66610,66625,66642,66658,66675,66692,66709,66725,66742,66758,66774,66790,66807,66824,66840,66857,66874,66890,66907,66923,66940,66957,66974,66990,67007,67026,67043,67060,67076,67092,67109,67126,67142,67159,67176,67193,67209,67226,67242,67259,67276,67292,67309,67326,67342,67359,67376,67392,67409,67426,67442,67459,67476,67493,67509,67526,67542,67559,67576,67593,67609,67626,67643,67659,67676,67693,67709,67726,67742,67759,67776,67792,67809,67826,67842,67859,67876,67892,67909,67926,67942,67959,67976,67992,68009,68026,68042,68059,68076,68093,68109,68126,68142,68159,68176,68193,68209,68226,68242,68259,68276,68293,68309,68326,68342,68359,68376,68393,68410,68426,68443,68459,68476,68492,68509,68525,68542,68559,68576,68592,68610,68626,68641,68658,68675,68691,68708,68725,68741,68758,68775,68792,68808,68825,68842,68858,68875,68891,68908,68925,68941,68957,68974,68991,69007,69024,69041,69057,69074,69091,69107,69124,69140,69157,69174,69191,69207,69224,69241,69257,69274,69291,69307,69324,69341,69357,69374,69391,69407,69424,69440,69457,69474,69491,69507,69524,69541,69558,69574,69591,69607,69624,69641,69657,69674,69691,69707,69724,69740,69757,69774,69791,69807,69824,69840,69857,69874,69893,69909,69925,69941,69957,69974,69990,70006,70023,70040,70056,70073,70090,70107,70123,70140,70156,70173,70190,70207,70223,70240,70257,70273,70290,70307,70323,70340,70357,70373,70390,70407,70423,70440,70457,70473,70490,70507,70523,70540,70556,70573,70590,70606,70623,70641,70657,70674,70691,70707,70724,70741,70757,70774,70791,70807,70824,70841,70857,70874,70891,70907,70924,70941,70957,70974,70991,71007,71024,71041,71057,71074,71091,71107,71124,71141,71157,71174,71191,71207,71224,71241,71257,71274,71291,71308,71324,71342,71359,71376,71392,71409,71426,71442,71460,71476,71493,71509,71526,71542,71559,71576,71592,71609,71626,71642,71659,71676,71693,71709,71726,71742,71759,71776,71792,71809,71826,71842,71859,71876,71892,71909,71926,71942,71959,71976,71992,72009,72026,72042,72059,72076,72092,72110,72126,72143,72159,72176,72192,72209,72226,72242,72259,72276,72292,72309,72326,72343,72359,72376,72392,72409,72426,72442,72459,72476,72492,72509,72526,72542,72559,72576,72592,72609,72626,72642,72659,72676,72692,72709,72726,72742,72759,72776,72792,72810,72826,72842,72859,72876,72891,72908,72924,72941,72958,72974,72991,73008,73024,73041,73058,73074,73091,73109,73126,73141,73158,73174,73191,73208,73225,73241,73257,73273,73290,73307,73323,73340,73356,73373,73390,73407,73423,73440,73456,73473,73491,73508,73524,73541,73558,73574,73591,73608,73624,73642,73659,73676,73693,73709,73726,73742,73759,73775,73793,73809,73825,73843,73858,73876,73892,73909,73925,73942,73958,73974,73990,74008,74026,74041,74058,74074,74092,74108,74124,74141,74158,74174,74192,74208,74224,74243,74258,74273,74290,74307,74323,74340,74357,74373,74390,74407,74424,74441,74460,74477,74495,74509,74526,74542,74560,74576,74593,74609,74626,74642,74658,74675,74692,74709,74726,74742,74759,74776,74793,74809,74826,74842,74859,74876,74892,74909,74926,74942,74959,74976,74992,75009,75026,75042,75059,75076,75092,75109,75126,75143,75159,75176,75193,75210,75226,75243,75260,75276,75293,75309,75326,75342,75360,75377,75393,75411,75426,75443,75459,75476,75493,75510,75528,75545,75561,75577,75593,75610,75626,75642,75660,75676,75691,75708,75724,75741,75758,75775,75791,75808,75825,75841,75858,75874,75891,75908,75925,75942,75959,75976,75992,76010,76025,76042,76058,76075,76092,76110,76126,76142,76158,76174,76191,76207,76225,76241,76257,76274,76291,76307,76324,76341,76357,76377,76393,76408,76424,76441,76458,76475,76491,76508,76524,76540,76556,76573,76590,76608,76625,76641,76657,76674,76691,76708,76724,76740,76756,76773,76790,76807,76823,76840,76856,76873,76890,76907,76926,76944,76960,76974,76991,77007,77023,77041,77056,77073,77090,77107,77123,77140,77156,77173,77190,77207,77223,77241,77257,77274,77290,77307,77324,77341,77357,77374,77391,77408,77424,77441,77456,77474,77490,77507,77524,77540,77557,77574,77591,77608,77625,77640,77658,77674,77691,77708,77723,77740,77757,77773,77790,77806,77823,77840,77856,77873,77890,77906,77923,77940,77957,77975,77992,78009,78026,78042,78059,78075,78092,78109,78126,78142,78159,78175,78192,78209,78225,78242,78259,78275,78293,78309,78326,78342,78359,78376,78392,78409,78426,78442,78459,78476,78493,78509,78526,78542,78559,78576,78592,78609,78626,78642,78659,78676,78692,78709,78726,78742,78759,78776,78792,78809,78826,78842,78859,78876,78892,78908,78924,78940,78959,78976,78993,79009,79026,79044,79059,79076,79092,79109,79126,79142,79159,79176,79192,79209,79226,79242,79259,79276,79292,79309,79326,79342,79359,79376,79392,79409,79425,79442,79459,79476,79492,79509,79526,79542,79559,79576,79590,79607,79624,79640,79659,79675,79692,79708,79725,79741,79760,79774,79793,79808,79826,79841,79858,79874,79892,79908,79924,79941,79958,79974,79991,80008,80025,80041,80058,80075,80091,80107,80124,80141,80157,80174,80190,80207,80224,80240,80257,80273,80290,80306,80323,80340,80357,80375,80391,80408,80424,80442,80458,80474,80491,80507,80524,80540,80557,80573,80590,80606,80623,80640,80657,80673,80690,80706,80723,80740,80756,80773,80790,80807,80823,80840,80856,80873,80890,80906,80923,80940,80956,80973,80990,81007,81023,81040,81056,81073,81090,81106,81123,81140,81156,81173,81190,81206,81223,81240,81256,81273,81290,81307,81323,81340,81356,81373,81392,81409,81426,81442,81459,81476,81492,81509,81526,81543,81559,81576,81592,81609,81626,81642,81659,81676,81692,81709,81726,81743,81759,81775,81793,81809,81825,81842,81859,81876,81892,81909,81926,81942,81959,81976,81992,82009,82026,82043,82059,82076,82092,82109,82126,82142,82159,82176,82192,82209,82226,82242,82259,82276,82292,82309,82325,82342,82359,82376,82392,82407,82424,82440,82457,82473,82490,82507,82523,82540,82557,82573,82590,82606,82623,82640,82657,82673,82690,82707,82723,82740,82757,82773,82790,82807,82823,82840,82857,82873,82890,82906,82923,82940,82956,82973,82990,83007,83023,83040,83056,83073,83090,83107,83123,83140,83157,83173,83190,83206,83223,83240,83257,83275,83292,83307,83324,83340,83356,83373,83390,83406,83423,83440,83456,83473,83489,83506,83523,83540,83556,83573,83589,83607,83623,83640,83656,83673,83690,83706,83723,83740,83756,83773,83790,83806,83823,83840,83856,83873,83890,83906,83923,83940,83956,83973,83991,84007,84023,84040,84056,84073,84089,84106,84123,84140,84156,84173,84190,84206,84223,84240,84256,84273,84290,84306,84323,84340,84356,84373,84390,84406,84423,84440,84456,84473,84490,84509,84525,84542,84559,84575,84593,84609,84626,84643,84659,84675,84692,84709,84726,84742,84759,84776,84792,84809,84826,84842,84859,84876,84892,84909,84926,84942,84959,84976,84992,85009,85025,85042,85059,85076,85093,85108,85124,85141,85158,85174,85191,85208,85226,85242,85259,85276,85292,85309,85325,85343,85360,85376,85392,85409,85426,85442,85459,85476,85492,85509,85526,85542,85559,85576,85593,85609,85626,85642,85659,85676,85692,85709,85726,85742,85759,85776,85792,85809,85826,85842,85859,85875,85893,85909,85926,85942,85959,85976,85992,86009,86025,86042,86059,86075,86092,86109,86125,86142,86159,86175,86192,86209,86225,86242,86259,86276,86292,86309,86326,86342,86359,86376,86392,86409,86426,86443,86459,86476,86493,86509,86526,86541,86558,86575,86591,86608,86624,86641,86658,86674,86690,86707,86723,86740,86756,86773,86790,86806,86823,86840,86857,86874,86891,86908,86924,86940,86957,86974,86990,87007,87024,87040,87057,87074,87090,87107,87124,87140,87157,87174,87190,87207,87224,87240,87257,87274,87290,87307,87324,87340,87357,87374,87390,87407,87424,87440,87457,87474,87490,87507,87524,87541,87557,87574,87590,87607,87624,87640,87657,87674,87691,87707,87724,87740,87757,87774,87790,87807,87824,87840,87857,87874,87890,87907,87924,87940,87957,87974,87990,88007,88024,88040,88057,88074,88091,88107,88124,88140,88157,88174,88190,88207,88224,88240,88257,88274,88290,88308,88326,88342,88359,88376,88392,88409,88425,88442,88459,88475,88492,88510,88526,88542,88559,88575,88592,88609,88625,88642,88659,88675,88692,88709,88725,88742,88759,88775,88792,88809,88825,88842,88859,88875,88892,88909,88926,88942,88959,88974,88990,89007,89024,89042,89059,89075,89092,89109,89125,89142,89160,89176,89192,89209,89225,89242,89259,89276,89292,89309,89326,89342,89359,89376,89392,89409,89426,89442,89459,89476,89493,89509,89526,89542,89560,89575,89592,89609,89625,89642,89659,89675,89692,89709,89726,89742,89759,89775,89792,89809,89826,89841,89858,89874,89891,89907,89923,89940,89956,89973,89990,90006,90023,90040,90057,90073,90090,90106,90124,90140,90157,90173,90191,90207,90223,90240,90257,90273,90292,90308,90325,90341,90359,90375,90391,90408,90424,90442,90458,90475,90492,90508,90525,90541,90557,90574,90590,90607,90623,90640,90656,90673,90691,90706,90724,90741,90757,90774,90790,90806,90823,90840,90856,90873,90890,90906,90924,90940,90956,90973,90990,91006,91023,91039,91056,91073,91090,91107,91123,91140,91156,91173,91189,91206,91223,91240,91256,91273,91290,91306,91324,91343,91361,91376,91394,91410,91426,91444,91460,91478,91491,91508,91525,91542,91559,91576,91591,91608,91625,91642,91659,91674,91691,91708,91724,91741,91759,91775,91791,91808,91825,91842,91858,91875,91891,91908,91925,91942,91958,91974,91992,92008,92025,92040,92057,92074,92090,92107,92124,92140,92157,92174,92190,92207,92224,92240,92257,92274,92290,92308,92323,92340,92356,92373,92390,92406,92423,92439,92456,92473,92490,92506,92523,92540,92556,92573,92591,92607,92624,92641,92658,92674,92690,92706,92724,92740,92757,92774,92790,92807,92823,92840,92856,92873,92890,92906,92923,92942,92959,92975,92992,93008,93025,93042,93059,93075,93092,93108,93124,93141,93158,93174,93191,93208,93224,93240,93257,93273,93290,93306,93323,93339,93356,93373,93389,93406,93423,93440,93456,93473,93490,93506,93523,93539,93556,93575,93591,93607,93624,93641,93657,93674,93691,93707,93724,93741,93758,93774,93791,93808,93824,93841,93858,93874,93891,93908,93924,93941,93958,93974,93991,94007,94024,94041,94057,94075,94091,94108,94124,94141,94157,94174,94191,94208,94224,94241,94258,94274,94291,94310],"hit":[null],"x":[-2.693877551020408,-2.693877551020408,-2.693877551020408,-2.693877551020408,-2.693877551020408,-2.693877551020408,-2.693877551020408,-2.693877551020408,-2.693877551020408,-2.693877551020408,-2.693877551020408,-2.693877551020408,-2.693877551020408,-2.693877551020408,-2.693877551020408,-2.693877551020408,-2.693877551020408,-2.693877551020408,-2.693877551020408,-2.693877551020408,-2.693877551020408,-2.693877551020408,-2.693877551020408,-2.693877551020408,-2.693877551020408,-2.693877551020408,-2.693877551020408,-2.693877551020408,-2.693877551020408,-2.693877551020408,-2.693877551020408,-2.693877551020408,-2.693877551020408,-2.693877551020408,-2.693877551020408,-2.693877551020408,-2.693877551020408,-2.693877551020408,-2.693877551020408,0.05442176870748299,0.061224489795918366,0.06802721088435375,0.07482993197278912,0.0782312925170068,0.08163265306122448,0.08503401360544217,0.08503401360544217,0.08503401360544217,0.08503401360544217,0.08503401360544217,0.08503401360544217,0.08503401360544217,0.08503401360544217,0.08503401360544217,0.08503401360544217,0.08503401360544217,0.08503401360544217,0.08503401360544217,0.08503401360544217,0.08503401360544217,0.08503401360544217,0.08503401360544217,0.08503401360544217,0.08843537414965986,0.10204081632653061,0.11904761904761904,0.1360544217687075,0.16326530612244897,0.25510204081632654,0.40476190476190477,0.6802721088435374,0.9251700680272109,1.2210884353741496,1.6394557823129252,2.0850340136054424,2.5850340136054424,2.942176870748299,3.251700680272109,3.4523809523809526,3.5918367346938775,3.6462585034013606,3.6598639455782314,3.6020408163265305,3.45578231292517,3.1700680272108843,2.82312925170068,2.2993197278911564,1.751700680272109,1.1768707482993197,0.6292517006802721,0.10884353741496598,-0.47959183673469385,-1.010204081632653,-1.4591836734693877,-1.7414965986394557,-1.880952380952381,-1.945578231292517,-1.969387755102041,-1.9727891156462585,-1.9727891156462585,-1.9727891156462585,-1.9557823129251701,-1.9183673469387754,-1.8197278911564625,-1.6428571428571428,-1.3979591836734695,-0.95578231292517,-0.4523809523809524,0.282312925170068,1.0918367346938775,1.836734693877551,2.4489795918367347,2.7244897959183674,2.8639455782312924,2.9081632653061225,2.9183673469387754,2.8945578231292517,2.870748299319728,2.857142857142857,2.857142857142857,2.8537414965986394,2.8401360544217686,2.82312925170068,2.8095238095238093,2.802721088435374,2.795918367346939,2.7891156462585034,2.772108843537415,2.727891156462585,2.6360544217687076,2.4693877551020407,2.207482993197279,1.9183673469387754,1.619047619047619,1.4047619047619047,1.2448979591836735,1.163265306122449,1.0850340136054422,1.0068027210884354,0.9829931972789115,1.010204081632653,1.0374149659863945,1.0510204081632653,1.0510204081632653,1.0442176870748299,1.0442176870748299,1.0442176870748299,1.0442176870748299,1.0442176870748299,1.0442176870748299,1.0442176870748299,1.0442176870748299,1.0238095238095237,1.0034013605442176,0.9897959183673469,0.9897959183673469,0.9897959183673469,0.9829931972789115,0.9727891156462585,0.9693877551020408,0.9693877551020408,0.9693877551020408,0.9693877551020408,0.9693877551020408,0.9693877551020408,0.9795918367346939,0.9897959183673469,0.9897959183673469,0.9897959183673469,0.9897959183673469,0.9931972789115646,1,1,1,1,1,1,1.0034013605442176,1.0034013605442176,1.0068027210884354,1.010204081632653,1.010204081632653,1.010204081632653,1.010204081632653,1.010204081632653,1.0238095238095237,1.0408163265306123,1.0680272108843538,1.0748299319727892,1.0748299319727892,1.0748299319727892,1.0782312925170068,1.0952380952380953,1.1122448979591837,1.1394557823129252,1.1394557823129252,1.1394557823129252,1.1428571428571428,1.1700680272108843,1.2074829931972788,1.227891156462585,1.227891156462585,1.227891156462585,1.227891156462585,1.227891156462585,1.227891156462585,1.227891156462585,1.227891156462585,1.2142857142857142,1.1768707482993197,1.1224489795918366,1.054421768707483,0.9829931972789115,0.8843537414965986,0.7619047619047619,0.6700680272108843,0.6360544217687075,0.6360544217687075,0.6360544217687075,0.6360544217687075,0.6360544217687075,0.6360544217687075,0.6360544217687075,0.6360544217687075,0.6360544217687075,0.6360544217687075,0.6360544217687075,0.6360544217687075,0.6258503401360545,0.608843537414966,0.5816326530612245,0.5374149659863946,0.5068027210884354,0.5,0.48639455782312924,0.445578231292517,0.37755102040816324,0.30612244897959184,0.25510204081632654,0.21768707482993196,0.20408163265306123,0.19387755102040816,0.19047619047619047,0.18027210884353742,0.17346938775510204,0.16666666666666666,0.16666666666666666,0.16666666666666666,0.16666666666666666,0.16666666666666666,0.16666666666666666,0.16666666666666666,0.16666666666666666,0.16666666666666666,0.16666666666666666,0.17006802721088435,0.17687074829931973,0.1870748299319728,0.19727891156462585,0.20748299319727892,0.2108843537414966,0.2108843537414966,0.2108843537414966,0.2108843537414966,0.2108843537414966,0.2108843537414966,0.2108843537414966,0.2108843537414966,0.2108843537414966,0.2108843537414966,0.2108843537414966,0.21428571428571427,0.22448979591836735,0.24489795918367346,0.2755102040816326,0.2857142857142857,0.2857142857142857,0.2891156462585034,0.2891156462585034,0.2925170068027211,0.29931972789115646,0.3129251700680272,0.32653061224489793,0.3401360544217687,0.35034013605442177,0.36394557823129253,0.38095238095238093,0.4013605442176871,0.42517006802721086,0.4387755102040816,0.4489795918367347,0.4523809523809524,0.45918367346938777,0.47619047619047616,0.5,0.5204081632653061,0.5238095238095238,0.5238095238095238,0.5238095238095238,0.5238095238095238,0.5238095238095238,0.5340136054421769,0.5408163265306123,0.5578231292517006,0.5748299319727891,0.5952380952380952,0.6258503401360545,0.6530612244897959,0.6768707482993197,0.6904761904761905,0.7006802721088435,0.7040816326530612,0.7040816326530612,0.7040816326530612,0.7040816326530612,0.7040816326530612,0.7040816326530612,0.6972789115646258,0.6802721088435374,0.6564625850340136,0.6360544217687075,0.5986394557823129,0.5340136054421769,0.47278911564625853,0.4557823129251701,0.4217687074829932,0.3707482993197279,0.2891156462585034,0.22108843537414966,0.1326530612244898,0.013605442176870748,-0.1360544217687075,-0.2891156462585034,-0.42857142857142855,-0.5306122448979592,-0.6802721088435374,-0.8231292517006803,-0.9183673469387755,-0.9795918367346939,-1.0136054421768708,-1.0238095238095237,-0.9965986394557823,-0.9013605442176871,-0.6598639455782312,-0.25170068027210885,0.29931972789115646,0.8095238095238095,1.3945578231292517,1.8911564625850341,2.295918367346939,2.5714285714285716,2.707482993197279,2.7312925170068025,2.7312925170068025,2.7108843537414966,2.6700680272108843,2.598639455782313,2.520408163265306,2.431972789115646,2.3333333333333335,2.227891156462585,2.078231292517007,1.9081632653061225,1.7040816326530612,1.5442176870748299,1.401360544217687,1.2789115646258504,1.1360544217687074,1.0204081632653061,0.935374149659864,0.8843537414965986,0.8537414965986394,0.8333333333333334,0.8129251700680272,0.7925170068027211,0.7755102040816326,0.7687074829931972,0.7585034013605442,0.7448979591836735,0.717687074829932,0.6870748299319728,0.6496598639455783,0.6122448979591837,0.5850340136054422,0.5578231292517006,0.5306122448979592,0.5068027210884354,0.47959183673469385,0.4489795918367347,0.4217687074829932,0.41836734693877553,0.41496598639455784,0.40476190476190477,0.391156462585034,0.3843537414965986,0.38095238095238093,0.37755102040816324,0.3741496598639456,0.3741496598639456,0.3741496598639456,0.3741496598639456,0.3741496598639456,0.3741496598639456,0.3741496598639456,0.3741496598639456,0.3707482993197279,0.3707482993197279,0.3707482993197279,0.3707482993197279,0.3707482993197279,0.3707482993197279,0.3707482993197279,0.3707482993197279,0.3707482993197279,0.3707482993197279,0.3673469387755102,0.3673469387755102,0.3673469387755102,0.3673469387755102,0.3673469387755102,0.3673469387755102,0.36394557823129253,0.36394557823129253,0.36394557823129253,0.36394557823129253,0.36054421768707484,0.36054421768707484,0.36054421768707484,0.36054421768707484,0.36054421768707484,0.36054421768707484,0.36054421768707484,0.36054421768707484,0.36054421768707484,0.36054421768707484,0.36054421768707484,0.36054421768707484,0.36054421768707484,0.36054421768707484,0.36394557823129253,0.3707482993197279,0.37755102040816324,0.3843537414965986,0.3843537414965986,0.3843537414965986,0.3843537414965986,0.3843537414965986,0.3707482993197279,0.36054421768707484,0.3469387755102041,0.3401360544217687,0.3299319727891156,0.3197278911564626,0.3129251700680272,0.30612244897959184,0.30612244897959184,0.30612244897959184,0.3129251700680272,0.3231292517006803,0.336734693877551,0.35374149659863946,0.3843537414965986,0.41496598639455784,0.4387755102040816,0.46258503401360546,0.47959183673469385,0.4931972789115646,0.5068027210884354,0.5102040816326531,0.5136054421768708,0.5136054421768708,0.5136054421768708,0.5136054421768708,0.5136054421768708,0.5136054421768708,0.5136054421768708,0.5170068027210885,0.5204081632653061,0.5306122448979592,0.54421768707483,0.5578231292517006,0.5680272108843537,0.5714285714285714,0.5748299319727891,0.5782312925170068,0.5850340136054422,0.5952380952380952,0.6054421768707483,0.6156462585034014,0.6224489795918368,0.6326530612244898,0.6326530612244898,0.6360544217687075,0.6360544217687075,0.6360544217687075,0.6258503401360545,0.5918367346938775,0.5102040816326531,0.41156462585034015,0.3231292517006803,0.2619047619047619,0.22448979591836735,0.20408163265306123,0.19047619047619047,0.1836734693877551,0.1836734693877551,0.1836734693877551,0.20068027210884354,0.22108843537414966,0.24829931972789115,0.2857142857142857,0.3299319727891156,0.37755102040816324,0.42517006802721086,0.4523809523809524,0.48639455782312924,0.5170068027210885,0.5476190476190477,0.564625850340136,0.5748299319727891,0.5782312925170068,0.5816326530612245,0.5816326530612245,0.5816326530612245,0.5612244897959183,0.5306122448979592,0.4931972789115646,0.445578231292517,0.41156462585034015,0.3843537414965986,0.35374149659863946,0.3231292517006803,0.29591836734693877,0.2857142857142857,0.2857142857142857,0.2857142857142857,0.2857142857142857,0.2857142857142857,0.2857142857142857,0.2857142857142857,0.2857142857142857,0.29931972789115646,0.3129251700680272,0.32653061224489793,0.3401360544217687,0.35374149659863946,0.35714285714285715,0.36394557823129253,0.3673469387755102,0.3707482993197279,0.3707482993197279,0.37755102040816324,0.37755102040816324,0.37755102040816324,0.37755102040816324,0.37755102040816324,0.37755102040816324,0.37755102040816324,0.37755102040816324,0.37755102040816324,0.37755102040816324,0.37755102040816324,0.37755102040816324,0.37755102040816324,0.37755102040816324,0.37755102040816324,0.37755102040816324,0.37755102040816324,0.37755102040816324,0.37755102040816324,0.37755102040816324,0.37755102040816324,0.37755102040816324,0.37755102040816324,0.37755102040816324,0.38095238095238093,0.3877551020408163,0.391156462585034,0.3945578231292517,0.3945578231292517,0.3945578231292517,0.3979591836734694,0.4013605442176871,0.40816326530612246,0.41156462585034015,0.41496598639455784,0.41836734693877553,0.4217687074829932,0.42517006802721086,0.43197278911564624,0.43537414965986393,0.4387755102040816,0.445578231292517,0.4523809523809524,0.46258503401360546,0.46938775510204084,0.47959183673469385,0.48639455782312924,0.4897959183673469,0.4931972789115646,0.4965986394557823,0.5,0.5034013605442177,0.5034013605442177,0.5034013605442177,0.5034013605442177,0.5034013605442177,0.5034013605442177,0.5034013605442177,0.5034013605442177,0.5034013605442177,0.5034013605442177,0.5034013605442177,0.5034013605442177,0.5034013605442177,0.5034013605442177,0.5034013605442177,0.5034013605442177,0.5034013605442177,0.5034013605442177,0.5034013605442177,0.5034013605442177,0.5034013605442177,0.5034013605442177,0.5034013605442177,0.5034013605442177,0.5034013605442177,0.5034013605442177,0.5034013605442177,0.5034013605442177,0.5034013605442177,0.5034013605442177,0.5034013605442177,0.5034013605442177,0.5034013605442177,0.5034013605442177,0.5034013605442177,0.5034013605442177,0.5034013605442177,0.5034013605442177,0.5034013605442177,0.5034013605442177,0.5034013605442177,0.5034013605442177,0.5034013605442177,0.5034013605442177,0.5034013605442177,0.5034013605442177,0.5034013605442177,0.5034013605442177,0.5034013605442177,0.5034013605442177,0.5034013605442177,0.5034013605442177,0.5034013605442177,0.5034013605442177,0.5034013605442177,0.5034013605442177,0.5034013605442177,0.5034013605442177,0.5034013605442177,0.5034013605442177,0.5034013605442177,0.5034013605442177,0.5034013605442177,0.5034013605442177,0.5034013605442177,0.5034013605442177,0.5034013605442177,0.5034013605442177,0.5034013605442177,0.5034013605442177,0.5034013605442177,0.4965986394557823,0.4897959183673469,0.48299319727891155,0.47959183673469385,0.47278911564625853,0.47278911564625853,0.47278911564625853,0.47278911564625853,0.47278911564625853,0.47278911564625853,0.47278911564625853,0.47278911564625853,0.47278911564625853,0.47278911564625853,0.47278911564625853,0.46938775510204084,0.46938775510204084,0.46938775510204084,0.46938775510204084,0.46938775510204084,0.46938775510204084,0.46938775510204084,0.46598639455782315,0.46598639455782315,0.46598639455782315,0.46598639455782315,0.46598639455782315,0.46598639455782315,0.46598639455782315,0.46598639455782315,0.46598639455782315,0.46598639455782315,0.46598639455782315,0.46598639455782315,0.46598639455782315,0.46598639455782315,0.46598639455782315,0.46598639455782315,0.46598639455782315,0.46598639455782315,0.46598639455782315,0.46598639455782315,0.46598639455782315,0.46598639455782315,0.46598639455782315,0.46598639455782315,0.46598639455782315,0.46598639455782315,0.46598639455782315,0.46598639455782315,0.46598639455782315,0.46598639455782315,0.46598639455782315,0.46598639455782315,0.46598639455782315,0.46598639455782315,0.46598639455782315,0.46598639455782315,0.46598639455782315,0.46598639455782315,0.46598639455782315,0.46598639455782315,0.46598639455782315,0.46598639455782315,0.46598639455782315,0.46598639455782315,0.46598639455782315,0.46598639455782315,0.46598639455782315,0.46598639455782315,0.46598639455782315,0.46598639455782315,0.46598639455782315,0.46598639455782315,0.46598639455782315,0.46598639455782315,0.46598639455782315,0.46598639455782315,0.46598639455782315,0.46598639455782315,0.46598639455782315,0.46598639455782315,0.46598639455782315,0.46598639455782315,0.46598639455782315,0.46598639455782315,0.46598639455782315,0.46598639455782315,0.46598639455782315,0.46598639455782315,0.46598639455782315,0.46598639455782315,0.46598639455782315,0.46598639455782315,0.46598639455782315,0.46598639455782315,0.46598639455782315,0.46598639455782315,0.46598639455782315,0.46598639455782315,0.46598639455782315,0.46598639455782315,0.46598639455782315,0.46598639455782315,0.46598639455782315,0.46598639455782315,0.46598639455782315,0.46598639455782315,0.46598639455782315,0.46598639455782315,0.46598639455782315,0.46598639455782315,0.46598639455782315,0.46598639455782315,0.46598639455782315,0.46598639455782315,0.46258503401360546,0.46258503401360546,0.45918367346938777,0.4523809523809524,0.4387755102040816,0.42857142857142855,0.41836734693877553,0.40476190476190477,0.3877551020408163,0.3707482993197279,0.35714285714285715,0.3469387755102041,0.3435374149659864,0.336734693877551,0.3299319727891156,0.3231292517006803,0.3197278911564626,0.3163265306122449,0.3163265306122449,0.3129251700680272,0.3129251700680272,0.30952380952380953,0.30612244897959184,0.30272108843537415,0.30272108843537415,0.29931972789115646,0.29931972789115646,0.2925170068027211,0.2857142857142857,0.2755102040816326,0.2687074829931973,0.2585034013605442,0.25510204081632654,0.25170068027210885,0.24829931972789115,0.24489795918367346,0.24149659863945577,0.24149659863945577,0.23809523809523808,0.23469387755102042,0.23469387755102042,0.23129251700680273,0.22448979591836735,0.22448979591836735,0.22108843537414966,0.21768707482993196,0.21768707482993196,0.21768707482993196,0.21768707482993196,0.21768707482993196,0.21768707482993196,0.22108843537414966,0.23809523809523808,0.25170068027210885,0.2687074829931973,0.2755102040816326,0.282312925170068,0.2925170068027211,0.30272108843537415,0.3129251700680272,0.3231292517006803,0.32653061224489793,0.3333333333333333,0.336734693877551,0.3401360544217687,0.3435374149659864,0.35374149659863946,0.36394557823129253,0.37755102040816324,0.391156462585034,0.4013605442176871,0.40816326530612246,0.41836734693877553,0.4489795918367347,0.4897959183673469,0.5170068027210885,0.5408163265306123,0.54421768707483,0.54421768707483,0.54421768707483,0.54421768707483,0.54421768707483,0.54421768707483,0.54421768707483,0.54421768707483,0.5476190476190477,0.5578231292517006,0.564625850340136,0.5782312925170068,0.5918367346938775,0.6122448979591837,0.6360544217687075,0.6598639455782312,0.673469387755102,0.6768707482993197,0.6802721088435374,0.6802721088435374,0.6802721088435374,0.6802721088435374,0.6802721088435374,0.6802721088435374,0.6802721088435374,0.6802721088435374,0.6802721088435374,0.6802721088435374,0.6802721088435374,0.6666666666666666,0.6564625850340136,0.6394557823129252,0.6122448979591837,0.5748299319727891,0.5340136054421769,0.4897959183673469,0.4421768707482993,0.41496598639455784,0.3435374149659864,0.25510204081632654,0.19047619047619047,0.11224489795918367,0.04081632653061224,-0.047619047619047616,-0.11904761904761904,-0.1598639455782313,-0.17346938775510204,-0.17346938775510204,-0.1564625850340136,-0.1360544217687075,-0.11564625850340136,-0.09863945578231292,-0.08843537414965986,-0.08163265306122448,-0.0782312925170068,-0.0782312925170068,-0.0782312925170068,-0.0782312925170068,-0.0782312925170068,-0.0782312925170068,-0.0782312925170068,-0.0782312925170068,-0.0782312925170068,-0.0782312925170068,-0.0782312925170068,-0.0782312925170068,-0.0782312925170068,-0.0782312925170068,-0.0782312925170068,-0.07482993197278912,-0.06802721088435375,-0.05442176870748299,-0.034013605442176874,-0.006802721088435374,0.030612244897959183,0.061224489795918366,0.08503401360544217,0.10884353741496598,0.1292517006802721,0.14285714285714285,0.15306122448979592,0.1564625850340136,0.16326530612244897,0.16326530612244897,0.16326530612244897,0.16326530612244897,0.16326530612244897,0.16666666666666666,0.16666666666666666,0.17006802721088435,0.17006802721088435,0.17006802721088435,0.17006802721088435,0.17006802721088435,0.17346938775510204,0.17346938775510204,0.17346938775510204,0.17346938775510204,0.17346938775510204,0.17346938775510204,0.17346938775510204,0.17346938775510204,0.17346938775510204,0.17346938775510204,0.17346938775510204,0.17346938775510204,0.17346938775510204,0.17346938775510204,0.17346938775510204,0.17346938775510204,0.17006802721088435,0.17006802721088435,0.17006802721088435,0.16666666666666666,0.16666666666666666,0.16666666666666666,0.16326530612244897,0.16326530612244897,0.16326530612244897,0.16326530612244897,0.1598639455782313,0.1598639455782313,0.1598639455782313,0.1598639455782313,0.1598639455782313,0.1564625850340136,0.1564625850340136,0.15306122448979592,0.14965986394557823,0.14625850340136054,0.14285714285714285,0.14285714285714285,0.14285714285714285,0.14285714285714285,0.14285714285714285,0.14285714285714285,0.13945578231292516,0.13945578231292516,0.13945578231292516,0.13945578231292516,0.14285714285714285,0.15306122448979592,0.16666666666666666,0.1870748299319728,0.20408163265306123,0.23809523809523808,0.2755102040816326,0.2891156462585034,0.2891156462585034,0.272108843537415,0.2619047619047619,0.25170068027210885,0.24149659863945577,0.23129251700680273,0.22789115646258504,0.22789115646258504,0.22789115646258504,0.22789115646258504,0.22789115646258504,0.22789115646258504,0.22789115646258504,0.22789115646258504,0.22789115646258504,0.22789115646258504,0.22789115646258504,0.22789115646258504,0.23129251700680273,0.24149659863945577,0.25510204081632654,0.2789115646258503,0.30272108843537415,0.3435374149659864,0.38095238095238093,0.41836734693877553,0.4387755102040816,0.4387755102040816,0.4387755102040816,0.4387755102040816,0.4387755102040816,0.4387755102040816,0.4387755102040816,0.4387755102040816,0.4387755102040816,0.4387755102040816,0.4387755102040816,0.4387755102040816,0.4387755102040816,0.4387755102040816,0.4387755102040816,0.4387755102040816,0.4387755102040816,0.4387755102040816,0.4387755102040816,0.4387755102040816,0.4387755102040816,0.4387755102040816,0.4421768707482993,0.4523809523809524,0.46598639455782315,0.4897959183673469,0.5102040816326531,0.5272108843537415,0.5374149659863946,0.5408163265306123,0.5408163265306123,0.5408163265306123,0.5408163265306123,0.5408163265306123,0.5408163265306123,0.5408163265306123,0.5408163265306123,0.5408163265306123,0.5408163265306123,0.5408163265306123,0.5340136054421769,0.5272108843537415,0.5204081632653061,0.5170068027210885,0.5102040816326531,0.5068027210884354,0.5,0.5,0.4965986394557823,0.4965986394557823,0.4965986394557823,0.4965986394557823,0.4965986394557823,0.4965986394557823,0.5034013605442177,0.5204081632653061,0.5408163265306123,0.564625850340136,0.5884353741496599,0.6054421768707483,0.6156462585034014,0.6224489795918368,0.6224489795918368,0.6224489795918368,0.6224489795918368,0.6224489795918368,0.6224489795918368,0.6258503401360545,0.6428571428571429,0.6598639455782312,0.6836734693877551,0.7108843537414966,0.7414965986394558,0.7755102040816326,0.8061224489795918,0.826530612244898,0.8333333333333334,0.8333333333333334,0.8333333333333334,0.8333333333333334,0.8333333333333334,0.8333333333333334,0.8333333333333334,0.8333333333333334,0.8333333333333334,0.8333333333333334,0.8333333333333334,0.8333333333333334,0.8333333333333334,0.8333333333333334,0.8333333333333334,0.8333333333333334,0.8333333333333334,0.8333333333333334,0.8333333333333334,0.8333333333333334,0.8333333333333334,0.8333333333333334,0.8299319727891157,0.8299319727891157,0.8299319727891157,0.8299319727891157,0.826530612244898,0.826530612244898,0.826530612244898,0.8231292517006803,0.8197278911564626,0.8197278911564626,0.8163265306122449,0.8129251700680272,0.8095238095238095,0.8061224489795918,0.8027210884353742,0.7993197278911565,0.7993197278911565,0.7959183673469388,0.7925170068027211,0.7891156462585034,0.7891156462585034,0.7857142857142857,0.7857142857142857,0.782312925170068,0.7789115646258503,0.7789115646258503,0.7789115646258503,0.7789115646258503,0.7789115646258503,0.7789115646258503,0.7721088435374149,0.7585034013605442,0.7482993197278912,0.7346938775510204,0.7210884353741497,0.6462585034013606,0.5782312925170068,0.4931972789115646,0.4387755102040816,0.3707482993197279,0.3231292517006803,0.2789115646258503,0.24829931972789115,0.23469387755102042,0.23809523809523808,0.25510204081632654,0.2891156462585034,0.3333333333333333,0.3707482993197279,0.40816326530612246,0.4421768707482993,0.46258503401360546,0.47959183673469385,0.48639455782312924,0.4897959183673469,0.4897959183673469,0.4897959183673469,0.4897959183673469,0.4897959183673469,0.4897959183673469,0.4897959183673469,0.4897959183673469,0.4897959183673469,0.4897959183673469,0.4897959183673469,0.4897959183673469,0.4897959183673469,0.4897959183673469,0.4897959183673469,0.4897959183673469,0.4897959183673469,0.4897959183673469,0.4897959183673469,0.4897959183673469,0.4897959183673469,0.4897959183673469,0.4897959183673469,0.4897959183673469,0.4897959183673469,0.4897959183673469,0.4897959183673469,0.4897959183673469,0.4897959183673469,0.4897959183673469,0.4897959183673469,0.4897959183673469,0.4897959183673469,0.4897959183673469,0.4897959183673469,0.4897959183673469,0.4897959183673469,0.4897959183673469,0.4897959183673469,0.4897959183673469,0.4897959183673469,0.4897959183673469,0.4897959183673469,0.4897959183673469,0.4897959183673469,0.4897959183673469,0.4897959183673469,0.4897959183673469,0.4897959183673469,0.4897959183673469,0.4897959183673469,0.4897959183673469,0.4897959183673469,0.48639455782312924,0.48639455782312924,0.48639455782312924,0.48639455782312924,0.48639455782312924,0.48639455782312924,0.48639455782312924,0.48639455782312924,0.48639455782312924,0.48639455782312924,0.48639455782312924,0.48639455782312924,0.48639455782312924,0.48639455782312924,0.48639455782312924,0.48639455782312924,0.48639455782312924,0.48639455782312924,0.48639455782312924,0.48639455782312924,0.48639455782312924,0.48639455782312924,0.48639455782312924,0.48639455782312924,0.48639455782312924,0.48639455782312924,0.48639455782312924,0.48639455782312924,0.48639455782312924,0.48639455782312924,0.48639455782312924,0.48639455782312924,0.4965986394557823,0.5034013605442177,0.5136054421768708,0.5204081632653061,0.5238095238095238,0.5306122448979592,0.5306122448979592,0.5340136054421769,0.5340136054421769,0.5340136054421769,0.5374149659863946,0.5374149659863946,0.5374149659863946,0.5374149659863946,0.5374149659863946,0.5374149659863946,0.5374149659863946,0.5374149659863946,0.5374149659863946,0.5374149659863946,0.5374149659863946,0.5374149659863946,0.5374149659863946,0.5374149659863946,0.5374149659863946,0.5374149659863946,0.5374149659863946,0.5374149659863946,0.5374149659863946,0.5374149659863946,0.5374149659863946,0.5374149659863946,0.5374149659863946,0.5374149659863946,0.5374149659863946,0.5374149659863946,0.5374149659863946,0.5374149659863946,0.5374149659863946,0.5374149659863946,0.5374149659863946,0.5374149659863946,0.5374149659863946,0.5374149659863946,0.5374149659863946,0.5374149659863946,0.54421768707483,0.5578231292517006,0.5782312925170068,0.6190476190476191,0.6632653061224489,0.7040816326530612,0.7551020408163265,0.8061224489795918,0.8537414965986394,0.8979591836734694,0.9285714285714286,0.9523809523809523,0.9693877551020408,0.9727891156462585,0.9795918367346939,0.9795918367346939,0.9829931972789115,0.9863945578231292,0.9897959183673469,0.9965986394557823,1.0034013605442176,1.0136054421768708,1.0238095238095237,1.030612244897959,1.0374149659863945,1.0408163265306123,1.0442176870748299,1.0510204081632653,1.0510204081632653,1.054421768707483,1.054421768707483,1.054421768707483,1.0578231292517006,1.0578231292517006,1.0612244897959184,1.064625850340136,1.064625850340136,1.064625850340136,1.0680272108843538,1.0714285714285714,1.0714285714285714,1.0714285714285714,1.0748299319727892,1.0748299319727892,1.0748299319727892,1.064625850340136,1.0442176870748299,1.0204081632653061,0.9829931972789115,0.9149659863945578,0.8197278911564626,0.7210884353741497,0.6428571428571429,0.5918367346938775,0.5680272108843537,0.5510204081632653,0.5408163265306123,0.5272108843537415,0.5068027210884354,0.47278911564625853,0.42857142857142855,0.3707482993197279,0.32653061224489793,0.29591836734693877,0.2687074829931973,0.25510204081632654,0.25170068027210885,0.25170068027210885,0.25170068027210885,0.25170068027210885,0.25170068027210885,0.25170068027210885,0.25170068027210885,0.25170068027210885,0.2619047619047619,0.2755102040816326,0.2891156462585034,0.30272108843537415,0.3163265306122449,0.3333333333333333,0.3435374149659864,0.3435374149659864,0.3469387755102041,0.3469387755102041,0.3469387755102041,0.35034013605442177,0.35374149659863946,0.36054421768707484,0.3673469387755102,0.3741496598639456,0.3877551020408163,0.3979591836734694,0.4013605442176871,0.40476190476190477,0.40476190476190477,0.40476190476190477,0.40476190476190477,0.40476190476190477,0.40476190476190477,0.40476190476190477,0.40476190476190477,0.40476190476190477,0.40476190476190477,0.40476190476190477,0.40476190476190477,0.41496598639455784,0.42857142857142855,0.4523809523809524,0.48299319727891155,0.5238095238095238,0.5680272108843537,0.6190476190476191,0.6564625850340136,0.6666666666666666,0.6666666666666666,0.6666666666666666,0.6666666666666666,0.6666666666666666,0.6666666666666666,0.6666666666666666,0.6700680272108843,0.673469387755102,0.6768707482993197,0.6836734693877551,0.6938775510204082,0.7074829931972789,0.7210884353741497,0.7346938775510204,0.7585034013605442,0.7789115646258503,0.7993197278911565,0.8231292517006803,0.8333333333333334,0.8367346938775511,0.8367346938775511,0.8367346938775511,0.8367346938775511,0.8367346938775511,0.8367346938775511,0.8299319727891157,0.8231292517006803,0.8095238095238095,0.7959183673469388,0.782312925170068,0.7755102040816326,0.7721088435374149,0.7755102040816326,0.7925170068027211,0.8129251700680272,0.8197278911564626,0.8197278911564626,0.8129251700680272,0.7959183673469388,0.7789115646258503,0.7619047619047619,0.7414965986394558,0.7210884353741497,0.6972789115646258,0.6700680272108843,0.6428571428571429,0.6156462585034014,0.5850340136054422,0.5612244897959183,0.5374149659863946,0.5136054421768708,0.4965986394557823,0.47959183673469385,0.46258503401360546,0.4557823129251701,0.4421768707482993,0.43197278911564624,0.42517006802721086,0.4217687074829932,0.41836734693877553,0.41836734693877553,0.41836734693877553,0.41836734693877553,0.41836734693877553,0.41836734693877553,0.41836734693877553,0.42857142857142855,0.4557823129251701,0.48299319727891155,0.5068027210884354,0.5340136054421769,0.5510204081632653,0.564625850340136,0.5714285714285714,0.5850340136054422,0.6020408163265306,0.6224489795918368,0.6428571428571429,0.6530612244897959,0.6598639455782312,0.6598639455782312,0.6598639455782312,0.6598639455782312,0.6598639455782312,0.6530612244897959,0.6462585034013606,0.6360544217687075,0.6258503401360545,0.6190476190476191,0.6190476190476191,0.6156462585034014,0.6020408163265306,0.5850340136054422,0.5782312925170068,0.5782312925170068,0.5782312925170068,0.5782312925170068,0.5782312925170068,0.5782312925170068,0.5782312925170068,0.5782312925170068,0.5782312925170068,0.5782312925170068,0.5782312925170068,0.5782312925170068,0.5782312925170068,0.5782312925170068,0.5782312925170068,0.5782312925170068,0.5782312925170068,0.5782312925170068,0.5782312925170068,0.5782312925170068,0.5782312925170068,0.5782312925170068,0.5782312925170068,0.5782312925170068,0.5782312925170068,0.5782312925170068,0.5782312925170068,0.5782312925170068,0.5782312925170068,0.5782312925170068,0.5782312925170068,0.5782312925170068,0.5782312925170068,0.5782312925170068,0.5782312925170068,0.5782312925170068,0.5782312925170068,0.5782312925170068,0.5782312925170068,0.5782312925170068,0.5782312925170068,0.5782312925170068,0.5782312925170068,0.5782312925170068,0.5782312925170068,0.5748299319727891,0.5748299319727891,0.5680272108843537,0.5578231292517006,0.5408163265306123,0.5102040816326531,0.4897959183673469,0.46258503401360546,0.4489795918367347,0.42857142857142855,0.41156462585034015,0.3979591836734694,0.38095238095238093,0.3673469387755102,0.36054421768707484,0.35374149659863946,0.35034013605442177,0.3469387755102041,0.3435374149659864,0.3435374149659864,0.3469387755102041,0.35034013605442177,0.35374149659863946,0.35374149659863946,0.35714285714285715,0.35714285714285715,0.4557823129251701,0.5272108843537415,0.5714285714285714,0.5918367346938775,0.6054421768707483,0.608843537414966,0.608843537414966,0.608843537414966,0.608843537414966,0.608843537414966,0.608843537414966,0.6020408163265306,0.5952380952380952,0.5918367346938775,0.5850340136054422,0.5816326530612245,0.5748299319727891,0.5714285714285714,0.5612244897959183,0.5578231292517006,0.5510204081632653,0.5476190476190477,0.5476190476190477,0.5476190476190477,0.5476190476190477,0.5476190476190477,0.5476190476190477,0.5476190476190477,0.5476190476190477,0.5476190476190477,0.5476190476190477,0.5476190476190477,0.5476190476190477,0.5476190476190477,0.5476190476190477,0.5476190476190477,0.5476190476190477,0.5476190476190477,0.5510204081632653,0.5510204081632653,0.5510204081632653,0.5510204081632653,0.5510204081632653,0.5510204081632653,0.5510204081632653,0.5544217687074829,0.5544217687074829,0.5544217687074829,0.5544217687074829,0.5544217687074829,0.5544217687074829,0.5544217687074829,0.5544217687074829,0.5544217687074829,0.5544217687074829,0.5544217687074829,0.5544217687074829,0.5544217687074829,0.5544217687074829,0.5544217687074829,0.5544217687074829,0.5544217687074829,0.5544217687074829,0.5544217687074829,0.5544217687074829,0.5544217687074829,0.5544217687074829,0.5544217687074829,0.5544217687074829,0.5544217687074829,0.5544217687074829,0.5544217687074829,0.5544217687074829,0.5544217687074829,0.5544217687074829,0.5544217687074829,0.5544217687074829,0.5544217687074829,0.5544217687074829,0.5544217687074829,0.5544217687074829,0.5544217687074829,0.5544217687074829,0.5544217687074829,0.5544217687074829,0.5544217687074829,0.5544217687074829,0.5544217687074829,0.5544217687074829,0.5544217687074829,0.5544217687074829,0.5544217687074829,0.5544217687074829,0.54421768707483,0.5306122448979592,0.5102040816326531,0.48639455782312924,0.46598639455782315,0.4421768707482993,0.41836734693877553,0.41156462585034015,0.40476190476190477,0.40476190476190477,0.40476190476190477,0.40476190476190477,0.40476190476190477,0.40476190476190477,0.40476190476190477,0.40476190476190477,0.40476190476190477,0.40476190476190477,0.40476190476190477,0.40476190476190477,0.40476190476190477,0.40476190476190477,0.40476190476190477,0.40476190476190477,0.40476190476190477,0.40476190476190477,0.40476190476190477,0.40476190476190477,0.40476190476190477,0.40476190476190477,0.41496598639455784,0.4217687074829932,0.4489795918367347,0.4897959183673469,0.5544217687074829,0.5986394557823129,0.6360544217687075,0.6870748299319728,0.7414965986394558,0.782312925170068,0.8129251700680272,0.826530612244898,0.8367346938775511,0.8401360544217688,0.8401360544217688,0.8401360544217688,0.8401360544217688,0.8401360544217688,0.8401360544217688,0.8299319727891157,0.826530612244898,0.8197278911564626,0.8197278911564626,0.8197278911564626,0.8197278911564626,0.8197278911564626,0.8197278911564626,0.8197278911564626,0.8163265306122449,0.8163265306122449,0.8163265306122449,0.8163265306122449,0.8163265306122449,0.8163265306122449,0.8163265306122449,0.8163265306122449,0.8163265306122449,0.8163265306122449,0.8163265306122449,0.8163265306122449,0.8163265306122449,0.8163265306122449,0.8163265306122449,0.8163265306122449,0.8163265306122449,0.8163265306122449,0.8163265306122449,0.8129251700680272,0.8129251700680272,0.8095238095238095,0.8061224489795918,0.8061224489795918,0.8061224489795918,0.8061224489795918,0.8027210884353742,0.8027210884353742,0.8027210884353742,0.8027210884353742,0.8027210884353742,0.8027210884353742,0.8027210884353742,0.8027210884353742,0.8027210884353742,0.8027210884353742,0.8027210884353742,0.8027210884353742,0.8027210884353742,0.8027210884353742,0.8027210884353742,0.8027210884353742,0.8027210884353742,0.8027210884353742,0.8027210884353742,0.8027210884353742,0.8027210884353742,0.8027210884353742,0.8027210884353742,0.8027210884353742,0.8027210884353742,0.7993197278911565,0.7993197278911565,0.7993197278911565,0.7993197278911565,0.7993197278911565,0.7993197278911565,0.7993197278911565,0.7993197278911565,0.7993197278911565,0.7993197278911565,0.7993197278911565,0.7993197278911565,0.7959183673469388,0.7925170068027211,0.7925170068027211,0.7925170068027211,0.7925170068027211,0.7925170068027211,0.7925170068027211,0.7891156462585034,0.7891156462585034,0.7891156462585034,0.7891156462585034,0.7857142857142857,0.7857142857142857,0.7857142857142857,0.782312925170068,0.782312925170068,0.782312925170068,0.782312925170068,0.782312925170068,0.7789115646258503,0.7789115646258503,0.7789115646258503,0.7789115646258503,0.7789115646258503,0.7789115646258503,0.7755102040816326,0.7755102040816326,0.7755102040816326,0.7755102040816326,0.7755102040816326,0.7721088435374149,0.7721088435374149,0.7721088435374149,0.7687074829931972,0.7687074829931972,0.7687074829931972,0.7653061224489796,0.7653061224489796,0.7619047619047619,0.7619047619047619,0.7619047619047619,0.7585034013605442,0.7585034013605442,0.7585034013605442,0.7551020408163265,0.7551020408163265,0.7517006802721088,0.7517006802721088,0.7517006802721088,0.7517006802721088,0.7517006802721088,0.7517006802721088,0.7517006802721088,0.7517006802721088,0.7517006802721088,0.7517006802721088,0.7517006802721088,0.7517006802721088,0.7517006802721088,0.7517006802721088,0.7517006802721088,0.7517006802721088,0.7517006802721088,0.7517006802721088,0.7517006802721088,0.7517006802721088,0.7517006802721088,0.7517006802721088,0.7517006802721088,0.7517006802721088,0.7517006802721088,0.7517006802721088,0.7517006802721088,0.7517006802721088,0.7517006802721088,0.7517006802721088,0.7517006802721088,0.7517006802721088,0.7517006802721088,0.7517006802721088,0.7517006802721088,0.7517006802721088,0.7517006802721088,0.7517006802721088,0.7517006802721088,0.7517006802721088,0.7517006802721088,0.7517006802721088,0.7517006802721088,0.7517006802721088,0.7517006802721088,0.7517006802721088,0.7517006802721088,0.7517006802721088,0.7517006802721088,0.7517006802721088,0.7517006802721088,0.7517006802721088,0.7517006802721088,0.7517006802721088,0.7517006802721088,0.7517006802721088,0.7517006802721088,0.7517006802721088,0.7517006802721088,0.7517006802721088,0.7517006802721088,0.7517006802721088,0.7517006802721088,0.7517006802721088,0.7517006802721088,0.7517006802721088,0.7517006802721088,0.7517006802721088,0.7517006802721088,0.7517006802721088,0.7517006802721088,0.7517006802721088,0.7517006802721088,0.7517006802721088,0.7517006802721088,0.7517006802721088,0.7517006802721088,0.7517006802721088,0.7517006802721088,0.7517006802721088,0.7517006802721088,0.7517006802721088,0.7517006802721088,0.7517006802721088,0.7517006802721088,0.7517006802721088,0.7517006802721088,0.7517006802721088,0.7517006802721088,0.7517006802721088,0.7517006802721088,0.7517006802721088,0.7517006802721088,0.7517006802721088,0.7517006802721088,0.7517006802721088,0.7517006802721088,0.7517006802721088,0.7517006802721088,0.7517006802721088,0.7517006802721088,0.7517006802721088,0.7517006802721088,0.7517006802721088,0.7517006802721088,0.7517006802721088,0.7517006802721088,0.7517006802721088,0.7517006802721088,0.7517006802721088,0.7517006802721088,0.7517006802721088,0.7517006802721088,0.7517006802721088,0.7517006802721088,0.7517006802721088,0.7517006802721088,0.7517006802721088,0.7517006802721088,0.7517006802721088,0.7517006802721088,0.7517006802721088,0.7517006802721088,0.7517006802721088,0.7517006802721088,0.7517006802721088,0.7517006802721088,0.7517006802721088,0.7517006802721088,0.7517006802721088,0.7517006802721088,0.7517006802721088,0.7517006802721088,0.7517006802721088,0.7517006802721088,0.7517006802721088,0.7517006802721088,0.7517006802721088,0.7517006802721088,0.7517006802721088,0.7517006802721088,0.7517006802721088,0.7517006802721088,0.7517006802721088,0.7517006802721088,0.7517006802721088,0.7517006802721088,0.7482993197278912,0.7414965986394558,0.7312925170068028,0.7142857142857143,0.6972789115646258,0.6700680272108843,0.6394557823129252,0.6122448979591837,0.5850340136054422,0.5680272108843537,0.5544217687074829,0.54421768707483,0.5340136054421769,0.5306122448979592,0.5238095238095238,0.5136054421768708,0.4965986394557823,0.47959183673469385,0.46258503401360546,0.42857142857142855,0.391156462585034,0.36054421768707484,0.3299319727891156,0.30272108843537415,0.2925170068027211,0.2925170068027211,0.2891156462585034,0.2891156462585034,0.2891156462585034,0.2891156462585034,0.29591836734693877,0.30952380952380953,0.3401360544217687,0.391156462585034,0.46598639455782315,0.5374149659863946,0.5952380952380952,0.6224489795918368,0.6428571428571429,0.6530612244897959,0.6564625850340136,0.6564625850340136,0.6598639455782312,0.6598639455782312,0.6598639455782312,0.6598639455782312,0.6598639455782312,0.6564625850340136,0.6496598639455783,0.6428571428571429,0.6394557823129252,0.6394557823129252,0.6394557823129252,0.6394557823129252,0.6394557823129252,0.6394557823129252,0.6394557823129252,0.6394557823129252,0.6394557823129252,0.6394557823129252,0.6394557823129252,0.6394557823129252,0.6394557823129252,0.6496598639455783,0.6598639455782312,0.673469387755102,0.6904761904761905,0.7006802721088435,0.7142857142857143,0.7244897959183674,0.7414965986394558,0.7551020408163265,0.7619047619047619,0.7585034013605442,0.7551020408163265,0.7517006802721088,0.7414965986394558,0.717687074829932,0.6904761904761905,0.6632653061224489,0.6428571428571429,0.6292517006802721,0.6190476190476191,0.6122448979591837,0.5986394557823129,0.5850340136054422,0.5748299319727891,0.564625850340136,0.5578231292517006,0.5510204081632653,0.54421768707483,0.5374149659863946,0.5306122448979592,0.5272108843537415,0.5272108843537415,0.5204081632653061,0.5204081632653061,0.5170068027210885,0.5102040816326531,0.5068027210884354,0.5034013605442177,0.5,0.4931972789115646,0.48639455782312924,0.47959183673469385,0.47278911564625853,0.46938775510204084,0.45918367346938777,0.452