[{"success":true,"trial_type":"fullscreen","trial_index":0,"time_elapsed":4519,"internal_node_id":"0.0-0.0","protocol_sum":"","subject_identifier":226,"subject_sum":[108,101,142,232,63,183,232,18,72,36,148,243,228,22,168,118,246,63,65,138,11,138,31,94,118,212,126,228,23,112,53,203],"subject_pair":113,"STUDY_ID":"669eec2e4270c76bc184a38e","PROLIFIC_PID":"666b7281d75f7b1b5c9e653c","SESSION_ID":"669fdc359deb28f1428e3983","practice_instructions":1,"leaderboard_instructions":1,"bonus":0,"reveal_word":false,"self_rating":"3","confidence":"100"},{"view_history":"[{\"page_index\":0,\"viewing_time\":11192}]","rt":11193,"trial_type":"instructions","trial_index":1,"time_elapsed":15714,"internal_node_id":"0.0-1.0","protocol_sum":"","subject_identifier":226,"subject_sum":[108,101,142,232,63,183,232,18,72,36,148,243,228,22,168,118,246,63,65,138,11,138,31,94,118,212,126,228,23,112,53,203],"subject_pair":113,"STUDY_ID":"669eec2e4270c76bc184a38e","PROLIFIC_PID":"666b7281d75f7b1b5c9e653c","SESSION_ID":"669fdc359deb28f1428e3983","practice_instructions":1,"leaderboard_instructions":1,"bonus":0,"reveal_word":false,"self_rating":"3","confidence":"100"},{"view_history":"[{\"page_index\":0,\"viewing_time\":41978}]","rt":41978,"trial_type":"instructions","trial_index":2,"time_elapsed":57695,"internal_node_id":"0.0-2.0-0.0","protocol_sum":"","subject_identifier":226,"subject_sum":[108,101,142,232,63,183,232,18,72,36,148,243,228,22,168,118,246,63,65,138,11,138,31,94,118,212,126,228,23,112,53,203],"subject_pair":113,"STUDY_ID":"669eec2e4270c76bc184a38e","PROLIFIC_PID":"666b7281d75f7b1b5c9e653c","SESSION_ID":"669fdc359deb28f1428e3983","practice_instructions":1,"leaderboard_instructions":1,"bonus":0,"reveal_word":false,"self_rating":"3","confidence":"100"},{"rt":21138,"responses":"{\"Q0\":\"... reveal the word with as <b>few letter guesses</b> as possible\"}","question_order":"[0]","trial_type":"survey-multi-choice","trial_index":3,"time_elapsed":78836,"internal_node_id":"0.0-2.0-1.0","protocol_sum":"","subject_identifier":226,"subject_sum":[108,101,142,232,63,183,232,18,72,36,148,243,228,22,168,118,246,63,65,138,11,138,31,94,118,212,126,228,23,112,53,203],"subject_pair":113,"correct":true,"test_part":"multichoice_nonpretend","STUDY_ID":"669eec2e4270c76bc184a38e","PROLIFIC_PID":"666b7281d75f7b1b5c9e653c","SESSION_ID":"669fdc359deb28f1428e3983","practice_instructions":1,"leaderboard_instructions":1,"bonus":0,"reveal_word":false,"self_rating":"3","confidence":"100"},{"view_history":"[{\"page_index\":0,\"viewing_time\":2954}]","rt":2954,"trial_type":"instructions","trial_index":4,"time_elapsed":81794,"internal_node_id":"0.0-3.0","protocol_sum":"","subject_identifier":226,"subject_sum":[108,101,142,232,63,183,232,18,72,36,148,243,228,22,168,118,246,63,65,138,11,138,31,94,118,212,126,228,23,112,53,203],"subject_pair":113,"STUDY_ID":"669eec2e4270c76bc184a38e","PROLIFIC_PID":"666b7281d75f7b1b5c9e653c","SESSION_ID":"669fdc359deb28f1428e3983","practice_instructions":1,"leaderboard_instructions":1,"bonus":0,"reveal_word":false,"self_rating":"3","confidence":"100"},{"word":"ZEBRA","click_log":{"letter":["","S","O","F","Q","D","E","G","C","B","A","M","R","K","Z"],"t":[0,151199,155758,160509,164271,167396,169164,173290,175475,177373,181193,184248,188136,192696,199462],"hit":[null,0,0,0,0,0,1,0,0,1,1,0,1,0,1],"asked":["","S","SO","SOF","SOFQ","SOFQD","SOFQDE","SOFQDEG","SOFQDEGC","SOFQDEGCB","SOFQDEGCBA","SOFQDEGCBAM","SOFQDEGCBAMR","SOFQDEGCBAMRK","SOFQDEGCBAMRKZ"],"word_state":["_____","_____","_____","_____","_____","_____","_E___","_E___","_E___","_EB__","_EB_A","_EB_A","_EBRA","_EBRA","ZEBRA"]},"hover_log":{"letter":["?","?","?","?","?","?","?","?","?","?","?","?","?","?","?","?","?","?","?","?","?","?","?","?","?","?","?","?","?","?","?","?","?","?","?","?","?","?","?","?","?","?","?","?","?","?","?","?","?","?","?","?","?","?","?","?","?","?","?","?","?","?","?","?","?","?","?","?","?","?","?","?","?","?","?","?","?","?","?","?","?","?","?","?","?","?","?","?","?","?","?","?","?","?","?","?","?","?","?","?","?","?","?","?","?","?","?","?","?","?","?","?","?","?","?","?","?","?","?","?","?","?","?","?","?","?","?","?","?","?","?","?","?","?","?","?","?","?","?","?","?","?","?","?","?","?","?","?","?","?","?","?","?","?","?","?","?","?","?","?","?","?","?","?","?","?","?","?","?","?","?","?","?","?","?","?","?","?","?","?","?","?","?","?","?","?","?","?","?","?","?","?","?","?","?","?","?","?","?","?","?","?","?","?","?","?","?","?","?","?","?","?","?","?","?","?","?","?","?","?","?","?","?","?","?","?","?","?","?","?","?","?","?","?","?","?","?","?","?","?","?","?","?","?","?","?","?","?","?","?","?","?","?","?","?","?","?","?","?","?","?","?","?","?","?","?","?","?","?","?","?","?","?","?","?","?","?","?","?","?","?","?","?","?","?","?","?","?","?","?","?","?","?","?","?","?","?","?","?","?","?","?","?","?","?","?","?","?","?","?","?","?","?","?","?","?","?","?","?","?","?","?","?","?","?","?","?","?","?","?","?","?","?","?","?","?","?","?","?","?","?","?","?","?","?","?","?","?","?","?","?","?","?","?","?","?","?","?","?","?","?","?","?","?","?","?","?","?","?","?","?","?","?","?","?","?","?","?","?","?","?","?","?","?","?","?","?","?","?","?","?","?","?","?","?","?","?","?","?","?","?","?","?","?","?","?","?","?","?","?","?","?","?","?","?","?","?","?","?","?","?","?","?","?","?","?","?","?","?","?","?","?","?","?","?","?","?","?","?","?","?","?","?","?","?","?","?","?","?","?","?","?","?","?","?","?","?","?","?","?","?","?","?","?","?","?","?","?","?","?","?","?","?","?","?","?","?","?","?","?","?","?","?","?","?","?","?","?","?","?","?","?","?","?","?","?","?","?","?","?","?","?","?","?","?","?","?","?","?","?","?","?","?","?","?","?","?","?","?","?","?","?","?","?","?","?","?","?","?","?","?","?","?","?","?","?","?","?","?","?","?","?","?","?","?","?","?","?","?","?","?","?","?","?","?","?","?","?","?","?","?","?","?","?","?","?","?","?","?","?","?","?","?","?","?","?","?","?","?","?","?","?","?","?","?","?","?","?","?","?","?","?","?","?","?","?","?","?","?","?","?","?","?","?","?","?","?","?","?","?","?","?","?","?","?","?","?","?","?","?","?","?","?","?","?","?","?","?","?","?","?","?","?","?","?","?","?","?","?","?","?","?","?","?","?","?","?","?","?","?","?","?","?","?","?","?","?","?","?","?","?","?","?","?","?","?","?","?","?","?","?","?","?","?","?","?","?","?","?","?","?","?","?","?","?","?","?","?","?","?","?","?","?","?","?","?","?","?","?","?","?","?","?","?","?","?","?","?","?","?","?","?","?","?","?","?","?","?","?","?","?","?","?","?","?","?","?","?","?","?","?","?","?","?","?","?","?","?","?","?","?","?","?","?","?","?","?","?","?","?","?","?","?","?","?","?","?","?","?","?","?","?","?","?","?","?","?","?","?","?","?","?","?","?","?","?","?","?","?","?","?","?","?","?","?","?","?","?","?","?","?","?","?","?","?","?","?","?","?","?","?","?","?","?","?","?","?","?","?","?","?","?","?","?","?","?","?","?","?","?","?","?","?","?","?","?","?","?","?","?","?","?","?","?","?","?","?","?","?","?","?","?","?","?","?","?","?","?","?","?","?","?","?","?","?","?","?","?","?","?","?","?","?","?","?","?","?","?","?","?","?","?","?","?","?","?","?","?","?","?","?","?","?","?","?","?","?","?","?","?","?","?","?","?","?","?","?","?","?","?","?","?","?","?","?","?","?","?","?","?","?","?","?","?","?","?","?","?","?","?","?","?","?","?","?","?","?","?","?","?","?","?","?","?","?","?","?","?","?","?","?","?","?","?","?","?","?","?","?","?","?","?","?","?","?","?","?","?","?","?","?","?","?","?","?","?","?","?","?","?","?","?","?","?","?","?","?","?","?","?","?","?","?","?","?","?","?","?","?","?","?","?","?","?","?","?","?","?","?","?","?","?","?","?","?","?","?","?","?","?","?","?","?","?","?","?","?","?","?","?","?","?","?","?","?","?","?","?","?","?","?","?","?","?","?","?","?","?","?","?","?","?","?","?","?","?","?","?","?","?","?","?","?","?","?","?","?","?","?","?","?","?","?","?","?","?","?","?","?","?","?","?","?","?","?","?","?","?","?","?","?","?","?","?","?","?","?","?","?","?","?","?","?","?","?","?","?","?","?","?","?","?","?","?","?","?","?","?","?","?","?","?","?","?","?","?","?","?","?","?","?","?","?","?","?","?","?","?","?","?","?","?","?","?","?","?","?","?","?","?","?","?","?","?","?","?","?","?","?","?","?","?","?","?","?","?","?","?","?","?","?","?","?","?","?","?","?","?","?","?","?","?","?","?","?","?","?","?","?","?","?","?","?","?","?","?","?","?","?","?","?","?","?","?","?","?","?","?","?","?","?","?","?","?","?","?","?","?","?","?","?","?","?","?","?","?","?","?","?","?","?","?","?","?","?","?","?","?","?","?","?","?","?","?","?","?","?","?","?","?","?","?","?","?","?","?","?","?","?","?","?","?","?","?","?","?","?","?","?","?","?","?","?","?","?","?","?","?","?","?","?","?","?","?","?","?","?","?","?","?","?","?","?","?","?","?","?","?","?","?","?","?","?","?","?","?","?","?","?","?","?","?","?","?","?","?","?","?","?","?","?","?","?","?","?","?","?","?","?","?","?","?","?","?","?","?","?","?","?","?","?","?","?","?","?","?","?","?","?","?","?","?","?","?","?","?","?","?","?","?","?","?","?","?","?","?","?","?","?","?","?","?","?","?","?","?","?","?","?","?","?","?","?","?","?","?","?","?","?","?","?","?","?","?","?","?","?","?","?","?","?","?","?","?","?","?","?","?","?","?","?","?","?","?","?","?","?","?","?","?","?","?","?","?","?","?","?","?","?","?","?","?","?","?","?","?","?","?","?","?","?","?","?","?","?","?","?","?","?","?","?","?","?","?","?","?","?","?","?","?","?","?","?","?","?","?","?","?","?","?","?","?","?","?","?","?","?","?","?","?","?","?","?","?","?","?","?","?","?","?","?","?","?","?","?","?","?","?","?","?","?","?","?","?","?","?","?","?","?","?","?","?","?","?","?","?","?","?","?","?","?","?","?","?","?","?","?","?","?","?","?","?","?","?","?","?","?","?","?","?","?","?","?","?","?","?","?","?","?","?","?","?","?","?","?","?","?","?","?","?","?","?","?","?","?","?","?","?","?","?","?","?","?","?","?","?","?","?","?","?","?","?","?","?","?","?","?","?","?","?","?","?","?","?","?","?","?","?","?","?","?","?","?","?","?","?","?","?","?","?","?","?","?","?","?","?","?","?","?","?","?","?","?","?","?","?","?","?","?","?","?","?","?","?","?","?","?","?","?","?","?","?","?","?","?","?","?","?","?","?","?","?","?","?","?","?","?","?","?","?","?","?","?","?","?","?","?","?","?","?","?","?","?","?","?","?","?","?","?","?","?","?","?","?","?","?","?","?","?","?","?","?","?","?","?","?","?","?","?","?","?","?","?","?","?","?","?","?","?","?","?","?","?","?","?","?","?","?","?","?","?","?","?","?","?","?","?","?","?","?","?","?","?","?","?","?","?","?","?","?","?","?","?","?","?","?","?","?","?","?","?","?","?","?","?","?","?","?","?","?","?","?","?","?","?","?","?","?","?","?","?","?","?","?","?","?","?","?","?","?","?","?","?","?","?","?","?","?","?","?","?","?","?","?","?","?","?","?","?","?","?","?","?","?","?","?","?","?","?","?","?","?","?","?","?","?","?","?","?","?","?","?","?","?","?","?","?","?","?","?","?","?","?","?","?","?","?","?","?","?","?","?","?","?","?","?","?","?","?","?","?","?","?","?","?","?","?","?","?","?","?","?","?","?","?","?","?","?","?","?","?","?","?","?","?","?","?","?","?","?","?","?","?","?","?","?","?","?","?","?","?","?","?","?","?","?","?","?","?","?","?","?","?","?","?","?","?","?","?","?","?","?","?","?","?","?","?","?","?","?","?","?","?","?","?","?","?","?","?","?","?","?","?","?","?","?","?","?","?","?","?","?","?","?","?","?","?","?","?","?","?","?","?","?","?","?","?","?","?","?","?","?","?","?","?","?","?","?","?","?","?","?","?","?","?","?","?","?","?","?","?","?","?","?","?","?","?","?","?","?","?","?","?","?","?","?","?","?","?","?","?","?","?","?","?","?","?","?","?","?","?","?","?","?","?","?","?","?","?","?","?","?","?","?","?","?","?","?","?","?","?","?","?","?","?","?","?","?","?","?","?","?","?","?","?","?","?","?","?","?","?","?","?","?","?","?","?","?","?","?","?","?","?","?","?","?","?","?","?","?","?","?","?","?","?","?","?","?","?","?","?","?","?","?","?","?","?","?","?","?","?","?","?","?","?","?","?","?","?","?","?","?","?","?","?","?","?","?","?","?","?","?","?","?","?","?","?","?","?","?","?","?","?","?","?","?","?","?","?","?","?","?","?","?","?","?","?","?","?","?","?","?","?","?","?","?","?","?","?","?","?","?","?","?","?","?","?","?","?","?","?","?","?","?","?","?","?","?","?","?","?","?","?","?","?","?","?","?","?","?","?","?","?","?","?","?","?","?","?","?","?","?","?","?","?","?","?","?","?","?","?","?","?","?","?","?","?","?","?","?","?","?","?","?","?","?","?","?","?","?","?","?","?","?","?","?","?","?","?","?","?","?","?","?","?","?","?","?","?","?","?","?","?","?","?","?","?","?","?","?","?","?","?","?","?","?","?","?","?","?","?","?","?","?","?","?","?","?","?","?","?","?","?","?","?","?","?","?","?","?","?","?","?","?","?","?","?","?","?","?","?","?","?","?","?","?","?","?","?","?","?","?","?","?","?","?","?","?","?","?","?","?","?","?","?","?","?","?","?","?","?","?","?","?","?","?","?","?","?","?","?","?","?","?","?","?","?","?","?","?","?","?","?","?","?","?","?","?","?","?","?","?","?","?","?","?","?","?","?","?","?","?","?","?","?","?","?","?","?","?","?","?","?","?","?","?","?","?","?","?","?","?","?","?","?","?","?","?","?","?","?","?","?","?","?","?","?","?","?","?","?","?","?","?","?","?","?","?","?","?","?","?","?","?","?","?","?","?","?","?","?","?","?","?","?","?","?","?","?","?","?","?","?","?","?","?","?","?","?","?","?","?","?","?","?","?","?","?","?","?","?","?","?","?","?","?","?","?","?","?","?","?","?","?","?","?","?","?","?","?","?","?","?","?","?","?","?","?","?","?","?","?","?","?","?","?","?","?","?","?","?","?","?","?","?","?","?","?","?","?","?","?","?","?","?","?","?","?","?","?","?","?","?","?","?","?","?","?","?","?","?","?","?","?","?","?","?","?","?","?","?","?","?","?","?","?","?","?","?","?","?","?","?","?","?","?","?","?","?","?","?","?","?","?","?","?","?","?","?","?","?","?","?","?","?","?","?","?","?","?","?","?","?","?","?","?","?","?","?","?","?","?","?","?","?","?","?","?","?","?","?","?","?","?","?","?","?","?","?","?","?","?","?","?","?","?","?","?","?","?","?","?","?","?","?","?","?","?","?","?","?","?","?","?","?","?","?","?","?","?","?","?","?","?","?","?","?","?","?","?","?","?","?","?","?","?","?","?","?","?","?","?","?","?","?","?","?","?","?","?","?","?","?","?","?","?","?","?","?","?","?","?","?","?","?","?","?","?","?","?","?","?","?","?","?","?","?","?","?","?","?","?","?","?","?","?","?","?","?","?","?","?","?","?","?","?","?","?","?","?","?","?","?","?","?","?","?","?","?","?","?","?","?","?","?","?","?","?","?","?","?","?","?","?","?","?","?","?","?","?","?","?","?","?","?","?","?","?","?","?","?","?","?","?","?","?","?","?","?","?","?","?","?","?","?","?","?","?","?","?","?","?","?","?","?","?","?","?","?","?","?","?","?","?","?","?","?","?","?","?","?","?","?","?","?","?","?","?","?","?","?","?","?","?","?","?","?","?","?","?","?","?","?","?","?","?","?","?","?","?","?","?","?","?","?","?","?","?","?","?","?","?","?","?","?","?","?","?","?","?","?","?","?","?","?","?","?","?","?","?","?","?","?","?","?","?","?","?","?","?","?","?","?","?","?","?","?","?","?","?","?","?","?","?","?","?","?","?","?","?","?","?","?","?","?","?","?","?","?","?","?","?","?","?","?","?","?","?","?","?","?","?","?","?","?","?","?","?","?","?","?","?","?","?","?","?","?","?","?","?","?","?","?","?","?","?","?","?","?","?","?","?","?","?","?","?","?","?","?","?","?","?","?","?","?","?","?","?","?","?","?","?","?","?","?","?","?","?","?","?","?","?","?","?","?","?","?","?","?","?","?","?","?","?","?","?","?","?","?","?","?","?","?","?","?","?","?","?","?","?","?","?","?","?","?","?","?","?","?","?","?","?","?","?","?","?","?","?","?","?","?","?","?","?","?","?","?","?","?","?","?","?","?","?","?","?","?","?","?","?","?","?","?","?","?","?","?","?","?","?","?","?","?","?","?","?","?","?","?","?","?","?","?","?","?","?","?","?","?","?","?","?","?","?","?","?","?","?","?","?","?","?","?","?","?","?","?","?","?","?","?","?","?","?","?","?","?","?","?","?","?","?","?","?","?","?","?","?","?","?","?","?","?","?","?","?","?","?","?","?","?","?","?","?","?","?","?","?","?","?","?","?","?","?","?","?","?","?","?","?","?","?","?","?","?","?","?","?","?","?","?","?","?","?","?","?","?","?","?","?","?","?","?","?","?","?","?","?","?","?","?","?","?","?","?","?","?","?","?","?","?","?","?","?","?","?","?","?","?","?","?","?","?","?","?","?","?","?","?","?","?","?","?","?","?","?","?","?","?","?","?","?","?","?","?","?","?","?","?","?","?","?","?","?","?","?","?","?","?","?","?","?","?","?","?","?","?","?","?","?","?","?","?","?","?","?","?","?","?","?","?","?","?","?","?","?","?","?","?","?","?","?","?","?","?","?","?","?","?","?","?","?","?","?","?","?","?","?","?","?","?","?","?","?","?","?","?","?","?","?","?","?","?","?","?","?","?","?","?","?","?","?","?","?","?","?","?","?","?","?","?","?","?","?","?","?","?","?","?","?","?","?","?","?","?","?","?","?","?","?","?","?","?","?","?","?","?","?","?","?","?","?","?","?","?","?","?","?","?","?","?","?","?","?","?","?","?","?","?","?","?","?","?","?","?","?","?","?","?","?","?","?","?","?","?","?","?","?","?","?","?","?","?","?","?","?","?","?","?","?","?","?","?","?","?","?","?","?","?","?","?","?","?","?","?","?","?","?","?","?","?","?","?","?","?","?","?","?","?","?","?","?","?","?","?","?","?","?","?","?","?","?","?","?","?","?","?","?","?","?","?","?","?","?","?","?","?","?","?","?","?","?","?","?","?","?","?","?","?","?","?","?","?","?","?","?","?","?","?","?","?","?","?","?","?","?","?","?","?","?","?","?","?","?","?","?","?","?","?","?","?","?","?","?","?","?","?","?","?","?","?","?","?","?","?","?","?","?","?","?","?","?","?","?","?","?","?","?","?","?","?","?","?","?","?","?","?","?","?","?","?","?","?","?","?","?","?","?","?","?","?","?","?","?","?","?","?","?","?","?","?","?","?","?","?","?","?","?","?","?","?","?","?","?","?","?","?","?","?","?","?","?","?","?","?","?","?","?","?","?","?","?","?","?","?","?","?","?","?","?","?","?","?","?","?","?","?","?","?","?","?","?","?","?","?","?","?","?","?","?","?","?","?","?","?","?","?","?","?","?","?","?","?","?","?","?","?","?","?","?","?","?","?","?","?","?","?","?","?","?","?","?","?","?","?","?","?","?","?","?","?","?","?","?","?","?","?","?","?","?","?","?","?","?","?","?","?","?","?","?","?","?","?","?","?","?","?","?","?","?","?","?","?","?","?","?","?","?","?","?","?","?","?","?","?","?","?","?","?","?","?","?","?","?","?","?","?","?","?","?","?","?","?","?","?","?","?","?","?","?","?","?","?","?","?","?","?","?","?","?","?","T","T","T","T","T","T","T","T","T","?","?","?","?","?","?","?","?","?","?","?","?","?","?","?","?","?","?","?","?","?","?","?","?","?","?","?","?","?","?","S","S","S","S","S","S","S","S","S","S","S","S","S","S","S","S","?","?","?","?","?","?","?","?","?","?","?","?","?","?","?","?","?","?","?","?","?","?","?","?","?","?","?","?","?","?","?","?","?","?","?","?","?","?","?","?","?","?","?","?","?","?","?","?","?","?","?","?","?","?","?","?","?","?","?","?","?","?","?","?","?","?","?","?","?","?","?","?","?","?","?","?","?","?","?","?","?","?","?","?","?","?","?","?","?","?","?","?","?","?","?","?","?","?","?","?","?","?","?","?","?","?","?","?","?","?","?","?","?","?","?","?","?","?","?","?","?","?","?","?","?","?","?","?","?","?","?","?","?","?","?","?","?","?","?","?","?","?","?","?","?","?","?","?","?","?","?","?","?","?","?","?","?","?","?","?","?","?","?","?","?","?","?","?","?","?","?","?","?","?","?","?","?","?","?","?","?","?","?","?","?","?","?","?","?","?","?","?","?","?","?","?","?","?","?","?","?","?","?","?","?","?","?","?","?","?","?","?","?","?","?","?","?","?","?","?","?","?","?","?","?","?","?","?","?","?","?","?","?","?","?","?","?","?","?","?","?","?","?","?","?","?","?","?","?","?","?","?","?","?","?","?","?","?","?","?","?","?","?","?","?","?","?","?","?","?","?","?","?","?","?","?","?","?","?","?","?","?","?","?","?","?","?","?","?","?","?","?","?","?","?","?","?","?","?","?","?","?","?","?","?","?","?","?","?","?","?","?","?","?","?","?","?","?","?","?","?","?","?","?","?","?","?","?","?","?","?","?","?","?","?","?","?","?","?","?","?","?","?","?","?","?","?","?","?","?","?","?","?","?","?","?","?","?","?","?","?","?","?","?","?","?","?","?","?","?","?","?","?","?","?","?","?","?","?","?","?","?","?","?","?","?","?","?","?","?","?","?","?","?","?","?","?","?","?","?","?","?","?","?","?","?","?","?","?","?","?","?","?","?","?","?","?","?","?","?","?","?","?","?","?","?","?","?","?","?","?","?","?","?","?","?","?","?","?","?","?","?","?","?","?","?","?","?","?","?","?","?","?","?","?","?","?","?","?","?","?","?","?","?","?","?","?","?","?","?","?","?","?","?","?","?","?","?","?","?","?","?","?","?","?","?","?","?","?","?","?","?","?","?","?","?","?","?","?","?","?","?","?","?","?","?","?","?","?","?","?","?","?","?","?","?","?","?","?","?","?","?","?","?","?","?","?","?","?","?","?","?","?","?","?","?","?","?","?","?","?","?","?","?","?","?","?","?","?","?","?","?","?","?","?","?","?","?","?","?","?","?","?","?","?","?","?","?","?","?","?","?","?","?","?","?","?","?","?","?","?","?","?","?","?","?","?","?","?","?","?","?","?","?","?","?","?","?","?","?","?","?","?","?","?","?","?","?","?","?","?","?","?","?","?","?","?","?","?","?","?","?","?","?","?","?","?","?","?","?","?","?","?","?","?","?","?","?","?","?","?","?","?","?","?","?","?","?","?","?","?","?","?","?","?","?","?","?","?","?","?","?","?","?","?","?","?","?","?","?","?","?","?","?","?","?","?","?","?","?","?","?","?","?","?","?","?","?","?","?","?","?","?","?","?","?","?","?","?","?","?","?","?","?","?","?","?","?","?","?","?","?","?","?","?","?","?","?","?","?","?","?","?","?","?","?","?","?","?","?","?","?","?","?","?","?","?","?","?","?","?","?","?","?","?","?","?","?","?","?","?","?","?","?","?","?","?","?","?","?","?","?","?","?","?","?","?","?","?","?","?","?","?","?","?","?","?","?","?","?","?","?","?","?","?","?","?","?","?","?","?","?","?","?","?","?","?","?","?","?","?","?","?","?","?","?","?","?","?","?","?","?","?","?","?","?","?","?","?","?","?","?","?","?","?","?","?","?","?","?","?","?","?","?","?","?","?","?","?","?","?","?","?","?","?","?","?","?","?","?","?","?","?","?","?","?","?","?","?","?","?","?","?","?","?","?","?","?","?","?","?","?","?","?","?","?","?","?","?","?","?","?","?","?","?","?","?","?","?","?","?","?","?","?","?","?","?","?","?","?","?","?","?","?","?","?","?","?","?","?","?","?","?","?","?","?","?","?","?","?","?","?","?","?","?","?","?","?","?","?","?","?","?","?","?","?","?","?","?","?","?","?","?","?","?","?","?","?","?","?","?","?","?","?","?","?","?","?","?","?","?","?","?","?","?","?","?","?","?","?","?","?","?","?","?","?","?","?","?","?","?","?","?","?","?","?","?","?","?","?","?","?","?","?","?","?","?","?","?","?","?","?","?","?","?","?","?","?","?","?","?","?","?","?","?","?","?","?","?","?","?","?","?","?","?","?","?","?","?","?","?","?","?","?","?","?","?","?","?","?","?","?","?","?","?","?","?","?","?","?","?","?","?","?","?","?","?","?","?","?","?","?","?","?","?","?","?","?","?","?","?","?","?","?","?","?","?","?","?","?","?","?","?","?","?","?","?","?","?","?","?","?","?","?","?","?","?","?","?","?","?","?","?","?","?","?","?","?","?","?","?","?","?","?","?","?","?","?","?","?","?","?","?","?","?","?","?","?","?","?","?","?","?","?","?","?","?","?","?","?","?","?","?","?","?","?","?","?","?","?","?","?","?","?","?","?","?","?","?","?","?","?","?","?","?","?","?","?","?","?","?","?","?","?","?","?","?","?","?","?","?","?","?","?","?","?","?","?","?","?","?","?","?","?","?","?","?","?","?","?","?","?","?","?","?","?","?","?","?","?","?","?","?","?","?","?","?","?","?","?","?","?","?","?","?","?","?","?","?","?","?","?","?","?","?","?","?","?","?","?","?","?","?","?","?","?","?","?","?","?","?","?","?","?","?","?","?","?","?","?","?","?","?","?","?","?","?","?","?","?","?","?","?","?","?","?","?","?","?","?","?","?","?","?","?","?","?","?","?","?","?","?","?","?","?","?","?","?","?","?","?","?","?","?","?","?","?","?","?","?","?","?","?","?","?","?","?","?","?","?","?","?","?","?","?","?","?","?","?","?","?","?","?","?","?","?","?","?","?","?","?","?","?","?","?","?","?","?","?","?","?","?","?","?","?","?","?","?","?","?","?","?","?","?","?","?","?","?","?","?","?","?","?","?","?","?","?","?","?","?","?","?","?","?","?","?","?","?","?","?","?","?","?","?","?","?","?","?","?","?","?","?","?","?","?","?","?","?","?","?","?","?","?","?","?","?","?","?","?","?","?","?","?","?","?","?","?","?","?","?","?","?","?","?","?","?","?","?","?","?","?","?","?","?","?","?","?","?","?","?","?","?","?","?","?","?","?","?","?","?","?","?","?","?","?","?","?","?","?","?","?","?","?","?","?","?","?","?","?","?","?","?","?","?","?","?","?","?","?","?","?","?","?","?","?","?","?","?","?","?","?","?","?","?","?","?","?","?","?","?","?","?","?","?","?","?","?","?","?","?","?","?","?","?","?","?","?","?","?","?","?","?","?","?","?","?","?","?","?","?","?","?","?","?","?","?","?","?","?","?","?","?","?","?","?","?","?","?","?","?","?","?","?","?","?","?","?","?","?","?","?","?","?","?","?","?","?","?","?","?","?","?","?","?","?","?","?","?","?","?","?","?","?","?","?","?","?","?","?","?","?","?","?","?","?","?","?","?","?","?","?","?","?","?","?","?","?","?","?","?","L","L","?","?","?","?","?","?","?","?","?","?","?","?","?","?","?","?","?","?","?","?","?","?","?","?","?","?","?","?","?","?","?","?","?","?","?","?","?","?","?","?","?","?","?","?","?","?","?","?","D","D","?","?","?","?","?","?","?","?","?","?","?","?","?","?","?","?","?","?","?","?","?","?","?","?","?","?","E","E","E","E","E","E","E","E","E","E","E","E","E","E","E","E","E","E","E","E","E","E","E","E","E","E","E","E","E","E","E","E","E","E","E","E","E","E","E","E","E","E","E","E","E","E","E","E","E","E","E","E","E","E","E","E","E","E","E","E","E","E","E","E","E","E","E","E","E","E","E","E","E","?","?","?","?","?","?","?","?","?","?","?","?","?","?","?","E","E","E","E","E","E","E","E","E","E","E","E","E","E","E","E","E","E","E","E","E","E","E","E","E","E","E","E","E","E","E","E","E","E","E","E","E","E","E","E","E","E","E","E","E","E","E","E","E","E","E","E","E","E","E","E","E","E","E","E","E","E","E","E","E","E","E","E","E","E","E","E","E","E","E","E","E","E","E","E","E","E","E","E","E","E","E","E","E","E","E","E","E","E","E","E","E","E","E","E","E","E","E","E","E","E","E","E","E","E","E","E","E","E","E","E","E","E","E","E","E","E","E","E","E","E","E","E","E","E","E","E","E","E","E","E","E","E","E","E","E","E","E","E","E","E","E","E","E","E","E","E","E","E","E","E","E","E","E","E","E","E","E","E","E","E","E","E","E","E","E","E","E","E","E","E","E","E","E","E","E","E","E","E","E","E","E","E","E","E","E","E","E","E","E","E","E","E","E","E","E","E","E","E","E","E","E","E","E","E","E","E","E","E","E","E","E","E","E","E","E","E","E","E","E","E","E","E","E","E","E","E","E","E","E","E","E","E","E","E","E","E","E","E","E","E","E","E","E","E","E","E","E","E","E","E","E","E","E","E","E","E","E","E","E","E","E","E","E","E","E","E","E","E","E","E","E","E","E","E","E","E","E","E","E","E","E","E","E","E","E","E","E","E","E","E","E","E","E","E","E","E","E","E","E","E","E","E","E","E","E","E","E","E","E","E","E","E","E","E","E","E","E","E","E","E","E","E","E","E","E","E","E","E","E","E","E","E","E","E","E","E","E","E","E","E","E","E","E","E","E","E","E","E","E","E","E","E","E","E","E","E","E","E","E","E","E","E","E","E","E","E","E","E","E","E","E","E","E","E","E","E","E","E","E","E","E","E","E","E","E","E","E","E","E","E","E","E","E","E","E","E","E","E","E","E","E","E","E","E","E","E","E","E","E","E","E","E","E","E","E","E","E","E","E","E","E","E","E","E","E","E","E","E","E","E","E","E","E","E","E","E","E","E","E","E","E","E","E","E","E","E","E","E","E","E","E","E","E","E","E","E","E","E","E","E","E","E","E","E","E","E","E","E","E","E","E","E","E","E","E","E","E","E","E","E","E","E","E","E","E","E","E","E","E","E","E","E","E","E","E","E","E","E","E","E","E","E","E","E","E","E","E","E","E","E","E","E","E","E","E","E","E","E","E","E","E","E","E","E","E","E","E","E","E","E","E","E","E","E","E","E","E","E","E","E","E","E","E","E","E","E","E","E","E","E","E","E","E","E","E","E","E","E","E","E","E","E","E","E","E","E","E","E","E","E","E","E","E","E","E","E","E","E","E","E","E","E","E","E","E","E","E","E","E","E","E","E","E","E","E","E","E","E","E","E","E","E","E","E","E","E","E","E","E","E","E","E","E","E","E","E","E","E","E","E","E","E","E","E","E","E","E","E","E","E","E","E","E","E","E","E","E","E","E","E","E","E","E","E","E","E","E","E","E","E","E","E","E","E","E","E","E","E","E","E","E","E","E","E","E","E","E","E","?","?","?","?","?","?","?","?","?","?","?","?","?","?","?","?","?","?","?","?","?","?","?","?","?","?","?","?","?","?","?","?","?","?","?","?","?","?","?","?","?","?","?","?","?","?","?","?","?","?","?","?","?","?","?","?","?","?","?","?","?","?","?","?","?","?","?","?","?","?","?","?","?","?","?","?","?","?","?","?","?","?","?","?","?","?","?","?","?","?","?","?","?","?","?","?","?","?","?","?","?","?","?","?","?","?","?","?","?","?","?","?","?","?","?","?","?","?","?","?","?","?","?","?","?","?","?","?","?","?","?","?","?","?","?","?","?","?","?","?","?","?","?","?","?","?","?","?","?","?","?","?","?","?","?","?","?","?","?","?","?","?","?","?","?","?","?","?","?","?","?","?","?","?","?","?","?","?","?","?","?","?","?","?","?","?","?","?","?","?","?","?","?","?","?","?","?","?","?","?","?","?","?","?","?","?","?","?","?","?","?","?","?","?","?","?","?","?","?","?","?","?","?","?","?","?","?","?","?","?","?","?","?","?","?","?","?","?","?","?","?","?","?","?","?","?","?","?","?","?","?","?","?","?","?","?","?","?","?","?","?","?","?","?","?","?","?","?","?","?","?","?","?","?","?","?","?","?","?","?","?","?","?","?","?","?","?","?","?","?","?","?","?","?","?","?","?","?","?","?","?","?","?","?","?","?","?","?","?","?","?","?","?","?","?","?","?","?","?","?","?","?","?","?","?","?","?","?","?","?","?","?","?","?","?","?","?","?","?","?","?","?","?","?","?","?","?","?","?","?","?","?","?","?","?","?","?","?","?","?","?","?","?","?","?","?","?","?","?","?","?","?","?","?","?","?","?","?","?","?","?","?","?","?","?","?","?","?","?","?","?","?","?","?","?","?","?","?","?","?","?","?","?","?","?","?","?","?","?","?","?","?","?","?","?","?","?","?","?","?","?","?","?","?","?","?","?","?","?","?","?","?","?","?","?","?","?","?","?","?","?","?","?","?","?","?","?","?","?","?","?","?","?","?","?","?","?","?","?","?","?","?","?","?","?","?","?","?","?","?","?","?","?","?","?","?","?","?","?","?","?","?","?","?","?","?","?","?","?","?","?","?","?","?","?","?","?","?","?","?","?","?","?","?","?","?","?","?","?","?","?","?","?","?","?","?","?","?","?","?","?","?","?","?","?","?","?","?","?","?","?","?","?","?","?","?","?","?","?","?","?","?","?","?","?","?","?","?","?","?","?","?","?","?","?","?","?","?","?","?","?","?","?","?","?","?","?","?","?","?","?","?","?","?","?","?","?","?","?","?","?","?","?","?","?","?","?","?","?","?","?","?","?","?","?","?","?","?","?","?","?","?","?","?","?","?","?","?","?","?","?","?","?","?","?","?","?","?","?","?","?","?","?","?","?","?","?","?","?","?","?","?","?","?","?","?","?","?","?","?","?","?","?","?","?","?","?","?","?","?","?","?","?","?","?","?","?","?","?","?","?","?","?","?","?","?","?","?","?","?","?","?","?","?","?","?","?","?","?","?","?","?","?","?","?","?","?","?","?","?","?","?","?","?","?","?","?","?","?","?","?","?","?","?","?","?","?","?","?","?","?","?","?","?","?","?","?","?","?","?","?","?","?","?","?","?","?","?","?","?","?","?","?","?","?","?","?","?","?","?","?","?","?","?","?","?","?","?","?","?","?","?","?","?","?","?","?","?","?","?","?","?","?","?","?","?","?","?","?","?","?","?","?","?","?","?","?","?","?","?","?","?","?","?","?","?","?","?","?","?","?","?","?","?","?","?","?","?","?","?","?","?","?","?","?","?","?","?","?","?","?","?","?","?","?","?","?","?","?","?","?","?","?","?","?","?","?","?","?","?","?","?","?","?","?","?","?","?","?","?","?","?","?","?","?","?","?","?","?","?","?","?","?","?","?","?","?","?","?","?","?","?","?","?","?","?","?","?","?","?","?","?","?","?","?","?","?","?","?","?","?","?","?","?","?","?","?","?","?","?","?","?","?","?","?","?","?","?","?","?","?","?","?","?","?","?","?","?","?","?","?","?","?","?","?","?","?","?","?","?","?","?","?","?","?","?","?","?","?","?","?","?","?","?","?","?","?","?","?","?","?","?","?","?","?","?","?","?","?","?","?","?","?","?","?","?","?","?","?","?","?","?","?","?","?","?","?","?","?","?","?","?","?","?","?","?","?","?","?","?","?","?","?","?","?","?","?","?","?","?","?","?","?","?","?","?","?","?","?","?","?","?","?","?","?","?","?","?","?","?","?","?","?","?","?","?","?","?","?","?","?","?","?","?","?","?","?","?","?","?","?","?","?","?","?","?","?","?","?","?","?","?","?","?","?","?","?","?","?","?","?","?","?","?","?","?","?","?","?","?","?","?","?","?","?","?","?","?","?","?","?","?","?","?","?","?","?","?","?","?","?","?","?","?","?","?","?","?","?","?","?","?","?","?","?","?","?","?","?","?","?","?","?","?","?","?","?","?","?","?","?","?","?","?","?","?","?","?","?","?","?","?","?","?","?","?","?","?","?","?","?","?","?","?","?","?","?","?","?","?","?","?","?","?","?","?","?","?","?","?","?","?","?","?","?","?","?","?","?","?","?","?","?","?","?","?","?","?","?","?","?","?","?","?","?","?","?","?","?","?","?","?","?","?","?","?","?","?","?","?","?","?","?","?","?","?","?","?","?","?","?","?","?","?","?","?","?","?","?","?","?","?","?","?","?","?","?","?","?","?","?","?","?","?","?","?","?","?","?","?","?","?","?","?","?","?","?","?","?","?","?","?","?","?","?","?","?","?","?","?","?","?","?","?","?","?","?","?","?","?","?","?","?","?","?","?","?","?","?","?","?","?","?","?","?","?","?","?","?","?","?","?","?","?","?","?","?","?","?","?","?","?","?","?","?","?","?","?","?","?","?","?","?","?","?","?","?","?","?","?","?","?","?","?","?","?","?","?","?","?","?","?","?","?","?","?","?","?","?","?","?","?","?","?","?","?","?","?","?","?","?","?","?","?","?","?","?","?","?","?","?","?","?","?","?","?","?","?","?","?","?","?","?","?","?","?","?","?","?","?","?","?","?","?","?","?","?","?","?","?","?","?","?","?","?","?","?","?","?","?","?","?","?","?","?","?","?","?","?","?","?","?","?","?","?","?","?","?","?","?","?","?","?","?","?","?","?","?","?","?","?","?","?","?","?","?","?","?","?","?","?","?","?","?","?","?","?","?","?","?","?","?","?","?","?","?","?","?","?","?","?","?","?","?","?","?","?","?","?","?","?","?","?","?","?","?","?","?","?","?","?","?","?","?","?","?","?","?","?","?","?","?","?","?","?","?","?","?","?","?","?","?","?","?","?","?","?","?","?","?","?","?","?","?","?","?","?","?","?","?","?","?","?","?","?","?","?","?","?","?","?","?","?","?","?","?","?","?","?","?","?","?","?","?","?","?","?","?","?","?","?","?","?","?","?","?","?","?","?","?","?","?","?","?","?","?","?","?","?","?","?","?","?","?","?","?","?","?","?","?","?","?","?","?","?","?","?","?","?","?","?","?","?","?","?","?","?","?","?","?","?","?","?","?","?","?","?","?","?","?","?","?","?","?","?","?","?","?","?","?","?","?","?","?","?","?","?","?","?","?","?","?","?","?","?","?","?","?","?","?","?","?","?","?","?","?","?","?","?","?","?","?","?","?","?","?","?","?","?","?","?","?","?","?","?","?","?","?","?","?","?","?","?","?","?","?","?","?","?","?","?","?","?","?","?","?","?","?","?","?","?","?","?","?","?","?","?","?","?","?","?","?","?","?","?","?","?","?","?","?","?","?","?","?","?","?","?","?","?","?","?","?","?","?","?","?","?","?","?","?","?","?","?","?","?","?","?","?","?","?","?","?","?","?","?","?","?","?","?","?","?","?","?","?","?","?","?","?","?","?","?","?","?","?","?","?","?","?","?","?","?","?","?","?","?","?","?","?","?","?","?","?","?","?","?","?","?","?","?","?","?","?","?","?","?","?","?","?","?","?","?","?","?","?","?","?","?","?","?","?","?","?","?","?","?","?","?","?","?","?","?","?","?","?","?","?","?","?","?","?","?","?","?","?","?","?","?","?","?","?","?","?","?","?","?","?","?","?","?","?","?","?","?","?","?","?","?","?","?","?","?","?","?","?","?","?","?","?","?","?","?","?","?","?","?","?","?","?","?","?","?","?","?","?","?","?","?","?","?","?","?","?","?","?","?","?","?","?","?","?","?","?","?","?","?","?","?","?","?","?","?","?","?","?","?","?","?","?","?","?","?","?","?","?","?","?","?","?","?","?","?","?","?","?","?","?","?","?","?","?","?","?","?","?","?","?","?","?","?","?","?","?","?","?","?","?","?","?","?","?","?","?","?","?","?","?","?","?","?","?","?","?","?","?","?","?","?","?","?","?","?","?","?","?","?","?","?","?","?","?","?","?","?","?","?","?","?","?","?","?","?","?","?","?","?","?","?","?","?","?","?","?","?","?","?","?","?","?","?","?","?","?","?","?","?","?","?","?","?","?","?","?","?","?","?","?","?","?","?","?","?","?","?","?","?","?","?","?","?","?","?","?","?","?","?","?","?","?","?","?","?","?","?","?","?","?","?","?","?","?","?","?","?","?","?","?","?","?","?","?","?","?","?","?","?","?","?","?","?","?","?","?","?","?","?","?","?","?","?","?","?","?","?","?","?","?","?","?","?","?","?","?","?","?","?","?","?","?","?","?","?","?","?","?","?","N","N","N","N","N","N","N","N","N","?","?","?","?","D","?","?","?","?","?","?","?","?","?","?","?","?","?","?","?","?","?","?","?","?","?","?","?","?","?","?","?","?","?","?","?","?","?","?","?","?","?","?","?","?","?","?","?","?","?","?","?","?","?","?","?","?","?","?","?","?","?","?","?","?","?","?","?","?","?","?","?","?","?","?","?","?","?","?","?","?","?","?","F","F","F","F","F","F","F","F","F","F","F","F","F","?","?","?","?","?","?","?","?","?","?","P","P","P","P","P","P","P","P","P","P","P","P","P","P","P","P","P","P","P","P","P","P","P","P","P","P","P","P","P","P","P","P","P","P","P","P","P","P","P","P","P","P","?","?","F","F","F","?","?","?","?","?","?","?","?","?","?","?","?","?","?","?","?","?","?","?","?","?","?","?","?","?","?","?","?","?","?","?","?","?","?","?","?","?","?","?","?","?","?","?","?","?","?","?","?","?","?","?","?","?","?","D","?","?","?","?","?","?","?","?","?","?","?","?","?","?","?","?","?","L","L","L","L","L","L","L","L","L","L","L","L","L","L","L","L","L","L","L","L","L","L","L","L","L","L","L","L","L","L","L","?","?","?","?","?","?","?","?","?","?","?","?","?","?","?","?","?","?","?","?","?","?","?","?","?","?","?","M","M","M","M","M","M","M","M","M","M","M","M","M","M","M","M","M","M","?","?","?","?","?","?","?","?","?","?","?","?","?","?","?","?","?","?","?","?","?","?","?","?","?","?","?","?","?","N","N","N","N","N","N","N","N","N","N","N","N","N","N","?","?","?","?","?","?","K","K","K","K","K","K","K","K","K","K","K","K","?","K","K","?","?","?","?","?","?","?","?","?","?","?","?","?","?","?","?","?","?","?","?","?","?","?","?","?","?","?","?","?","?","?","?","?","?","?","?","?","?","?","?","?","?","?","?","?","?","?","?","?","?","?","?","?","?","T","T","T","T","T","T","T","T","T","T","T","T","T","T","T","T","T","T","T","T","T","T","T","T","T","T","T","T","T","T","T","T","T","T","T","T","T","T","T","?","?","?","?","?","?","?","?","?","?","?","?","?","?","?","?","?","?","?","?","?","?","?","?","?","?","?","?","?","?","?","?","?","?","?","?","?","?","?","?","?","?","?","?","?","?","?","?","?","M","M","?","?","L","L","L","L","L","L","L","L","L","L","L","L","L","L","L","L","L","L","L","L","L","L","L","L","L","L","L","L","L","L","L","L","L","L","L","L","L","L","L","L","L","L","L","L","L","L","L","L","L","L","L","L","L","L","L","L","L","L","L","L","L","L","L","L","L","L","L","L","L","L","L","L","L","L","L","L","L","L","L","L","L","L","L","L","L","L","L","L","L","L","L","L","L","L","L","L","L","L","L","L","L","L","L","L","L","L","L","L","L","L","L","L","L","L","L","L","L","L","L","L","L","L","L","L","L","L","L","?","?","K","?","?","?","?","?","?","?","?","?","?","?","?","?","?","S","S","S","S","S","S","S","S","S","S","S","S","S","S","S","S","S","S","S","S","S","S","S","S","S","S","S","S","S","S","S","S","S","S","S","S","S","S","S","S","?","?","?","L","L","L","M","M","?","?","?","?","?","?","?","?","?","?","?","?","?","?","?","?","?","?","?","?","?","?","?","?","?","?","?","?","?","?","N","N","N","N","N","N","N","N","N","N","N","N","N","N","N","N","N","N","N","N","N","N","N","N","N","N","N","N","N","N","N","N","N","N","N","N","N","N","N","N","N","N","N","N","N","N","N","N","N","N","N","N","N","N","N","N","N","N","N","N","N","N","N","N","N","N","N","N","N","N","N","N","N","N","N","N","N","N","N","N","N","N","N","N","N","N","N","N","N","N","N","N","N","N","N","N","N","N","N","N","N","N","N","N","N","N","N","N","N","N","N","N","N","N","N","N","N","N","N","N","N","N","N","N","N","N","N","N","N","N","N","N","?","?","?","?","?","?","?","?","?","X","X","X","X","X","X","X","X","X","X","X","X","X","X","X","X","X","X","X","X","X","X","?","?","?","?","?","?","?","?","?","?","?","?","?","?","?","?","?","?","?","?","?","O","O","O","O","O","O","O","O","O","O","O","O","O","O","O","O","O","O","O","O","O","O","O","O","O","O","O","O","O","O","O","O","O","O","O","O","O","O","O","O","O","O","O","O","O","O","O","O","O","O","O","O","O","O","O","O","O","O","O","O","O","O","O","O","O","O","O","O","O","O","O","O","O","O","O","O","O","O","O","O","O","O","O","O","O","O","O","O","O","O","O","O","O","O","O","O","O","O","O","O","O","O","O","O","O","O","O","O","O","O","O","O","O","O","O","O","O","O","O","O","O","O","O","O","O","O","O","O","O","O","O","O","O","O","O","O","O","O","O","O","O","O","O","O","O","O","O","O","O","O","O","O","O","O","O","O","O","O","O","O","O","O","O","O","O","O","O","O","O","O","O","O","O","?","?","?","?","?","?","X","X","X","X","X","X","X","X","X","X","X","X","X","?","?","?","?","?","?","?","?","?","?","N","N","N","N","N","N","N","N","N","N","N","N","?","?","?","?","?","?","?","?","?","?","?","X","X","X","X","X","X","X","?","?","Y","Y","Y","Y","Y","Y","Y","Y","Y","Y","Y","Y","Y","Y","Y","Y","Y","Y","Y","Y","Y","Y","Y","Y","?","?","?","?","?","?","X","X","?","?","?","?","O","?","?","?","?","?","?","?","?","?","F","F","F","F","F","F","F","F","F","F","F","F","F","F","F","F","F","F","F","F","F","F","F","F","F","F","F","F","F","F","F","F","F","F","F","F","F","F","F","F","F","F","F","F","F","F","F","F","F","F","F","F","F","F","F","F","F","F","F","F","F","F","F","F","F","F","F","F","F","F","F","F","F","F","F","F","F","F","F","F","F","F","F","F","F","F","F","F","F","F","F","F","F","F","F","F","F","F","F","F","F","F","F","F","F","F","F","F","F","F","F","F","F","F","F","F","F","F","F","F","F","F","F","F","F","F","F","F","F","F","F","F","F","F","F","F","F","F","F","F","F","F","?","?","?","?","?","?","?","?","?","P","P","P","P","P","P","P","P","P","P","P","P","P","P","P","P","P","P","P","P","P","P","P","P","P","P","P","P","P","P","P","P","P","P","P","P","P","P","P","P","P","P","P","P","P","P","P","P","P","P","P","P","?","?","?","?","?","Q","Q","Q","Q","Q","Q","Q","Q","Q","Q","Q","Q","Q","Q","Q","Q","Q","Q","Q","Q","Q","Q","Q","Q","Q","Q","Q","Q","Q","Q","Q","Q","Q","Q","Q","Q","Q","Q","Q","Q","Q","Q","Q","Q","Q","Q","Q","Q","Q","Q","Q","Q","Q","Q","Q","Q","Q","Q","Q","Q","Q","Q","Q","Q","Q","Q","Q","Q","Q","Q","Q","Q","Q","Q","Q","Q","Q","Q","Q","Q","Q","Q","Q","Q","Q","Q","Q","Q","Q","Q","Q","Q","Q","Q","Q","Q","Q","Q","Q","Q","Q","Q","Q","Q","Q","Q","Q","Q","Q","Q","Q","Q","Q","Q","Q","Q","Q","Q","Q","Q","Q","Q","Q","Q","Q","Q","Q","Q","Q","Q","Q","?","P","P","P","P","?","?","O","O","O","O","O","O","O","O","O","O","O","O","O","O","O","O","O","O","O","O","O","O","O","O","O","O","O","O","O","?","?","?","?","D","D","D","D","D","D","D","D","D","D","D","D","D","D","D","D","D","D","D","D","D","D","D","D","D","D","D","D","D","D","D","D","D","D","D","D","D","D","D","D","D","D","D","D","D","D","D","D","D","D","D","D","D","D","D","D","D","D","D","D","D","D","D","D","D","D","D","D","D","D","D","D","D","D","D","D","D","D","D","D","D","D","D","D","D","D","D","D","D","D","D","D","D","D","D","D","D","D","D","D","D","D","D","D","D","D","D","D","D","D","D","D","D","D","D","D","D","D","D","D","D","D","D","D","D","D","D","D","D","D","D","D","D","D","D","D","D","D","D","D","D","D","D","?","?","E","E","E","E","E","E","E","E","E","E","E","E","E","E","E","E","E","E","E","E","E","E","E","E","E","E","E","E","E","E","E","E","E","E","E","E","E","E","E","E","E","E","E","E","E","E","E","E","E","E","E","E","E","E","E","E","E","E","E","E","E","E","E","E","E","E","E","E","E","E","E","E","E","E","E","E","E","E","E","E","E","E","E","E","E","E","E","E","E","E","E","E","E","E","E","E","E","E","E","E","E","E","E","E","E","E","E","E","E","E","E","E","E","E","E","E","E","E","E","E","E","E","E","E","E","E","E","E","E","E","E","E","E","E","E","E","E","E","E","E","E","E","E","E","E","E","E","E","E","E","E","E","E","E","E","E","E","E","E","E","E","E","E","E","E","E","E","E","E","E","E","E","E","E","E","E","E","E","E","E","E","E","E","E","E","E","E","E","E","E","E","E","E","E","E","E","E","E","?","?","?","?","?","?","?","?","?","?","?","?","?","?","?","?","?","?","?","?","?","?","?","?","?","?","?","?","?","?","?","?","?","?","?","?","?","?","?","?","G","G","G","G","G","G","G","G","G","G","G","G","G","G","G","G","G","G","G","G","G","G","G","G","G","G","G","G","G","G","G","G","G","G","G","G","G","G","G","G","G","G","G","G","G","G","G","G","G","G","G","G","G","G","G","G","G","G","G","G","G","G","G","G","G","G","G","G","G","G","G","G","G","G","G","G","G","G","G","G","G","G","G","G","G","G","G","G","G","G","G","G","G","G","G","G","G","G","G","G","G","G","?","F","?","?","?","?","?","D","D","D","D","D","D","D","D","D","D","D","D","D","D","D","D","D","D","D","D","D","D","D","D","D","?","?","?","?","C","C","C","C","C","C","C","C","C","C","C","C","C","C","C","C","C","C","C","C","C","C","C","C","C","C","C","C","C","C","C","C","C","C","C","C","C","C","C","C","C","C","C","C","C","C","C","C","C","C","C","C","C","C","C","C","C","C","C","C","C","C","C","C","C","C","C","C","C","C","C","C","C","C","C","C","C","C","C","C","C","C","C","C","C","C","C","C","C","C","C","C","C","C","C","C","C","C","C","C","C","C","?","?","?","?","?","?","?","?","?","?","?","?","?","?","?","?","B","B","B","B","B","B","B","B","B","B","B","B","B","B","B","B","B","B","B","B","B","B","B","B","B","B","B","B","B","B","B","B","B","B","B","B","B","B","B","B","B","B","B","B","B","B","B","B","B","B","B","B","B","B","B","B","B","B","B","B","B","B","B","B","B","B","B","B","B","B","B","B","B","B","B","B","B","B","B","B","?","?","?","?","?","?","?","?","?","?","?","?","?","?","?","?","?","?","?","?","?","?","?","?","?","?","?","?","?","?","?","?","?","?","?","?","?","?","?","?","?","?","?","?","?","?","?","?","?","?","?","?","?","?","?","?","?","?","?","?","?","?","?","?","?","?","?","?","?","?","?","?","?","?","?","?","?","?","?","?","?","?","?","?","?","?","?","?","?","?","?","?","?","?","?","?","?","?","?","?","?","?","?","?","?","?","?","?","?","?","?","K","K","K","K","K","?","?","?","A","A","A","A","A","A","A","A","A","A","A","A","A","A","A","A","A","A","A","A","A","A","A","A","A","A","A","A","A","A","A","A","A","A","A","A","A","A","A","A","A","A","A","A","A","A","A","A","A","A","A","A","A","A","A","A","A","A","A","A","A","A","A","A","A","A","A","A","A","A","A","A","A","A","A","A","A","A","A","A","A","A","A","A","A","A","A","A","A","A","A","A","A","A","A","A","A","A","A","A","A","A","A","A","A","A","A","A","A","A","A","A","A","A","A","A","A","A","A","A","A","A","A","A","A","A","A","?","?","?","?","?","?","?","?","?","?","K","K","K","K","K","K","K","K","K","K","K","K","K","K","K","K","K","K","K","K","K","K","K","K","K","K","K","K","K","K","K","K","K","K","?","?","L","L","L","L","?","?","?","?","?","?","?","?","?","?","?","?","?","?","?","?","?","?","?","?","?","?","?","?","?","?","M","M","M","M","M","M","M","M","M","M","M","M","M","M","M","M","M","M","M","M","M","M","M","M","M","M","M","M","M","M","M","M","M","M","M","M","M","M","M","M","M","M","M","M","M","M","M","M","M","M","M","M","M","M","M","M","M","M","M","M","M","M","M","M","M","M","M","M","M","M","M","M","M","M","M","M","M","M","M","M","M","M","M","M","M","M","M","M","M","?","N","N","N","N","?","O","O","O","O","O","O","O","O","O","O","O","O","O","O","O","O","O","O","O","O","O","O","O","O","?","?","?","P","P","P","P","P","P","P","P","P","P","P","P","P","P","P","P","P","P","P","P","P","P","P","P","P","P","P","P","P","P","P","P","P","P","P","P","P","P","P","P","P","P","P","P","P","P","P","P","P","P","P","P","P","P","P","P","P","P","P","P","P","P","P","P","P","P","P","P","P","P","P","P","P","P","P","P","P","P","?","?","?","?","?","?","?","?","?","?","?","?","?","?","?","?","?","?","?","?","?","?","?","?","?","Q","Q","?","?","?","?","?","?","?","?","R","R","R","R","R","R","R","R","R","R","R","R","R","R","R","R","R","R","R","R","R","R","R","R","R","R","R","R","R","R","R","R","R","R","R","R","R","R","R","R","R","R","R","R","R","R","R","R","R","R","R","R","R","R","R","R","R","R","R","R","R","R","R","R","R","R","R","R","R","R","R","R","R","R","R","R","R","R","R","R","R","R","R","R","R","R","R","R","R","R","R","R","R","R","R","R","R","R","R","R","R","R","R","R","R","R","R","R","R","R","R","R","R","R","R","R","R","R","R","R","R","R","R","R","R","R","R","R","R","R","R","R","R","R","R","R","R","R","R","R","R","R","R","R","R","R","R","R","R","R","R","R","R","R","R","R","R","R","R","R","R","R","R","R","R","R","R","R","R","R","R","R","R","R","R","R","?","Q","Q","?","P","P","O","O","O","O","O","O","O","O","O","O","O","O","O","O","O","O","O","O","O","O","O","O","O","O","?","?","?","?","?","V","?","?","?","?","?","?","?","?","?","?","?","?","?","?","?","?","?","?","?","?","?","?","U","U","U","U","?","?","?","?","?","?","K","K","K","K","K","K","K","K","K","K","K","K","K","?","?","?","?","?","?","?","?","?","?","?","?","?","?","?","?","?","?","?","?","?","?","K","K","K","K","K","K","K","K","K","K","K","K","K","K","K","K","K","K","K","K","K","K","K","K","K","K","K","K","K","K","K","K","K","K","K","K","K","K","K","K","K","K","K","K","K","K","K","K","K","K","K","K","K","K","K","K","K","K","K","K","K","K","K","K","K","K","K","K","K","K","K","K","K","K","K","K","K","K","K","K","K","K","K","K","K","K","K","K","K","K","K","K","K","K","K","K","K","K","K","K","K","K","K","K","K","K","K","K","K","K","K","K","K","?","?","?","?","?","?","?","?","?","?","?","?","?","?","?","?","?","?","?","?","?","?","?","?","?","?","?","?","?","?","?","?","?","?","?","?","?","?","?","?","?","?","?","?","?","?","?","?","?","?","?","?","?","?","?","?","?","?","?","?","?","?","U","U","U","U","U","U","U","U","U","U","U","U","U","U","U","U","U","U","U","U","U","U","U","U","U","U","U","U","U","U","U","U","U","U","U","U","U","U","U","U","U","U","U","U","U","U","U","U","U","U","U","U","U","U","U","U","U","U","U","U","U","U","U","U","U","U","U","U","U","U","U","U","U","U","U","U","U","U","U","U","U","U","U","U","U","U","U","U","U","U","U","U","U","U","U","U","U","U","U","U","U","U","U","U","U","U","U","U","U","U","U","U","U","U","U","U","U","U","U","U","U","U","U","U","U","U","U","U","U","U","U","U","U","U","U","U","U","U","U","U","U","U","U","U","U","U","U","U","U","U","U","U","U","U","U","U","U","U","U","U","U","U","U","U","U","U","U","U","U","U","U","U","U","U","U","U","U","U","U","V","V","V","?","W","?","?","?","?","?","?","?","?","?","?","?","?","?","?","?","?","?","?","?","?","?","?","?","?","?","?","?","?","?","?","?","?","?","?","?","?","?","?","?","?","Z","Z","Z","Z","Z","Z","Z","Z","Z","Z","Z","Z","Z","Z","Z","Z","Z","Z","Z","Z","Z","Z","Z","Z","Z","Z","Z","Z","Z","Z","Z","Z","Z","Z","Z","Z","Z","Z","Z","Z","Z","Z","Z","Z","Z","Z","Z","Z","Z","Z","Z","Z","Z","Z","Z","Z","Z","Z","Z","Z","Z","Z","Z","Z","Z","Z","Z","Z","Z","Z","Z","Z","Z","Z","Z","Z","Z","Z","Z","Z","Z","Z","Z","Z","Z","Z","Z","Z","Z","Z","Z","Z","Z","Z","Z","Z","Z","Z","Z","Z","Z","Z","Z","Z","Z","Z","Z","Z","Z","Z","Z","Z","Z","Z","Z","Z","Z","Z","Z","Z","Z","Z","Z","Z","Z","Z","Z","Z","Z","Z","Z","Z","Z","Z","Z","Z","Z","Z","Z","Z","Z","Z","Z","Z","Z","Z","Z","Z","Z","Z","Z","Z","Z","Z","Z","Z","Z","Z","Z","Z","Z","Z","Z","Z"],"t":[98,211,226,256,281,298,314,330,347,363,380,399,413,430,446,468,480,496,513,530,546,562,580,597,612,630,645,663,680,695,712,730,745,763,785,797,814,830,845,861,879,895,912,929,945,963,978,995,1012,1029,1045,1063,1078,1095,1113,1128,1145,1162,1178,1195,1211,1228,1245,1262,1278,1296,1313,1329,1346,1362,1378,1395,1412,1429,1447,1465,1482,1496,1512,1528,1545,1561,1578,1596,1612,1628,1645,1662,1678,1695,1711,1730,1745,1760,1780,1795,1811,1829,1844,1862,1880,1894,1912,1929,1944,1960,1977,1994,2010,2027,2043,2060,2077,2094,2111,2127,2143,2159,2177,2193,2209,2227,2243,2260,2276,2293,2310,2326,2344,2361,2377,2393,2410,2426,2443,2460,2476,2493,2510,2526,2543,2559,2576,2593,2610,2626,2643,2659,2676,2694,2709,2727,2743,2759,2777,2793,2809,2827,2843,2859,2877,2894,2911,2928,2944,2959,2976,2993,3009,3026,3043,3059,3075,3092,3109,3125,3142,3159,3176,3192,3209,3225,3242,3259,3276,3292,3309,3326,3342,3361,3380,3395,3411,3427,3443,3460,3475,3492,3509,3524,3542,3559,3574,3592,3609,3625,3642,3659,3675,3692,3709,3725,3742,3759,3775,3792,3809,3825,3842,3858,3875,3892,3907,3925,3942,3959,3976,3994,4007,4025,4042,4058,4075,4092,4108,4125,4142,4158,4175,4192,4208,4225,4242,4258,4275,4291,4308,4325,4341,4358,4375,4391,4408,4425,4441,4459,4476,4491,4508,4524,4541,4558,4576,4592,4608,4625,4642,4659,4674,4692,4709,4725,4742,4758,4776,4790,4808,4824,4840,4858,4874,4891,4908,4924,4941,4958,4974,4991,5009,5025,5043,5058,5074,5091,5107,5124,5140,5157,5174,5190,5207,5224,5240,5257,5289,5303,5324,5341,5357,5374,5391,5407,5424,5441,5457,5474,5490,5508,5525,5541,5557,5574,5590,5607,5624,5640,5658,5674,5690,5707,5724,5740,5757,5774,5790,5807,5824,5840,5857,5874,5890,5907,5923,5940,5957,5973,5990,6007,6023,6040,6057,6074,6091,6106,6123,6140,6157,6173,6190,6207,6223,6240,6258,6274,6290,6305,6324,6340,6355,6373,6390,6407,6423,6440,6456,6473,6491,6506,6523,6540,6557,6575,6592,6606,6623,6640,6656,6673,6691,6706,6723,6739,6756,6773,6789,6806,6823,6839,6856,6874,6889,6907,6923,6939,6956,6973,6989,7006,7023,7039,7056,7073,7089,7107,7123,7140,7157,7173,7189,7217,7228,7241,7259,7274,7291,7308,7324,7341,7357,7374,7394,7408,7423,7441,7457,7474,7491,7508,7524,7541,7557,7573,7591,7606,7625,7641,7658,7674,7691,7707,7724,7741,7757,7774,7791,7807,7824,7841,7856,7874,7891,7906,7924,7940,7956,7974,7990,8006,8024,8040,8057,8074,8091,8107,8124,8140,8157,8175,8190,8209,8223,8240,8257,8274,8290,8307,8324,8340,8357,8373,8391,8407,8423,8440,8458,8473,8490,8507,8522,8540,8557,8574,8590,8607,8623,8640,8657,8675,8691,8707,8724,8740,8757,8774,8791,8806,8824,8840,8857,8874,8890,8906,8924,8940,8957,8975,8990,9008,9024,9040,9057,9074,9090,9106,9137,9155,9172,9187,9205,9221,9237,9255,9272,9287,9304,9321,9337,9354,9371,9387,9404,9421,9437,9454,9471,9488,9505,9521,9537,9554,9571,9587,9604,9621,9638,9654,9672,9687,9704,9721,9738,9755,9772,9787,9804,9820,9837,9855,9871,9887,9904,9921,9937,9954,9972,9988,10004,10021,10037,10054,10071,10088,10104,10121,10137,10153,10171,10187,10204,10221,10238,10253,10272,10288,10305,10322,10338,10354,10371,10387,10404,10421,10437,10454,10471,10487,10504,10521,10537,10554,10571,10587,10603,10621,10638,10654,10670,10687,10704,10721,10737,10754,10770,10788,10805,10820,10837,10853,10870,10887,10904,10920,10937,10954,10971,10987,11004,11020,11037,11060,11087,11103,11120,11137,11153,11170,11187,11202,11220,11236,11254,11271,11287,11302,11320,11338,11353,11370,11387,11402,11420,11437,11453,11471,11488,11504,11520,11536,11553,11569,11586,11603,11619,11635,11653,11670,11685,11703,11720,11735,11752,11770,11786,11803,11820,11836,11853,11870,11886,11903,11920,11935,11952,11970,11985,12002,12018,12035,12053,12068,12086,12103,12118,12135,12153,12168,12186,12203,12219,12235,12252,12268,12285,12303,12318,12335,12353,12369,12386,12403,12420,12437,12453,12469,12485,12500,12517,12535,12551,12568,12587,12601,12619,12636,12653,12669,12686,12700,12718,12735,12751,12768,12788,12800,12818,12834,12851,12868,12884,12902,12920,12937,12951,12969,12986,13002,13019,13034,13060,13072,13086,13100,13118,13134,13151,13168,13184,13201,13217,13234,13251,13268,13284,13301,13317,13334,13351,13367,13384,13401,13416,13434,13452,13467,13484,13503,13517,13534,13551,13567,13584,13601,13617,13634,13650,13667,13684,13700,13717,13734,13749,13767,13784,13799,13817,13834,13850,13867,13884,13900,13917,13934,13950,13969,13984,14001,14017,14033,14050,14067,14083,14100,14117,14133,14150,14167,14183,14201,14217,14233,14250,14266,14282,14299,14317,14333,14350,14367,14383,14400,14417,14433,14450,14466,14484,14500,14516,14532,14550,14566,14583,14600,14616,14633,14650,14666,14683,14700,14716,14733,14750,14766,14783,14800,14816,14833,14848,14866,14884,14899,14916,14933,14949,14966,14983,15007,15035,15050,15067,15084,15099,15116,15133,15149,15167,15183,15199,15216,15232,15249,15266,15282,15299,15316,15332,15349,15366,15382,15399,15416,15432,15449,15466,15483,15499,15516,15532,15549,15567,15582,15599,15617,15632,15649,15665,15682,15699,15715,15731,15749,15765,15781,15799,15814,15832,15849,15864,15882,15899,15914,15932,15949,15965,15982,15999,16015,16032,16048,16065,16083,16099,16116,16132,16149,16166,16182,16198,16215,16232,16248,16265,16282,16298,16315,16332,16348,16365,16382,16398,16415,16432,16448,16465,16481,16498,16515,16531,16548,16565,16581,16598,16615,16631,16649,16666,16681,16698,16715,16731,16748,16765,16781,16798,16815,16831,16848,16864,16881,16898,16914,16931,16948,16964,16981,17009,17020,17033,17049,17066,17083,17099,17115,17133,17151,17167,17182,17200,17216,17233,17249,17265,17284,17299,17315,17333,17348,17366,17383,17398,17415,17434,17449,17465,17482,17499,17516,17532,17548,17565,17583,17598,17615,17633,17649,17666,17682,17698,17716,17732,17748,17765,17782,17799,17815,17830,17848,17866,17881,17898,17915,17931,17949,17965,17981,17998,18016,18031,18048,18065,18082,18098,18114,18131,18148,18165,18182,18199,18215,18234,18249,18264,18282,18299,18315,18330,18348,18364,18382,18400,18416,18432,18451,18467,18483,18499,18515,18531,18547,18563,18580,18596,18613,18630,18646,18663,18680,18696,18713,18731,18747,18765,18781,18796,18813,18830,18846,18863,18880,18896,18914,18932,18947,18963,18978,18996,19013,19029,19045,19064,19079,19095,19113,19129,19145,19163,19179,19195,19213,19229,19247,19264,19280,19296,19312,19329,19346,19362,19379,19396,19412,19429,19446,19462,19480,19496,19512,19529,19546,19562,19579,19596,19612,19629,19646,19662,19679,19697,19712,19729,19745,19762,19780,19795,19812,19830,19845,19862,19879,19895,19912,19929,19945,19962,19979,19995,20012,20029,20045,20063,20079,20095,20112,20128,20145,20162,20178,20195,20212,20228,20245,20262,20278,20297,20313,20330,20345,20362,20378,20395,20412,20428,20445,20462,20478,20496,20511,20528,20545,20560,20578,20595,20610,20628,20645,20660,20678,20695,20710,20728,20745,20760,20778,20795,20810,20828,20847,20863,20879,20897,20913,20928,20945,20962,20978,20994,21010,21028,21044,21060,21078,21094,21110,21128,21144,21160,21178,21194,21210,21228,21244,21260,21278,21294,21311,21327,21344,21362,21379,21395,21411,21427,21444,21461,21477,21495,21510,21527,21544,21561,21577,21594,21611,21628,21644,21661,21677,21694,21711,21727,21744,21760,21777,21794,21810,21827,21844,21860,21877,21894,21911,21928,21946,21962,21977,21994,22010,22027,22044,22060,22077,22094,22110,22127,22143,22160,22176,22193,22210,22226,22243,22260,22276,22293,22310,22326,22343,22360,22376,22394,22411,22428,22445,22460,22476,22493,22510,22526,22543,22560,22576,22593,22610,22626,22643,22660,22676,22694,22710,22726,22743,22760,22776,22793,22811,22827,22844,22860,22876,22893,22910,22927,22943,22960,22978,22994,23011,23027,23045,23060,23077,23093,23110,23126,23143,23160,23176,23193,23210,23227,23243,23260,23277,23293,23310,23327,23343,23360,23377,23393,23410,23427,23443,23460,23477,23494,23510,23527,23543,23560,23578,23593,23610,23627,23643,23660,23677,23693,23710,23727,23743,23760,23777,23793,23810,23827,23843,23860,23877,23893,23910,23927,23943,23960,23977,23993,24010,24027,24043,24060,24077,24094,24111,24127,24143,24160,24177,24193,24210,24227,24243,24260,24277,24293,24310,24326,24343,24360,24377,24393,24410,24427,24443,24460,24477,24493,24510,24527,24545,24560,24577,24592,24610,24627,24644,24660,24677,24693,24718,24744,24760,24777,24792,24809,24826,24843,24860,24876,24893,24909,24926,24943,24959,24976,24993,25010,25026,25043,25059,25076,25093,25110,25126,25143,25161,25176,25193,25210,25226,25243,25259,25276,25293,25309,25326,25343,25360,25376,25393,25409,25426,25443,25460,25477,25493,25509,25526,25543,25559,25576,25593,25610,25626,25643,25659,25676,25693,25709,25726,25743,25759,25776,25793,25809,25827,25843,25859,25876,25893,25909,25926,25943,25959,25976,25993,26009,26026,26043,26059,26076,26093,26110,26126,26143,26160,26177,26193,26210,26229,26243,26259,26276,26293,26310,26326,26343,26360,26376,26393,26410,26426,26443,26460,26476,26493,26510,26526,26543,26560,26576,26593,26609,26627,26644,26660,26676,26693,26711,26727,26743,26759,26776,26793,26809,26826,26843,26859,26876,26893,26909,26926,26943,26959,26976,26993,27009,27026,27043,27059,27076,27093,27109,27126,27143,27160,27176,27193,27209,27226,27243,27260,27277,27293,27309,27326,27343,27359,27376,27393,27410,27426,27443,27459,27476,27493,27510,27527,27543,27559,27576,27593,27610,27626,27643,27660,27677,27694,27710,27726,27742,27760,27776,27793,27809,27827,27843,27860,27877,27892,27910,27927,27944,27960,27977,27994,28010,28027,28043,28060,28077,28094,28114,28140,28156,28173,28190,28204,28222,28238,28255,28273,28289,28307,28324,28339,28355,28373,28388,28406,28423,28438,28456,28473,28489,28506,28523,28537,28555,28573,28588,28606,28623,28645,28672,28688,28705,28723,28740,28756,28772,28789,28806,28821,28837,28855,28871,28888,28905,28921,28938,28955,28973,28988,29007,29021,29038,29054,29071,29088,29104,29121,29139,29154,29171,29188,29204,29221,29238,29254,29271,29288,29304,29321,29338,29354,29372,29388,29404,29421,29438,29454,29471,29487,29505,29521,29537,29554,29571,29587,29604,29621,29637,29654,29671,29687,29704,29721,29737,29754,29771,29787,29806,29822,29837,29854,29870,29887,29904,29920,29937,29954,29971,29987,30004,30019,30037,30054,30070,30087,30105,30120,30137,30155,30170,30187,30205,30220,30237,30255,30270,30287,30303,30320,30337,30353,30370,30387,30404,30421,30438,30453,30470,30487,30503,30521,30537,30553,30570,30586,30603,30620,30637,30668,30677,30703,30720,30736,30753,30770,30786,30803,30820,30836,30853,30870,30888,30903,30920,30937,30953,30970,30985,31003,31020,31036,31053,31069,31086,31103,31119,31136,31153,31169,31186,31203,31219,31235,31253,31269,31285,31303,31319,31336,31353,31369,31386,31403,31419,31436,31454,31470,31487,31503,31519,31536,31552,31569,31586,31602,31619,31636,31652,31669,31686,31701,31719,31736,31752,31769,31786,31803,31819,31836,31852,31869,31885,31902,31920,31935,31952,31969,31985,32001,32019,32035,32052,32069,32085,32102,32119,32135,32152,32169,32185,32202,32219,32235,32251,32268,32284,32302,32318,32335,32352,32368,32385,32402,32418,32435,32453,32469,32485,32502,32519,32535,32552,32568,32585,32604,32619,32635,32651,32667,32685,32701,32718,32735,32751,32768,32785,32801,32818,32835,32851,32868,32885,32902,32919,32935,32953,32971,32986,33002,33018,33035,33051,33068,33085,33101,33118,33134,33151,33168,33184,33202,33218,33233,33251,33268,33284,33301,33318,33334,33351,33368,33384,33401,33418,33434,33451,33468,33484,33501,33517,33535,33551,33568,33585,33602,33617,33634,33651,33667,33684,33701,33717,33734,33751,33767,33784,33800,33817,33834,33850,33867,33884,33900,33917,33934,33949,33967,33984,34000,34018,34035,34051,34067,34084,34100,34117,34134,34149,34167,34184,34199,34217,34234,34250,34267,34284,34299,34317,34333,34350,34367,34383,34399,34417,34433,34450,34467,34483,34501,34518,34533,34551,34567,34583,34600,34618,34635,34651,34667,34683,34700,34719,34733,34750,34766,34783,34800,34816,34833,34850,34866,34883,34900,34916,34933,34950,34965,34983,35001,35016,35033,35050,35066,35083,35101,35116,35133,35149,35166,35183,35199,35216,35233,35249,35266,35283,35299,35316,35333,35349,35365,35383,35399,35416,35433,35449,35465,35483,35499,35516,35533,35549,35566,35582,35599,35616,35632,35649,35667,35683,35701,35716,35732,35749,35765,35782,35800,35816,35832,35849,35866,35882,35899,35916,35932,35949,35966,35982,35999,36015,36032,36049,36065,36082,36099,36116,36134,36150,36166,36183,36199,36215,36232,36249,36265,36282,36299,36315,36332,36349,36366,36383,36398,36415,36432,36454,36468,36482,36498,36515,36532,36548,36565,36581,36598,36615,36631,36648,36665,36681,36698,36716,36733,36750,36765,36781,36798,36815,36830,36848,36865,36880,36898,36915,36930,36948,36965,36980,36998,37015,37030,37048,37065,37080,37098,37115,37130,37148,37165,37183,37199,37214,37231,37249,37265,37281,37298,37315,37330,37348,37364,37381,37398,37414,37431,37449,37464,37481,37498,37514,37531,37548,37564,37581,37597,37614,37631,37647,37664,37681,37697,37714,37731,37747,37765,37782,37799,37813,37832,37848,37864,37881,37897,37914,37931,37947,37964,37980,37997,38014,38030,38047,38064,38080,38097,38114,38130,38146,38164,38180,38196,38214,38231,38248,38265,38280,38298,38315,38330,38347,38369,38383,38398,38413,38430,38446,38463,38481,38496,38515,38530,38546,38563,38580,38596,38613,38630,38647,38663,38681,38696,38713,38730,38747,38763,38780,38796,38815,38831,38847,38864,38880,38896,38914,38930,38946,38964,38980,38997,39013,39030,39046,39063,39080,39096,39113,39130,39146,39163,39180,39196,39213,39229,39246,39264,39280,39297,39313,39329,39346,39363,39379,39396,39413,39429,39447,39464,39480,39497,39513,39531,39546,39563,39579,39596,39612,39629,39646,39663,39679,39696,39713,39729,39746,39762,39780,39796,39812,39829,39846,39862,39880,39897,39914,39929,39947,39962,39980,39996,40012,40029,40046,40062,40079,40096,40112,40129,40146,40162,40179,40196,40212,40229,40246,40262,40280,40297,40313,40330,40347,40363,40380,40396,40412,40429,40449,40463,40479,40496,40513,40529,40546,40563,40579,40596,40613,40629,40646,40663,40679,40696,40713,40729,40746,40763,40779,40796,40813,40829,40846,40863,40879,40895,40913,40930,40947,40963,40979,40996,41013,41029,41046,41063,41079,41096,41113,41130,41146,41163,41179,41196,41212,41229,41246,41263,41279,41296,41313,41329,41346,41363,41381,41396,41413,41429,41446,41463,41479,41496,41513,41529,41546,41563,41579,41596,41613,41629,41646,41663,41679,41696,41713,41729,41746,41763,41779,41796,41813,41829,41846,41863,41879,41896,41913,41929,41946,41963,41980,41997,42013,42029,42046,42064,42080,42096,42113,42130,42146,42163,42180,42196,42213,42230,42246,42263,42280,42296,42312,42330,42346,42363,42380,42396,42413,42430,42447,42464,42479,42495,42512,42529,42546,42563,42580,42596,42613,42630,42646,42663,42680,42696,42713,42730,42746,42763,42780,42796,42813,42830,42847,42863,42880,42896,42913,42930,42947,42963,42980,42997,43013,43031,43047,43063,43080,43096,43113,43129,43146,43163,43180,43196,43213,43230,43246,43263,43280,43296,43313,43329,43346,43363,43380,43396,43413,43430,43446,43463,43480,43496,43513,43530,43546,43563,43580,43596,43613,43630,43647,43663,43680,43696,43713,43729,43746,43763,43780,43796,43813,43829,43846,43863,43880,43897,43913,43930,43947,43963,43980,43997,44027,44037,44060,44076,44093,44110,44127,44143,44160,44176,44194,44210,44226,44244,44260,44276,44294,44310,44326,44344,44360,44377,44394,44410,44426,44444,44460,44476,44494,44510,44526,44543,44560,44576,44594,44609,44626,44643,44659,44676,44694,44709,44726,44743,44758,44775,44793,44808,44826,44843,44858,44877,44891,44909,44926,44942,44957,44975,44991,45008,45025,45041,45058,45076,45091,45109,45126,45142,45159,45176,45193,45208,45226,45241,45259,45278,45291,45309,45324,45342,45358,45374,45391,45408,45426,45441,45458,45474,45491,45509,45524,45542,45557,45574,45591,45610,45625,45641,45658,45675,45691,45707,45724,45741,45757,45774,45791,45807,45826,45840,45857,45874,45891,45907,45924,45947,45960,45974,45991,46007,46024,46041,46057,46074,46092,46107,46124,46140,46157,46174,46190,46207,46224,46241,46258,46274,46290,46307,46324,46340,46357,46373,46390,46407,46424,46440,46456,46473,46489,46507,46523,46540,46558,46572,46591,46607,46623,46641,46656,46673,46690,46707,46727,46740,46757,46773,46790,46808,46823,46840,46857,46872,46889,46906,46923,46939,46955,46973,46990,47006,47023,47040,47056,47073,47090,47106,47123,47140,47156,47172,47190,47206,47223,47240,47256,47273,47290,47306,47323,47339,47356,47372,47389,47407,47423,47439,47456,47472,47489,47506,47522,47539,47556,47572,47589,47606,47623,47639,47656,47672,47689,47706,47723,47740,47756,47772,47789,47805,47822,47839,47855,47872,47889,47906,47922,47939,47956,47972,47989,48005,48022,48039,48056,48072,48089,48106,48122,48139,48155,48172,48189,48204,48223,48239,48255,48272,48289,48305,48322,48340,48356,48372,48389,48404,48422,48439,48455,48472,48489,48505,48522,48540,48555,48572,48588,48605,48622,48638,48655,48672,48688,48705,48722,48738,48755,48772,48789,48805,48822,48838,48855,48872,48888,48905,48922,48938,48955,48971,48988,49005,49021,49038,49056,49071,49088,49105,49121,49138,49155,49171,49188,49205,49221,49238,49255,49271,49288,49305,49321,49338,49354,49371,49388,49404,49421,49438,49454,49471,49488,49504,49521,49538,49554,49571,49588,49604,49621,49638,49654,49671,49688,49704,49720,49738,49755,49771,49787,49804,49823,49840,49856,49872,49887,49904,49920,49937,49954,49970,49988,50004,50021,50037,50054,50071,50087,50104,50121,50137,50154,50170,50187,50204,50220,50238,50254,50270,50287,50304,50320,50337,50354,50370,50387,50404,50420,50437,50454,50470,50487,50511,50538,50554,50570,50587,50603,50620,50637,50653,50670,50687,50703,50720,50737,50753,50770,50787,50803,50820,50836,50853,50870,50887,50903,50920,50937,50953,50970,50985,51003,51020,51035,51053,51070,51085,51103,51120,51135,51153,51170,51185,51203,51220,51236,51254,51270,51286,51303,51320,51335,51353,51370,51385,51403,51419,51436,51453,51469,51486,51503,51519,51536,51553,51569,51586,51603,51619,51636,51653,51669,51686,51703,51719,51737,51753,51769,51791,51805,51820,51835,51852,51869,51886,51903,51919,51936,51952,51968,51986,52002,52019,52036,52052,52069,52086,52102,52119,52136,52152,52169,52186,52202,52219,52235,52252,52269,52285,52302,52319,52335,52352,52369,52385,52402,52419,52435,52452,52469,52485,52502,52519,52535,52553,52569,52585,52602,52618,52635,52652,52668,52685,52702,52718,52735,52752,52769,52785,52802,52818,52835,52852,52868,52886,52902,52918,52935,52952,52968,52986,53002,53019,53035,53051,53068,53085,53101,53118,53135,53151,53168,53185,53201,53218,53235,53251,53269,53285,53301,53318,53335,53351,53368,53385,53401,53418,53435,53451,53469,53484,53502,53518,53534,53551,53568,53585,53601,53618,53634,53651,53668,53684,53701,53718,53735,53752,53769,53784,53801,53817,53834,53851,53867,53884,53901,53917,53934,53951,53967,53984,54001,54017,54034,54052,54068,54084,54101,54116,54134,54151,54167,54184,54201,54217,54234,54251,54268,54284,54300,54317,54334,54350,54367,54384,54400,54417,54434,54450,54467,54484,54500,54517,54534,54550,54567,54584,54600,54618,54633,54651,54666,54683,54700,54717,54733,54750,54767,54783,54800,54817,54833,54850,54867,54883,54900,54917,54933,54950,54967,54983,55000,55017,55033,55050,55066,55084,55101,55117,55133,55151,55166,55183,55200,55216,55233,55250,55266,55283,55300,55316,55333,55350,55366,55383,55400,55416,55433,55449,55466,55483,55499,55516,55533,55549,55567,55583,55599,55616,55633,55649,55667,55684,55701,55723,55749,55767,55783,55799,55816,55832,55849,55866,55881,55899,55916,55931,55949,55966,55981,55999,56016,56031,56049,56066,56081,56099,56116,56132,56149,56168,56182,56199,56216,56231,56249,56265,56281,56299,56315,56331,56349,56365,56381,56399,56415,56432,56449,56465,56481,56499,56515,56532,56549,56566,56581,56599,56616,56632,56649,56665,56682,56698,56715,56732,56748,56766,56784,56798,56815,56832,56848,56865,56882,56898,56915,56932,56948,56965,56982,56998,57015,57032,57048,57065,57081,57098,57115,57131,57148,57165,57181,57200,57215,57232,57248,57265,57281,57298,57315,57331,57347,57365,57381,57397,57415,57431,57448,57465,57481,57497,57514,57531,57547,57564,57581,57597,57614,57631,57653,57666,57681,57699,57714,57731,57747,57764,57781,57798,57815,57832,57847,57864,57881,57897,57914,57931,57947,57964,57981,57997,58014,58031,58047,58064,58081,58098,58114,58131,58148,58164,58181,58198,58214,58231,58249,58264,58282,58298,58314,58331,58348,58364,58381,58398,58414,58431,58448,58464,58481,58498,58514,58531,58548,58564,58581,58598,58614,58631,58648,58664,58681,58698,58714,58731,58748,58764,58780,58797,58813,58830,58848,58865,58881,58897,58915,58931,58948,58964,58980,58997,59013,59031,59048,59064,59081,59097,59114,59131,59147,59164,59180,59197,59214,59231,59247,59264,59281,59298,59314,59331,59347,59363,59380,59397,59414,59431,59447,59464,59481,59497,59514,59530,59547,59564,59580,59598,59616,59631,59647,59664,59681,59697,59714,59730,59747,59764,59781,59797,59814,59830,59847,59864,59881,59898,59915,59930,59948,59963,59980,59997,60013,60030,60047,60063,60080,60097,60113,60130,60147,60163,60180,60197,60212,60230,60247,60263,60280,60297,60313,60330,60346,60363,60382,60396,60412,60430,60445,60464,60480,60496,60513,60530,60546,60565,60580,60596,60613,60630,60646,60663,60681,60696,60713,60729,60746,60764,60779,60796,60813,60829,60846,60863,60879,60896,60912,60929,60944,60965,60977,60996,61013,61027,61045,61063,61078,61096,61113,61128,61146,61161,61180,61196,61211,61227,61245,61261,61278,61295,61311,61328,61346,61361,61379,61397,61411,61430,61446,61460,61478,61495,61513,61531,61546,61561,61578,61594,61611,61628,61644,61661,61678,61694,61711,61729,61743,61760,61778,61794,61811,61828,61844,61861,61878,61894,61923,61946,61963,61977,61996,62014,62031,62047,62064,62080,62098,62114,62129,62147,62163,62179,62197,62216,62230,62245,62263,62279,62295,62315,62330,62346,62364,62379,62396,62413,62430,62445,62462,62480,62497,62512,62528,62545,62562,62578,62596,62611,62628,62647,62661,62680,62695,62711,62729,62745,62764,62778,62794,62810,62827,62846,62863,62878,62892,62911,62927,62943,62961,62976,62994,63010,63027,63044,63060,63079,63095,63113,63130,63144,63160,63176,63193,63211,63227,63244,63261,63277,63293,63310,63326,63343,63360,63376,63393,63415,63428,63443,63460,63476,63494,63511,63527,63545,63564,63578,63601,63626,63643,63659,63675,63693,63709,63725,63743,63759,63775,63793,63809,63825,63843,63860,63875,63893,63909,63926,63943,63959,63976,63992,64008,64025,64042,64059,64075,64092,64109,64126,64142,64159,64178,64193,64209,64227,64242,64259,64275,64291,64309,64325,64342,64359,64375,64392,64409,64425,64442,64459,64475,64492,64509,64525,64542,64559,64575,64593,64609,64625,64642,64659,64675,64691,64709,64725,64743,64759,64775,64792,64808,64825,64842,64858,64875,64892,64908,64925,64942,64958,64975,64992,65008,65025,65042,65058,65075,65092,65108,65125,65142,65158,65175,65191,65209,65226,65241,65258,65275,65291,65308,65325,65356,65367,65391,65408,65425,65442,65458,65475,65491,65508,65525,65542,65559,65576,65592,65610,65625,65644,65660,65676,65691,65709,65724,65741,65758,65774,65791,65808,65823,65840,65858,65874,65891,65907,65924,65941,65958,65974,65991,66007,66024,66041,66057,66074,66091,66107,66124,66141,66157,66174,66191,66207,66224,66241,66258,66275,66292,66307,66324,66341,66357,66374,66391,66407,66424,66440,66457,66474,66490,66507,66524,66540,66557,66574,66591,66607,66624,66640,66657,66674,66690,66708,66724,66741,66757,66774,66790,66807,66823,66840,66856,66873,66890,66906,66923,66941,66957,66973,66990,67006,67023,67040,67056,67073,67090,67107,67123,67140,67156,67173,67190,67207,67225,67240,67256,67274,67290,67307,67324,67342,67357,67373,67390,67406,67423,67440,67456,67473,67490,67505,67523,67540,67556,67573,67590,67606,67623,67639,67656,67673,67689,67706,67723,67739,67756,67775,67790,67806,67824,67839,67856,67874,67890,67906,67924,67939,67955,67974,67989,68006,68024,68039,68056,68072,68090,68106,68122,68139,68156,68172,68189,68206,68222,68239,68256,68272,68289,68306,68322,68340,68358,68374,68390,68407,68423,68439,68455,68472,68489,68505,68521,68539,68555,68571,68589,68605,68621,68639,68655,68672,68689,68705,68722,68739,68756,68772,68790,68806,68824,68841,68855,68871,68888,68905,68921,68938,68955,68971,68988,69005,69021,69039,69055,69072,69088,69105,69134,69155,69172,69188,69205,69222,69238,69255,69271,69288,69305,69321,69338,69355,69371,69388,69405,69422,69438,69455,69471,69488,69505,69521,69538,69555,69571,69588,69605,69621,69638,69655,69671,69688,69704,69721,69738,69754,69771,69788,69804,69821,69838,69855,69871,69888,69905,69921,69939,69954,69971,69988,70004,70021,70038,70054,70071,70087,70105,70121,70137,70154,70171,70187,70204,70221,70237,70254,70271,70287,70304,70321,70337,70354,70371,70387,70404,70421,70437,70454,70471,70488,70504,70520,70537,70554,70570,70586,70604,70620,70636,70654,70670,70687,70704,70721,70737,70754,70770,70788,70804,70820,70837,70854,70870,70887,70904,70921,70938,70953,70970,70987,71003,71020,71036,71053,71070,71086,71103,71120,71137,71153,71170,71187,71203,71220,71237,71254,71271,71286,71303,71320,71336,71353,71370,71386,71403,71420,71436,71453,71470,71486,71503,71520,71538,71554,71570,71586,71604,71620,71636,71653,71670,71686,71703,71719,71736,71752,71769,71786,71802,71819,71836,71852,71869,71886,71902,71919,71936,71953,71970,71988,72002,72019,72036,72053,72069,72086,72101,72119,72136,72151,72169,72186,72201,72219,72236,72251,72270,72286,72301,72319,72336,72351,72369,72386,72402,72419,72436,72452,72469,72486,72502,72520,72535,72552,72570,72586,72603,72619,72636,72652,72669,72685,72702,72719,72735,72752,72769,72785,72802,72819,72835,72852,72870,72885,72902,72918,72935,72952,72974,72987,73003,73019,73036,73052,73068,73085,73103,73118,73135,73153,73168,73185,73202,73218,73235,73252,73268,73285,73302,73318,73335,73351,73367,73385,73401,73417,73435,73451,73467,73485,73501,73517,73535,73551,73567,73585,73601,73618,73636,73652,73667,73685,73701,73718,73734,73751,73767,73784,73801,73817,73834,73851,73867,73884,73901,73917,73934,73951,73967,73984,74001,74018,74034,74052,74069,74085,74101,74118,74134,74151,74168,74184,74201,74218,74234,74251,74268,74285,74301,74318,74334,74351,74368,74384,74401,74418,74434,74452,74468,74485,74502,74518,74535,74551,74568,74585,74601,74618,74634,74651,74669,74686,74702,74718,74734,74751,74768,74784,74801,74818,74834,74851,74868,74884,74900,74918,74935,74950,74967,74983,75001,75018,75034,75051,75068,75084,75101,75118,75134,75150,75167,75184,75201,75218,75234,75251,75268,75284,75301,75318,75334,75351,75367,75384,75401,75417,75434,75451,75467,75484,75501,75517,75534,75551,75567,75584,75602,75617,75634,75651,75667,75684,75701,75717,75735,75750,75767,75783,75800,75817,75834,75850,75867,75884,75900,75917,75934,75950,75967,75983,76000,76017,76034,76050,76067,76084,76100,76117,76134,76150,76168,76184,76201,76217,76233,76250,76267,76283,76300,76317,76333,76350,76367,76383,76399,76417,76433,76450,76467,76483,76501,76517,76533,76550,76566,76583,76599,76615,76633,76650,76666,76683,76700,76716,76733,76750,76766,76783,76799,76816,76841,76867,76883,76900,76917,76933,76950,76967,76982,76998,77017,77032,77049,77067,77083,77099,77117,77133,77149,77164,77182,77198,77216,77233,77249,77265,77283,77298,77316,77332,77347,77365,77381,77398,77415,77431,77448,77465,77481,77499,77515,77531,77548,77564,77580,77598,77615,77631,77648,77665,77681,77698,77715,77731,77748,77765,77781,77799,77813,77831,77848,77864,77883,77900,77914,77931,77948,77964,77981,77998,78014,78031,78048,78064,78081,78097,78114,78131,78148,78164,78181,78197,78214,78231,78247,78265,78283,78299,78315,78331,78347,78364,78381,78397,78414,78431,78447,78464,78481,78497,78513,78531,78547,78564,78581,78597,78615,78630,78647,78664,78680,78697,78714,78731,78747,78763,78780,78797,78814,78830,78847,78867,78884,78898,78914,78931,78949,78965,78981,78997,79013,79030,79047,79063,79080,79097,79113,79130,79147,79163,79180,79197,79213,79230,79247,79263,79283,79298,79313,79333,79347,79364,79380,79397,79413,79430,79445,79463,79480,79496,79513,79530,79546,79563,79580,79596,79613,79629,79646,79663,79680,79696,79713,79730,79746,79763,79780,79796,79812,79829,79845,79863,79879,79895,79913,79929,79945,79963,79979,79996,80013,80029,80046,80063,80079,80096,80113,80129,80146,80163,80179,80196,80213,80229,80246,80262,80279,80295,80312,80329,80346,80362,80380,80397,80412,80429,80446,80462,80479,80496,80512,80529,80546,80562,80580,80596,80612,80629,80645,80662,80679,80695,80712,80729,80745,80761,80779,80795,80811,80829,80845,80862,80880,80895,80912,80929,80945,80962,80979,80995,81012,81028,81046,81063,81078,81095,81111,81128,81145,81162,81178,81195,81212,81228,81245,81262,81278,81295,81312,81328,81346,81362,81378,81395,81412,81429,81446,81462,81479,81495,81512,81528,81545,81562,81578,81595,81611,81628,81645,81661,81678,81695,81711,81728,81745,81760,81778,81795,81810,81828,81844,81860,81878,81894,81910,81928,81944,81960,81979,81994,82011,82028,82044,82060,82079,82095,82112,82128,82144,82161,82178,82194,82211,82228,82244,82261,82278,82294,82311,82327,82344,82361,82377,82394,82411,82427,82444,82461,82478,82495,82511,82527,82544,82561,82577,82594,82611,82627,82644,82659,82677,82694,82713,82727,82744,82760,82778,82795,82812,82829,82845,82860,82877,82894,82909,82927,82944,82960,82977,82994,83010,83027,83044,83060,83077,83093,83110,83128,83145,83162,83177,83193,83210,83227,83243,83260,83277,83293,83310,83326,83343,83360,83376,83394,83410,83427,83443,83460,83476,83493,83510,83527,83545,83562,83576,83593,83610,83626,83643,83660,83676,83693,83710,83726,83743,83760,83776,83793,83810,83826,83843,83860,83876,83893,83909,83926,83943,83959,83976,83993,84009,84026,84043,84058,84076,84093,84108,84126,84143,84159,84176,84195,84210,84226,84243,84259,84277,84292,84309,84326,84342,84359,84376,84392,84409,84426,84441,84459,84476,84491,84509,84526,84541,84559,84577,84594,84610,84628,84643,84659,84685,84698,84712,84726,84743,84760,84778,84794,84810,84826,84844,84861,84876,84893,84910,84927,84943,84960,84976,84994,85011,85026,85043,85061,85076,85093,85109,85126,85144,85159,85176,85193,85210,85227,85243,85260,85277,85294,85309,85326,85343,85360,85376,85393,85409,85427,85444,85459,85476,85494,85510,85526,85542,85559,85577,85592,85609,85626,85643,85661,85678,85693,85710,85727,85742,85759,85776,85793,85809,85826,85842,85860,85877,85892,85909,85926,85943,85959,85975,85992,86010,86025,86042,86059,86076,86092,86109,86125,86142,86160,86175,86192,86209,86229,86242,86260,86275,86294,86310,86326,86343,86358,86376,86392,86408,86425,86443,86459,86475,86492,86509,86526,86542,86558,86576,86593,86609,86632,86644,86659,86676,86693,86709,86725,86742,86758,86775,86792,86809,86825,86842,86858,86876,86892,86908,86925,86941,86959,86976,86993,87009,87026,87042,87059,87075,87092,87109,87125,87144,87158,87175,87192,87209,87224,87242,87259,87275,87291,87309,87325,87342,87359,87374,87392,87409,87425,87441,87459,87475,87492,87508,87525,87542,87558,87575,87591,87608,87625,87642,87660,87675,87692,87709,87724,87742,87759,87775,87792,87808,87824,87842,87858,87873,87892,87908,87924,87941,87958,87974,87991,88007,88023,88042,88058,88075,88091,88108,88124,88141,88158,88175,88191,88208,88225,88240,88258,88274,88291,88307,88326,88341,88357,88373,88391,88408,88425,88442,88457,88475,88492,88508,88525,88541,88558,88575,88595,88609,88623,88640,88659,88673,88691,88708,88723,88741,88757,88774,88791,88807,88823,88842,88858,88874,88890,88907,88924,88941,88957,88974,88991,89007,89024,89041,89057,89074,89091,89107,89124,89141,89157,89174,89190,89207,89225,89241,89257,89274,89290,89307,89324,89339,89358,89374,89391,89407,89424,89439,89457,89474,89490,89508,89525,89539,89558,89573,89589,89608,89623,89639,89657,89674,89689,89707,89723,89739,89758,89774,89789,89807,89823,89839,89857,89874,89891,89907,89923,89941,89957,89973,89990,90006,90023,90040,90056,90073,90091,90107,90131,90156,90172,90190,90205,90222,90240,90255,90272,90289,90304,90323,90339,90354,90372,90388,90404,90421,90438,90455,90471,90488,90506,90523,90548,90561,90575,90591,90607,90624,90641,90657,90674,90690,90706,90723,90740,90756,90774,90790,90807,90823,90841,90856,90872,90889,90907,90923,90941,90956,90973,90992,91007,91024,91041,91058,91075,91092,91107,91124,91141,91156,91174,91191,91205,91224,91240,91257,91275,91291,91308,91324,91342,91358,91374,91392,91408,91424,91442,91457,91473,91492,91507,91525,91541,91557,91574,91590,91607,91624,91640,91657,91674,91690,91706,91723,91739,91756,91773,91790,91806,91824,91840,91856,91873,91890,91906,91923,91940,91956,91974,91991,92007,92023,92040,92057,92071,92089,92107,92123,92140,92156,92173,92190,92206,92223,92240,92256,92273,92289,92306,92322,92338,92357,92370,92390,92406,92424,92442,92465,92477,92491,92508,92524,92540,92558,92574,92592,92608,92631,92656,92671,92693,92722,92738,92753,92770,92787,92803,92820,92835,92853,92870,92886,92901,92920,92936,92953,92971,92986,93003,93021,93037,93054,93070,93085,93102,93120,93136,93154,93170,93187,93203,93219,93236,93252,93268,93285,93303,93320,93336,93353,93368,93385,93402,93418,93436,93453,93468,93486,93501,93518,93535,93553,93568,93585,93602,93618,93636,93652,93669,93685,93701,93718,93737,93754,93768,93787,93801,93819,93839,93851,93868,93886,93901,93918,93935,93951,93968,93986,94001,94020,94034,94051,94071,94084,94102,94121,94134,94150,94167,94185,94202,94220,94234,94251,94272,94284,94302,94318,94334,94351,94370,94393,94406,94418,94434,94452,94468,94486,94502,94518,94537,94552,94568,94585,94601,94618,94635,94653,94669,94685,94703,94718,94735,94752,94768,94785,94803,94820,94835,94852,94868,94885,94901,94917,94936,94950,94967,94985,95000,95017,95035,95050,95068,95085,95100,95117,95136,95151,95169,95184,95199,95216,95234,95250,95268,95283,95300,95317,95333,95350,95368,95383,95400,95417,95433,95450,95466,95483,95500,95517,95533,95550,95568,95584,95600,95617,95633,95650,95666,95684,95700,95716,95733,95750,95765,95783,95800,95816,95833,95850,95866,95885,95902,95916,95933,95950,95966,95983,96000,96016,96032,96050,96066,96083,96099,96116,96133,96149,96165,96183,96200,96217,96234,96250,96266,96283,96299,96316,96334,96351,96366,96383,96399,96416,96433,96449,96466,96482,96499,96516,96532,96549,96566,96582,96599,96616,96632,96652,96666,96682,96699,96716,96732,96749,96766,96783,96799,96816,96832,96849,96866,96882,96899,96915,96932,96950,96965,96982,96999,97015,97032,97049,97065,97082,97099,97115,97132,97149,97165,97182,97199,97215,97232,97249,97266,97283,97298,97315,97332,97348,97366,97382,97398,97415,97432,97449,97466,97482,97498,97516,97532,97548,97566,97582,97598,97615,97632,97648,97665,97681,97699,97715,97731,97748,97765,97780,97798,97815,97831,97848,97865,97880,97898,97915,97930,97948,97965,97981,97999,98015,98032,98049,98065,98082,98100,98115,98131,98148,98164,98182,98198,98214,98231,98248,98264,98281,98300,98315,98332,98349,98364,98381,98398,98414,98431,98448,98464,98481,98498,98515,98531,98547,98564,98581,98598,98614,98630,98646,98664,98681,98699,98715,98732,98747,98764,98780,98797,98814,98831,98848,98864,98881,98897,98914,98930,98946,98964,98980,98996,99015,99031,99049,99064,99081,99096,99114,99130,99146,99164,99180,99196,99214,99230,99247,99264,99280,99297,99313,99330,99347,99365,99381,99399,99413,99430,99447,99463,99480,99497,99513,99530,99547,99563,99580,99596,99614,99630,99648,99663,99680,99697,99713,99730,99746,99763,99780,99796,99813,99830,99847,99863,99880,99896,99913,99930,99946,99963,99980,99996,100013,100030,100046,100065,100082,100097,100113,100129,100146,100164,100179,100196,100213,100237,100249,100263,100279,100296,100313,100329,100346,100363,100379,100396,100414,100429,100447,100463,100479,100496,100512,100529,100546,100561,100579,100596,100611,100629,100646,100661,100679,100696,100711,100730,100746,100761,100779,100796,100811,100829,100846,100861,100879,100896,100911,100929,100945,100961,100979,100996,101011,101029,101046,101062,101079,101096,101113,101130,101146,101163,101179,101195,101212,101229,101245,101261,101279,101295,101312,101329,101345,101362,101378,101396,101412,101428,101445,101463,101479,101495,101512,101529,101544,101562,101579,101595,101612,101628,101645,101662,101678,101695,101712,101728,101745,101761,101778,101795,101811,101828,101845,101862,101878,101895,101911,101928,101945,101961,101978,101995,102011,102028,102045,102061,102077,102095,102111,102128,102145,102162,102180,102198,102217,102230,102245,102262,102277,102294,102311,102327,102344,102361,102378,102394,102411,102428,102444,102461,102478,102494,102512,102529,102545,102563,102576,102594,102611,102626,102645,102661,102676,102694,102711,102726,102745,102762,102777,102794,102811,102827,102844,102861,102877,102894,102911,102927,102944,102961,102977,102994,103010,103027,103044,103060,103077,103094,103110,103127,103144,103160,103177,103194,103210,103227,103244,103261,103279,103295,103310,103328,103344,103361,103377,103393,103410,103427,103443,103460,103477,103494,103511,103529,103543,103560,103578,103594,103611,103627,103643,103661,103677,103693,103710,103727,103742,103761,103776,103792,103811,103826,103844,103861,103876,103894,103911,103927,103944,103960,103977,103994,104011,104027,104043,104061,104077,104093,104112,104133,104148,104161,104177,104196,104211,104227,104244,104261,104278,104294,104311,104329,104345,104359,104376,104392,104409,104426,104443,104459,104476,104494,104509,104526,104543,104559,104576,104594,104609,104627,104644,104661,104676,104693,104710,104727,104744,104760,104777,104794,104810,104827,104843,104860,104877,104894,104910,104926,104943,104959,104976,104993,105009,105026,105043,105060,105076,105093,105109,105126,105143,105159,105176,105193,105209,105226,105243,105259,105276,105293,105311,105326,105343,105361,105377,105394,105410,105426,105443,105460,105476,105493,105510,105526,105543,105560,105576,105593,105610,105626,105643,105660,105678,105694,105710,105727,105743,105759,105776,105793,105809,105826,105843,105859,105876,105893,105909,105926,105943,105960,105976,105993,106010,106026,106044,106061,106076,106093,106109,106126,106143,106159,106176,106193,106210,106226,106243,106260,106276,106293,106310,106326,106343,106360,106376,106393,106410,106427,106444,106460,106476,106493,106510,106526,106543,106560,106576,106593,106610,106626,106643,106660,106676,106693,106710,106727,106744,106760,106777,106793,106810,106826,106843,106860,106876,106893,106910,106926,106943,106960,106976,106993,107010,107026,107043,107060,107076,107093,107110,107126,107142,107160,107176,107193,107210,107226,107243,107260,107277,107293,107310,107327,107344,107360,107376,107393,107410,107427,107443,107460,107480,107494,107510,107526,107543,107560,107577,107593,107610,107627,107643,107660,107677,107693,107710,107726,107743,107760,107777,107794,107810,107827,107844,107860,107876,107893,107910,107927,107943,107960,107978,107993,108010,108026,108043,108060,108076,108093,108110,108126,108143,108160,108176,108193,108210,108226,108243,108260,108276,108293,108309,108326,108344,108360,108377,108393,108410,108426,108443,108460,108477,108493,108510,108527,108543,108560,108577,108593,108610,108626,108643,108660,108677,108693,108710,108727,108744,108760,108777,108793,108810,108826,108844,108861,108877,108894,108910,108927,108944,108960,108979,108994,109010,109027,109043,109060,109077,109094,109110,109127,109143,109160,109177,109194,109210,109227,109243,109260,109277,109293,109310,109327,109343,109360,109376,109393,109410,109427,109443,109460,109477,109493,109510,109527,109544,109560,109577,109594,109611,109627,109643,109660,109677,109693,109710,109727,109744,109760,109777,109793,109810,109827,109843,109860,109877,109894,109924,109941,109955,109971,109988,110005,110021,110038,110055,110071,110088,110106,110121,110139,110154,110171,110188,110205,110221,110239,110254,110271,110288,110304,110321,110338,110354,110371,110388,110404,110421,110438,110454,110470,110488,110504,110521,110538,110554,110571,110588,110604,110621,110640,110654,110673,110687,110703,110721,110737,110754,110771,110788,110806,110823,110837,110855,110872,110888,110905,110923,110938,110955,110973,110988,111006,111022,111037,111053,111071,111087,111104,111121,111137,111154,111172,111188,111204,111221,111238,111256,111271,111288,111305,111321,111338,111355,111371,111388,111405,111421,111438,111455,111471,111488,111504,111521,111538,111554,111571,111588,111603,111620,111637,111653,111672,111687,111704,111720,111738,111753,111769,111787,111802,111820,111850,111861,111887,111903,111919,111935,111953,111970,111986,112003,112020,112037,112053,112070,112086,112102,112120,112136,112153,112170,112186,112203,112220,112236,112252,112270,112286,112303,112319,112336,112353,112369,112386,112403,112419,112436,112453,112469,112485,112503,112519,112536,112553,112569,112586,112603,112619,112636,112653,112669,112686,112702,112719,112737,112752,112769,112787,112802,112819,112836,112853,112870,112888,112903,112920,112937,112953,112970,112987,113003,113020,113037,113053,113070,113089,113105,113122,113137,113155,113170,113184,113201,113218,113235,113252,113269,113285,113302,113319,113335,113352,113369,113385,113402,113419,113435,113452,113468,113484,113501,113519,113535,113552,113568,113585,113602,113618,113635,113652,113668,113685,113702,113718,113735,113752,113768,113785,113809,113821,113836,113852,113869,113885,113902,113918,113935,113951,113968,113985,114001,114018,114034,114051,114068,114085,114100,114120,114135,114151,114168,114186,114202,114219,114235,114251,114268,114285,114300,114318,114334,114351,114368,114384,114401,114418,114434,114451,114468,114483,114501,114518,114534,114550,114568,114583,114601,114617,114633,114651,114668,114685,114701,114718,114734,114752,114766,114784,114801,114817,114834,114852,114867,114884,114901,114919,114934,114952,114967,114985,115001,115016,115034,115051,115066,115084,115101,115117,115134,115150,115167,115184,115200,115217,115234,115252,115267,115283,115300,115316,115334,115351,115367,115384,115400,115417,115434,115451,115468,115484,115501,115517,115534,115550,115567,115583,115600,115616,115633,115651,115667,115683,115699,115716,115736,115750,115767,115784,115800,115818,115834,115850,115867,115884,115900,115917,115933,115951,115967,115983,116000,116016,116033,116050,116066,116083,116100,116116,116133,116150,116166,116183,116200,116216,116233,116250,116266,116283,116301,116318,116333,116349,116366,116382,116399,116416,116432,116449,116466,116482,116500,116516,116532,116549,116566,116582,116599,116616,116632,116649,116666,116683,116698,116716,116733,116749,116766,116781,116799,116816,116831,116849,116866,116881,116899,116916,116931,116949,116966,116982,117000,117017,117032,117049,117066,117082,117099,117116,117132,117149,117166,117182,117199,117215,117232,117249,117265,117282,117300,117315,117333,117350,117367,117382,117399,117415,117432,117450,117465,117482,117499,117515,117532,117549,117565,117582,117598,117615,117632,117648,117665,117683,117699,117720,117734,117749,117766,117783,117799,117816,117832,117849,117866,117882,117898,117916,117933,117948,117966,117982,117998,118016,118033,118049,118065,118081,118097,118115,118132,118147,118165,118181,118197,118215,118232,118247,118265,118281,118298,118315,118331,118347,118365,118382,118399,118415,118432,118448,118464,118482,118497,118514,118531,118548,118564,118581,118597,118614,118632,118648,118664,118681,118697,118714,118731,118748,118764,118781,118798,118814,118831,118847,118864,118881,118897,118914,118931,118947,118964,118981,118997,119014,119031,119047,119064,119082,119098,119114,119131,119147,119164,119181,119197,119214,119230,119247,119264,119281,119298,119314,119331,119347,119364,119380,119398,119414,119431,119449,119465,119480,119498,119514,119531,119547,119564,119580,119597,119616,119632,119647,119663,119680,119697,119712,119730,119747,119762,119780,119797,119812,119830,119847,119863,119880,119897,119912,119930,119947,119962,119980,119997,120012,120030,120046,120062,120080,120096,120112,120132,120147,120165,120180,120196,120213,120230,120246,120262,120280,120296,120313,120330,120346,120364,120380,120397,120413,120429,120446,120463,120479,120497,120514,120531,120546,120563,120579,120596,120613,120630,120646,120663,120680,120697,120713,120729,120746,120763,120779,120796,120813,120829,120846,120863,120880,120896,120913,120929,120946,120963,120979,120996,121013,121029,121046,121063,121080,121097,121113,121129,121146,121163,121179,121198,121214,121230,121246,121263,121279,121296,121313,121329,121346,121363,121379,121396,121413,121429,121446,121464,121479,121496,121513,121537,121552,121570,121595,121612,121629,121645,121662,121677,121695,121712,121727,121745,121763,121777,121795,121812,121827,121845,121862,121877,121895,121912,121927,121945,121962,121978,121995,122012,122028,122045,122061,122078,122095,122111,122128,122145,122161,122178,122195,122211,122228,122246,122262,122279,122295,122311,122328,122345,122361,122378,122395,122411,122428,122445,122462,122478,122495,122511,122528,122544,122561,122578,122594,122612,122629,122645,122661,122678,122694,122711,122728,122744,122761,122778,122794,122811,122828,122844,122861,122878,122894,122911,122928,122944,122961,122977,122994,123011,123028,123044,123061,123078,123094,123111,123129,123144,123161,123178,123194,123211,123228,123244,123261,123278,123295,123311,123328,123345,123361,123378,123405,123428,123444,123460,123477,123495,123511,123527,123545,123561,123577,123595,123611,123627,123645,123661,123678,123695,123711,123728,123744,123761,123778,123794,123811,123828,123844,123861,123878,123894,123911,123928,123944,123962,123978,123994,124011,124028,124044,124061,124078,124094,124111,124127,124144,124161,124177,124194,124211,124227,124244,124260,124276,124294,124311,124327,124344,124361,124377,124395,124411,124427,124444,124461,124477,124494,124510,124527,124544,124561,124577,124594,124610,124627,124645,124660,124677,124695,124710,124727,124744,124761,124777,124794,124810,124827,124844,124860,124877,124894,124910,124927,124943,124960,124976,124994,125010,125027,125043,125060,125077,125093,125110,125127,125142,125159,125177,125193,125210,125227,125243,125260,125277,125293,125311,125327,125347,125362,125375,125393,125411,125427,125443,125461,125475,125493,125510,125525,125543,125560,125576,125593,125610,125626,125643,125659,125675,125693,125708,125725,125743,125760,125776,125794,125809,125826,125841,125858,125875,125893,125908,125925,125943,125958,125976,125993,126008,126026,126043,126058,126075,126092,126108,126125,126141,126158,126177,126191,126208,126226,126240,126258,126275,126291,126308,126325,126341,126358,126375,126391,126408,126426,126441,126457,126475,126493,126509,126524,126541,126558,126575,126591,126608,126625,126641,126658,126676,126691,126710,126726,126741,126758,126773,126791,126808,126824,126841,126858,126874,126891,126909,126924,126941,126957,126974,126990,127007,127024,127041,127057,127074,127091,127107,127124,127141,127157,127174,127190,127207,127224,127241,127257,127283,127307,127324,127340,127357,127374,127390,127407,127424,127440,127456,127473,127490,127507,127525,127540,127559,127575,127590,127607,127624,127640,127657,127673,127690,127707,127724,127740,127757,127773,127790,127807,127823,127840,127857,127874,127891,127908,127923,127940,127957,127973,127990,128007,128023,128040,128057,128073,128090,128107,128123,128140,128155,128173,128190,128206,128223,128240,128256,128273,128290,128306,128323,128340,128356,128372,128390,128406,128423,128440,128456,128473,128490,128506,128523,128540,128556,128573,128590,128606,128623,128639,128655,128672,128689,128705,128723,128740,128756,128773,128789,128806,128823,128840,128856,128873,128890,128906,128923,128940,128956,128972,128988,129006,129022,129039,129056,129072,129089,129105,129122,129139,129156,129172,129189,129206,129222,129239,129256,129286,129295,129322,129339,129356,129371,129389,129405,129422,129439,129455,129473,129489,129506,129522,129539,129555,129572,129589,129605,129622,129640,129655,129673,129690,129705,129722,129739,129755,129772,129788,129805,129821,129838,129855,129871,129888,129905,129922,129938,129955,129972,129988,130005,130023,130038,130055,130072,130088,130105,130122,130138,130154,130172,130188,130205,130221,130238,130255,130271,130288,130305,130321,130338,130355,130371,130388,130404,130421,130438,130455,130471,130488,130505,130521,130538,130555,130571,130588,130604,130621,130638,130654,130671,130688,130704,130722,130738,130754,130770,130788,130805,130821,130837,130855,130871,130887,130905,130921,130937