[{"success":true,"trial_type":"fullscreen","trial_index":0,"time_elapsed":4724,"internal_node_id":"0.0-0.0","protocol_sum":"","subject_identifier":409,"subject_sum":[252,86,219,198,212,101,43,49,91,134,183,28,141,104,140,28,205,234,156,95,31,208,119,99,210,101,159,222,46,47,196,154],"subject_pair":204,"STUDY_ID":"66a22c0758a3d5c9d26873c6","PROLIFIC_PID":"66929109eff4c9c070a4b123","SESSION_ID":"66a2743091f1949a45257347","practice_instructions":1,"leaderboard_instructions":0,"bonus":0,"reveal_word":true,"self_rating":"3","confidence":"57"},{"view_history":"[{\"page_index\":0,\"viewing_time\":2502.7000000476837}]","rt":2503,"trial_type":"instructions","trial_index":1,"time_elapsed":7228,"internal_node_id":"0.0-1.0","protocol_sum":"","subject_identifier":409,"subject_sum":[252,86,219,198,212,101,43,49,91,134,183,28,141,104,140,28,205,234,156,95,31,208,119,99,210,101,159,222,46,47,196,154],"subject_pair":204,"STUDY_ID":"66a22c0758a3d5c9d26873c6","PROLIFIC_PID":"66929109eff4c9c070a4b123","SESSION_ID":"66a2743091f1949a45257347","practice_instructions":1,"leaderboard_instructions":0,"bonus":0,"reveal_word":true,"self_rating":"3","confidence":"57"},{"view_history":"[{\"page_index\":0,\"viewing_time\":15497.599999904633}]","rt":15497.899999856949,"trial_type":"instructions","trial_index":2,"time_elapsed":22727,"internal_node_id":"0.0-2.0-0.0","protocol_sum":"","subject_identifier":409,"subject_sum":[252,86,219,198,212,101,43,49,91,134,183,28,141,104,140,28,205,234,156,95,31,208,119,99,210,101,159,222,46,47,196,154],"subject_pair":204,"STUDY_ID":"66a22c0758a3d5c9d26873c6","PROLIFIC_PID":"66929109eff4c9c070a4b123","SESSION_ID":"66a2743091f1949a45257347","practice_instructions":1,"leaderboard_instructions":0,"bonus":0,"reveal_word":true,"self_rating":"3","confidence":"57"},{"rt":6767.799999952316,"responses":"{\"Q0\":\"... reveal the word with as <b>few letter guesses</b> as possible\"}","question_order":"[0]","trial_type":"survey-multi-choice","trial_index":3,"time_elapsed":29497,"internal_node_id":"0.0-2.0-1.0","protocol_sum":"","subject_identifier":409,"subject_sum":[252,86,219,198,212,101,43,49,91,134,183,28,141,104,140,28,205,234,156,95,31,208,119,99,210,101,159,222,46,47,196,154],"subject_pair":204,"correct":true,"test_part":"multichoice_nonpretend","STUDY_ID":"66a22c0758a3d5c9d26873c6","PROLIFIC_PID":"66929109eff4c9c070a4b123","SESSION_ID":"66a2743091f1949a45257347","practice_instructions":1,"leaderboard_instructions":0,"bonus":0,"reveal_word":true,"self_rating":"3","confidence":"57"},{"view_history":"[{\"page_index\":0,\"viewing_time\":1455.7999999523163}]","rt":1456.0999999046326,"trial_type":"instructions","trial_index":4,"time_elapsed":30954,"internal_node_id":"0.0-3.0","protocol_sum":"","subject_identifier":409,"subject_sum":[252,86,219,198,212,101,43,49,91,134,183,28,141,104,140,28,205,234,156,95,31,208,119,99,210,101,159,222,46,47,196,154],"subject_pair":204,"STUDY_ID":"66a22c0758a3d5c9d26873c6","PROLIFIC_PID":"66929109eff4c9c070a4b123","SESSION_ID":"66a2743091f1949a45257347","practice_instructions":1,"leaderboard_instructions":0,"bonus":0,"reveal_word":true,"self_rating":"3","confidence":"57"},{"word":"ZEBRA","click_log":{"letter":["","H","L","E","A","N","R","Z","B"],"t":[0,9199.200000047684,11038.400000095367,13242.799999952316,19169.099999904633,25118.700000047684,32438.900000095367,41971.09999990463,43083.90000009537],"hit":[null,0,0,1,1,0,1,1,1],"asked":["","H","HL","HLE","HLEA","HLEAN","HLEANR","HLEANRZ","HLEANRZB"],"word_state":["_____","_____","_____","_E___","_E__A","_E__A","_E_RA","ZE_RA","ZEBRA"]},"hover_log":{"letter":["?","?","?","?","?","?","?","?","?","?","?","?","?","?","?","?","?","?","?","?","?","?","?","?","?","?","?","?","?","?","?","?","?","?","?","?","?","?","?","?","?","?","?","?","?","?","?","?","?","?","?","?","?","?","?","?","?","?","?","?","?","?","?","?","?","?","?","?","?","S","S","J","?","K","?","?","?","?","?","?","?","?","?","?","?","?","?","B","B","B","B","B","B","B","B","B","B","B","B","B","B","B","B","B","B","B","B","B","B","B","B","B","B","B","B","B","B","B","B","B","B","B","B","B","B","B","B","B","B","B","B","B","B","B","B","B","B","B","B","B","B","B","B","B","B","B","B","B","B","B","B","B","B","?","?","?","?","?","?","?","?","?","?","?","?","?","?","?","?","?","?","?","?","?","?","?","?","?","?","?","?","?","?","?","?","?","?","?","?","?","?","?","?","?","?","?","?","?","?","?","?","?","?","?","?","?","?","?","?","?","?","?","?","?","?","?","?","?","?","?","?","?","?","?","?","?","?","?","?","?","?","?","?","?","?","?","?","?","?","?","?","?","?","?","?","?","?","?","?","?","?","?","?","?","?","?","?","?","?","?","?","?","?","?","?","?","?","?","?","?","?","?","?","?","?","?","?","?","?","?","?","?","?","?","?","?","?","?","?","?","?","?","?","?","?","?","?","?","?","?","?","?","?","?","?","?","?","?","?","?","?","?","?","?","?","?","?","?","?","?","?","?","?","?","?","?","?","?","?","?","?","?","?","?","?","?","?","?","?","?","?","?","?","?","?","?","?","?","?","?","?","?","?","?","?","?","?","?","?","?","?","?","?","?","?","?","?","?","?","?","?","?","?","?","?","?","?","?","?","?","?","?","?","?","?","?","?","?","?","?","?","?","?","?","?","?","?","?","?","?","?","?","?","?","?","?","?","?","?","?","?","?","?","?","?","?","?","?","?","?","?","?","?","?","?","?","?","?","?","?","?","?","?","?","?","?","?","?","?","?","?","?","?","?","?","?","?","?","?","?","?","?","?","?","?","?","?","?","?","?","?","?","?","?","?","?","?","?","?","?","?","?","?","?","?","?","?","?","?","?","?","?","?","P","P","P","P","?","?","?","?","?","?","?","?","?","?","?","?","?","?","?","?","?","?","?","?","?","?","?","?","H","H","H","H","H","H","H","H","H","H","H","H","H","H","H","H","H","H","H","H","H","H","H","H","H","H","H","H","H","H","H","H","H","H","H","H","H","H","H","H","H","H","H","H","H","H","H","H","H","H","H","H","H","H","H","H","H","H","H","H","H","H","H","H","H","H","H","H","H","H","H","H","H","H","H","H","H","H","H","H","H","H","H","H","H","H","H","H","H","H","H","H","H","H","H","H","H","H","H","H","H","H","H","H","H","?","?","?","?","M","M","M","?","L","L","L","L","L","L","L","L","L","L","L","L","L","L","L","L","L","L","L","L","L","L","L","L","L","L","L","L","L","L","L","L","L","L","L","L","L","L","L","L","L","L","L","L","L","L","L","L","L","L","L","L","L","L","L","L","L","L","L","L","L","L","L","L","L","L","L","L","L","L","L","L","L","L","L","L","L","L","L","L","L","L","?","?","?","?","?","?","?","?","?","?","?","?","?","?","?","?","?","?","?","?","?","?","?","?","?","?","?","?","?","?","?","?","?","?","?","?","?","E","E","E","E","E","E","E","E","E","E","E","E","E","E","E","E","E","E","E","E","E","E","E","E","E","E","E","E","E","E","E","E","E","E","E","E","E","E","E","E","E","E","E","E","E","E","E","E","E","E","E","E","E","E","E","E","E","E","E","E","E","E","E","E","E","E","E","E","E","E","E","E","E","E","E","E","E","E","E","E","E","E","E","E","E","E","E","E","E","E","E","E","E","E","E","E","E","E","E","E","E","E","E","E","E","E","E","E","E","E","E","E","E","E","E","E","E","E","E","E","E","E","E","E","E","E","E","E","E","E","E","E","E","E","E","E","E","E","E","E","E","E","E","E","E","E","E","E","E","E","E","E","E","E","E","E","E","E","E","E","E","E","E","E","E","E","E","E","E","E","E","E","E","E","E","E","E","E","E","E","E","E","E","E","E","E","E","E","E","E","E","E","E","E","E","E","E","E","E","E","E","E","E","E","E","E","E","E","E","E","E","E","E","E","E","E","E","E","E","E","E","E","E","E","E","E","E","E","E","E","E","E","E","E","E","E","E","E","E","E","E","E","E","E","E","E","E","E","E","E","E","E","E","E","E","E","E","E","E","E","E","E","E","E","E","E","E","E","E","E","E","E","E","E","E","E","E","E","E","E","E","E","E","E","E","E","E","E","E","E","E","E","E","E","E","E","E","E","E","E","E","E","E","E","E","E","E","E","E","E","E","E","?","D","C","C","B","?","?","A","A","A","A","A","A","A","A","A","A","A","A","A","A","A","A","A","A","A","A","A","A","A","A","A","A","A","A","A","A","A","A","A","A","A","A","A","A","A","A","A","A","A","A","A","A","A","A","A","A","A","A","A","A","A","A","A","A","A","A","A","A","A","A","A","A","A","A","A","A","A","A","A","A","A","A","A","A","A","A","A","A","A","A","A","A","A","A","A","A","A","A","A","A","A","A","A","A","A","A","A","A","A","A","A","A","A","A","A","A","A","A","A","A","A","A","A","A","A","A","A","A","A","A","A","A","A","A","A","A","A","A","A","A","A","A","A","A","A","A","A","A","A","A","A","A","A","A","A","A","A","A","A","A","A","A","A","A","A","A","A","A","A","A","A","A","A","A","A","A","A","A","A","A","A","A","A","A","A","A","A","A","A","A","A","A","A","A","A","A","A","A","A","A","A","A","A","A","A","A","A","A","A","A","A","A","A","A","A","A","A","A","A","A","A","A","A","A","A","A","A","A","A","A","A","A","A","A","A","A","A","A","A","A","A","A","A","A","A","A","A","A","A","A","A","A","A","A","A","A","A","A","A","A","A","A","A","A","A","A","A","A","A","A","A","A","A","A","A","A","A","A","?","?","?","?","?","?","?","?","?","?","?","?","K","K","K","K","?","?","?","T","T","T","T","T","?","?","?","?","?","?","?","?","?","?","?","?","?","?","?","?","?","?","?","?","?","?","?","?","?","?","?","?","?","?","?","?","?","?","?","?","?","?","?","?","?","?","?","?","?","?","?","?","?","?","?","?","?","?","?","?","?","?","?","?","?","?","?","?","?","?","?","?","?","?","?","?","?","?","?","?","?","?","?","?","?","?","?","?","?","?","?","?","?","?","?","?","?","?","V","V","V","V","V","V","V","V","V","?","?","?","?","?","?","?","?","?","?","?","?","?","?","?","?","N","N","N","N","N","N","N","N","N","N","N","N","N","N","N","N","N","N","N","N","N","N","N","N","N","N","N","N","N","N","N","N","N","N","N","N","N","N","N","N","N","N","N","N","N","N","N","N","N","N","N","N","N","N","N","N","N","N","N","N","N","N","N","N","N","N","N","N","N","N","N","N","N","N","N","N","N","N","N","N","N","N","N","N","N","N","N","N","N","N","N","N","N","N","N","N","N","N","N","N","N","N","N","N","N","N","N","N","N","N","N","N","N","N","N","N","N","N","N","N","N","N","N","N","N","N","N","N","N","N","N","N","N","N","N","N","N","N","N","N","N","N","N","N","N","N","N","N","N","N","N","N","N","N","N","N","?","W","W","W","?","?","?","?","?","?","?","?","?","?","?","?","?","?","?","?","?","?","?","?","?","?","?","?","?","?","?","?","?","?","?","?","?","?","?","?","?","?","?","?","?","?","?","?","?","?","?","?","?","?","?","?","?","?","?","?","?","?","?","?","?","?","?","?","?","?","?","?","?","?","?","?","?","?","?","?","?","?","?","?","?","?","?","?","?","?","?","?","?","?","?","?","?","?","?","?","?","?","?","?","?","?","?","?","?","?","?","?","?","?","?","?","?","?","?","?","?","?","?","?","?","?","?","?","?","?","?","?","?","?","?","?","?","?","?","?","?","?","?","?","?","?","?","?","?","?","?","?","?","?","?","?","?","?","?","?","?","?","?","?","?","?","?","?","?","?","?","?","?","?","?","?","?","?","?","?","?","?","?","?","?","?","?","?","?","?","W","W","?","?","O","O","?","G","G","?","?","?","?","?","?","?","?","?","?","?","?","?","?","?","?","?","?","?","?","?","?","?","?","?","?","?","?","?","?","?","?","?","?","?","?","?","?","?","?","?","?","?","?","?","?","?","?","?","?","?","?","?","?","I","I","I","I","I","I","?","R","R","R","R","R","R","R","R","R","R","R","R","R","R","R","R","R","R","R","R","R","R","R","R","R","R","R","R","R","R","R","R","R","R","R","R","R","R","R","R","R","R","R","R","R","R","R","R","R","R","R","R","R","R","R","R","R","R","R","R","R","R","R","R","R","R","R","R","R","R","R","R","R","R","R","R","R","R","R","R","R","R","R","R","R","R","R","R","R","R","R","R","R","R","R","R","R","R","R","R","R","R","R","R","R","R","R","R","R","R","R","R","R","R","R","R","R","R","?","?","Z","?","?","?","?","?","?","?","?","?","?","?","?","?","?","?","?","?","?","?","?","?","?","?","?","?","?","?","?","?","?","?","?","?","?","?","?","?","?","?","?","?","?","?","?","?","?","?","?","?","?","?","?","?","?","X","X","X","X","X","X","X","X","X","X","X","X","X","X","X","X","X","X","X","X","X","X","X","X","X","X","X","X","X","X","X","X","?","?","?","?","?","?","?","?","?","?","?","?","?","?","?","?","?","?","?","?","?","?","?","?","?","?","?","?","?","?","?","?","?","?","?","?","?","?","?","?","?","?","?","?","?","?","?","?","?","?","?","?","?","?","?","?","?","?","?","?","?","?","?","?","?","?","?","?","?","?","?","?","?","?","?","?","?","?","?","?","?","?","?","?","?","?","?","?","?","?","?","?","?","?","?","?","?","?","?","?","?","?","?","?","?","?","?","?","?","?","?","X","X","?","O","O","O","O","?","?","?","?","?","?","?","?","?","?","?","?","?","?","?","?","?","?","?","?","?","?","?","?","F","F","F","F","F","F","F","F","F","F","F","F","F","F","F","F","F","F","F","F","F","F","F","F","F","F","F","F","F","F","F","F","F","F","F","F","F","F","F","F","F","F","F","F","F","F","F","F","F","F","F","F","F","?","E","E","E","?","?","?","?","?","?","?","D","?","M","?","U","?","?","?","?","?","?","?","?","?","?","?","?","?","?","?","?","?","?","?","?","?","?","?","?","?","?","?","?","?","?","?","?","?","?","?","?","?","?","?","?","?","?","?","?","?","?","?","?","?","?","?","?","?","?","?","?","?","?","?","?","?","?","?","?","?","?","?","?","?","?","?","?","?","?","?","?","?","?","?","?","?","?","?","?","?","?","?","?","?","?","?","?","?","?","?","?","?","?","?","?","?","U","U","T","T","T","T","T","T","T","T","T","T","T","T","T","T","T","T","T","T","T","T","T","T","T","T","T","T","T","T","T","T","T","T","?","?","?","L","L","L","L","L","L","?","?","?","X","?","?","?","?","?","?","?","?","?","?","?","?","?","?","?","?","?","?","?","?","?","?","?","?","Z","Z","Z","Z","Z","Z","Z","Z","Z","Z","Z","Z","Z","Z","Z","Z","Z","Z","Z","Z","Z","Z","Z","Z","Z","Z","Z","Z","Z","Z","Z","Z","Z","Z","Z","Z","Z","Z","Z","Z","Z","Z","Z","Z","Z","Z","Z","Z","Z","Z","Z","Z","Z","?","O","?","D","?","C","C","C","?","?","?","?","?","?","?","?","?","?","?","?","?","B","B","B","B","B","B","B","B","B","B","B","B","B","B","B","B","B","B","B","B","B","B","B","B","B","B","B","B","B","B","B","B","B","B","B","B","B","B","B","B","B","B","B","B","B","B","B","B","B","B","B","B","B","B","B","B","B","B","B","B","B","B","B","B","B","B","B","B","B","B","B","B","B","B","B","B","B","B","B","B","B","B","B","B","B","B","B","B","B","B","B","B","B","B","B","B","B","B","B","B","B","B","B","B","B","B","B","B","B","B","B","K","T","?","?","?","?","?","?","?","?","?","?","?","?","?","?","?","?","?","?","?","?","?","?","?","?","?","?","?","?","?","?","?","?","?","?","?","?","?"],"t":[37,47,75,91,107,124,141,157,174,191,207,224,240,257,274,290,307,323,340,357,374,390,406,423,440,457,473,490,507,523,540,556,573,589,607,623,640,657,673,690,706,723,740,756,773,790,806,823,839,856,873,890,906,923,939,956,973,989,1006,1023,1039,1056,1072,1089,1106,1122,1139,1156,1173,1192,1206,1223,1240,1257,1272,1290,1306,1322,1340,1356,1373,1389,1406,1423,1440,1456,1473,1490,1507,1523,1539,1556,1572,1589,1606,1622,1639,1656,1673,1689,1706,1722,1739,1755,1772,1789,1806,1822,1839,1855,1872,1888,1905,1922,1938,1955,1972,1989,2005,2022,2039,2055,2071,2088,2105,2122,2138,2155,2172,2189,2205,2222,2239,2255,2271,2288,2305,2322,2338,2355,2371,2388,2405,2422,2438,2455,2471,2488,2504,2521,2538,2555,2571,2588,2605,2621,2638,2654,2671,2689,2704,2721,2738,2755,2771,2788,2805,2821,2837,2855,2874,2888,2904,2921,2938,2954,2971,2987,3004,3021,3037,3054,3071,3087,3104,3121,3137,3154,3171,3187,3206,3220,3237,3254,3270,3287,3304,3320,3337,3354,3371,3387,3404,3420,3437,3454,3470,3487,3504,3520,3537,3553,3570,3586,3603,3620,3636,3654,3670,3687,3704,3720,3737,3753,3770,3787,3803,3820,3837,3853,3870,3887,3903,3920,3936,3953,3970,3986,4003,4020,4036,4053,4070,4086,4103,4120,4137,4153,4170,4186,4203,4219,4236,4253,4269,4286,4303,4320,4336,4353,4370,4386,4403,4420,4436,4453,4469,4487,4503,4519,4536,4552,4569,4586,4602,4619,4636,4652,4669,4685,4702,4719,4736,4753,4769,4786,4802,4819,4836,4852,4869,4886,4903,4919,4936,4952,4969,4986,5002,5019,5036,5053,5069,5086,5102,5119,5135,5152,5168,5185,5202,5219,5235,5252,5269,5285,5302,5319,5335,5352,5369,5385,5402,5418,5435,5452,5468,5485,5502,5518,5535,5552,5568,5585,5602,5618,5635,5651,5668,5685,5701,5718,5735,5752,5768,5785,5805,5818,5835,5851,5868,5885,5901,5918,5935,5951,5968,5985,6001,6018,6034,6051,6068,6084,6101,6117,6133,6152,6168,6185,6201,6218,6234,6251,6267,6284,6301,6318,6334,6351,6368,6385,6401,6417,6434,6451,6467,6484,6501,6517,6534,6551,6567,6585,6601,6617,6634,6650,6667,6684,6700,6717,6734,6750,6767,6784,6800,6817,6834,6851,6867,6884,6900,6917,6934,6951,6967,6984,7000,7017,7034,7050,7067,7083,7100,7117,7133,7150,7167,7183,7200,7216,7233,7250,7270,7283,7300,7317,7334,7350,7367,7383,7399,7416,7432,7450,7467,7483,7500,7517,7533,7550,7567,7583,7600,7616,7633,7650,7666,7683,7699,7716,7733,7750,7766,7783,7799,7816,7833,7849,7866,7883,7899,7916,7933,7949,7967,7983,7999,8016,8033,8050,8067,8083,8099,8116,8132,8149,8167,8182,8199,8216,8232,8249,8266,8282,8299,8316,8332,8349,8366,8382,8399,8415,8432,8449,8466,8482,8498,8515,8533,8550,8566,8582,8598,8616,8632,8649,8666,8682,8699,8718,8732,8748,8765,8782,8799,8815,8832,8848,8865,8881,8898,8915,8931,8949,8964,8982,8999,9016,9032,9049,9065,9082,9099,9115,9132,9148,9164,9181,9198,9216,9232,9249,9265,9282,9298,9315,9331,9348,9365,9381,9398,9415,9432,9448,9465,9481,9498,9515,9532,9548,9564,9581,9598,9614,9631,9648,9665,9681,9698,9715,9731,9748,9764,9781,9798,9814,9831,9848,9864,9881,9898,9914,9931,9948,9964,9981,9997,10014,10031,10047,10064,10081,10097,10114,10130,10150,10164,10181,10198,10214,10231,10247,10264,10281,10297,10314,10332,10348,10364,10380,10397,10414,10431,10447,10464,10480,10497,10514,10530,10547,10564,10580,10597,10613,10630,10647,10664,10680,10697,10714,10731,10747,10763,10780,10796,10813,10830,10847,10863,10880,10897,10913,10930,10947,10964,10980,10997,11013,11030,11047,11063,11080,11097,11113,11130,11146,11163,11180,11197,11213,11230,11246,11263,11280,11296,11313,11330,11346,11363,11380,11396,11413,11429,11447,11463,11480,11496,11513,11529,11546,11563,11579,11597,11613,11630,11646,11662,11680,11696,11713,11729,11746,11762,11780,11797,11813,11830,11846,11863,11879,11896,11912,11929,11946,11962,11979,11996,12012,12029,12046,12062,12079,12095,12112,12130,12145,12162,12178,12196,12212,12229,12246,12263,12279,12295,12312,12328,12345,12362,12379,12396,12412,12429,12445,12462,12479,12495,12511,12529,12545,12562,12578,12595,12611,12629,12646,12661,12678,12695,12712,12728,12745,12761,12778,12794,12812,12828,12845,12862,12878,12895,12911,12928,12945,12961,12978,12994,13011,13028,13045,13061,13078,13095,13111,13128,13145,13161,13178,13194,13211,13232,13245,13261,13278,13295,13311,13328,13345,13362,13378,13395,13411,13428,13444,13461,13478,13494,13511,13527,13545,13562,13578,13594,13611,13628,13643,13661,13677,13694,13711,13727,13744,13761,13777,13794,13811,13827,13844,13861,13877,13894,13911,13927,13944,13961,13977,13994,14010,14027,14044,14060,14078,14094,14110,14127,14144,14161,14177,14194,14210,14227,14244,14261,14277,14293,14311,14327,14343,14360,14377,14394,14410,14427,14444,14460,14477,14493,14510,14527,14543,14560,14577,14594,14610,14627,14644,14660,14677,14693,14710,14727,14744,14760,14776,14793,14810,14826,14844,14860,14876,14893,14910,14926,14943,14959,14976,14993,15010,15026,15043,15060,15076,15093,15109,15126,15143,15159,15176,15193,15209,15226,15243,15259,15276,15293,15309,15326,15343,15360,15376,15393,15410,15426,15443,15459,15476,15492,15509,15526,15542,15559,15576,15593,15609,15626,15643,15659,15676,15692,15709,15726,15742,15759,15775,15792,15809,15826,15842,15859,15875,15895,15909,15925,15942,15959,15975,15992,16009,16025,16042,16058,16075,16091,16108,16125,16141,16158,16175,16191,16208,16225,16241,16259,16275,16292,16309,16325,16342,16358,16375,16392,16408,16425,16441,16458,16475,16491,16508,16525,16541,16558,16574,16591,16608,16625,16642,16659,16674,16691,16708,16724,16741,16758,16774,16791,16808,16824,16841,16858,16874,16891,16908,16925,16941,16958,16974,16991,17008,17024,17041,17057,17074,17091,17107,17124,17141,17157,17174,17191,17207,17224,17241,17258,17274,17291,17307,17325,17341,17357,17374,17391,17407,17424,17441,17457,17474,17491,17508,17524,17540,17557,17573,17590,17608,17624,17641,17658,17675,17690,17708,17724,17740,17758,17773,17791,17808,17824,17840,17857,17874,17890,17907,17924,17939,17957,17973,17990,18007,18023,18040,18057,18074,18091,18107,18123,18140,18156,18173,18190,18207,18223,18243,18257,18273,18290,18306,18323,18340,18356,18373,18390,18406,18423,18440,18456,18473,18490,18506,18523,18539,18556,18573,18590,18605,18623,18639,18656,18672,18689,18706,18726,18739,18756,18772,18789,18806,18823,18840,18856,18873,18889,18906,18923,18939,18956,18972,18988,19006,19022,19039,19056,19072,19089,19105,19122,19138,19156,19171,19189,19206,19222,19239,19256,19272,19289,19305,19322,19339,19356,19372,19389,19405,19422,19439,19455,19472,19489,19505,19522,19538,19555,19572,19588,19605,19622,19638,19655,19672,19688,19705,19722,19738,19755,19772,19788,19805,19822,19838,19855,19872,19888,19905,19922,19938,19955,19971,19988,20004,20021,20038,20055,20071,20088,20105,20122,20138,20157,20171,20188,20205,20221,20238,20254,20271,20288,20304,20321,20338,20355,20371,20388,20405,20421,20438,20454,20471,20488,20504,20521,20538,20554,20571,20587,20604,20621,20637,20654,20671,20687,20704,20721,20737,20754,20771,20787,20804,20821,20837,20854,20871,20887,20904,20921,20937,20954,20970,20987,21004,21021,21037,21054,21070,21087,21104,21120,21137,21154,21170,21187,21204,21220,21237,21254,21270,21287,21304,21320,21337,21354,21370,21387,21403,21420,21436,21453,21470,21487,21503,21520,21537,21556,21570,21587,21603,21620,21636,21653,21670,21687,21703,21720,21736,21753,21770,21786,21803,21820,21836,21853,21869,21886,21903,21920,21936,21953,21969,21986,22003,22019,22036,22053,22069,22086,22102,22119,22136,22153,22170,22185,22203,22220,22236,22253,22269,22286,22304,22319,22336,22353,22369,22386,22402,22419,22437,22453,22469,22486,22504,22520,22536,22553,22569,22585,22603,22618,22636,22653,22668,22686,22702,22719,22736,22752,22769,22786,22802,22819,22835,22852,22869,22885,22902,22922,22936,22952,22969,22986,23002,23018,23035,23052,23068,23085,23102,23119,23136,23152,23169,23185,23202,23218,23235,23252,23268,23285,23302,23319,23335,23352,23368,23385,23401,23418,23435,23451,23468,23485,23501,23518,23535,23551,23568,23585,23601,23618,23635,23651,23668,23685,23701,23718,23735,23751,23768,23785,23802,23818,23835,23851,23868,23884,23901,23918,23934,23951,23968,23984,24000,24017,24034,24051,24068,24084,24101,24118,24134,24151,24168,24185,24200,24217,24235,24251,24268,24284,24301,24318,24334,24351,24368,24384,24401,24417,24435,24451,24468,24484,24500,24518,24535,24551,24567,24584,24601,24617,24634,24650,24667,24684,24701,24717,24734,24750,24767,24784,24800,24817,24833,24850,24867,24883,24900,24917,24934,24950,24967,24983,25000,25017,25034,25050,25067,25083,25100,25118,25133,25149,25167,25183,25200,25217,25233,25250,25266,25283,25300,25317,25333,25350,25366,25383,25400,25416,25433,25450,25466,25483,25500,25516,25533,25550,25566,25583,25600,25616,25633,25650,25666,25683,25699,25719,25733,25750,25766,25782,25799,25816,25833,25849,25866,25883,25899,25916,25933,25949,25966,25982,25999,26016,26032,26049,26066,26082,26099,26116,26132,26149,26165,26183,26199,26216,26232,26249,26265,26282,26299,26316,26332,26349,26366,26382,26399,26416,26432,26449,26466,26482,26498,26515,26532,26548,26565,26581,26599,26615,26632,26648,26665,26682,26699,26715,26732,26748,26765,26782,26798,26815,26832,26848,26865,26882,26898,26915,26931,26948,26965,26981,26998,27015,27031,27048,27065,27081,27098,27118,27131,27148,27164,27181,27197,27215,27232,27249,27265,27281,27298,27316,27331,27348,27365,27381,27398,27414,27431,27448,27464,27481,27498,27514,27531,27548,27564,27581,27597,27614,27631,27647,27664,27680,27697,27714,27731,27747,27764,27781,27797,27814,27830,27847,27864,27881,27897,27914,27931,27947,27964,27980,27998,28014,28031,28047,28064,28080,28097,28114,28130,28147,28164,28180,28197,28213,28230,28247,28263,28280,28297,28314,28330,28347,28363,28380,28397,28413,28430,28447,28464,28480,28497,28513,28531,28547,28563,28580,28597,28613,28630,28646,28664,28680,28697,28714,28730,28747,28763,28780,28796,28813,28830,28846,28863,28880,28897,28913,28929,28946,28963,28979,28996,29013,29029,29046,29063,29080,29096,29112,29129,29146,29162,29179,29196,29213,29229,29246,29263,29279,29296,29313,29329,29346,29362,29379,29396,29412,29429,29446,29462,29479,29496,29512,29529,29546,29562,29579,29596,29612,29629,29645,29663,29679,29696,29712,29729,29746,29762,29779,29795,29812,29829,29846,29862,29879,29895,29912,29932,29945,29962,29979,29995,30012,30029,30046,30062,30079,30095,30112,30128,30145,30162,30178,30195,30212,30228,30245,30262,30278,30295,30312,30329,30345,30361,30379,30395,30411,30429,30445,30463,30478,30495,30513,30528,30545,30561,30579,30595,30611,30628,30645,30662,30678,30695,30712,30728,30745,30762,30778,30795,30811,30828,30845,30861,30878,30895,30911,30928,30945,30961,30978,30994,31011,31028,31045,31061,31078,31095,31111,31128,31144,31161,31178,31194,31211,31228,31244,31261,31278,31294,31311,31330,31344,31361,31378,31394,31411,31428,31445,31461,31477,31494,31511,31528,31544,31562,31578,31594,31611,31627,31644,31660,31677,31694,31710,31727,31744,31760,31777,31794,31810,31827,31844,31860,31877,31894,31910,31927,31944,31960,31977,31994,32010,32027,32043,32060,32077,32093,32110,32127,32143,32160,32177,32193,32210,32226,32243,32260,32277,32293,32310,32326,32343,32360,32377,32393,32410,32426,32442,32460,32476,32494,32510,32526,32543,32560,32576,32593,32610,32626,32643,32660,32676,32693,32709,32726,32743,32760,32776,32793,32810,32826,32843,32860,32876,32893,32909,32926,32943,32960,32976,32993,33009,33026,33043,33059,33076,33093,33109,33126,33142,33159,33176,33192,33209,33226,33242,33259,33276,33293,33309,33326,33342,33359,33376,33392,33409,33426,33442,33459,33476,33492,33509,33525,33542,33560,33575,33592,33610,33625,33643,33659,33676,33693,33709,33726,33742,33759,33777,33793,33809,33825,33842,33858,33876,33892,33908,33925,33942,33959,33975,33991,34008,34025,34042,34058,34075,34092,34108,34128,34142,34159,34175,34191,34208,34225,34242,34259,34275,34292,34307,34325,34342,34358,34375,34391,34408,34426,34441,34458,34475,34491,34508,34525,34541,34557,34575,34591,34607,34624,34641,34658,34674,34691,34708,34724,34741,34758,34774,34791,34808,34824,34841,34858,34874,34891,34907,34925,34941,34958,34975,34992,35008,35024,35040,35057,35075,35091,35108,35124,35140,35157,35174,35190,35208,35224,35240,35257,35274,35291,35307,35324,35340,35357,35374,35390,35408,35425,35441,35457,35476,35491,35508,35524,35540,35557,35574,35590,35607,35623,35640,35657,35674,35690,35707,35723,35740,35756,35774,35790,35807,35823,35840,35856,35873,35890,35907,35923,35940,35956,35973,35990,36007,36023,36040,36057,36073,36089,36106,36123,36139,36156,36173,36189,36206,36223,36239,36256,36273,36289,36306,36323,36339,36356,36373,36389,36406,36423,36439,36456,36473,36489,36506,36523,36539,36556,36573,36589,36606,36623,36639,36656,36672,36689,36706,36722,36738,36756,36772,36789,36807,36822,36839,36859,36873,36889,36905,36923,36939,36956,36973,36989,37006,37023,37039,37056,37072,37089,37106,37122,37139,37156,37172,37189,37205,37222,37238,37255,37272,37288,37305,37323,37339,37355,37374,37389,37406,37421,37439,37456,37472,37489,37505,37522,37538,37555,37572,37589,37605,37621,37639,37655,37672,37689,37705,37722,37738,37755,37771,37788,37805,37821,37837,37855,37871,37887,37905,37921,37938,37954,37971,37988,38004,38021,38038,38054,38071,38088,38104,38122,38137,38154,38171,38188,38205,38221,38238,38255,38272,38288,38304,38322,38338,38355,38370,38387,38405,38421,38438,38454,38471,38489,38505,38521,38538,38554,38571,38587,38604,38622,38637,38654,38671,38687,38704,38722,38737,38754,38770,38787,38803,38820,38837,38854,38870,38886,38904,38920,38937,38953,38970,38987,39004,39020,39036,39053,39070,39087,39104,39120,39137,39153,39170,39187,39203,39220,39236,39253,39270,39286,39303,39320,39336,39353,39370,39387,39403,39419,39436,39453,39470,39486,39503,39520,39536,39553,39570,39587,39603,39620,39636,39653,39670,39686,39703,39720,39736,39753,39769,39786,39803,39820,39836,39853,39869,39886,39903,39919,39935,39953,39970,39986,40003,40019,40036,40052,40069,40086,40102,40120,40137,40153,40170,40185,40202,40221,40235,40253,40269,40286,40303,40319,40336,40352,40369,40386,40402,40419,40436,40452,40469,40485,40502,40519,40535,40552,40569,40586,40603,40619,40635,40652,40669,40685,40702,40719,40736,40752,40769,40786,40803,40819,40835,40852,40869,40886,40901,40922,40935,40952,40969,40985,41002,41019,41035,41052,41069,41085,41102,41119,41135,41152,41168,41185,41201,41218,41235,41251,41268,41285,41301,41318,41336,41352,41368,41384,41402,41419,41435,41452,41468,41485,41502,41518,41535,41552,41568,41584,41602,41618,41635,41651,41667,41685,41701,41718,41734,41751,41767,41784,41801,41818,41834,41851,41868,41884,41901,41917,41934,41951,41968,41984,42001,42017,42034,42051,42068,42084,42101,42117,42133,42150,42167,42184,42201,42217,42234,42251,42268,42285,42302,42317,42335,42351,42368,42385,42400,42418,42434,42451,42468,42484,42501,42518,42534,42552,42568,42584,42601,42617,42634,42651,42667,42684,42700,42717,42734,42750,42767,42784,42800,42817,42833,42850,42867,42883,42900,42917,42933,42950,42967,42983,43000,43016,43033,43050,43067,43083,43100,43117,43133,43150,43167,43183,43200,43216,43233,43250,43267,43283,43300,43316,43333,43350,43366,43383,43400,43416,43433,43450,43466,43483,43499,43516,43533,43550,43566,43584,43603,43616,43633,43649,43666,43682,43700,43716,43735,43749,43766,43783,43799,43815,43833,43850,43866,43883,43899,43916,43933,43949,43966,43982,43999,44016,44033,44049,44066,44082,44099,44116,44132,44149,44165,44182,44199,44216,44232,44249,44266,44282,44299,44315,44332,44349,44365,44382,44399,44415,44432,44449,44466,44481,44499,44516,44532,44549,44565,44582,44599,44616,44632,44649,44665,44682,44699,44715,44732,44749,44765,44782,44798,44815,44832,44848,44865,44882,44898,44916,44931,44948,44965,44981,44998,45015,45032,45048,45065,45082,45100],"hit":[null],"x":[-1.8129251700680271,-1.8129251700680271,-1.8129251700680271,-1.8129251700680271,-1.8129251700680271,-1.8129251700680271,-1.8129251700680271,-1.8129251700680271,-1.8129251700680271,-1.8129251700680271,-1.8129251700680271,-1.8129251700680271,-1.8129251700680271,-1.8129251700680271,-1.8129251700680271,-1.8129251700680271,-1.8129251700680271,-1.8129251700680271,-1.8129251700680271,-1.8129251700680271,-1.8129251700680271,-1.8129251700680271,-1.8129251700680271,-1.8129251700680271,-1.8129251700680271,-1.8129251700680271,-1.8129251700680271,-1.8129251700680271,-1.8129251700680271,-1.8129251700680271,-1.8129251700680271,-1.8129251700680271,-1.8129251700680271,-1.8129251700680271,-1.8129251700680271,-1.8129251700680271,-1.8129251700680271,-1.8129251700680271,-1.8129251700680271,-1.8129251700680271,-1.8129251700680271,-1.8129251700680271,-1.8129251700680271,-1.8129251700680271,-1.8129251700680271,-1.8129251700680271,-1.8129251700680271,-1.8129251700680271,-1.8129251700680271,-1.8129251700680271,-1.8129251700680271,-1.8129251700680271,-1.8129251700680271,-1.8129251700680271,-1.8129251700680271,-1.8129251700680271,-1.8129251700680271,-1.8129251700680271,-1.8129251700680271,-1.8129251700680271,-1.8129251700680271,-1.8129251700680271,-1.8129251700680271,-1.8129251700680271,-1.8129251700680271,-1.8129251700680271,-1.8129251700680271,-1.8129251700680271,-1.8129251700680271,-0.02040816326530612,0.003401360544217687,0.04421768707482993,0.07482993197278912,0.09523809523809523,0.10884353741496598,0.11564625850340136,0.12244897959183673,0.12585034013605442,0.12585034013605442,0.1292517006802721,0.1292517006802721,0.1326530612244898,0.1326530612244898,0.1326530612244898,0.13945578231292516,0.13945578231292516,0.13945578231292516,0.13945578231292516,0.14285714285714285,0.14285714285714285,0.14625850340136054,0.14625850340136054,0.14625850340136054,0.14625850340136054,0.14625850340136054,0.14625850340136054,0.14625850340136054,0.14625850340136054,0.14625850340136054,0.14625850340136054,0.14625850340136054,0.14625850340136054,0.14625850340136054,0.14625850340136054,0.14625850340136054,0.14625850340136054,0.14625850340136054,0.14625850340136054,0.14625850340136054,0.14625850340136054,0.14625850340136054,0.14625850340136054,0.14625850340136054,0.14625850340136054,0.14625850340136054,0.14625850340136054,0.14625850340136054,0.14625850340136054,0.14625850340136054,0.14625850340136054,0.14625850340136054,0.14625850340136054,0.14625850340136054,0.14625850340136054,0.14625850340136054,0.14625850340136054,0.14625850340136054,0.14625850340136054,0.14625850340136054,0.14625850340136054,0.14625850340136054,0.14625850340136054,0.14625850340136054,0.14625850340136054,0.14625850340136054,0.14625850340136054,0.14625850340136054,0.14625850340136054,0.14625850340136054,0.14625850340136054,0.14625850340136054,0.14625850340136054,0.14625850340136054,0.14625850340136054,0.14625850340136054,0.14625850340136054,0.14625850340136054,0.14625850340136054,0.14625850340136054,0.14625850340136054,0.14625850340136054,0.14625850340136054,0.14625850340136054,0.24149659863945577,0.3979591836734694,0.5340136054421769,0.608843537414966,0.6904761904761905,0.7210884353741497,0.7551020408163265,0.782312925170068,0.782312925170068,0.782312925170068,0.782312925170068,0.782312925170068,0.782312925170068,0.782312925170068,0.782312925170068,0.782312925170068,0.782312925170068,0.782312925170068,0.782312925170068,0.782312925170068,0.782312925170068,0.782312925170068,0.782312925170068,0.782312925170068,0.782312925170068,0.782312925170068,0.782312925170068,0.782312925170068,0.782312925170068,0.782312925170068,0.782312925170068,0.782312925170068,0.782312925170068,0.782312925170068,0.782312925170068,0.782312925170068,0.782312925170068,0.782312925170068,0.782312925170068,0.782312925170068,0.782312925170068,0.782312925170068,0.782312925170068,0.782312925170068,0.782312925170068,0.782312925170068,0.782312925170068,0.782312925170068,0.782312925170068,0.782312925170068,0.782312925170068,0.782312925170068,0.782312925170068,0.782312925170068,0.782312925170068,0.782312925170068,0.782312925170068,0.782312925170068,0.782312925170068,0.782312925170068,0.782312925170068,0.782312925170068,0.782312925170068,0.782312925170068,0.782312925170068,0.782312925170068,0.782312925170068,0.782312925170068,0.782312925170068,0.782312925170068,0.782312925170068,0.782312925170068,0.782312925170068,0.782312925170068,0.782312925170068,0.782312925170068,0.782312925170068,0.782312925170068,0.782312925170068,0.782312925170068,0.782312925170068,0.782312925170068,0.782312925170068,0.782312925170068,0.782312925170068,0.782312925170068,0.782312925170068,0.782312925170068,0.782312925170068,0.782312925170068,0.782312925170068,0.782312925170068,0.782312925170068,0.782312925170068,0.782312925170068,0.782312925170068,0.782312925170068,0.782312925170068,0.782312925170068,0.782312925170068,0.782312925170068,0.782312925170068,0.782312925170068,0.782312925170068,0.782312925170068,0.782312925170068,0.782312925170068,0.782312925170068,0.782312925170068,0.782312925170068,0.782312925170068,0.782312925170068,0.782312925170068,0.782312925170068,0.782312925170068,0.782312925170068,0.782312925170068,0.782312925170068,0.782312925170068,0.782312925170068,0.782312925170068,0.782312925170068,0.782312925170068,0.782312925170068,0.782312925170068,0.782312925170068,0.782312925170068,0.782312925170068,0.782312925170068,0.782312925170068,0.782312925170068,0.782312925170068,0.782312925170068,0.782312925170068,0.782312925170068,0.782312925170068,0.782312925170068,0.782312925170068,0.782312925170068,0.782312925170068,0.782312925170068,0.782312925170068,0.782312925170068,0.782312925170068,0.782312925170068,0.782312925170068,0.782312925170068,0.782312925170068,0.782312925170068,0.782312925170068,0.782312925170068,0.782312925170068,0.782312925170068,0.782312925170068,0.782312925170068,0.782312925170068,0.782312925170068,0.782312925170068,0.782312925170068,0.782312925170068,0.782312925170068,0.782312925170068,0.782312925170068,0.782312925170068,0.782312925170068,0.782312925170068,0.782312925170068,0.782312925170068,0.782312925170068,0.782312925170068,0.782312925170068,0.782312925170068,0.782312925170068,0.782312925170068,0.782312925170068,0.782312925170068,0.782312925170068,0.782312925170068,0.782312925170068,0.782312925170068,0.782312925170068,0.782312925170068,0.782312925170068,0.782312925170068,0.782312925170068,0.782312925170068,0.782312925170068,0.782312925170068,0.782312925170068,0.782312925170068,0.782312925170068,0.782312925170068,0.782312925170068,0.782312925170068,0.782312925170068,0.782312925170068,0.782312925170068,0.782312925170068,0.782312925170068,0.782312925170068,0.782312925170068,0.782312925170068,0.782312925170068,0.782312925170068,0.782312925170068,0.782312925170068,0.782312925170068,0.782312925170068,0.782312925170068,0.782312925170068,0.782312925170068,0.782312925170068,0.782312925170068,0.782312925170068,0.782312925170068,0.782312925170068,0.782312925170068,0.782312925170068,0.782312925170068,0.782312925170068,0.782312925170068,0.782312925170068,0.782312925170068,0.782312925170068,0.782312925170068,0.782312925170068,0.782312925170068,0.782312925170068,0.782312925170068,0.782312925170068,0.782312925170068,0.782312925170068,0.782312925170068,0.782312925170068,0.782312925170068,0.782312925170068,0.782312925170068,0.782312925170068,0.782312925170068,0.782312925170068,0.782312925170068,0.782312925170068,0.782312925170068,0.782312925170068,0.782312925170068,0.782312925170068,0.782312925170068,0.782312925170068,0.782312925170068,0.782312925170068,0.782312925170068,0.782312925170068,0.782312925170068,0.782312925170068,0.782312925170068,0.782312925170068,0.782312925170068,0.782312925170068,0.782312925170068,0.782312925170068,0.782312925170068,0.782312925170068,0.782312925170068,0.782312925170068,0.782312925170068,0.782312925170068,0.782312925170068,0.782312925170068,0.782312925170068,0.782312925170068,0.782312925170068,0.782312925170068,0.782312925170068,0.782312925170068,0.782312925170068,0.782312925170068,0.782312925170068,0.782312925170068,0.782312925170068,0.782312925170068,0.782312925170068,0.782312925170068,0.782312925170068,0.782312925170068,0.782312925170068,0.782312925170068,0.782312925170068,0.782312925170068,0.782312925170068,0.782312925170068,0.782312925170068,0.782312925170068,0.782312925170068,0.782312925170068,0.782312925170068,0.782312925170068,0.782312925170068,0.782312925170068,0.782312925170068,0.782312925170068,0.782312925170068,0.782312925170068,0.782312925170068,0.782312925170068,0.782312925170068,0.782312925170068,0.782312925170068,0.782312925170068,0.782312925170068,0.782312925170068,0.782312925170068,0.782312925170068,0.782312925170068,0.782312925170068,0.782312925170068,0.782312925170068,0.782312925170068,0.782312925170068,0.782312925170068,0.782312925170068,0.782312925170068,0.782312925170068,0.782312925170068,0.782312925170068,0.782312925170068,0.782312925170068,0.782312925170068,0.782312925170068,0.7925170068027211,0.8061224489795918,0.826530612244898,0.8367346938775511,0.8469387755102041,0.8571428571428571,0.8673469387755102,0.8741496598639455,0.8775510204081632,0.8843537414965986,0.8877551020408163,0.8877551020408163,0.891156462585034,0.8945578231292517,0.8979591836734694,0.9013605442176871,0.9013605442176871,0.9115646258503401,0.9149659863945578,0.9149659863945578,0.9217687074829932,0.9251700680272109,0.9319727891156463,0.935374149659864,0.9421768707482994,0.9421768707482994,0.9421768707482994,0.9421768707482994,0.9421768707482994,0.9591836734693877,0.9659863945578231,0.9659863945578231,0.9693877551020408,0.9727891156462585,0.9727891156462585,0.9727891156462585,0.9761904761904762,0.9761904761904762,0.9795918367346939,0.9795918367346939,0.9829931972789115,0.9829931972789115,0.9829931972789115,0.9829931972789115,0.9829931972789115,0.9863945578231292,0.9863945578231292,0.9863945578231292,0.9863945578231292,0.9863945578231292,0.9863945578231292,0.9863945578231292,0.9863945578231292,0.9863945578231292,0.9863945578231292,0.9863945578231292,0.9863945578231292,0.9863945578231292,0.9863945578231292,0.9863945578231292,0.9863945578231292,0.9863945578231292,0.9863945578231292,0.9863945578231292,0.9863945578231292,0.9863945578231292,0.9863945578231292,0.9863945578231292,0.9863945578231292,0.9863945578231292,0.9863945578231292,0.9863945578231292,0.9863945578231292,0.9863945578231292,0.9863945578231292,0.9863945578231292,0.9863945578231292,0.9863945578231292,0.9863945578231292,0.9863945578231292,0.9863945578231292,0.9863945578231292,0.9863945578231292,0.9863945578231292,0.9863945578231292,0.9863945578231292,0.9863945578231292,0.9863945578231292,0.9863945578231292,0.9863945578231292,0.9863945578231292,0.9863945578231292,0.9863945578231292,0.9863945578231292,0.9863945578231292,0.9863945578231292,0.9863945578231292,0.9863945578231292,0.9863945578231292,0.9863945578231292,0.9863945578231292,0.9863945578231292,0.9863945578231292,0.9863945578231292,0.9863945578231292,0.9863945578231292,0.9863945578231292,0.9863945578231292,0.9863945578231292,0.9863945578231292,0.9863945578231292,0.9863945578231292,0.9863945578231292,0.9863945578231292,0.9863945578231292,0.9863945578231292,0.9863945578231292,0.9863945578231292,0.9863945578231292,0.9863945578231292,0.9863945578231292,0.9863945578231292,0.9863945578231292,0.9863945578231292,0.9863945578231292,0.9863945578231292,0.9863945578231292,0.9863945578231292,0.9863945578231292,0.9863945578231292,0.9863945578231292,0.9863945578231292,0.9863945578231292,0.9863945578231292,0.9863945578231292,0.7585034013605442,0.6632653061224489,0.5884353741496599,0.5068027210884354,0.4557823129251701,0.3979591836734694,0.3707482993197279,0.35714285714285715,0.3435374149659864,0.336734693877551,0.3299319727891156,0.3299319727891156,0.32653061224489793,0.3231292517006803,0.3163265306122449,0.3163265306122449,0.3163265306122449,0.3163265306122449,0.3163265306122449,0.3163265306122449,0.3163265306122449,0.3163265306122449,0.3163265306122449,0.3197278911564626,0.3197278911564626,0.3197278911564626,0.3197278911564626,0.3197278911564626,0.3197278911564626,0.3197278911564626,0.3197278911564626,0.3197278911564626,0.3197278911564626,0.3197278911564626,0.3197278911564626,0.3197278911564626,0.3197278911564626,0.3197278911564626,0.3197278911564626,0.3197278911564626,0.3197278911564626,0.3197278911564626,0.3197278911564626,0.3197278911564626,0.3197278911564626,0.3197278911564626,0.3197278911564626,0.3197278911564626,0.3197278911564626,0.3197278911564626,0.3197278911564626,0.3197278911564626,0.3197278911564626,0.3197278911564626,0.3197278911564626,0.3197278911564626,0.3197278911564626,0.3197278911564626,0.3197278911564626,0.3197278911564626,0.3197278911564626,0.3197278911564626,0.3197278911564626,0.3197278911564626,0.3197278911564626,0.3197278911564626,0.3197278911564626,0.3197278911564626,0.3197278911564626,0.3197278911564626,0.3197278911564626,0.3197278911564626,0.3197278911564626,0.3197278911564626,0.3197278911564626,0.3197278911564626,0.3197278911564626,0.3197278911564626,0.3197278911564626,0.3197278911564626,0.3197278911564626,0.3197278911564626,0.3197278911564626,0.3197278911564626,0.3197278911564626,0.32653061224489793,0.3299319727891156,0.3333333333333333,0.336734693877551,0.3401360544217687,0.3435374149659864,0.3469387755102041,0.35034013605442177,0.35714285714285715,0.35714285714285715,0.36394557823129253,0.3673469387755102,0.3673469387755102,0.3707482993197279,0.3707482993197279,0.3707482993197279,0.3741496598639456,0.37755102040816324,0.37755102040816324,0.37755102040816324,0.38095238095238093,0.38095238095238093,0.3843537414965986,0.3843537414965986,0.3843537414965986,0.3843537414965986,0.3843537414965986,0.3843537414965986,0.3843537414965986,0.3877551020408163,0.3877551020408163,0.3877551020408163,0.391156462585034,0.3979591836734694,0.4013605442176871,0.4217687074829932,0.4421768707482993,0.46938775510204084,0.48299319727891155,0.4931972789115646,0.5034013605442177,0.5068027210884354,0.5170068027210885,0.5204081632653061,0.5238095238095238,0.5272108843537415,0.5306122448979592,0.5340136054421769,0.5408163265306123,0.54421768707483,0.54421768707483,0.54421768707483,0.5510204081632653,0.5544217687074829,0.5578231292517006,0.5578231292517006,0.5612244897959183,0.5612244897959183,0.5612244897959183,0.5612244897959183,0.5612244897959183,0.5612244897959183,0.5612244897959183,0.5612244897959183,0.5612244897959183,0.5612244897959183,0.5612244897959183,0.5612244897959183,0.5612244897959183,0.5612244897959183,0.5612244897959183,0.5612244897959183,0.5612244897959183,0.5612244897959183,0.5612244897959183,0.5612244897959183,0.5612244897959183,0.5612244897959183,0.5612244897959183,0.5612244897959183,0.5612244897959183,0.5612244897959183,0.5612244897959183,0.5612244897959183,0.5612244897959183,0.5612244897959183,0.5612244897959183,0.5612244897959183,0.5612244897959183,0.5612244897959183,0.5612244897959183,0.5612244897959183,0.5612244897959183,0.5612244897959183,0.5612244897959183,0.5612244897959183,0.5612244897959183,0.5612244897959183,0.5612244897959183,0.5612244897959183,0.5612244897959183,0.5612244897959183,0.5612244897959183,0.5612244897959183,0.5612244897959183,0.5612244897959183,0.5612244897959183,0.5612244897959183,0.5612244897959183,0.5612244897959183,0.5612244897959183,0.5612244897959183,0.5612244897959183,0.5612244897959183,0.5612244897959183,0.5612244897959183,0.5612244897959183,0.5612244897959183,0.5612244897959183,0.5612244897959183,0.5612244897959183,0.5612244897959183,0.5612244897959183,0.5612244897959183,0.5612244897959183,0.5612244897959183,0.5612244897959183,0.5612244897959183,0.5612244897959183,0.5612244897959183,0.5612244897959183,0.5612244897959183,0.5612244897959183,0.5612244897959183,0.5612244897959183,0.5612244897959183,0.5612244897959183,0.5612244897959183,0.5612244897959183,0.5612244897959183,0.5612244897959183,0.5612244897959183,0.5612244897959183,0.5612244897959183,0.5612244897959183,0.5612244897959183,0.5612244897959183,0.5612244897959183,0.5612244897959183,0.5612244897959183,0.5612244897959183,0.5612244897959183,0.5612244897959183,0.5612244897959183,0.5612244897959183,0.5612244897959183,0.5612244897959183,0.5612244897959183,0.5612244897959183,0.5612244897959183,0.5612244897959183,0.5612244897959183,0.5612244897959183,0.5612244897959183,0.5612244897959183,0.5612244897959183,0.5612244897959183,0.5612244897959183,0.5612244897959183,0.5612244897959183,0.5612244897959183,0.5612244897959183,0.5612244897959183,0.5612244897959183,0.5612244897959183,0.5612244897959183,0.5612244897959183,0.5612244897959183,0.5612244897959183,0.5612244897959183,0.5612244897959183,0.5612244897959183,0.5612244897959183,0.5612244897959183,0.5612244897959183,0.5612244897959183,0.5612244897959183,0.5612244897959183,0.5612244897959183,0.5612244897959183,0.5612244897959183,0.5612244897959183,0.5612244897959183,0.5612244897959183,0.5612244897959183,0.5612244897959183,0.5612244897959183,0.5612244897959183,0.5612244897959183,0.5612244897959183,0.5612244897959183,0.5612244897959183,0.5612244897959183,0.5612244897959183,0.5612244897959183,0.5612244897959183,0.5612244897959183,0.5612244897959183,0.5612244897959183,0.5612244897959183,0.5612244897959183,0.5612244897959183,0.5612244897959183,0.5612244897959183,0.5612244897959183,0.5612244897959183,0.5612244897959183,0.5612244897959183,0.5612244897959183,0.5612244897959183,0.5612244897959183,0.5612244897959183,0.5612244897959183,0.5612244897959183,0.5612244897959183,0.5612244897959183,0.5612244897959183,0.5612244897959183,0.5612244897959183,0.5612244897959183,0.5612244897959183,0.5612244897959183,0.5612244897959183,0.5612244897959183,0.5612244897959183,0.5612244897959183,0.5612244897959183,0.5612244897959183,0.5612244897959183,0.5612244897959183,0.5612244897959183,0.5612244897959183,0.5612244897959183,0.5612244897959183,0.5612244897959183,0.5612244897959183,0.5612244897959183,0.5612244897959183,0.5612244897959183,0.5612244897959183,0.5612244897959183,0.5612244897959183,0.5612244897959183,0.5612244897959183,0.5612244897959183,0.5612244897959183,0.5612244897959183,0.5612244897959183,0.5612244897959183,0.5612244897959183,0.5612244897959183,0.5612244897959183,0.5612244897959183,0.5612244897959183,0.5612244897959183,0.5612244897959183,0.5612244897959183,0.5612244897959183,0.5612244897959183,0.5612244897959183,0.5612244897959183,0.5612244897959183,0.5612244897959183,0.5612244897959183,0.5612244897959183,0.5612244897959183,0.5612244897959183,0.5612244897959183,0.5612244897959183,0.5612244897959183,0.5612244897959183,0.5612244897959183,0.5612244897959183,0.5612244897959183,0.5612244897959183,0.5612244897959183,0.5612244897959183,0.5612244897959183,0.5612244897959183,0.5612244897959183,0.5612244897959183,0.5612244897959183,0.5612244897959183,0.5612244897959183,0.5612244897959183,0.5612244897959183,0.5612244897959183,0.5612244897959183,0.5612244897959183,0.5612244897959183,0.5612244897959183,0.5612244897959183,0.5612244897959183,0.5612244897959183,0.5612244897959183,0.5612244897959183,0.5612244897959183,0.5612244897959183,0.5612244897959183,0.5612244897959183,0.5612244897959183,0.5612244897959183,0.5612244897959183,0.5612244897959183,0.5612244897959183,0.5612244897959183,0.5612244897959183,0.5612244897959183,0.5612244897959183,0.5612244897959183,0.5612244897959183,0.5612244897959183,0.5612244897959183,0.5612244897959183,0.5612244897959183,0.5612244897959183,0.5612244897959183,0.5612244897959183,0.5612244897959183,0.5612244897959183,0.5612244897959183,0.5612244897959183,0.5612244897959183,0.5612244897959183,0.5612244897959183,0.5612244897959183,0.5612244897959183,0.5612244897959183,0.5612244897959183,0.5612244897959183,0.5612244897959183,0.5612244897959183,0.5612244897959183,0.5612244897959183,0.5612244897959183,0.5612244897959183,0.5612244897959183,0.5612244897959183,0.5612244897959183,0.5612244897959183,0.5612244897959183,0.5612244897959183,0.5612244897959183,0.5612244897959183,0.5034013605442177,0.41156462585034015,0.336734693877551,0.23469387755102042,0.16666666666666666,0.08843537414965986,0.047619047619047616,0.02040816326530612,0,-0.01020408163265306,-0.013605442176870748,-0.017006802721088437,-0.017006802721088437,-0.02040816326530612,-0.02040816326530612,-0.02040816326530612,-0.02040816326530612,-0.02040816326530612,-0.02040816326530612,-0.02040816326530612,-0.02040816326530612,-0.02040816326530612,-0.02040816326530612,-0.02040816326530612,-0.02040816326530612,-0.02040816326530612,-0.02040816326530612,-0.02040816326530612,-0.02040816326530612,-0.017006802721088437,-0.013605442176870748,-0.013605442176870748,-0.013605442176870748,-0.013605442176870748,-0.013605442176870748,-0.013605442176870748,-0.013605442176870748,-0.013605442176870748,-0.013605442176870748,-0.013605442176870748,-0.013605442176870748,-0.013605442176870748,-0.013605442176870748,-0.013605442176870748,-0.013605442176870748,-0.013605442176870748,-0.013605442176870748,-0.013605442176870748,-0.013605442176870748,-0.013605442176870748,-0.013605442176870748,-0.013605442176870748,-0.013605442176870748,-0.013605442176870748,-0.013605442176870748,-0.013605442176870748,-0.013605442176870748,-0.013605442176870748,-0.013605442176870748,-0.013605442176870748,-0.013605442176870748,-0.013605442176870748,-0.013605442176870748,-0.013605442176870748,-0.013605442176870748,-0.013605442176870748,-0.013605442176870748,-0.013605442176870748,-0.013605442176870748,-0.013605442176870748,-0.013605442176870748,-0.013605442176870748,-0.013605442176870748,-0.013605442176870748,-0.013605442176870748,-0.013605442176870748,-0.013605442176870748,-0.013605442176870748,-0.013605442176870748,-0.013605442176870748,-0.013605442176870748,-0.013605442176870748,-0.013605442176870748,-0.013605442176870748,-0.013605442176870748,-0.013605442176870748,-0.013605442176870748,-0.013605442176870748,-0.013605442176870748,-0.013605442176870748,-0.013605442176870748,-0.013605442176870748,-0.013605442176870748,-0.013605442176870748,-0.013605442176870748,-0.013605442176870748,-0.013605442176870748,-0.013605442176870748,-0.013605442176870748,-0.013605442176870748,-0.013605442176870748,-0.013605442176870748,-0.013605442176870748,-0.013605442176870748,-0.013605442176870748,-0.013605442176870748,-0.013605442176870748,-0.013605442176870748,-0.013605442176870748,-0.013605442176870748,-0.013605442176870748,-0.013605442176870748,-0.013605442176870748,-0.013605442176870748,-0.013605442176870748,-0.013605442176870748,-0.013605442176870748,-0.013605442176870748,-0.013605442176870748,-0.013605442176870748,-0.013605442176870748,-0.013605442176870748,-0.013605442176870748,-0.013605442176870748,-0.013605442176870748,-0.013605442176870748,-0.013605442176870748,-0.013605442176870748,-0.013605442176870748,-0.013605442176870748,-0.013605442176870748,-0.013605442176870748,-0.013605442176870748,-0.013605442176870748,-0.013605442176870748,-0.013605442176870748,-0.013605442176870748,-0.013605442176870748,-0.013605442176870748,-0.013605442176870748,-0.013605442176870748,-0.013605442176870748,-0.013605442176870748,-0.013605442176870748,-0.013605442176870748,-0.013605442176870748,-0.013605442176870748,-0.013605442176870748,-0.013605442176870748,-0.013605442176870748,-0.013605442176870748,-0.013605442176870748,-0.013605442176870748,-0.013605442176870748,-0.013605442176870748,-0.013605442176870748,-0.013605442176870748,-0.013605442176870748,-0.013605442176870748,-0.013605442176870748,-0.013605442176870748,-0.013605442176870748,-0.013605442176870748,-0.013605442176870748,-0.013605442176870748,-0.013605442176870748,-0.013605442176870748,-0.013605442176870748,-0.013605442176870748,-0.013605442176870748,-0.013605442176870748,-0.013605442176870748,-0.013605442176870748,-0.013605442176870748,-0.013605442176870748,-0.013605442176870748,-0.013605442176870748,-0.013605442176870748,-0.013605442176870748,-0.013605442176870748,-0.013605442176870748,-0.013605442176870748,-0.013605442176870748,-0.013605442176870748,-0.013605442176870748,-0.013605442176870748,-0.013605442176870748,-0.013605442176870748,-0.013605442176870748,-0.013605442176870748,-0.013605442176870748,-0.013605442176870748,-0.013605442176870748,-0.013605442176870748,-0.013605442176870748,-0.013605442176870748,-0.013605442176870748,-0.013605442176870748,-0.013605442176870748,-0.013605442176870748,-0.013605442176870748,-0.013605442176870748,-0.013605442176870748,-0.013605442176870748,-0.013605442176870748,-0.013605442176870748,-0.013605442176870748,-0.013605442176870748,-0.013605442176870748,-0.013605442176870748,-0.013605442176870748,-0.013605442176870748,-0.013605442176870748,-0.013605442176870748,-0.013605442176870748,-0.013605442176870748,-0.013605442176870748,-0.013605442176870748,-0.013605442176870748,-0.013605442176870748,-0.013605442176870748,-0.013605442176870748,-0.013605442176870748,-0.013605442176870748,-0.013605442176870748,-0.013605442176870748,-0.013605442176870748,-0.013605442176870748,-0.013605442176870748,-0.013605442176870748,-0.013605442176870748,-0.013605442176870748,-0.013605442176870748,-0.013605442176870748,-0.013605442176870748,-0.013605442176870748,-0.013605442176870748,-0.013605442176870748,-0.013605442176870748,-0.013605442176870748,-0.013605442176870748,-0.013605442176870748,-0.013605442176870748,-0.013605442176870748,-0.013605442176870748,-0.013605442176870748,-0.013605442176870748,-0.013605442176870748,-0.013605442176870748,-0.013605442176870748,-0.013605442176870748,-0.013605442176870748,-0.013605442176870748,-0.013605442176870748,-0.013605442176870748,-0.013605442176870748,-0.013605442176870748,-0.013605442176870748,-0.013605442176870748,-0.013605442176870748,-0.013605442176870748,-0.013605442176870748,-0.013605442176870748,-0.013605442176870748,-0.013605442176870748,-0.013605442176870748,-0.013605442176870748,-0.013605442176870748,-0.013605442176870748,-0.013605442176870748,-0.013605442176870748,-0.013605442176870748,-0.01020408163265306,-0.01020408163265306,-0.006802721088435374,0.003401360544217687,0.006802721088435374,0.017006802721088437,0.027210884353741496,0.030612244897959183,0.03741496598639456,0.04081632653061224,0.04421768707482993,0.05102040816326531,0.05442176870748299,0.05782312925170068,0.06462585034013606,0.06802721088435375,0.07142857142857142,0.0782312925170068,0.08163265306122448,0.09183673469387756,0.09523809523809523,0.10204081632653061,0.10884353741496598,0.11224489795918367,0.12585034013605442,0.1326530612244898,0.14965986394557823,0.1598639455782313,0.16666666666666666,0.17687074829931973,0.1836734693877551,0.19047619047619047,0.20748299319727892,0.22108843537414966,0.23469387755102042,0.24489795918367346,0.25170068027210885,0.2619047619047619,0.2687074829931973,0.272108843537415,0.2789115646258503,0.2857142857142857,0.29591836734693877,0.30952380952380953,0.32653061224489793,0.3299319727891156,0.3299319727891156,0.3299319727891156,0.3299319727891156,0.3299319727891156,0.3299319727891156,0.3299319727891156,0.3299319727891156,0.3299319727891156,0.3299319727891156,0.3299319727891156,0.3299319727891156,0.3299319727891156,0.3299319727891156,0.3299319727891156,0.3299319727891156,0.3299319727891156,0.3299319727891156,0.3299319727891156,0.3299319727891156,0.3299319727891156,0.3299319727891156,0.3299319727891156,0.3299319727891156,0.3299319727891156,0.3299319727891156,0.3299319727891156,0.3299319727891156,0.3299319727891156,0.3299319727891156,0.3299319727891156,0.3299319727891156,0.3299319727891156,0.3299319727891156,0.3299319727891156,0.3299319727891156,0.3299319727891156,0.3299319727891156,0.3299319727891156,0.3299319727891156,0.3299319727891156,0.3299319727891156,0.3299319727891156,0.3299319727891156,0.3299319727891156,0.3299319727891156,0.3299319727891156,0.3299319727891156,0.3299319727891156,0.3299319727891156,0.3299319727891156,0.3299319727891156,0.3299319727891156,0.3299319727891156,0.3299319727891156,0.3299319727891156,0.3299319727891156,0.3299319727891156,0.3299319727891156,0.3299319727891156,0.3299319727891156,0.3299319727891156,0.3299319727891156,0.3299319727891156,0.3299319727891156,0.3299319727891156,0.3299319727891156,0.3299319727891156,0.3299319727891156,0.3299319727891156,0.3299319727891156,0.3299319727891156,0.3299319727891156,0.3299319727891156,0.3299319727891156,0.3401360544217687,0.35714285714285715,0.3673469387755102,0.38095238095238093,0.3979591836734694,0.41156462585034015,0.41836734693877553,0.42517006802721086,0.43197278911564624,0.4387755102040816,0.445578231292517,0.4489795918367347,0.46258503401360546,0.47278911564625853,0.4897959183673469,0.5,0.5068027210884354,0.5170068027210885,0.5238095238095238,0.5340136054421769,0.5510204081632653,0.5680272108843537,0.5884353741496599,0.6020408163265306,0.608843537414966,0.6156462585034014,0.6156462585034014,0.6190476190476191,0.6190476190476191,0.6224489795918368,0.6224489795918368,0.6224489795918368,0.6224489795918368,0.6156462585034014,0.6156462585034014,0.6122448979591837,0.6122448979591837,0.6122448979591837,0.6122448979591837,0.6122448979591837,0.6122448979591837,0.6122448979591837,0.6122448979591837,0.6122448979591837,0.6122448979591837,0.6122448979591837,0.6122448979591837,0.6122448979591837,0.6122448979591837,0.6122448979591837,0.6122448979591837,0.6122448979591837,0.6122448979591837,0.6122448979591837,0.6122448979591837,0.6122448979591837,0.6122448979591837,0.6122448979591837,0.6122448979591837,0.6122448979591837,0.6122448979591837,0.6122448979591837,0.6122448979591837,0.6122448979591837,0.6122448979591837,0.6122448979591837,0.6122448979591837,0.6122448979591837,0.6122448979591837,0.6122448979591837,0.6122448979591837,0.6122448979591837,0.6122448979591837,0.6122448979591837,0.6122448979591837,0.6122448979591837,0.6122448979591837,0.6122448979591837,0.6122448979591837,0.6122448979591837,0.6122448979591837,0.6122448979591837,0.6122448979591837,0.6122448979591837,0.6122448979591837,0.6122448979591837,0.6122448979591837,0.6122448979591837,0.6122448979591837,0.6122448979591837,0.6122448979591837,0.6122448979591837,0.6122448979591837,0.6122448979591837,0.6122448979591837,0.6122448979591837,0.6122448979591837,0.6122448979591837,0.6122448979591837,0.6122448979591837,0.6122448979591837,0.6122448979591837,0.6122448979591837,0.6122448979591837,0.6122448979591837,0.6122448979591837,0.6122448979591837,0.6122448979591837,0.6122448979591837,0.6122448979591837,0.6122448979591837,0.6122448979591837,0.6122448979591837,0.6122448979591837,0.6122448979591837,0.6122448979591837,0.6122448979591837,0.6122448979591837,0.6122448979591837,0.6122448979591837,0.6122448979591837,0.6122448979591837,0.6122448979591837,0.6122448979591837,0.6122448979591837,0.6122448979591837,0.6122448979591837,0.6122448979591837,0.6122448979591837,0.6122448979591837,0.6122448979591837,0.6122448979591837,0.6122448979591837,0.6122448979591837,0.6122448979591837,0.6122448979591837,0.6122448979591837,0.6122448979591837,0.6122448979591837,0.6122448979591837,0.6122448979591837,0.6122448979591837,0.6122448979591837,0.6122448979591837,0.6122448979591837,0.6122448979591837,0.6122448979591837,0.6122448979591837,0.6122448979591837,0.6122448979591837,0.6122448979591837,0.6122448979591837,0.6122448979591837,0.6122448979591837,0.6122448979591837,0.6122448979591837,0.6122448979591837,0.6122448979591837,0.6122448979591837,0.6122448979591837,0.6122448979591837,0.6122448979591837,0.6122448979591837,0.6122448979591837,0.6122448979591837,0.6122448979591837,0.6122448979591837,0.6122448979591837,0.6122448979591837,0.6122448979591837,0.6122448979591837,0.6122448979591837,0.6122448979591837,0.6122448979591837,0.6122448979591837,0.6122448979591837,0.6122448979591837,0.6122448979591837,0.6122448979591837,0.6122448979591837,0.6122448979591837,0.6122448979591837,0.6122448979591837,0.6122448979591837,0.6122448979591837,0.608843537414966,0.6054421768707483,0.6020408163265306,0.6020408163265306,0.5986394557823129,0.5986394557823129,0.5952380952380952,0.5918367346938775,0.5918367346938775,0.5918367346938775,0.5918367346938775,0.5918367346938775,0.5918367346938775,0.5918367346938775,0.5918367346938775,0.5918367346938775,0.5918367346938775,0.5918367346938775,0.5918367346938775,0.5918367346938775,0.5918367346938775,0.5918367346938775,0.5918367346938775,0.5918367346938775,0.5918367346938775,0.5918367346938775,0.5918367346938775,0.5918367346938775,0.5918367346938775,0.5918367346938775,0.5918367346938775,0.5918367346938775,0.5918367346938775,0.5918367346938775,0.5918367346938775,0.5918367346938775,0.5918367346938775,0.5918367346938775,0.5918367346938775,0.5918367346938775,0.5918367346938775,0.5918367346938775,0.5918367346938775,0.5918367346938775,0.5918367346938775,0.5918367346938775,0.5918367346938775,0.5918367346938775,0.5918367346938775,0.5918367346938775,0.5918367346938775,0.5918367346938775,0.5918367346938775,0.5918367346938775,0.5918367346938775,0.5918367346938775,0.5918367346938775,0.5918367346938775,0.5918367346938775,0.5918367346938775,0.5918367346938775,0.5918367346938775,0.5918367346938775,0.5918367346938775,0.5918367346938775,0.5918367346938775,0.5918367346938775,0.5918367346938775,0.5918367346938775,0.5918367346938775,0.5918367346938775,0.5918367346938775,0.5918367346938775,0.5918367346938775,0.5918367346938775,0.5918367346938775,0.5918367346938775,0.5918367346938775,0.5918367346938775,0.5918367346938775,0.5918367346938775,0.5918367346938775,0.5918367346938775,0.5918367346938775,0.5918367346938775,0.5918367346938775,0.5918367346938775,0.5918367346938775,0.5918367346938775,0.5918367346938775,0.5918367346938775,0.5918367346938775,0.5918367346938775,0.5918367346938775,0.5918367346938775,0.5918367346938775,0.5918367346938775,0.5918367346938775,0.5918367346938775,0.5918367346938775,0.5918367346938775,0.5918367346938775,0.5918367346938775,0.5918367346938775,0.5918367346938775,0.5918367346938775,0.5918367346938775,0.5918367346938775,0.5918367346938775,0.5918367346938775,0.5918367346938775,0.5918367346938775,0.5918367346938775,0.5918367346938775,0.5918367346938775,0.5918367346938775,0.5918367346938775,0.5918367346938775,0.5918367346938775,0.5918367346938775,0.5918367346938775,0.5918367346938775,0.5918367346938775,0.5918367346938775,0.5918367346938775,0.5918367346938775,0.5918367346938775,0.5918367346938775,0.5918367346938775,0.5918367346938775,0.5918367346938775,0.5918367346938775,0.5918367346938775,0.5918367346938775,0.5918367346938775,0.5918367346938775,0.5918367346938775,0.5918367346938775,0.5918367346938775,0.5918367346938775,0.5918367346938775,0.5918367346938775,0.5918367346938775,0.5918367346938775,0.5918367346938775,0.5918367346938775,0.5918367346938775,0.5918367346938775,0.5918367346938775,0.5918367346938775,0.5918367346938775,0.5918367346938775,0.5918367346938775,0.5918367346938775,0.5918367346938775,0.5918367346938775,0.5918367346938775,0.5918367346938775,0.5918367346938775,0.5918367346938775,0.5918367346938775,0.5918367346938775,0.5918367346938775,0.5918367346938775,0.5918367346938775,0.5918367346938775,0.5918367346938775,0.5918367346938775,0.5918367346938775,0.5918367346938775,0.5918367346938775,0.5918367346938775,0.5918367346938775,0.5918367346938775,0.5918367346938775,0.5918367346938775,0.5918367346938775,0.5918367346938775,0.5918367346938775,0.5918367346938775,0.5918367346938775,0.5918367346938775,0.5918367346938775,0.5918367346938775,0.5918367346938775,0.5918367346938775,0.5918367346938775,0.5918367346938775,0.5918367346938775,0.5986394557823129,0.6054421768707483,0.6190476190476191,0.6292517006802721,0.6564625850340136,0.6802721088435374,0.7006802721088435,0.7380952380952381,0.7653061224489796,0.826530612244898,0.8673469387755102,0.9013605442176871,0.9285714285714286,0.9421768707482994,0.95578231292517,0.9693877551020408,0.9761904761904762,0.9829931972789115,0.9931972789115646,0.9965986394557823,1.0034013605442176,1.0034013605442176,1.0068027210884354,1.0068027210884354,1.0068027210884354,1.0068027210884354,1.0068027210884354,1.0068027210884354,1.0068027210884354,1.0068027210884354,1.0068027210884354,1.0068027210884354,1.0068027210884354,1.0068027210884354,1.0068027210884354,1.0068027210884354,1.0068027210884354,1.0068027210884354,1.0068027210884354,1.0068027210884354,1.0068027210884354,1.0068027210884354,1.0068027210884354,1.0068027210884354,1.0068027210884354,1.0068027210884354,1.0068027210884354,1.0068027210884354,1.0068027210884354,1.0068027210884354,1.0068027210884354,1.0510204081632653,1.0918367346938775,1.1462585034013606,1.1734693877551021,1.1870748299319729,1.1938775510204083,1.1972789115646258,1.1972789115646258,1.1972789115646258,1.1972789115646258,1.1972789115646258,1.1972789115646258,1.1972789115646258,1.1972789115646258,1.1938775510204083,1.1904761904761905,1.1870748299319729,1.1802721088435375,1.163265306122449,1.1462585034013606,1.1224489795918366,1.119047619047619,1.119047619047619,1.119047619047619,1.119047619047619,1.119047619047619,1.119047619047619,1.119047619047619,1.119047619047619,1.119047619047619,1.119047619047619,1.119047619047619,1.119047619047619,1.119047619047619,1.119047619047619,1.1224489795918366,1.1224489795918366,1.1224489795918366,1.1224489795918366,1.1224489795918366,1.1224489795918366,1.1224489795918366,1.1224489795918366,1.1224489795918366,1.1224489795918366,1.1224489795918366,1.1224489795918366,1.1224489795918366,1.1224489795918366,1.1224489795918366,1.1224489795918366,1.1224489795918366,1.1224489795918366,1.1224489795918366,1.1224489795918366,1.1224489795918366,1.1224489795918366,1.1224489795918366,1.1224489795918366,1.1224489795918366,1.1224489795918366,1.1224489795918366,1.1224489795918366,1.1224489795918366,1.1224489795918366,1.1224489795918366,1.1224489795918366,1.1224489795918366,1.1224489795918366,1.1224489795918366,1.1224489795918366,1.1224489795918366,1.1224489795918366,1.1224489795918366,1.1224489795918366,1.1224489795918366,1.1224489795918366,1.1224489795918366,1.1224489795918366,1.1224489795918366,1.1224489795918366,1.1224489795918366,1.1224489795918366,1.1224489795918366,1.1224489795918366,1.1224489795918366,1.1224489795918366,1.1224489795918366,1.1224489795918366,1.1224489795918366,1.1224489795918366,1.1224489795918366,1.1224489795918366,1.1224489795918366,1.1224489795918366,1.1224489795918366,1.1224489795918366,1.1224489795918366,1.1224489795918366,1.1224489795918366,1.1224489795918366,1.1224489795918366,1.1224489795918366,1.1224489795918366,1.1224489795918366,1.1224489795918366,1.1224489795918366,1.1224489795918366,1.1224489795918366,1.1224489795918366,1.1224489795918366,1.1224489795918366,1.1224489795918366,1.1224489795918366,1.1224489795918366,1.1224489795918366,1.1224489795918366,1.1224489795918366,1.1224489795918366,1.1224489795918366,1.1224489795918366,1.1224489795918366,1.1224489795918366,1.1224489795918366,1.1224489795918366,1.1224489795918366,1.1224489795918366,1.1224489795918366,1.1224489795918366,1.1224489795918366,1.1224489795918366,1.1224489795918366,1.1224489795918366,1.1224489795918366,1.1224489795918366,1.1224489795918366,1.1224489795918366,1.1224489795918366,1.1224489795918366,1.08843537414966,1.030612244897959,0.9795918367346939,0.8945578231292517,0.8333333333333334,0.7687074829931972,0.7312925170068028,0.7074829931972789,0.6700680272108843,0.6530612244897959,0.6428571428571429,0.6292517006802721,0.6292517006802721,0.6224489795918368,0.6224489795918368,0.6224489795918368,0.6190476190476191,0.6190476190476191,0.6190476190476191,0.6190476190476191,0.6190476190476191,0.6190476190476191,0.6190476190476191,0.6190476190476191,0.6190476190476191,0.6190476190476191,0.6190476190476191,0.6190476190476191,0.6190476190476191,0.6190476190476191,0.6190476190476191,0.6190476190476191,0.6190476190476191,0.6190476190476191,0.6190476190476191,0.6190476190476191,0.6190476190476191,0.6190476190476191,0.6156462585034014,0.6156462585034014,0.6156462585034014,0.6156462585034014,0.6156462585034014,0.6156462585034014,0.6156462585034014,0.6156462585034014,0.6224489795918368,0.6428571428571429,0.6564625850340136,0.6632653061224489,0.673469387755102,0.6802721088435374,0.6802721088435374,0.6836734693877551,0.6836734693877551,0.6836734693877551,0.6836734693877551,0.6870748299319728,0.6870748299319728,0.6904761904761905,0.6904761904761905,0.6904761904761905,0.6904761904761905,0.6904761904761905,0.6904761904761905,0.6904761904761905,0.6904761904761905,0.6904761904761905,0.6904761904761905,0.6904761904761905,0.6904761904761905,0.6904761904761905,0.6904761904761905,0.6904761904761905,0.6904761904761905,0.6904761904761905,0.6904761904761905,0.6904761904761905,0.6904761904761905,0.6904761904761905,0.6904761904761905,0.6904761904761905,0.6904761904761905,0.6904761904761905,0.6904761904761905,0.6904761904761905,0.6904761904761905,0.6904761904761905,0.6904761904761905,0.6904761904761905,0.6904761904761905,0.6904761904761905,0.6904761904761905,0.6904761904761905,0.6904761904761905,0.6904761904761905,0.6870748299319728,0.6870748299319728,0.6870748299319728,0.6870748299319728,0.6870748299319728,0.6870748299319728,0.6836734693877551,0.6836734693877551,0.6836734693877551,0.6836734693877551,0.6836734693877551,0.6836734693877551,0.6836734693877551,0.6836734693877551,0.6836734693877551,0.6836734693877551,0.6836734693877551,0.6836734693877551,0.6836734693877551,0.6836734693877551,0.6836734693877551,0.6836734693877551,0.6836734693877551,0.6836734693877551,0.6836734693877551,0.6836734693877551,0.6836734693877551,0.6836734693877551,0.6836734693877551,0.6836734693877551,0.6836734693877551,0.6836734693877551,0.6836734693877551,0.6836734693877551,0.6836734693877551,0.6836734693877551,0.6836734693877551,0.6836734693877551,0.6836734693877551,0.6836734693877551,0.6836734693877551,0.6836734693877551,0.6836734693877551,0.6836734693877551,0.6836734693877551,0.6836734693877551,0.6836734693877551,0.6836734693877551,0.6836734693877551,0.6836734693877551,0.6836734693877551,0.6836734693877551,0.6836734693877551,0.6836734693877551,0.6836734693877551,0.6836734693877551,0.6836734693877551,0.6836734693877551,0.6836734693877551,0.6836734693877551,0.6836734693877551,0.6836734693877551,0.6836734693877551,0.6836734693877551,0.6836734693877551,0.6836734693877551,0.6836734693877551,0.6836734693877551,0.6836734693877551,0.6836734693877551,0.6836734693877551,0.6836734693877551,0.6836734693877551,0.6836734693877551,0.6836734693877551,0.6836734693877551,0.6836734693877551,0.6836734693877551,0.6836734693877551,0.6836734693877551,0.6836734693877551,0.6836734693877551,0.6836734693877551,0.6836734693877551,0.6836734693877551,0.6836734693877551,0.6836734693877551,0.6836734693877551,0.6836734693877551,0.6836734693877551,0.6836734693877551,0.6836734693877551,0.6836734693877551,0.6836734693877551,0.6836734693877551,0.6836734693877551,0.6836734693877551,0.6836734693877551,0.6802721088435374,0.673469387755102,0.6700680272108843,0.6700680272108843,0.6666666666666666,0.6768707482993197,0.7006802721088435,0.7108843537414966,0.7210884353741497,0.7312925170068028,0.7380952380952381,0.7517006802721088,0.7551020408163265,0.7585034013605442,0.7653061224489796,0.7653061224489796,0.7687074829931972,0.7755102040816326,0.7789115646258503,0.7789115646258503,0.7789115646258503,0.7789115646258503,0.7789115646258503,0.7789115646258503,0.7789115646258503,0.7789115646258503,0.7789115646258503,0.7789115646258503,0.7789115646258503,0.7789115646258503,0.7789115646258503,0.7789115646258503,0.7789115646258503,0.7789115646258503,0.7789115646258503,0.7789115646258503,0.7755102040816326,0.7721088435374149,0.7653061224489796,0.7653061224489796,0.7585034013605442,0.7551020408163265,0.7517006802721088,0.7482993197278912,0.7448979591836735,0.7414965986394558,0.7380952380952381,0.7380952380952381,0.7346938775510204,0.7346938775510204,0.7346938775510204,0.7312925170068028,0.7312925170068028,0.7278911564625851,0.7278911564625851,0.7278911564625851,0.7278911564625851,0.7278911564625851,0.7278911564625851,0.7278911564625851,0.7278911564625851,0.7244897959183674,0.7244897959183674,0.7244897959183674,0.7244897959183674,0.7244897959183674,0.7244897959183674,0.7244897959183674,0.7244897959183674,0.7210884353741497,0.7210884353741497,0.7210884353741497,0.7210884353741497,0.7210884353741497,0.7210884353741497,0.7210884353741497,0.7210884353741497,0.717687074829932,0.717687074829932,0.717687074829932,0.717687074829932,0.717687074829932,0.7142857142857143,0.7142857142857143,0.7142857142857143,0.7108843537414966,0.7108843537414966,0.7074829931972789,0.7006802721088435,0.6836734693877551,0.6394557823129252,0.5952380952380952,0.54421768707483,0.5306122448979592,0.5238095238095238,0.5136054421768708,0.5102040816326531,0.5034013605442177,0.5034013605442177,0.5,0.4931972789115646,0.48299319727891155,0.43197278911564624,0.3945578231292517,0.35714285714285715,0.336734693877551,0.32653061224489793,0.3163265306122449,0.3163265306122449,0.3163265306122449,0.3163265306122449,0.3163265306122449,0.3163265306122449,0.3197278911564626,0.3231292517006803,0.32653061224489793,0.32653061224489793,0.32653061224489793,0.3299319727891156,0.3299319727891156,0.3299319727891156,0.3299319727891156,0.3299319727891156,0.3299319727891156,0.3299319727891156,0.3299319727891156,0.3299319727891156,0.3299319727891156,0.3299319727891156,0.3299319727891156,0.3299319727891156,0.3299319727891156,0.3299319727891156,0.3299319727891156,0.3299319727891156,0.3299319727891156,0.3299319727891156,0.3299319727891156,0.3299319727891156,0.3299319727891156,0.3299319727891156,0.3299319727891156,0.3299319727891156,0.3299319727891156,0.3299319727891156,0.3299319727891156,0.3299319727891156,0.3299319727891156,0.3299319727891156,0.3299319727891156,0.3299319727891156,0.3299319727891156,0.3299319727891156,0.3299319727891156,0.3299319727891156,0.3299319727891156,0.3299319727891156,0.3299319727891156,0.3299319727891156,0.3299319727891156,0.3299319727891156,0.3299319727891156,0.3299319727891156,0.3299319727891156,0.3299319727891156,0.3299319727891156,0.3299319727891156,0.3299319727891156,0.3299319727891156,0.3299319727891156,0.3299319727891156,0.3299319727891156,0.3299319727891156,0.3299319727891156,0.3299319727891156,0.3299319727891156,0.3299319727891156,0.3299319727891156,0.3299319727891156,0.3299319727891156,0.3299319727891156,0.3299319727891156,0.3299319727891156,0.3299319727891156,0.3299319727891156,0.3299319727891156,0.3299319727891156,0.3299319727891156,0.3299319727891156,0.3299319727891156,0.3299319727891156,0.3299319727891156,0.3299319727891156,0.3299319727891156,0.3299319727891156,0.3299319727891156,0.3299319727891156,0.3299319727891156,0.3299319727891156,0.3299319727891156,0.3333333333333333,0.3435374149659864,0.35374149659863946,0.35714285714285715,0.36054421768707484,0.35714285714285715,0.3299319727891156,0.2891156462585034,0.25170068027210885,0.19387755102040816,0.17346938775510204,0.16326530612244897,0.16326530612244897,0.16326530612244897,0.16326530612244897,0.16326530612244897,0.16326530612244897,0.16326530612244897,0.16326530612244897,0.16326530612244897,0.16326530612244897,0.16326530612244897,0.16326530612244897,0.16326530612244897,0.16326530612244897,0.16326530612244897,0.16326530612244897,0.16326530612244897,0.16326530612244897,0.16326530612244897,0.16326530612244897,0.16326530612244897,0.16326530612244897,0.16326530612244897,0.16326530612244897,0.16326530612244897,0.16326530612244897,0.16326530612244897,0.16326530612244897,0.16326530612244897,0.16666666666666666,0.19727891156462585,0.2108843537414966,0.22108843537414966,0.23809523809523808,0.24489795918367346,0.25510204081632654,0.2619047619047619,0.2653061224489796,0.29931972789115646,0.48639455782312924,0.5476190476190477,0.6564625850340136,0.7108843537414966,0.7789115646258503,0.826530612244898,0.8673469387755102,0.8877551020408163,0.891156462585034,0.891156462585034,0.891156462585034,0.891156462585034,0.891156462585034,0.891156462585034,0.891156462585034,0.891156462585034,0.891156462585034,0.891156462585034,0.891156462585034,0.891156462585034,0.891156462585034,0.891156462585034,0.891156462585034,0.891156462585034,0.891156462585034,0.9115646258503401,0.935374149659864,0.9455782312925171,0.9489795918367347,0.95578231292517,0.9591836734693877,0.9659863945578231,0.9693877551020408,0.9727891156462585,0.9795918367346939,0.9829931972789115,0.9829931972789115,0.9863945578231292,0.9897959183673469,0.9965986394557823,0.9965986394557823,1.0068027210884354,1.010204081632653,1.010204081632653,1.010204081632653,1.010204081632653,1.010204081632653,1.010204081632653,1.010204081632653,1.010204081632653,1.010204081632653,1.010204081632653,1.010204081632653,1.010204081632653,1.010204081632653,1.010204081632653,1.010204081632653,1.010204081632653,1.010204081632653,1.010204081632653,1.010204081632653,1.010204081632653,1.010204081632653,1.010204081632653,1.010204081632653,1.010204081632653,1.010204081632653,1.010204081632653,1.010204081632653,1.010204081632653,1.010204081632653,1.010204081632653,1.010204081632653,1.010204081632653,1.010204081632653,1.010204081632653,1.010204081632653,1.010204081632653,1.010204081632653,1.010204081632653,1.010204081632653,0.8197278911564626,0.6972789115646258,0.54421768707483,0.4523809523809524,0.36394557823129253,0.29591836734693877,0.272108843537415,0.2585034013605442,0.24829931972789115,0.24829931972789115,0.24489795918367346,0.23809523809523808,0.23469387755102042,0.22789115646258504,0.22108843537414966,0.21428571428571427,0.20748299319727892,0.19727891156462585,0.19047619047619047,0.1836734693877551,0.17687074829931973,0.16666666666666666,0.1564625850340136,0.15306122448979592,0.14285714285714285,0.13945578231292516,0.1360544217687075,0.1326530612244898,0.1326530612244898,0.1292517006802721,0.1292517006802721,0.1292517006802721,0.1292517006802721,0.1292517006802721,0.1292517006802721,0.1292517006802721,0.1292517006802721,0.1292517006802721,0.1292517006802721,0.1292517006802721,0.1292517006802721,0.1292517006802721,0.1292517006802721,0.1292517006802721,0.1292517006802721,0.1292517006802721,0.1292517006802721,0.1292517006802721,0.1292517006802721,0.1292517006802721,0.1292517006802721,0.1292517006802721,0.1292517006802721,0.1292517006802721,0.1292517006802721,0.1292517006802721,0.1292517006802721,0.1292517006802721,0.1292517006802721,0.1292517006802721,0.1292517006802721,0.1292517006802721,0.1292517006802721,0.1292517006802721,0.1292517006802721,0.1292517006802721,0.1292517006802721,0.1292517006802721,0.1292517006802721,0.1292517006802721,0.1292517006802721,0.1292517006802721,0.1292517006802721,0.1292517006802721,0.1292517006802721,0.1292517006802721,0.1292517006802721,0.1292517006802721,0.1292517006802721,0.1292517006802721,0.1292517006802721,0.1292517006802721,0.1292517006802721,0.1292517006802721,0.1292517006802721,0.1292517006802721,0.1292517006802721,0.1292517006802721,0.1292517006802721,0.1292517006802721,0.1292517006802721,0.1292517006802721,0.1292517006802721,0.1292517006802721,0.1292517006802721,0.1292517006802721,0.1292517006802721,0.1292517006802721,0.1292517006802721,0.1292517006802721,0.1292517006802721,0.1292517006802721,0.1292517006802721,0.1292517006802721,0.1292517006802721,0.1292517006802721,0.1292517006802721,0.1292517006802721,0.1292517006802721,0.1292517006802721,0.1292517006802721,0.1292517006802721,0.1292517006802721,0.1292517006802721,0.1292517006802721,0.1292517006802721,0.1292517006802721,0.1292517006802721,0.1292517006802721,0.1292517006802721,0.1292517006802721,0.1292517006802721,0.1292517006802721,0.1292517006802721,0.1292517006802721,0.1292517006802721,0.1292517006802721,0.1292517006802721,0.1292517006802721,0.1292517006802721,0.1292517006802721,0.1292517006802721,0.1292517006802721,0.1292517006802721,0.14625850340136054,0.1598639455782313,0.16666666666666666,0.17346938775510204,0.17687074829931973,0.17687074829931973,0.17687074829931973,0.17346938775510204,0.17346938775510204,0.17346938775510204,0.17346938775510204,0.17346938775510204,0.17346938775510204,0.17346938775510204,0.17346938775510204,0.17346938775510204,0.17346938775510204,0.17346938775510204,0.17346938775510204,0.17346938775510204,0.17346938775510204,0.17346938775510204,0.17346938775510204,0.17346938775510204,0.17346938775510204,0.17346938775510204,0.17346938775510204,0.17346938775510204,0.17346938775510204,0.17346938775510204,0.17346938775510204,0.17346938775510204,0.17346938775510204,0.17346938775510204,0.17346938775510204,0.17346938775510204,0.17346938775510204],"y":[-2.96031746031746,-2.96031746031746,-2.96031746031746,-2.96031746031746,-2.96031746031746,-2.96031746031746,-2.96031746031746,-2.96031746031746,-2.96031746031746,-2.96031746031746,-2.96031746031746,-2.96031746031746,-2.96031746031746,-2.96031746031746,-2.96031746031746,-2.96031746031746,-2.96031746031746,-2.96031746031746,-2.96031746031746,-2.96031746031746,-2.96031746031746,-2.96031746031746,-2.96031746031746,-2.96031746031746,-2.96031746031746,-2.96031746031746,-2.96031746031746,-2.96031746031746,-2.96031746031746,-2.96031746031746,-2.96031746031746,-2.96031746031746,-2.96031746031746,-2.96031746031746,-2.96031746031746,-2.96031746031746,-2.96031746031746,-2.96031746031746,-2.96031746031746,-2.96031746031746,-2.96031746031746,-2.96031746031746,-2.96031746031746,-2.96031746031746,-2.96031746031746,-2.96031746031746,-2.96031746031746,-2.96031746031746,-2.96031746031746,-2.96031746031746,-2.96031746031746,-2.96031746031746,-2.96031746031746,-2.96031746031746,-2.96031746031746,-2.96031746031746,-2.96031746031746,-2.96031746031746,-2.96031746031746,-2.96031746031746,-2.96031746031746,-2.96031746031746,-2.96031746031746,-2.96031746031746,-2.96031746031746,-2.96031746031746,-2.96031746031746,-2.96031746031746,-2.96031746031746,0.9444444444444446,0.8396825396825398,0.6111111111111113,0.48730158730158746,0.40158730158730177,0.3444444444444446,0.30634920634920654,0.2873015873015875,0.2682539682539684,0.2587301587301589,0.23968253968253986,0.23968253968253986,0.23015873015873034,0.22063492063492082,0.22063492063492082,0.19206349206349224,0.19206349206349224,0.1730158730158732,0.16349206349206366,0.15396825396825414,0.15396825396825414,0.1349206349206351,0.1349206349206351,0.1253968253968256,0.11587301587301606,0.11587301587301606,0.11587301587301606,0.11587301587301606,0.10634920634920653,0.10634920634920653,0.10634920634920653,0.10634920634920653,0.10634920634920653,0.10634920634920653,0.10634920634920653,0.10634920634920653,0.10634920634920653,0.10634920634920653,0.10634920634920653,0.10634920634920653,0.10634920634920653,0.10634920634920653,0.10634920634920653,0.10634920634920653,0.10634920634920653,0.10634920634920653,0.10634920634920653,0.10634920634920653,0.10634920634920653,0.10634920634920653,0.10634920634920653,0.10634920634920653,0.10634920634920653,0.10634920634920653,0.10634920634920653,0.10634920634920653,0.10634920634920653,0.10634920634920653,0.10634920634920653,0.10634920634920653,0.10634920634920653,0.10634920634920653,0.10634920634920653,0.10634920634920653,0.10634920634920653,0.10634920634920653,0.10634920634920653,0.10634920634920653,0.10634920634920653,0.10634920634920653,0.10634920634920653,0.10634920634920653,0.10634920634920653,0.10634920634920653,0.10634920634920653,0.10634920634920653,0.10634920634920653,0.10634920634920653,0.10634920634920653,0.10634920634920653,0.10634920634920653,0.10634920634920653,0.10634920634920653,0.10634920634920653,0.15396825396825414,0.20158730158730176,0.2587301587301589,0.2682539682539684,0.2873015873015875,0.30634920634920654,0.3349206349206351,0.4206349206349208,0.4206349206349208,0.4206349206349208,0.4206349206349208,0.4206349206349208,0.4206349206349208,0.4206349206349208,0.4206349206349208,0.4206349206349208,0.4206349206349208,0.4206349206349208,0.4206349206349208,0.4206349206349208,0.4206349206349208,0.4206349206349208,0.4206349206349208,0.4206349206349208,0.4206349206349208,0.4206349206349208,0.4206349206349208,0.4206349206349208,0.4206349206349208,0.4206349206349208,0.4206349206349208,0.4206349206349208,0.4206349206349208,0.4206349206349208,0.4206349206349208,0.4206349206349208,0.4206349206349208,0.4206349206349208,0.4206349206349208,0.4206349206349208,0.4206349206349208,0.4206349206349208,0.4206349206349208,0.4206349206349208,0.4206349206349208,0.4206349206349208,0.4206349206349208,0.4206349206349208,0.4206349206349208,0.4206349206349208,0.4206349206349208,0.4206349206349208,0.4206349206349208,0.4206349206349208,0.4206349206349208,0.4206349206349208,0.4206349206349208,0.4206349206349208,0.4206349206349208,0.4206349206349208,0.4206349206349208,0.4206349206349208,0.4206349206349208,0.4206349206349208,0.4206349206349208,0.4206349206349208,0.4206349206349208,0.4206349206349208,0.4206349206349208,0.4206349206349208,0.4206349206349208,0.4206349206349208,0.4206349206349208,0.4206349206349208,0.4206349206349208,0.4206349206349208,0.4206349206349208,0.4206349206349208,0.4206349206349208,0.4206349206349208,0.4206349206349208,0.4206349206349208,0.4206349206349208,0.4206349206349208,0.4206349206349208,0.4206349206349208,0.4206349206349208,0.4206349206349208,0.4206349206349208,0.4206349206349208,0.4206349206349208,0.4206349206349208,0.4206349206349208,0.4206349206349208,0.4206349206349208,0.4206349206349208,0.4206349206349208,0.4206349206349208,0.4206349206349208,0.4206349206349208,0.4206349206349208,0.4206349206349208,0.4206349206349208,0.4206349206349208,0.4206349206349208,0.4206349206349208,0.4206349206349208,0.4206349206349208,0.4206349206349208,0.4206349206349208,0.4206349206349208,0.4206349206349208,0.4206349206349208,0.4206349206349208,0.4206349206349208,0.4206349206349208,0.4206349206349208,0.4206349206349208,0.4206349206349208,0.4206349206349208,0.4206349206349208,0.4206349206349208,0.4206349206349208,0.4206349206349208,0.4206349206349208,0.4206349206349208,0.4206349206349208,0.4206349206349208,0.4206349206349208,0.4206349206349208,0.4206349206349208,0.4206349206349208,0.4206349206349208,0.4206349206349208,0.4206349206349208,0.4206349206349208,0.4206349206349208,0.4206349206349208,0.4206349206349208,0.4206349206349208,0.4206349206349208,0.4206349206349208,0.4206349206349208,0.4206349206349208,0.4206349206349208,0.4206349206349208,0.4206349206349208,0.4206349206349208,0.4206349206349208,0.4206349206349208,0.4206349206349208,0.4206349206349208,0.4206349206349208,0.4206349206349208,0.4206349206349208,0.4206349206349208,0.4206349206349208,0.4206349206349208,0.4206349206349208,0.4206349206349208,0.4206349206349208,0.4206349206349208,0.4206349206349208,0.4206349206349208,0.4206349206349208,0.4206349206349208,0.4206349206349208,0.4206349206349208,0.4206349206349208,0.4206349206349208,0.4206349206349208,0.4206349206349208,0.4206349206349208,0.4206349206349208,0.4206349206349208,0.4206349206349208,0.4206349206349208,0.4206349206349208,0.4206349206349208,0.4206349206349208,0.4206349206349208,0.4206349206349208,0.4206349206349208,0.4206349206349208,0.4206349206349208,0.4206349206349208,0.4206349206349208,0.4206349206349208,0.4206349206349208,0.4206349206349208,0.4206349206349208,0.4206349206349208,0.4206349206349208,0.4206349206349208,0.4206349206349208,0.4206349206349208,0.4206349206349208,0.4206349206349208,0.4206349206349208,0.4206349206349208,0.4206349206349208,0.4206349206349208,0.4206349206349208,0.4206349206349208,0.4206349206349208,0.4206349206349208,0.4206349206349208,0.4206349206349208,0.4206349206349208,0.4206349206349208,0.4206349206349208,0.4206349206349208,0.4206349206349208,0.4206349206349208,0.4206349206349208,0.4206349206349208,0.4206349206349208,0.4206349206349208,0.4206349206349208,0.4206349206349208,0.4206349206349208,0.4206349206349208,0.4206349206349208,0.4206349206349208,0.4206349206349208,0.4206349206349208,0.4206349206349208,0.4206349206349208,0.4206349206349208,0.4206349206349208,0.4206349206349208,0.4206349206349208,0.4206349206349208,0.4206349206349208,0.4206349206349208,0.4206349206349208,0.4206349206349208,0.4206349206349208,0.4206349206349208,0.4206349206349208,0.4206349206349208,0.4206349206349208,0.4206349206349208,0.4206349206349208,0.4206349206349208,0.4206349206349208,0.4206349206349208,0.4206349206349208,0.4206349206349208,0.4206349206349208,0.4206349206349208,0.4206349206349208,0.4206349206349208,0.4206349206349208,0.4206349206349208,0.4206349206349208,0.4206349206349208,0.4206349206349208,0.4206349206349208,0.4206349206349208,0.4206349206349208,0.4206349206349208,0.4206349206349208,0.4206349206349208,0.4206349206349208,0.4206349206349208,0.4206349206349208,0.4206349206349208,0.4206349206349208,0.4206349206349208,0.4206349206349208,0.4206349206349208,0.4206349206349208,0.4206349206349208,0.4206349206349208,0.4206349206349208,0.4206349206349208,0.4206349206349208,0.4206349206349208,0.4206349206349208,0.4206349206349208,0.4206349206349208,0.4206349206349208,0.4206349206349208,0.4206349206349208,0.4206349206349208,0.4206349206349208,0.4206349206349208,0.4206349206349208,0.4206349206349208,0.4206349206349208,0.4206349206349208,0.4206349206349208,0.4206349206349208,0.4206349206349208,0.4206349206349208,0.4206349206349208,0.4206349206349208,0.4206349206349208,0.4206349206349208,0.4206349206349208,0.4206349206349208,0.4206349206349208,0.4206349206349208,0.4206349206349208,0.4206349206349208,0.4206349206349208,0.4206349206349208,0.4206349206349208,0.4206349206349208,0.4206349206349208,0.4206349206349208,0.4206349206349208,0.4206349206349208,0.4206349206349208,0.4206349206349208,0.4206349206349208,0.4206349206349208,0.4206349206349208,0.4206349206349208,0.4206349206349208,0.4206349206349208,0.4206349206349208,0.4206349206349208,0.4206349206349208,0.4206349206349208,0.4206349206349208,0.4206349206349208,0.4111111111111113,0.38253968253968273,0.3634920634920637,0.3444444444444446,0.3444444444444446,0.3349206349206351,0.3253968253968256,0.3253968253968256,0.315873015873016,0.315873015873016,0.30634920634920654,0.30634920634920654,0.30634920634920654,0.30634920634920654,0.296825396825397,0.296825396825397,0.2873015873015875,0.2682539682539684,0.2682539682539684,0.2587301587301589,0.23968253968253986,0.23015873015873034,0.23015873015873034,0.22063492063492082,0.20158730158730176,0.19206349206349224,0.19206349206349224,0.19206349206349224,0.19206349206349224,0.15396825396825414,0.1349206349206351,0.1253968253968256,0.10634920634920653,0.09682539682539701,0.08730158730158748,0.07777777777777796,0.07777777777777796,0.06825396825396843,0.05873015873015891,0.049206349206349385,0.049206349206349385,0.03968253968253986,0.03968253968253986,0.03968253968253986,0.03015873015873034,0.03015873015873034,0.020634920634920815,0.020634920634920815,0.020634920634920815,0.020634920634920815,0.020634920634920815,0.020634920634920815,0.020634920634920815,0.020634920634920815,0.020634920634920815,0.020634920634920815,0.020634920634920815,0.020634920634920815,0.020634920634920815,0.020634920634920815,0.020634920634920815,0.020634920634920815,0.020634920634920815,0.020634920634920815,0.020634920634920815,0.020634920634920815,0.020634920634920815,0.020634920634920815,0.020634920634920815,0.020634920634920815,0.020634920634920815,0.020634920634920815,0.020634920634920815,0.020634920634920815,0.020634920634920815,0.020634920634920815,0.020634920634920815,0.020634920634920815,0.020634920634920815,0.020634920634920815,0.020634920634920815,0.020634920634920815,0.020634920634920815,0.020634920634920815,0.020634920634920815,0.020634920634920815,0.020634920634920815,0.020634920634920815,0.020634920634920815,0.020634920634920815,0.020634920634920815,0.020634920634920815,0.020634920634920815,0.020634920634920815,0.020634920634920815,0.020634920634920815,0.020634920634920815,0.020634920634920815,0.020634920634920815,0.020634920634920815,0.020634920634920815,0.020634920634920815,0.020634920634920815,0.020634920634920815,0.020634920634920815,0.020634920634920815,0.020634920634920815,0.020634920634920815,0.020634920634920815,0.020634920634920815,0.020634920634920815,0.020634920634920815,0.020634920634920815,0.020634920634920815,0.020634920634920815,0.020634920634920815,0.020634920634920815,0.020634920634920815,0.020634920634920815,0.020634920634920815,0.020634920634920815,0.020634920634920815,0.020634920634920815,0.020634920634920815,0.020634920634920815,0.020634920634920815,0.020634920634920815,0.020634920634920815,0.020634920634920815,0.020634920634920815,0.020634920634920815,0.020634920634920815,0.020634920634920815,0.020634920634920815,0.020634920634920815,0.1730158730158732,0.23015873015873034,0.2682539682539684,0.35396825396825415,0.4111111111111113,0.496825396825397,0.515873015873016,0.5349206349206351,0.5349206349206351,0.5444444444444446,0.5444444444444446,0.5444444444444446,0.5444444444444446,0.5444444444444446,0.5444444444444446,0.5444444444444446,0.5444444444444446,0.5444444444444446,0.5444444444444446,0.5444444444444446,0.5444444444444446,0.5444444444444446,0.5444444444444446,0.5444444444444446,0.5444444444444446,0.5444444444444446,0.5444444444444446,0.5444444444444446,0.5444444444444446,0.5444444444444446,0.5444444444444446,0.5444444444444446,0.5444444444444446,0.5444444444444446,0.5444444444444446,0.5444444444444446,0.5444444444444446,0.5444444444444446,0.5444444444444446,0.5444444444444446,0.5444444444444446,0.5444444444444446,0.5444444444444446,0.5444444444444446,0.5444444444444446,0.5444444444444446,0.5444444444444446,0.5444444444444446,0.5444444444444446,0.5444444444444446,0.5444444444444446,0.5444444444444446,0.5444444444444446,0.5444444444444446,0.5444444444444446,0.5444444444444446,0.5444444444444446,0.5444444444444446,0.5444444444444446,0.5444444444444446,0.5444444444444446,0.5444444444444446,0.5444444444444446,0.5444444444444446,0.5444444444444446,0.5444444444444446,0.5444444444444446,0.5444444444444446,0.5444444444444446,0.5444444444444446,0.5444444444444446,0.5444444444444446,0.5444444444444446,0.5444444444444446,0.5444444444444446,0.5444444444444446,0.5444444444444446,0.5444444444444446,0.5444444444444446,0.5444444444444446,0.5444444444444446,0.5444444444444446,0.5444444444444446,0.5444444444444446,0.5349206349206351,0.5253968253968255,0.496825396825397,0.496825396825397,0.47777777777777797,0.4682539682539684,0.45873015873015893,0.43968253968253984,0.43015873015873035,0.4206349206349208,0.4111111111111113,0.40158730158730177,0.38253968253968273,0.38253968253968273,0.38253968253968273,0.38253968253968273,0.38253968253968273,0.3730158730158732,0.3634920634920637,0.3634920634920637,0.35396825396825415,0.35396825396825415,0.35396825396825415,0.3444444444444446,0.3444444444444446,0.3444444444444446,0.3444444444444446,0.3444444444444446,0.3444444444444446,0.3444444444444446,0.3444444444444446,0.3444444444444446,0.3349206349206351,0.3349206349206351,0.315873015873016,0.30634920634920654,0.2587301587301589,0.19206349206349224,0.1253968253968256,0.09682539682539701,0.07777777777777796,0.05873015873015891,0.049206349206349385,0.03968253968253986,0.03968253968253986,0.03968253968253986,0.03968253968253986,0.03015873015873034,0.03015873015873034,0.020634920634920815,0.020634920634920815,0.020634920634920815,0.020634920634920815,0.011111111111111292,0.011111111111111292,0.011111111111111292,0.011111111111111292,0.011111111111111292,0.011111111111111292,0.011111111111111292,0.011111111111111292,0.011111111111111292,0.0015873015873017677,0.0015873015873017677,0.0015873015873017677,0.0015873015873017677,0.0015873015873017677,0.0015873015873017677,0.0015873015873017677,0.0015873015873017677,0.0015873015873017677,0.0015873015873017677,0.0015873015873017677,0.0015873015873017677,0.0015873015873017677,0.0015873015873017677,0.0015873015873017677,0.0015873015873017677,0.0015873015873017677,0.0015873015873017677,0.0015873015873017677,0.0015873015873017677,0.0015873015873017677,0.0015873015873017677,0.0015873015873017677,0.0015873015873017677,0.0015873015873017677,0.0015873015873017677,0.0015873015873017677,0.0015873015873017677,0.0015873015873017677,0.0015873015873017677,0.0015873015873017677,0.0015873015873017677,0.0015873015873017677,0.0015873015873017677,0.0015873015873017677,0.0015873015873017677,0.0015873015873017677,0.0015873015873017677,0.0015873015873017677,0.0015873015873017677,0.0015873015873017677,0.0015873015873017677,0.0015873015873017677,0.0015873015873017677,0.0015873015873017677,0.0015873015873017677,0.0015873015873017677,0.0015873015873017677,0.0015873015873017677,0.0015873015873017677,0.0015873015873017677,0.0015873015873017677,0.0015873015873017677,0.0015873015873017677,0.0015873015873017677,0.0015873015873017677,0.0015873015873017677,0.0015873015873017677,0.0015873015873017677,0.0015873015873017677,0.0015873015873017677,0.0015873015873017677,0.0015873015873017677,0.0015873015873017677,0.0015873015873017677,0.0015873015873017677,0.0015873015873017677,0.0015873015873017677,0.0015873015873017677,0.0015873015873017677,0.0015873015873017677,0.0015873015873017677,0.0015873015873017677,0.0015873015873017677,0.0015873015873017677,0.0015873015873017677,0.0015873015873017677,0.0015873015873017677,0.0015873015873017677,0.0015873015873017677,0.0015873015873017677,0.0015873015873017677,0.0015873015873017677,0.0015873015873017677,0.0015873015873017677,0.0015873015873017677,0.0015873015873017677,0.0015873015873017677,0.0015873015873017677,0.0015873015873017677,0.0015873015873017677,0.0015873015873017677,0.0015873015873017677,0.0015873015873017677,0.0015873015873017677,0.0015873015873017677,0.0015873015873017677,0.0015873015873017677,0.0015873015873017677,0.0015873015873017677,0.0015873015873017677,0.0015873015873017677,0.0015873015873017677,0.0015873015873017677,0.0015873015873017677,0.0015873015873017677,0.0015873015873017677,0.0015873015873017677,0.0015873015873017677,0.0015873015873017677,0.0015873015873017677,0.0015873015873017677,0.0015873015873017677,0.0015873015873017677,0.0015873015873017677,0.0015873015873017677,0.0015873015873017677,0.0015873015873017677,0.0015873015873017677,0.0015873015873017677,0.0015873015873017677,0.0015873015873017677,0.0015873015873017677,0.0015873015873017677,0.0015873015873017677,0.0015873015873017677,0.0015873015873017677,0.0015873015873017677,0.0015873015873017677,0.0015873015873017677,0.0015873015873017677,0.0015873015873017677,0.0015873015873017677,0.0015873015873017677,0.0015873015873017677,0.0015873015873017677,0.0015873015873017677,0.0015873015873017677,0.0015873015873017677,0.0015873015873017677,0.0015873015873017677,0.0015873015873017677,0.0015873015873017677,0.0015873015873017677,