[{"success":true,"trial_type":"fullscreen","trial_index":0,"time_elapsed":4354,"internal_node_id":"0.0-0.0","protocol_sum":"","subject_identifier":116,"subject_sum":[98,8,239,15,119,80,193,17,84,140,249,11,110,161,208,208,166,111,107,255,64,219,239,7,203,69,236,67,98,99,199,214],"subject_pair":58,"STUDY_ID":"669a702db1122fc5150a13ce","PROLIFIC_PID":"66310bce1a0c0e0801d40dd6","SESSION_ID":"669acbcb68d743ae4dbb1dd7","practice_instructions":1,"leaderboard_instructions":0,"bonus":0,"reveal_word":false,"self_rating":"4","confidence":"94"},{"view_history":"[{\"page_index\":0,\"viewing_time\":20819.30000001192}]","rt":20819.59999999404,"trial_type":"instructions","trial_index":1,"time_elapsed":25176,"internal_node_id":"0.0-1.0","protocol_sum":"","subject_identifier":116,"subject_sum":[98,8,239,15,119,80,193,17,84,140,249,11,110,161,208,208,166,111,107,255,64,219,239,7,203,69,236,67,98,99,199,214],"subject_pair":58,"STUDY_ID":"669a702db1122fc5150a13ce","PROLIFIC_PID":"66310bce1a0c0e0801d40dd6","SESSION_ID":"669acbcb68d743ae4dbb1dd7","practice_instructions":1,"leaderboard_instructions":0,"bonus":0,"reveal_word":false,"self_rating":"4","confidence":"94"},{"view_history":"[{\"page_index\":0,\"viewing_time\":20727.29999998212}]","rt":20727.59999999404,"trial_type":"instructions","trial_index":2,"time_elapsed":45903,"internal_node_id":"0.0-2.0-0.0","protocol_sum":"","subject_identifier":116,"subject_sum":[98,8,239,15,119,80,193,17,84,140,249,11,110,161,208,208,166,111,107,255,64,219,239,7,203,69,236,67,98,99,199,214],"subject_pair":58,"STUDY_ID":"669a702db1122fc5150a13ce","PROLIFIC_PID":"66310bce1a0c0e0801d40dd6","SESSION_ID":"669acbcb68d743ae4dbb1dd7","practice_instructions":1,"leaderboard_instructions":0,"bonus":0,"reveal_word":false,"self_rating":"4","confidence":"94"},{"rt":32983.20000001788,"responses":"{\"Q0\":\"... reveal the word with as <b>few letter guesses</b> as possible\"}","question_order":"[0]","trial_type":"survey-multi-choice","trial_index":3,"time_elapsed":78889,"internal_node_id":"0.0-2.0-1.0","protocol_sum":"","subject_identifier":116,"subject_sum":[98,8,239,15,119,80,193,17,84,140,249,11,110,161,208,208,166,111,107,255,64,219,239,7,203,69,236,67,98,99,199,214],"subject_pair":58,"correct":true,"test_part":"multichoice_nonpretend","STUDY_ID":"669a702db1122fc5150a13ce","PROLIFIC_PID":"66310bce1a0c0e0801d40dd6","SESSION_ID":"669acbcb68d743ae4dbb1dd7","practice_instructions":1,"leaderboard_instructions":0,"bonus":0,"reveal_word":false,"self_rating":"4","confidence":"94"},{"view_history":"[{\"page_index\":0,\"viewing_time\":2752.7000000178814}]","rt":2753.100000023842,"trial_type":"instructions","trial_index":4,"time_elapsed":81644,"internal_node_id":"0.0-3.0","protocol_sum":"","subject_identifier":116,"subject_sum":[98,8,239,15,119,80,193,17,84,140,249,11,110,161,208,208,166,111,107,255,64,219,239,7,203,69,236,67,98,99,199,214],"subject_pair":58,"STUDY_ID":"669a702db1122fc5150a13ce","PROLIFIC_PID":"66310bce1a0c0e0801d40dd6","SESSION_ID":"669acbcb68d743ae4dbb1dd7","practice_instructions":1,"leaderboard_instructions":0,"bonus":0,"reveal_word":false,"self_rating":"4","confidence":"94"},{"word":"ZEBRA","click_log":{"letter":["","R","A","M","N","S","T","C","H","P","L","D","W","Z","E","B"],"t":[0,9503.199999988079,18439.09999999404,30714.69999998808,32582.79999998212,34906.89999997616,35962.19999998808,38279.29999998212,40346.29999998212,41706.39999997616,44906.09999999404,47186.69999998808,51918.39999997616,56314.29999998212,57830.09999999404,59782.5],"hit":[null,1,1,0,0,0,0,0,0,0,0,0,0,1,1,1],"asked":["","R","RA","RAM","RAMN","RAMNS","RAMNST","RAMNSTC","RAMNSTCH","RAMNSTCHP","RAMNSTCHPL","RAMNSTCHPLD","RAMNSTCHPLDW","RAMNSTCHPLDWZ","RAMNSTCHPLDWZE","RAMNSTCHPLDWZEB"],"word_state":["_____","___R_","___RA","___RA","___RA","___RA","___RA","___RA","___RA","___RA","___RA","___RA","___RA","Z__RA","ZE_RA","ZEBRA"]},"hover_log":{"letter":["?","J","J","J","J","J","J","J","J","J","J","J","J","J","J","J","J","J","J","J","J","J","J","J","J","J","J","J","J","J","J","J","J","J","J","J","J","J","J","J","J","J","J","J","J","J","J","J","J","J","J","J","J","?","?","?","?","?","?","?","?","?","?","?","?","?","?","?","?","?","?","?","?","?","?","?","?","?","?","?","?","?","?","?","?","?","?","?","?","?","?","?","?","?","?","?","?","?","?","?","?","?","?","?","?","?","?","?","?","?","?","?","?","?","?","?","?","?","?","?","?","?","?","?","?","?","?","?","?","?","?","?","?","?","?","?","?","?","?","?","?","?","?","?","?","?","?","?","?","?","?","?","?","?","?","?","?","?","?","?","?","?","?","?","?","?","?","?","?","?","?","?","?","?","?","?","?","?","?","?","?","?","?","?","?","?","?","?","?","?","?","?","?","?","?","?","?","?","?","?","?","?","?","?","?","?","?","?","?","?","?","?","?","?","?","?","?","?","?","?","?","?","?","?","?","?","?","?","?","?","?","?","?","?","?","?","?","?","?","?","?","?","?","?","?","?","?","?","?","?","?","?","?","?","?","?","?","?","?","?","?","?","?","?","?","?","?","?","?","?","?","?","?","?","?","?","?","?","?","?","?","?","?","?","?","?","?","?","?","?","?","?","?","?","?","?","?","?","?","?","?","?","?","?","?","?","?","?","?","?","?","?","?","?","?","?","?","?","?","?","?","?","?","?","?","?","?","?","?","?","?","?","?","?","?","?","?","?","?","?","?","?","?","?","?","?","?","?","?","?","?","?","?","?","?","?","?","?","?","?","?","?","?","?","?","?","?","?","?","?","?","?","?","?","?","?","?","?","?","?","?","?","?","?","?","?","?","?","?","?","?","?","?","?","?","?","?","?","?","?","?","?","?","?","?","?","?","?","?","?","?","?","?","?","?","?","?","?","?","?","?","?","?","?","?","?","?","?","?","?","?","?","?","?","?","?","?","?","?","?","?","?","?","?","?","?","?","?","?","?","?","?","?","?","?","?","?","?","?","?","?","?","?","?","?","?","?","?","?","?","?","?","?","?","?","?","?","?","?","?","?","?","?","?","?","?","?","?","?","?","?","?","?","?","?","?","U","V","?","W","?","?","?","?","?","?","?","?","P","P","P","P","P","P","P","P","P","P","P","P","P","P","P","P","P","P","P","P","P","P","P","Q","Q","Q","Q","Q","Q","Q","Q","Q","Q","Q","Q","Q","Q","Q","Q","Q","?","R","R","R","R","R","R","R","R","R","R","R","R","R","R","R","R","R","R","R","R","R","R","?","?","?","?","?","?","?","?","?","?","?","?","?","?","?","?","?","?","?","?","?","?","?","?","?","?","?","?","?","?","?","?","?","?","?","?","?","?","?","?","?","?","?","?","?","?","?","?","?","?","?","?","?","?","?","?","?","?","?","?","?","?","?","?","?","?","?","?","?","?","?","?","?","?","?","?","?","?","?","?","?","?","?","?","?","?","?","?","?","?","?","?","?","?","?","?","?","?","?","?","?","?","?","?","?","?","?","?","?","?","?","?","?","?","?","?","?","?","?","?","?","?","?","?","?","?","?","?","?","?","?","?","?","?","?","?","?","?","?","?","?","?","?","?","?","?","?","?","?","?","?","?","?","?","?","?","?","?","?","?","?","?","?","?","?","?","?","?","?","?","?","?","?","T","?","K","?","B","B","?","?","?","?","?","?","?","?","?","?","?","?","?","?","?","?","?","?","?","?","?","?","?","?","?","?","?","?","?","?","?","?","?","?","?","?","?","?","?","?","?","?","?","?","?","?","?","?","?","?","?","?","?","?","?","?","?","?","?","?","?","?","?","?","?","?","?","?","?","?","?","?","?","?","?","?","?","?","?","?","?","?","?","?","?","?","?","?","?","?","?","?","?","?","?","?","?","?","?","?","?","?","?","?","?","?","?","?","?","?","?","?","?","?","?","?","?","?","?","?","?","?","?","?","?","?","?","?","?","?","?","?","?","?","?","?","?","?","?","?","?","?","?","?","?","?","?","?","?","?","?","?","?","?","?","?","?","?","?","?","?","?","?","?","?","?","?","?","?","?","?","?","?","?","?","?","?","?","?","?","?","?","?","?","?","?","?","?","?","?","?","?","?","?","?","?","?","?","?","?","?","?","?","?","?","?","?","?","?","?","?","?","?","?","?","?","?","?","?","?","?","?","?","?","?","?","?","?","?","?","?","?","?","?","?","?","?","?","?","?","?","?","?","?","?","?","?","?","?","?","?","?","?","?","?","?","?","?","?","?","?","?","?","?","?","?","?","?","?","?","?","?","?","?","?","?","?","?","?","?","?","?","?","?","?","?","?","?","?","?","?","?","?","?","?","?","?","?","?","?","H","?","?","?","?","H","H","H","?","?","G","?","F","F","F","E","E","?","?","D","?","?","?","?","?","?","?","?","?","?","?","?","?","?","?","?","?","?","A","A","A","A","A","A","A","A","A","A","A","A","A","A","A","A","A","A","A","A","A","?","J","J","?","?","?","?","?","?","?","?","?","?","?","?","?","?","?","?","?","?","?","?","?","?","?","?","?","?","?","?","?","?","?","?","?","?","?","?","?","?","?","?","?","?","?","?","?","?","?","?","?","?","?","?","?","?","?","?","?","?","?","?","?","?","?","?","?","?","?","?","?","?","?","?","?","?","?","?","?","?","?","?","?","?","?","?","?","?","?","?","?","?","?","?","?","?","?","?","?","?","?","?","?","?","?","?","?","?","?","?","?","?","?","?","?","?","?","?","?","?","?","?","?","?","?","?","?","?","?","?","?","?","?","?","?","?","?","?","?","?","?","?","?","?","?","?","?","?","?","?","?","?","?","?","?","?","?","?","?","?","?","?","?","?","?","?","?","?","?","?","?","?","?","?","?","?","?","?","?","?","?","?","?","?","?","?","?","?","?","?","?","?","?","?","?","?","?","?","?","?","?","?","?","?","?","?","?","?","?","?","?","?","?","?","?","?","?","?","?","?","?","?","?","?","?","?","?","?","?","?","?","?","?","?","?","?","?","?","?","?","?","?","?","?","?","?","?","?","?","?","?","?","?","?","?","?","?","?","?","?","?","?","?","?","?","?","?","?","?","?","?","?","?","?","?","?","?","?","?","?","?","?","?","?","?","?","?","?","?","?","?","?","?","?","?","?","?","?","?","?","?","?","?","?","?","?","?","?","?","?","?","?","?","?","?","?","?","?","?","?","?","?","?","?","?","?","?","?","?","?","?","?","?","?","?","?","?","?","?","?","?","?","?","?","?","?","?","?","?","?","?","?","?","?","?","?","?","?","?","?","?","?","?","?","?","?","?","?","?","?","?","?","?","?","?","?","?","?","?","?","?","?","?","?","?","?","?","?","?","?","?","?","?","?","?","?","?","?","?","?","?","?","?","?","?","?","?","?","?","?","?","?","?","?","?","?","?","?","?","?","?","?","?","?","?","?","?","?","?","?","?","?","?","?","?","?","?","?","?","?","?","?","?","?","?","?","?","?","?","?","?","?","?","?","?","?","?","?","?","?","?","?","?","?","?","?","?","?","?","?","?","?","?","?","?","?","?","?","?","?","?","?","?","?","?","?","?","?","?","?","?","?","?","?","?","?","?","?","?","?","?","?","?","?","?","?","?","?","?","?","?","?","?","?","?","?","?","?","?","?","?","?","?","?","?","?","?","?","?","?","?","?","?","?","?","?","?","?","?","?","?","?","?","?","?","?","?","?","?","?","?","?","?","?","?","?","?","?","?","?","?","?","?","?","?","?","?","?","?","?","?","?","?","?","?","?","?","?","?","?","?","?","?","?","?","?","?","?","?","?","?","?","?","?","?","?","?","?","?","?","?","?","?","?","?","?","?","?","?","?","?","?","?","?","?","?","?","?","?","?","?","?","?","?","?","?","?","W","W","W","?","?","?","?","?","?","?","N","N","N","N","N","?","?","?","?","M","?","?","?","U","U","?","?","?","?","?","?","?","?","?","?","?","?","?","?","?","?","?","?","?","?","?","U","?","?","?","?","?","?","?","?","?","?","?","?","?","?","?","?","?","?","?","?","?","?","?","?","?","?","?","?","M","M","M","M","M","M","M","M","M","M","M","M","M","M","M","M","M","M","M","M","M","M","M","M","M","M","M","M","M","M","M","M","M","M","M","M","M","M","M","M","M","M","M","M","M","M","M","M","M","M","M","M","M","M","M","M","M","M","M","M","M","M","M","M","M","M","M","M","M","M","M","M","M","M","M","M","M","M","M","M","M","M","M","M","M","M","M","M","M","M","M","M","M","M","M","M","M","M","M","M","M","M","M","M","?","N","N","N","N","N","N","N","N","N","N","N","N","N","N","N","N","N","N","N","N","N","N","N","N","N","N","N","N","N","N","N","N","N","N","N","N","N","N","N","N","?","?","?","W","W","?","?","?","?","?","?","?","?","?","?","?","?","?","?","?","?","?","?","?","?","?","?","?","?","?","?","?","?","?","?","?","?","?","?","?","?","?","?","?","?","?","?","?","?","?","?","?","?","?","?","?","?","?","?","?","?","?","?","?","?","?","?","?","?","?","?","?","?","?","?","?","?","?","?","?","?","?","?","?","U","U","U","U","U","U","U","U","U","U","U","U","U","U","U","U","U","U","U","U","U","U","U","U","U","?","T","?","S","S","S","S","S","S","S","S","S","S","S","S","S","S","S","S","S","S","S","S","S","S","S","S","S","S","S","S","S","S","S","S","S","S","S","?","?","?","T","T","T","T","T","T","T","T","T","T","T","T","T","T","T","T","T","T","T","T","T","T","T","T","T","T","T","T","T","T","T","T","T","T","T","T","T","T","T","T","T","T","T","T","T","T","T","T","T","T","T","T","T","T","T","T","T","?","?","?","?","?","?","?","?","?","?","?","?","?","?","?","?","?","?","?","?","?","?","?","?","?","?","?","?","?","?","?","?","?","?","?","?","?","?","?","?","?","?","?","?","?","?","?","?","?","?","?","?","?","?","?","?","?","?","?","?","?","?","?","?","?","?","?","?","?","?","?","?","?","?","?","?","?","?","?","?","?","?","?","?","?","?","U","U","?","?","?","?","?","?","?","?","?","?","?","?","?","?","?","?","?","?","?","?","?","?","C","C","C","C","C","C","C","C","C","C","C","C","C","C","C","C","C","C","C","C","C","?","?","L","L","L","U","U","U","U","U","U","U","U","U","U","U","U","U","U","U","U","U","U","U","U","U","U","U","U","U","U","U","U","U","U","U","U","U","U","U","U","U","U","U","U","U","U","U","U","U","U","U","U","U","U","U","U","U","U","U","U","U","U","U","U","U","V","?","?","?","O","O","O","O","?","?","?","?","?","?","?","?","?","?","?","?","?","?","?","G","G","?","H","H","H","H","H","H","H","H","H","H","H","H","H","H","H","H","H","H","H","H","H","H","H","H","H","H","H","H","H","H","H","H","H","H","?","Q","?","?","?","?","?","?","?","?","?","?","?","?","?","?","?","?","?","?","?","?","?","?","?","?","?","?","?","?","?","?","?","?","?","?","?","?","?","?","?","?","?","?","?","?","?","?","?","?","?","?","?","?","?","?","?","?","?","?","?","P","P","P","P","P","P","P","P","P","P","P","P","P","P","P","P","P","P","P","?","Y","Y","?","?","?","?","?","?","?","?","?","?","?","?","?","?","?","?","?","?","?","?","?","?","?","?","?","?","?","?","?","?","?","?","?","?","?","?","?","?","?","?","?","?","?","?","?","?","?","?","?","?","?","?","?","?","?","?","?","?","?","?","?","?","?","?","?","?","?","?","?","?","?","?","?","?","?","?","?","?","?","?","?","?","?","?","?","?","?","?","?","?","?","?","?","?","?","?","V","?","?","?","?","?","?","?","?","?","?","?","?","?","?","?","?","?","?","?","?","?","?","?","?","?","?","L","L","L","L","L","L","L","L","L","L","L","L","L","L","L","L","L","L","L","L","L","L","L","L","L","L","L","L","L","L","L","L","L","L","L","L","L","L","L","L","L","L","L","L","L","L","L","L","L","L","L","L","L","L","L","L","L","L","L","L","L","L","L","L","L","L","L","L","L","L","L","L","L","L","L","L","L","L","L","L","L","L","L","L","L","L","L","L","L","L","L","L","L","L","L","L","L","L","L","L","L","L","L","L","L","L","L","L","L","L","L","L","L","L","L","L","L","L","L","L","L","L","L","L","L","L","L","L","L","L","L","L","L","L","L","L","L","L","L","L","L","L","L","L","L","L","L","L","L","L","L","L","L","L","L","L","L","L","L","L","L","L","L","L","L","L","L","L","L","L","L","L","?","?","?","?","D","D","D","D","D","D","D","D","D","D","D","D","D","D","D","D","D","D","D","D","D","D","D","D","D","D","D","D","D","?","?","?","?","?","?","M","?","M","?","?","?","?","?","?","?","?","?","?","?","?","?","?","?","?","?","?","?","?","?","?","?","?","?","?","?","?","?","?","?","?","?","?","?","?","?","?","?","?","?","?","?","?","?","?","?","?","?","?","?","?","?","?","?","?","?","?","?","?","?","?","?","?","?","?","?","?","?","?","?","?","?","?","?","?","?","?","?","?","?","?","?","?","?","?","?","?","?","?","?","?","?","?","?","?","?","?","?","?","?","?","?","?","?","?","?","?","?","?","?","?","?","?","?","?","?","?","?","?","?","?","?","?","?","?","?","?","?","?","?","?","?","?","?","?","?","?","?","?","?","?","?","?","?","?","?","?","?","?","?","?","?","?","?","?","?","?","?","?","?","?","?","?","?","?","?","?","?","?","?","?","?","?","?","?","?","?","?","?","?","?","?","?","?","?","?","?","?","?","?","?","?","?","?","?","?","?","?","?","?","?","?","?","?","?","?","?","?","?","?","?","?","?","?","?","?","?","?","?","?","?","?","?","?","?","?","?","?","?","?","?","?","?","?","?","?","?","?","?","?","?","?","?","?","?","?","?","?","?","W","W","W","W","W","W","W","W","W","W","W","W","W","W","W","W","W","W","W","W","W","W","W","W","W","W","W","W","W","W","W","?","?","?","?","?","?","?","?","?","?","?","?","?","?","?","?","?","?","?","?","?","?","?","?","?","?","?","?","?","?","?","?","?","?","?","?","?","?","?","?","?","?","?","?","?","?","?","?","?","?","?","?","?","?","?","?","?","?","?","?","?","?","?","?","?","?","?","?","?","?","?","?","?","?","?","?","?","?","?","?","?","?","?","?","?","?","?","?","?","?","?","?","?","?","?","?","?","?","?","?","?","?","?","?","?","?","?","?","?","?","?","?","?","?","?","?","?","?","?","?","?","?","?","?","?","?","?","?","?","?","?","?","?","?","?","?","?","?","?","?","?","?","?","?","?","?","?","?","?","?","?","?","?","?","?","?","?","?","?","?","?","?","?","?","?","?","?","?","?","?","?","?","?","?","?","?","?","?","?","?","?","?","?","?","?","?","?","?","?","?","?","?","?","?","?","?","?","?","?","?","?","?","?","?","?","?","?","?","?","?","?","Z","Z","?","?","?","?","?","?","?","?","?","?","?","?","?","?","?","?","?","?","?","?","?","?","?","?","Z","Z","Z","Z","Z","Z","Z","Z","Z","Z","Z","Z","Z","Z","Z","Z","Z","Z","Z","Z","Z","Z","Z","Z","Z","Z","Z","Z","Z","Z","Z","Z","Z","Z","Z","Z","Z","Z","Z","Z","Z","Z","Z","Z","Z","Z","Z","Z","Z","Z","Z","Z","Z","Z","Z","Z","Z","Z","Z","Z","Z","Z","Z","Z","Z","Y","?","?","?","M","M","M","M","M","M","M","?","?","?","?","?","?","?","E","E","E","E","E","E","E","E","E","E","E","E","E","E","E","E","E","E","E","E","E","E","E","E","E","E","E","E","E","E","E","E","E","?","?","?","N","N","N","N","?","?","?","?","?","?","?","?","?","?","?","?","?","?","?","N","N","N","N","N","?","?","?","?","?","?","?","?","?","D","D","?","?","?","?","?","?","C","C","C","C","C","C","C","C","C","C","C","C","?","B","B","B","B","B","B","B","B","B","B","B","B","B","B","B","B","B","B","B","B","B","B","B","B","B","B","B","B","B","B","B","B","B","B","B","B","B","B","B","B","B","B","B","B","B","B","B","B","B","B","B","B","B","B","?","?","?","L","L","?","U","?","?","?","?","?","?","?","?","?","?","?","?","?","?","?","?","?","?","?","?","?","?","?","?","?","?","?","?","?","?","?","?","?","?","?","?","?","?","?","?","?","?","?","?","?","?","?","?","?","?","?","?","?","?","?","?","?","?","?","?","?","?","?","?","?","?","?","?","?","?","?","?","?","?","?","?","?","?","?","?","?","?","?","?","?","?","?","?","?","?","?","?","?","?","?","?","?","?","?","?","?","?","?","?","?","?","?","?","?","?"],"t":[55,66,76,94,109,126,143,159,177,193,209,226,243,260,276,293,310,327,343,359,376,392,409,426,442,459,476,492,509,526,542,559,576,592,609,626,643,659,676,693,709,726,742,759,775,792,809,826,842,859,876,892,910,926,943,959,976,993,1009,1026,1042,1059,1076,1093,1109,1127,1143,1160,1176,1192,1209,1226,1242,1259,1275,1292,1309,1326,1342,1359,1375,1392,1409,1425,1442,1459,1476,1492,1509,1526,1542,1559,1575,1592,1609,1626,1643,1659,1676,1692,1709,1725,1743,1759,1775,1793,1809,1826,1842,1859,1875,1892,1909,1925,1942,1958,1975,1992,2009,2026,2042,2059,2075,2092,2108,2126,2142,2159,2175,2192,2209,2225,2242,2258,2275,2292,2309,2326,2342,2359,2375,2392,2408,2426,2442,2458,2475,2492,2509,2525,2542,2559,2576,2592,2609,2625,2642,2659,2675,2692,2709,2726,2742,2758,2775,2792,2809,2825,2846,2859,2875,2892,2908,2925,2942,2958,2976,2992,3009,3025,3042,3059,3076,3092,3109,3126,3142,3159,3175,3192,3208,3225,3242,3259,3276,3292,3309,3325,3342,3359,3376,3392,3409,3425,3442,3459,3475,3492,3509,3525,3542,3559,3575,3592,3609,3625,3642,3659,3675,3692,3708,3725,3742,3759,3775,3792,3809,3825,3842,3858,3875,3892,3909,3925,3942,3959,3975,3993,4008,4025,4042,4058,4075,4092,4108,4125,4142,4158,4175,4192,4208,4225,4242,4259,4275,4292,4309,4325,4342,4358,4375,4392,4409,4425,4442,4458,4475,4492,4508,4525,4542,4559,4575,4592,4609,4625,4642,4658,4675,4691,4709,4725,4742,4759,4775,4792,4808,4826,4842,4859,4876,4891,4908,4925,4942,4959,4976,4992,5009,5025,5042,5058,5075,5092,5108,5125,5142,5158,5176,5191,5209,5225,5242,5259,5275,5292,5308,5325,5342,5359,5375,5392,5408,5425,5442,5458,5475,5492,5509,5526,5542,5559,5575,5592,5608,5625,5641,5658,5676,5692,5708,5725,5742,5759,5775,5792,5809,5825,5842,5858,5875,5892,5908,5925,5942,5958,5975,5991,6009,6025,6042,6059,6075,6092,6108,6125,6141,6159,6175,6192,6209,6225,6242,6259,6276,6292,6309,6325,6342,6358,6375,6392,6408,6426,6443,6460,6476,6492,6508,6525,6542,6559,6575,6592,6608,6625,6642,6659,6675,6692,6708,6725,6742,6758,6775,6791,6808,6825,6842,6859,6875,6892,6908,6925,6941,6958,6975,6992,7008,7025,7042,7058,7075,7092,7109,7125,7141,7158,7175,7192,7208,7225,7242,7258,7275,7291,7308,7325,7341,7358,7375,7392,7408,7425,7441,7459,7475,7492,7508,7525,7542,7559,7575,7592,7609,7625,7642,7659,7675,7692,7708,7725,7741,7759,7775,7792,7808,7825,7842,7858,7875,7891,7908,7925,7942,7958,7975,7992,8008,8025,8042,8059,8076,8092,8109,8125,8142,8159,8175,8192,8208,8225,8242,8258,8275,8292,8308,8326,8342,8359,8375,8392,8408,8425,8442,8458,8475,8492,8509,8526,8542,8560,8576,8592,8608,8625,8642,8659,8675,8692,8712,8725,8741,8758,8775,8792,8808,8825,8841,8858,8876,8892,8910,8925,8942,8958,8975,8992,9008,9025,9041,9058,9075,9092,9108,9125,9143,9160,9175,9192,9208,9225,9241,9259,9275,9291,9308,9325,9341,9358,9375,9392,9412,9425,9442,9459,9476,9492,9511,9527,9542,9560,9576,9593,9609,9626,9642,9659,9676,9692,9709,9725,9743,9758,9775,9792,9808,9825,9842,9859,9875,9892,9908,9925,9942,9958,9975,9992,10008,10029,10042,10059,10075,10092,10108,10125,10141,10159,10175,10192,10209,10225,10241,10258,10276,10291,10309,10325,10343,10359,10375,10392,10408,10425,10442,10458,10475,10492,10509,10526,10543,10559,10577,10592,10608,10626,10641,10658,10675,10692,10708,10725,10742,10758,10775,10791,10808,10825,10842,10858,10875,10892,10908,10925,10941,10958,10975,10992,11008,11025,11042,11058,11075,11091,11108,11125,11142,11158,11175,11192,11208,11225,11241,11259,11275,11292,11308,11325,11342,11358,11375,11391,11408,11425,11442,11458,11475,11491,11509,11525,11542,11558,11575,11591,11608,11624,11642,11658,11675,11692,11708,11725,11741,11758,11775,11792,11808,11825,11842,11858,11875,11891,11908,11925,11941,11959,11975,11992,12008,12025,12042,12058,12075,12092,12108,12124,12142,12159,12175,12191,12208,12225,12241,12258,12274,12292,12308,12325,12342,12358,12375,12391,12409,12425,12442,12459,12476,12492,12508,12525,12541,12558,12575,12592,12609,12625,12642,12658,12674,12691,12708,12725,12742,12758,12775,12792,12808,12825,12841,12862,12875,12893,12908,12925,12941,12958,12975,12992,13009,13026,13042,13059,13075,13095,13112,13129,13145,13162,13179,13195,13213,13229,13246,13262,13279,13295,13312,13329,13346,13363,13380,13396,13413,13429,13446,13462,13478,13495,13512,13528,13545,13562,13578,13595,13612,13629,13646,13662,13679,13695,13712,13729,13745,13762,13779,13795,13812,13829,13845,13862,13878,13895,13912,13929,13945,13962,13979,13995,14012,14029,14045,14062,14079,14095,14112,14129,14145,14162,14178,14195,14212,14228,14245,14265,14279,14295,14312,14329,14345,14362,14378,14395,14412,14428,14445,14461,14478,14495,14512,14529,14545,14562,14578,14595,14612,14629,14645,14661,14678,14695,14712,14728,14745,14762,14778,14795,14812,14828,14845,14862,14878,14895,14912,14928,14945,14962,14978,14996,15012,15029,15045,15062,15079,15095,15112,15128,15145,15161,15178,15195,15212,15228,15245,15262,15278,15295,15312,15328,15345,15361,15378,15395,15412,15428,15445,15462,15478,15495,15512,15528,15545,15562,15578,15595,15612,15628,15645,15661,15678,15695,15712,15731,15745,15761,15778,15795,15812,15829,15845,15862,15878,15895,15912,15928,15945,15962,15979,15995,16012,16028,16045,16062,16079,16095,16112,16128,16145,16162,16178,16195,16212,16228,16245,16262,16278,16295,16312,16328,16345,16362,16378,16395,16412,16428,16445,16461,16478,16495,16512,16529,16545,16562,16578,16595,16612,16628,16645,16661,16678,16695,16711,16728,16745,16761,16778,16795,16812,16828,16845,16862,16878,16895,16911,16928,16945,16962,16978,16995,17012,17028,17045,17061,17078,17095,17111,17128,17145,17165,17178,17195,17211,17228,17245,17261,17278,17295,17312,17329,17346,17362,17379,17395,17412,17429,17445,17462,17479,17495,17512,17529,17546,17562,17578,17596,17612,17629,17645,17662,17679,17695,17712,17729,17746,17762,17779,17796,17812,17829,17845,17862,17878,17896,17912,17928,17945,17962,17979,17996,18012,18028,18045,18061,18078,18095,18112,18128,18145,18162,18179,18196,18212,18228,18245,18262,18280,18296,18311,18328,18345,18365,18378,18395,18412,18428,18445,18461,18479,18496,18512,18529,18545,18562,18579,18595,18611,18628,18645,18661,18678,18695,18711,18728,18747,18763,18779,18795,18811,18828,18845,18862,18878,18895,18911,18928,18945,18961,18978,18995,19011,19028,19045,19061,19078,19095,19112,19128,19145,19162,19178,19195,19212,19228,19245,19261,19278,19295,19312,19328,19345,19361,19378,19395,19411,19428,19444,19462,19479,19495,19511,19528,19545,19562,19578,19595,19611,19628,19645,19662,19678,19695,19712,19728,19745,19761,19778,19795,19811,19828,19845,19861,19878,19895,19911,19928,19947,19961,19978,19995,20011,20028,20045,20062,20078,20095,20111,20128,20145,20161,20178,20194,20211,20228,20245,20261,20278,20295,20311,20328,20345,20361,20378,20394,20411,20428,20445,20461,20478,20495,20511,20528,20545,20561,20578,20595,20611,20628,20645,20661,20678,20695,20711,20728,20744,20762,20778,20794,20811,20828,20845,20861,20878,20895,20911,20928,20945,20961,20978,20995,21011,21028,21045,21061,21078,21095,21111,21128,21145,21161,21178,21194,21211,21228,21245,21261,21278,21295,21311,21328,21348,21361,21378,21395,21411,21428,21445,21461,21478,21495,21511,21528,21544,21561,21578,21595,21611,21628,21645,21661,21678,21694,21712,21728,21745,21761,21778,21794,21812,21828,21845,21861,21878,21894,21911,21928,21944,21961,21978,21995,22011,22028,22045,22061,22078,22095,22111,22128,22145,22161,22178,22195,22211,22228,22244,22261,22278,22294,22311,22328,22345,22361,22378,22395,22411,22429,22445,22461,22478,22495,22511,22528,22545,22561,22578,22595,22611,22628,22645,22661,22678,22695,22711,22728,22744,22761,22778,22794,22811,22828,22845,22861,22878,22894,22911,22928,22944,22961,22978,22994,23011,23028,23044,23061,23078,23095,23111,23128,23145,23161,23178,23195,23211,23228,23245,23261,23278,23295,23311,23328,23344,23361,23378,23394,23411,23428,23445,23461,23478,23495,23511,23528,23544,23561,23578,23595,23611,23628,23645,23661,23678,23694,23711,23729,23745,23761,23778,23794,23811,23828,23844,23861,23878,23894,23911,23928,23944,23961,23978,23994,24011,24028,24045,24061,24078,24094,24111,24131,24145,24161,24178,24194,24211,24228,24244,24261,24278,24294,24311,24328,24344,24361,24378,24395,24411,24428,24444,24461,24478,24495,24511,24528,24544,24561,24578,24594,24612,24629,24645,24661,24678,24694,24711,24728,24744,24761,24778,24795,24811,24828,24844,24861,24878,24894,24911,24928,24944,24961,24978,24994,25011,25028,25044,25061,25078,25094,25111,25128,25144,25161,25178,25194,25211,25228,25245,25261,25278,25295,25311,25328,25344,25361,25378,25394,25411,25428,25444,25461,25478,25494,25511,25528,25545,25561,25578,25594,25611,25628,25644,25661,25678,25694,25711,25728,25744,25761,25777,25794,25811,25828,25845,25861,25878,25894,25911,25928,25944,25961,25978,25994,26011,26028,26044,26061,26078,26094,26111,26128,26144,26161,26177,26194,26212,26228,26244,26261,26278,26294,26311,26328,26344,26361,26378,26394,26411,26427,26444,26461,26478,26494,26511,26527,26544,26561,26578,26594,26611,26628,26644,26661,26678,26694,26711,26728,26744,26761,26777,26794,26811,26828,26844,26861,26877,26894,26911,26928,26944,26961,26978,26994,27011,27027,27044,27061,27078,27094,27111,27127,27144,27161,27178,27195,27211,27228,27244,27261,27278,27294,27311,27328,27344,27361,27378,27394,27411,27428,27444,27461,27477,27494,27511,27527,27544,27561,27578,27594,27611,27627,27644,27661,27678,27694,27711,27727,27744,27761,27778,27794,27811,27828,27844,27861,27878,27894,27911,27927,27944,27961,27977,27994,28011,28028,28044,28061,28077,28094,28111,28128,28144,28161,28178,28194,28211,28227,28244,28261,28277,28297,28311,28328,28344,28361,28377,28394,28411,28427,28444,28461,28477,28494,28511,28528,28544,28561,28577,28594,28611,28628,28645,28661,28678,28694,28711,28727,28744,28763,28780,28795,28812,28828,28845,28861,28879,28894,28911,28928,28944,28961,28979,28995,29012,29028,29045,29062,29078,29094,29112,29128,29144,29162,29179,29195,29212,29228,29245,29261,29278,29295,29311,29328,29345,29361,29378,29395,29412,29428,29444,29461,29478,29494,29511,29527,29544,29561,29578,29594,29611,29628,29644,29661,29677,29694,29711,29728,29745,29761,29779,29795,29812,29828,29845,29861,29877,29894,29911,29927,29944,29961,29978,29995,30011,30028,30044,30061,30077,30094,30111,30128,30144,30161,30177,30195,30212,30228,30245,30261,30278,30295,30311,30327,30344,30361,30378,30395,30411,30428,30445,30461,30477,30494,30511,30528,30544,30561,30577,30594,30611,30627,30644,30661,30677,30694,30711,30728,30744,30761,30778,30794,30811,30827,30844,30861,30878,30894,30911,30928,30944,30961,30978,30994,31011,31028,31044,31061,31078,31094,31111,31127,31144,31161,31177,31194,31211,31227,31244,31261,31277,31294,31311,31327,31344,31361,31377,31394,31411,31427,31444,31461,31478,31494,31511,31527,31544,31561,31577,31594,31611,31627,31644,31661,31677,31694,31711,31727,31744,31761,31777,31794,31810,31827,31844,31861,31878,31895,31911,31928,31945,31961,31978,31994,32011,32028,32044,32061,32077,32094,32111,32127,32144,32161,32177,32194,32211,32227,32245,32261,32277,32294,32311,32328,32345,32361,32378,32394,32411,32427,32444,32461,32477,32494,32511,32527,32544,32561,32577,32594,32611,32628,32644,32661,32678,32695,32712,32729,32745,32761,32778,32794,32811,32827,32844,32861,32877,32894,32911,32927,32944,32961,32978,32994,33011,33027,33044,33061,33078,33094,33111,33127,33144,33161,33177,33194,33211,33227,33244,33260,33277,33294,33311,33327,33344,33361,33377,33394,33411,33427,33444,33460,33477,33494,33511,33527,33544,33561,33577,33594,33610,33627,33644,33661,33677,33695,33714,33727,33744,33761,33777,33794,33810,33827,33844,33861,33877,33894,33911,33927,33944,33961,33977,33994,34011,34029,34045,34061,34078,34094,34110,34127,34144,34161,34177,34194,34211,34227,34244,34260,34277,34294,34310,34327,34344,34360,34377,34394,34412,34427,34444,34461,34477,34494,34528,34544,34561,34577,34594,34611,34627,34644,34660,34677,34694,34710,34727,34744,34760,34777,34794,34812,34827,34844,34860,34877,34894,34911,34927,34944,34960,34977,34994,35011,35028,35044,35060,35077,35095,35111,35128,35144,35161,35178,35195,35212,35228,35244,35260,35277,35294,35310,35327,35344,35361,35377,35394,35410,35427,35444,35460,35477,35494,35510,35527,35544,35560,35577,35594,35610,35627,35644,35660,35677,35694,35711,35727,35744,35761,35777,35794,35810,35827,35844,35860,35877,35894,35910,35927,35944,35960,35977,35994,36011,36027,36044,36060,36077,36094,36128,36144,36161,36178,36194,36211,36227,36243,36261,36277,36294,36311,36327,36344,36361,36377,36394,36410,36427,36444,36460,36477,36497,36510,36527,36544,36560,36577,36594,36610,36627,36643,36661,36677,36694,36710,36727,36744,36760,36777,36794,36810,36827,36844,36860,36877,36894,36910,36927,36944,36960,36977,36993,37010,37027,37043,37060,37077,37094,37110,37127,37144,37160,37177,37193,37210,37227,37244,37260,37277,37293,37310,37327,37344,37361,37377,37393,37410,37427,37444,37461,37477,37494,37510,37527,37544,37561,37577,37594,37611,37628,37644,37661,37678,37695,37712,37728,37744,37761,37777,37794,37811,37827,37844,37860,37877,37894,37911,37928,37944,37961,37977,37994,38011,38027,38044,38061,38077,38094,38110,38128,38144,38160,38177,38194,38210,38227,38243,38260,38277,38294,38311,38328,38344,38361,38377,38394,38411,38427,38444,38461,38477,38494,38510,38527,38544,38560,38577,38594,38610,38627,38643,38660,38677,38694,38710,38727,38744,38760,38779,38795,38811,38827,38844,38860,38877,38894,38911,38927,38944,38960,38977,38993,39010,39027,39043,39060,39077,39094,39110,39127,39144,39160,39178,39194,39210,39227,39243,39262,39277,39294,39310,39327,39344,39360,39377,39393,39410,39427,39444,39461,39477,39494,39511,39528,39544,39560,39577,39594,39611,39628,39644,39661,39677,39694,39710,39727,39744,39760,39777,39794,39811,39828,39844,39861,39877,39893,39910,39927,39943,39960,39977,39994,40011,40028,40045,40061,40077,40093,40110,40126,40143,40160,40177,40193,40210,40227,40243,40260,40277,40294,40310,40327,40343,40361,40377,40394,40411,40428,40444,40461,40477,40494,40510,40527,40543,40560,40577,40593,40613,40627,40643,40660,40677,40694,40710,40727,40743,40760,40777,40794,40810,40827,40843,40860,40877,40894,40910,40927,40943,40961,40977,40993,41010,41027,41043,41060,41077,41093,41110,41127,41143,41160,41177,41194,41210,41227,41243,41260,41277,41293,41310,41327,41344,41361,41378,41394,41411,41428,41444,41461,41477,41494,41511,41527,41543,41560,41577,41593,41611,41627,41643,41660,41677,41693,41710,41727,41744,41760,41778,41795,41811,41828,41843,41860,41877,41893,41910,41927,41943,41960,41977,41993,42011,42027,42044,42060,42076,42093,42110,42127,42143,42160,42177,42195,42210,42227,42244,42260,42277,42293,42310,42327,42343,42360,42377,42394,42410,42428,42444,42460,42477,42493,42510,42526,42543,42560,42577,42593,42610,42626,42643,42660,42677,42693,42710,42727,42743,42760,42776,42794,42810,42827,42844,42860,42876,42893,42910,42927,42943,42960,42976,42993,43010,43027,43043,43060,43077,43093,43110,43126,43143,43160,43176,43193,43210,43227,43243,43260,43276,43293,43310,43327,43343,43361,43377,43394,43410,43427,43443,43460,43477,43494,43511,43528,43544,43561,43577,43594,43610,43627,43644,43660,43677,43694,43711,43727,43744,43761,43777,43794,43810,43827,43844,43860,43877,43894,43911,43927,43943,43960,43977,43993,44010,44027,44043,44060,44077,44094,44111,44127,44143,44160,44177,44193,44210,44227,44244,44260,44277,44294,44311,44327,44343,44360,44376,44393,44410,44426,44443,44460,44477,44493,44510,44526,44544,44560,44577,44593,44610,44626,44643,44660,44677,44693,44713,44727,44743,44760,44777,44794,44810,44827,44843,44860,44877,44894,44910,44927,44943,44960,44976,44993,45010,45026,45044,45060,45077,45093,45110,45127,45143,45161,45176,45193,45211,45227,45243,45260,45276,45293,45310,45326,45343,45360,45376,45393,45410,45426,45443,45460,45476,45493,45510,45526,45543,45560,45576,45593,45610,45627,45643,45660,45676,45693,45710,45726,45743,45760,45777,45793,45810,45826,45843,45860,45878,45893,45910,45926,45943,45960,45976,45993,46010,46027,46043,46060,46077,46093,46113,46126,46143,46160,46176,46193,46210,46226,46243,46260,46277,46293,46310,46326,46343,46360,46376,46393,46410,46426,46443,46460,46476,46493,46510,46526,46543,46560,46577,46593,46610,46627,46643,46661,46677,46694,46710,46727,46744,46760,46777,46794,46811,46827,46843,46860,46876,46893,46910,46926,46943,46960,46977,46993,47010,47026,47043,47060,47076,47093,47110,47127,47143,47159,47176,47193,47210,47226,47243,47260,47277,47294,47310,47328,47344,47360,47377,47393,47410,47427,47443,47459,47479,47493,47510,47527,47543,47560,47576,47593,47610,47627,47643,47660,47676,47693,47710,47726,47743,47760,47776,47793,47809,47826,47843,47860,47877,47893,47910,47926,47943,47959,47976,47993,48010,48027,48043,48060,48077,48093,48109,48126,48143,48160,48176,48193,48210,48226,48243,48260,48277,48293,48310,48327,48343,48360,48376,48393,48410,48426,48443,48460,48476,48493,48509,48526,48543,48560,48576,48593,48610,48627,48643,48660,48676,48693,48710,48727,48743,48759,48777,48794,48811,48827,48843,48860,48876,48894,48910,48926,48943,48960,48976,48993,49010,49026,49043,49060,49076,49093,49109,49126,49143,49159,49176,49193,49210,49226,49243,49260,49276,49293,49310,49326,49343,49360,49376,49393,49409,49426,49443,49460,49477,49494,49510,49526,49543,49559,49576,49593,49610,49627,49643,49660,49676,49693,49710,49726,49743,49760,49776,49793,49810,49826,49843,49859,49876,49893,49909,49926,49943,49960,49976,49993,50010,50026,50043,50059,50077,50093,50110,50126,50143,50160,50176,50193,50209,50226,50243,50262,50276,50293,50310,50326,50343,50360,50376,50393,50409,50426,50443,50459,50476,50493,50510,50526,50543,50559,50576,50593,50610,50626,50643,50660,50676,50693,50709,50726,50743,50759,50776,50793,50809,50826,50843,50859,50876,50893,50909,50926,50943,50959,50976,50993,51010,51026,51043,51059,51076,51093,51110,51126,51143,51159,51176,51193,51209,51226,51243,51260,51276,51293,51309,51326,51343,51359,51376,51393,51410,51426,51443,51460,51477,51493,51510,51527,51543,51560,51576,51593,51610,51626,51643,51659,51676,51693,51709,51726,51743,51760,51776,51793,51809,51826,51843,51859,51876,51893,51909,51926,51943,51960,51977,51993,52009,52026,52043,52060,52076,52093,52110,52127,52144,52161,52177,52193,52210,52227,52243,52260,52276,52293,52310,52327,52343,52359,52376,52393,52409,52426,52443,52459,52476,52493,52509,52526,52543,52560,52576,52593,52609,52626,52643,52659,52676,52693,52710,52726,52743,52759,52776,52793,52809,52826,52843,52859,52876,52893,52909,52926,52943,52959,52976,52993,53009,53029,53043,53059,53076,53093,53109,53126,53143,53159,53176,53193,53209,53226,53243,53259,53276,53293,53309,53326,53343,53359,53376,53393,53409,53426,53442,53459,53476,53493,53509,53526,53543,53559,53576,53593,53609,53626,53643,53660,53676,53693,53709,53726,53743,53759,53777,53793,53809,53826,53843,53859,53876,53893,53909,53926,53943,53959,53976,53993,54009,54026,54043,54059,54076,54093,54109,54127,54143,54160,54176,54193,54210,54227,54244,54260,54277,54293,54310,54326,54343,54359,54376,54393,54409,54426,54443,54460,54476,54492,54509,54526,54543,54559,54576,54593,54610,54626,54642,54659,54676,54692,54709,54726,54742,54759,54776,54792,54809,54826,54842,54859,54876,54893,54909,54926,54942,54959,54976,54993,55009,55026,55042,55059,55076,55093,55109,55126,55143,55159,55176,55193,55209,55226,55243,55259,55276,55292,55309,55326,55343,55360,55376,55392,55409,55426,55443,55459,55476,55494,55510,55526,55542,55559,55576,55593,55610,55627,55644,55660,55676,55693,55709,55727,55743,55760,55776,55793,55811,55826,55842,55859,55877,55893,55909,55926,55943,55959,55976,55993,56010,56027,56043,56060,56077,56093,56110,56126,56143,56159,56176,56193,56209,56226,56242,56259,56276,56293,56309,56327,56343,56361,56376,56392,56409,56426,56443,56459,56476,56493,56510,56526,56543,56559,56576,56592,56609,56626,56642,56659,56676,56692,56709,56726,56742,56759,56776,56793,56809,56826,56843,56859,56876,56892,56909,56926,56942,56959,56976,56993,57009,57026,57043,57059,57076,57092,57109,57130,57144,57161,57177,57193,57210,57227,57243,57260,57276,57293,57310,57327,57344,57361,57376,57395,57409,57426,57460,57476,57493,57510,57526,57543,57561,57576,57592,57609,57626,57642,57659,57676,57693,57709,57726,57743,57759,57776,57793,57809,57826,57843,57860,57876,57893,57909,57926,57944,57960,57977,57993,58010,58026,58043,58059,58076,58093,58110,58127,58144,58160,58176,58193,58209,58226,58242,58259,58277,58293,58310,58327,58344,58360,58377,58393,58409,58426,58443,58460,58476,58493,58510,58527,58544,58561,58578,58593,58610,58626,58643,58659,58676,58693,58710,58727,58744,58760,58777,58794,58811,58826,58842,58859,58876,58892,58910,58927,58944,58960,58976,58992,59009,59026,59042,59060,59076,59092,59110,59126,59142,59159,59175,59192,59209,59226,59242,59259,59276,59293,59310,59326,59342,59359,59376,59392,59409,59426,59442,59459,59475,59492,59509,59526,59542,59559,59575,59592,59609,59626,59642,59660,59676,59692,59709,59726,59742,59763,59776,59795,59809,59826,59844,59860,59876,59893,59909,59926,59943,59960,59976,59993,60009,60026,60043,60059,60076,60092,60109,60126,60142,60159,60176,60193,60209,60225,60242,60259,60276,60293,60309,60326,60342,60359,60376,60393,60409,60426,60442,60459,60476,60492,60509,60526,60542,60559,60576,60593,60609,60626,60642,60659,60675,60692,60709,60726,60742,60759,60776,60792,60809,60826,60842,60859,60875,60892,60909,60926,60942,60959,60976,60992,61009,61026,61042,61059,61079,61093,61109,61126,61142,61159,61175,61192,61209,61226,61242,61259,61276,61292,61309,61325,61342,61359,61376,61392,61409,61426,61442,61459,61475,61492,61509,61526,61542,61559,61576,61592,61609,61626,61642,61659,61676,61692,61709,61726,61742,61759,61776,61794],"hit":[null],"x":[-1.751700680272109,-0.03741496598639456,-0.04081632653061224,-0.04421768707482993,-0.04421768707482993,-0.04421768707482993,-0.04421768707482993,-0.04421768707482993,-0.04421768707482993,-0.03741496598639456,-0.034013605442176874,-0.030612244897959183,-0.030612244897959183,-0.023809523809523808,-0.023809523809523808,-0.02040816326530612,-0.017006802721088437,-0.013605442176870748,-0.013605442176870748,-0.013605442176870748,-0.013605442176870748,-0.013605442176870748,-0.013605442176870748,-0.013605442176870748,-0.013605442176870748,-0.013605442176870748,-0.013605442176870748,-0.013605442176870748,-0.013605442176870748,-0.013605442176870748,-0.013605442176870748,-0.013605442176870748,-0.013605442176870748,-0.013605442176870748,-0.013605442176870748,-0.013605442176870748,-0.013605442176870748,-0.013605442176870748,-0.013605442176870748,-0.013605442176870748,-0.013605442176870748,-0.013605442176870748,-0.013605442176870748,-0.013605442176870748,-0.013605442176870748,-0.013605442176870748,-0.013605442176870748,-0.013605442176870748,-0.013605442176870748,-0.013605442176870748,-0.013605442176870748,-0.017006802721088437,-0.017006802721088437,-0.017006802721088437,-0.02040816326530612,-0.023809523809523808,-0.027210884353741496,-0.04081632653061224,-0.05782312925170068,-0.0782312925170068,-0.09863945578231292,-0.11904761904761904,-0.1360544217687075,-0.1564625850340136,-0.17687074829931973,-0.20068027210884354,-0.22448979591836735,-0.25170068027210885,-0.272108843537415,-0.2789115646258503,-0.2857142857142857,-0.2891156462585034,-0.2925170068027211,-0.2925170068027211,-0.2925170068027211,-0.2925170068027211,-0.2925170068027211,-0.2925170068027211,-0.2925170068027211,-0.2925170068027211,-0.2925170068027211,-0.2925170068027211,-0.2925170068027211,-0.2925170068027211,-0.2925170068027211,-0.2925170068027211,-0.2925170068027211,-0.2925170068027211,-0.2925170068027211,-0.2925170068027211,-0.2925170068027211,-0.2925170068027211,-0.2925170068027211,-0.2925170068027211,-0.2925170068027211,-0.2925170068027211,-0.2925170068027211,-0.2925170068027211,-0.2925170068027211,-0.2925170068027211,-0.2925170068027211,-0.2925170068027211,-0.2925170068027211,-0.2925170068027211,-0.2925170068027211,-0.2925170068027211,-0.2925170068027211,-0.2925170068027211,-0.2925170068027211,-0.2925170068027211,-0.2925170068027211,-0.2925170068027211,-0.2925170068027211,-0.2925170068027211,-0.2925170068027211,-0.2925170068027211,-0.2925170068027211,-0.2925170068027211,-0.2925170068027211,-0.2925170068027211,-0.2925170068027211,-0.2925170068027211,-0.2925170068027211,-0.2925170068027211,-0.2925170068027211,-0.2925170068027211,-0.2925170068027211,-0.2925170068027211,-0.2925170068027211,-0.2925170068027211,-0.2925170068027211,-0.2925170068027211,-0.2925170068027211,-0.2925170068027211,-0.2925170068027211,-0.2925170068027211,-0.2925170068027211,-0.2925170068027211,-0.2925170068027211,-0.2925170068027211,-0.2925170068027211,-0.2925170068027211,-0.2925170068027211,-0.2925170068027211,-0.2925170068027211,-0.2925170068027211,-0.2925170068027211,-0.2925170068027211,-0.2925170068027211,-0.2925170068027211,-0.2925170068027211,-0.2925170068027211,-0.2925170068027211,-0.2925170068027211,-0.2925170068027211,-0.2925170068027211,-0.2925170068027211,-0.2925170068027211,-0.2925170068027211,-0.2925170068027211,-0.2925170068027211,-0.2925170068027211,-0.2925170068027211,-0.2925170068027211,-0.2925170068027211,-0.2925170068027211,-0.2925170068027211,-0.2925170068027211,-0.2925170068027211,-0.2925170068027211,-0.2925170068027211,-0.2925170068027211,-0.2925170068027211,-0.2925170068027211,-0.2925170068027211,-0.2925170068027211,-0.2925170068027211,-0.2925170068027211,-0.2925170068027211,-0.2925170068027211,-0.2925170068027211,-0.2925170068027211,-0.2925170068027211,-0.2925170068027211,-0.2925170068027211,-0.2925170068027211,-0.2925170068027211,-0.2925170068027211,-0.2925170068027211,-0.2925170068027211,-0.2925170068027211,-0.2925170068027211,-0.2925170068027211,-0.2925170068027211,-0.2925170068027211,-0.2925170068027211,-0.2925170068027211,-0.2925170068027211,-0.2925170068027211,-0.2925170068027211,-0.2925170068027211,-0.2925170068027211,-0.2925170068027211,-0.2925170068027211,-0.2925170068027211,-0.2925170068027211,-0.2925170068027211,-0.2925170068027211,-0.2925170068027211,-0.2925170068027211,-0.2925170068027211,-0.2925170068027211,-0.2925170068027211,-0.2925170068027211,-0.2925170068027211,-0.2925170068027211,-0.2925170068027211,-0.2925170068027211,-0.2925170068027211,-0.2925170068027211,-0.2925170068027211,-0.2925170068027211,-0.2925170068027211,-0.2925170068027211,-0.2925170068027211,-0.2925170068027211,-0.2925170068027211,-0.2925170068027211,-0.2925170068027211,-0.2925170068027211,-0.2925170068027211,-0.2925170068027211,-0.2925170068027211,-0.2925170068027211,-0.2925170068027211,-0.2925170068027211,-0.2925170068027211,-0.2925170068027211,-0.2925170068027211,-0.2925170068027211,-0.2925170068027211,-0.2925170068027211,-0.2925170068027211,-0.2925170068027211,-0.2925170068027211,-0.2925170068027211,-0.2925170068027211,-0.2925170068027211,-0.2925170068027211,-0.2925170068027211,-0.2925170068027211,-0.2925170068027211,-0.2925170068027211,-0.2925170068027211,-0.2925170068027211,-0.2925170068027211,-0.2925170068027211,-0.2925170068027211,-0.2925170068027211,-0.2925170068027211,-0.2925170068027211,-0.2925170068027211,-0.2925170068027211,-0.2925170068027211,-0.2925170068027211,-0.2925170068027211,-0.2925170068027211,-0.2925170068027211,-0.2925170068027211,-0.2925170068027211,-0.2925170068027211,-0.2925170068027211,-0.2925170068027211,-0.2925170068027211,-0.2925170068027211,-0.2925170068027211,-0.2925170068027211,-0.2925170068027211,-0.2925170068027211,-0.2925170068027211,-0.2925170068027211,-0.2925170068027211,-0.2925170068027211,-0.2925170068027211,-0.2925170068027211,-0.2925170068027211,-0.2925170068027211,-0.2925170068027211,-0.2925170068027211,-0.2925170068027211,-0.2925170068027211,-0.2925170068027211,-0.2925170068027211,-0.2925170068027211,-0.2925170068027211,-0.2925170068027211,-0.2925170068027211,-0.2925170068027211,-0.2925170068027211,-0.2925170068027211,-0.2925170068027211,-0.2925170068027211,-0.2925170068027211,-0.2925170068027211,-0.2925170068027211,-0.2925170068027211,-0.2925170068027211,-0.2925170068027211,-0.2925170068027211,-0.2925170068027211,-0.2925170068027211,-0.2925170068027211,-0.2925170068027211,-0.2925170068027211,-0.2925170068027211,-0.2925170068027211,-0.2925170068027211,-0.2925170068027211,-0.2925170068027211,-0.2925170068027211,-0.2925170068027211,-0.2925170068027211,-0.2925170068027211,-0.2925170068027211,-0.2925170068027211,-0.2925170068027211,-0.2925170068027211,-0.2925170068027211,-0.2925170068027211,-0.2925170068027211,-0.2925170068027211,-0.2925170068027211,-0.2925170068027211,-0.2925170068027211,-0.2925170068027211,-0.2925170068027211,-0.2925170068027211,-0.2925170068027211,-0.2925170068027211,-0.2925170068027211,-0.2925170068027211,-0.2925170068027211,-0.2925170068027211,-0.2925170068027211,-0.2925170068027211,-0.2925170068027211,-0.2925170068027211,-0.2925170068027211,-0.2925170068027211,-0.2925170068027211,-0.2925170068027211,-0.2925170068027211,-0.2925170068027211,-0.2925170068027211,-0.2925170068027211,-0.2925170068027211,-0.2925170068027211,-0.2925170068027211,-0.2925170068027211,-0.2925170068027211,-0.2925170068027211,-0.2925170068027211,-0.2925170068027211,-0.2925170068027211,-0.2925170068027211,-0.2925170068027211,-0.2925170068027211,-0.2925170068027211,-0.2925170068027211,-0.2925170068027211,-0.2925170068027211,-0.2925170068027211,-0.2925170068027211,-0.2925170068027211,-0.282312925170068,-0.2755102040816326,-0.272108843537415,-0.2653061224489796,-0.2619047619047619,-0.2585034013605442,-0.25170068027210885,-0.23129251700680273,-0.21768707482993196,-0.20068027210884354,-0.1870748299319728,-0.18027210884353742,-0.17687074829931973,-0.17346938775510204,-0.1598639455782313,-0.14285714285714285,-0.1292517006802721,-0.12244897959183673,-0.12244897959183673,-0.12244897959183673,-0.12244897959183673,-0.12244897959183673,-0.12244897959183673,-0.12244897959183673,-0.12244897959183673,-0.12244897959183673,-0.12244897959183673,-0.12244897959183673,-0.12244897959183673,-0.12244897959183673,-0.12244897959183673,-0.12244897959183673,-0.12244897959183673,-0.12244897959183673,-0.12244897959183673,-0.12244897959183673,-0.12244897959183673,-0.12244897959183673,-0.12244897959183673,-0.12244897959183673,-0.12244897959183673,-0.12244897959183673,-0.12244897959183673,-0.12244897959183673,-0.12244897959183673,-0.12244897959183673,-0.12244897959183673,-0.12244897959183673,-0.12244897959183673,-0.12244897959183673,-0.12244897959183673,-0.12244897959183673,-0.12244897959183673,-0.12244897959183673,-0.12244897959183673,-0.12244897959183673,-0.12244897959183673,-0.12244897959183673,-0.12244897959183673,-0.12244897959183673,-0.12244897959183673,-0.12244897959183673,-0.12244897959183673,-0.12244897959183673,-0.12244897959183673,-0.12244897959183673,-0.12244897959183673,-0.12244897959183673,-0.12244897959183673,-0.12244897959183673,-0.12244897959183673,-0.12244897959183673,-0.12244897959183673,-0.12244897959183673,-0.12244897959183673,-0.12244897959183673,-0.12244897959183673,-0.12244897959183673,-0.12244897959183673,-0.12244897959183673,-0.12244897959183673,-0.12244897959183673,-0.12244897959183673,-0.12244897959183673,-0.12244897959183673,-0.12244897959183673,-0.12244897959183673,-0.12244897959183673,-0.12244897959183673,-0.12244897959183673,-0.12244897959183673,-0.12244897959183673,-0.12244897959183673,-0.12244897959183673,-0.12244897959183673,-0.12244897959183673,-0.12244897959183673,-0.12244897959183673,-0.12244897959183673,-0.12244897959183673,-0.12244897959183673,-0.12244897959183673,-0.12244897959183673,-0.12244897959183673,-0.10884353741496598,-0.05782312925170068,-0.027210884353741496,-0.013605442176870748,-0.006802721088435374,0,0,0,0,0,0,0,0.003401360544217687,0.013605442176870748,0.03741496598639456,0.09523809523809523,0.15306122448979592,0.23469387755102042,0.3129251700680272,0.41156462585034015,0.4965986394557823,0.564625850340136,0.6428571428571429,0.7142857142857143,0.7517006802721088,0.7789115646258503,0.7925170068027211,0.8061224489795918,0.8231292517006803,0.8401360544217688,0.8503401360544217,0.8673469387755102,0.8741496598639455,0.8775510204081632,0.8775510204081632,0.8809523809523809,0.8843537414965986,0.8843537414965986,0.8877551020408163,0.891156462585034,0.8945578231292517,0.8945578231292517,0.8945578231292517,0.8945578231292517,0.8945578231292517,0.8945578231292517,0.8945578231292517,0.8945578231292517,0.8945578231292517,0.8945578231292517,0.8945578231292517,0.8945578231292517,0.8979591836734694,0.9761904761904762,1.0238095238095237,1.0374149659863945,1.0374149659863945,1.0374149659863945,1.0374149659863945,1.0374149659863945,1.0374149659863945,1.0374149659863945,1.0374149659863945,1.0374149659863945,1.0374149659863945,1.0408163265306123,1.0408163265306123,1.0442176870748299,1.0476190476190477,1.054421768707483,1.0816326530612246,1.1054421768707483,1.119047619047619,1.1326530612244898,1.1326530612244898,1.1360544217687074,1.1360544217687074,1.1360544217687074,1.1360544217687074,1.1360544217687074,1.1360544217687074,1.1360544217687074,1.1360544217687074,1.1360544217687074,1.1360544217687074,1.1360544217687074,1.1360544217687074,1.1360544217687074,1.1360544217687074,1.1360544217687074,1.1360544217687074,1.1394557823129252,1.1428571428571428,1.1462585034013606,1.1326530612244898,1.0714285714285714,0.8367346938775511,0.6768707482993197,0.5306122448979592,0.4557823129251701,0.445578231292517,0.445578231292517,0.445578231292517,0.4387755102040816,0.43197278911564624,0.42857142857142855,0.42857142857142855,0.42857142857142855,0.42857142857142855,0.42857142857142855,0.42857142857142855,0.42857142857142855,0.42857142857142855,0.42857142857142855,0.42857142857142855,0.42857142857142855,0.42857142857142855,0.42857142857142855,0.42857142857142855,0.42857142857142855,0.42857142857142855,0.42857142857142855,0.42857142857142855,0.42857142857142855,0.42857142857142855,0.42857142857142855,0.42857142857142855,0.42857142857142855,0.42857142857142855,0.42857142857142855,0.42857142857142855,0.42857142857142855,0.42857142857142855,0.42857142857142855,0.42857142857142855,0.42857142857142855,0.42857142857142855,0.42857142857142855,0.42857142857142855,0.42857142857142855,0.42857142857142855,0.42857142857142855,0.42857142857142855,0.42857142857142855,0.42857142857142855,0.42517006802721086,0.42517006802721086,0.41836734693877553,0.40476190476190477,0.3945578231292517,0.38095238095238093,0.3673469387755102,0.35374149659863946,0.3401360544217687,0.3299319727891156,0.3129251700680272,0.30952380952380953,0.30612244897959184,0.30612244897959184,0.30612244897959184,0.30272108843537415,0.29931972789115646,0.29931972789115646,0.29591836734693877,0.29591836734693877,0.29591836734693877,0.29591836734693877,0.29591836734693877,0.29591836734693877,0.29591836734693877,0.29591836734693877,0.29591836734693877,0.29591836734693877,0.29591836734693877,0.29591836734693877,0.29591836734693877,0.29591836734693877,0.29591836734693877,0.29591836734693877,0.29591836734693877,0.29591836734693877,0.29591836734693877,0.29591836734693877,0.29591836734693877,0.29591836734693877,0.29591836734693877,0.29591836734693877,0.29591836734693877,0.29591836734693877,0.29591836734693877,0.29591836734693877,0.29591836734693877,0.29591836734693877,0.29591836734693877,0.29591836734693877,0.29591836734693877,0.29591836734693877,0.29591836734693877,0.29591836734693877,0.29591836734693877,0.29591836734693877,0.29591836734693877,0.29591836734693877,0.29591836734693877,0.29591836734693877,0.29591836734693877,0.29591836734693877,0.29591836734693877,0.29591836734693877,0.29591836734693877,0.29591836734693877,0.29591836734693877,0.29591836734693877,0.29591836734693877,0.29591836734693877,0.29591836734693877,0.29591836734693877,0.29591836734693877,0.29591836734693877,0.29591836734693877,0.29591836734693877,0.29591836734693877,0.29591836734693877,0.29591836734693877,0.29591836734693877,0.29591836734693877,0.29591836734693877,0.29591836734693877,0.29591836734693877,0.29591836734693877,0.29591836734693877,0.29591836734693877,0.29591836734693877,0.29591836734693877,0.29591836734693877,0.29591836734693877,0.29591836734693877,0.29591836734693877,0.29591836734693877,0.29591836734693877,0.29591836734693877,0.29591836734693877,0.29591836734693877,0.29591836734693877,0.29591836734693877,0.29591836734693877,0.29591836734693877,0.29591836734693877,0.29591836734693877,0.29591836734693877,0.29591836734693877,0.29591836734693877,0.29591836734693877,0.29591836734693877,0.29591836734693877,0.29591836734693877,0.29591836734693877,0.29591836734693877,0.29591836734693877,0.29591836734693877,0.2789115646258503,0.14285714285714285,0.08503401360544217,0.07482993197278912,0.07142857142857142,0.08843537414965986,0.1054421768707483,0.12244897959183673,0.1326530612244898,0.15306122448979592,0.17006802721088435,0.17687074829931973,0.19047619047619047,0.19727891156462585,0.19727891156462585,0.20068027210884354,0.20068027210884354,0.20068027210884354,0.20068027210884354,0.20068027210884354,0.20068027210884354,0.20068027210884354,0.20068027210884354,0.20068027210884354,0.20068027210884354,0.20068027210884354,0.20068027210884354,0.20068027210884354,0.20068027210884354,0.20068027210884354,0.20068027210884354,0.20068027210884354,0.20068027210884354,0.20748299319727892,0.21768707482993196,0.2619047619047619,0.3129251700680272,0.3707482993197279,0.40816326530612246,0.4217687074829932,0.43537414965986393,0.4387755102040816,0.4489795918367347,0.4523809523809524,0.46598639455782315,0.46938775510204084,0.46938775510204084,0.46938775510204084,0.46938775510204084,0.46938775510204084,0.46938775510204084,0.46938775510204084,0.46258503401360546,0.4523809523809524,0.4489795918367347,0.445578231292517,0.445578231292517,0.445578231292517,0.4489795918367347,0.46258503401360546,0.5,0.5340136054421769,0.5612244897959183,0.5782312925170068,0.5918367346938775,0.6020408163265306,0.6122448979591837,0.6156462585034014,0.6156462585034014,0.6156462585034014,0.6156462585034014,0.6156462585034014,0.6156462585034014,0.6156462585034014,0.6156462585034014,0.6156462585034014,0.608843537414966,0.6054421768707483,0.6020408163265306,0.5986394557823129,0.5986394557823129,0.5986394557823129,0.5986394557823129,0.5986394557823129,0.5986394557823129,0.5986394557823129,0.5986394557823129,0.5986394557823129,0.5986394557823129,0.5986394557823129,0.5986394557823129,0.5986394557823129,0.5986394557823129,0.5986394557823129,0.5986394557823129,0.5986394557823129,0.5986394557823129,0.5986394557823129,0.5986394557823129,0.5986394557823129,0.5986394557823129,0.5986394557823129,0.5986394557823129,0.5986394557823129,0.5986394557823129,0.5986394557823129,0.5986394557823129,0.5986394557823129,0.5986394557823129,0.5986394557823129,0.5986394557823129,0.5986394557823129,0.5986394557823129,0.5986394557823129,0.5986394557823129,0.5986394557823129,0.5986394557823129,0.5986394557823129,0.5986394557823129,0.5986394557823129,0.5986394557823129,0.5986394557823129,0.5986394557823129,0.5986394557823129,0.5986394557823129,0.5986394557823129,0.5986394557823129,0.5986394557823129,0.5986394557823129,0.5986394557823129,0.5986394557823129,0.5986394557823129,0.5986394557823129,0.5986394557823129,0.5986394557823129,0.5986394557823129,0.5986394557823129,0.5986394557823129,0.5986394557823129,0.5986394557823129,0.5986394557823129,0.5986394557823129,0.5986394557823129,0.5986394557823129,0.5986394557823129,0.5986394557823129,0.5986394557823129,0.5986394557823129,0.5986394557823129,0.5986394557823129,0.5986394557823129,0.5986394557823129,0.5986394557823129,0.5986394557823129,0.5986394557823129,0.5986394557823129,0.5986394557823129,0.5986394557823129,0.5986394557823129,0.5986394557823129,0.5986394557823129,0.5986394557823129,0.5986394557823129,0.5986394557823129,0.5986394557823129,0.5986394557823129,0.5986394557823129,0.5986394557823129,0.5986394557823129,0.5986394557823129,0.5986394557823129,0.5986394557823129,0.5986394557823129,0.5986394557823129,0.5986394557823129,0.5986394557823129,0.5986394557823129,0.5986394557823129,0.5986394557823129,0.5986394557823129,0.5986394557823129,0.5986394557823129,0.5986394557823129,0.5986394557823129,0.5986394557823129,0.5986394557823129,0.5986394557823129,0.5986394557823129,0.5986394557823129,0.5986394557823129,0.5986394557823129,0.5986394557823129,0.5986394557823129,0.5986394557823129,0.5986394557823129,0.5986394557823129,0.5986394557823129,0.5986394557823129,0.5986394557823129,0.5986394557823129,0.5986394557823129,0.5986394557823129,0.5986394557823129,0.5986394557823129,0.5986394557823129,0.5986394557823129,0.5986394557823129,0.5986394557823129,0.5986394557823129,0.5986394557823129,0.5986394557823129,0.5986394557823129,0.5986394557823129,0.5986394557823129,0.5986394557823129,0.5986394557823129,0.5986394557823129,0.5986394557823129,0.5986394557823129,0.5986394557823129,0.5986394557823129,0.5986394557823129,0.5986394557823129,0.5986394557823129,0.5986394557823129,0.5986394557823129,0.5986394557823129,0.5986394557823129,0.5986394557823129,0.5986394557823129,0.5986394557823129,0.5986394557823129,0.5986394557823129,0.5986394557823129,0.5986394557823129,0.5986394557823129,0.5986394557823129,0.5986394557823129,0.5986394557823129,0.5986394557823129,0.5986394557823129,0.5986394557823129,0.5986394557823129,0.5986394557823129,0.5986394557823129,0.5986394557823129,0.5986394557823129,0.5986394557823129,0.5986394557823129,0.5986394557823129,0.5986394557823129,0.5986394557823129,0.5986394557823129,0.5986394557823129,0.5986394557823129,0.5986394557823129,0.5986394557823129,0.5986394557823129,0.5986394557823129,0.5986394557823129,0.5986394557823129,0.5986394557823129,0.5986394557823129,0.5986394557823129,0.5986394557823129,0.5986394557823129,0.5986394557823129,0.5986394557823129,0.5986394557823129,0.5986394557823129,0.5986394557823129,0.5986394557823129,0.5986394557823129,0.5986394557823129,0.5986394557823129,0.5986394557823129,0.5986394557823129,0.5986394557823129,0.5986394557823129,0.5986394557823129,0.5986394557823129,0.5986394557823129,0.5986394557823129,0.5986394557823129,0.5986394557823129,0.5986394557823129,0.5986394557823129,0.5986394557823129,0.5986394557823129,0.5986394557823129,0.5986394557823129,0.5986394557823129,0.5986394557823129,0.5986394557823129,0.5986394557823129,0.5986394557823129,0.5986394557823129,0.5986394557823129,0.5986394557823129,0.5884353741496599,0.5476190476190477,0.5272108843537415,0.5204081632653061,0.5170068027210885,0.5170068027210885,0.5170068027210885,0.5170068027210885,0.5272108843537415,0.564625850340136,0.6632653061224489,0.8163265306122449,0.9523809523809523,1.0238095238095237,1.034013605442177,1.034013605442177,1.034013605442177,1.030612244897959,1.0272108843537415,1.0238095238095237,1.0068027210884354,0.9693877551020408,0.9183673469387755,0.8571428571428571,0.7959183673469388,0.7551020408163265,0.7108843537414966,0.6666666666666666,0.608843537414966,0.5680272108843537,0.5238095238095238,0.47959183673469385,0.4387755102040816,0.4013605442176871,0.35034013605442177,0.29591836734693877,0.23469387755102042,0.17346938775510204,0.1326530612244898,0.08843537414965986,0.061224489795918366,0.05782312925170068,0.05782312925170068,0.05782312925170068,0.05782312925170068,0.05102040816326531,0.047619047619047616,0.04421768707482993,0.04081632653061224,0.034013605442176874,0.030612244897959183,0.023809523809523808,0.01020408163265306,0.003401360544217687,0,-0.006802721088435374,-0.01020408163265306,-0.02040816326530612,-0.023809523809523808,-0.023809523809523808,-0.023809523809523808,-0.023809523809523808,-0.023809523809523808,-0.023809523809523808,-0.023809523809523808,-0.023809523809523808,-0.023809523809523808,-0.023809523809523808,-0.023809523809523808,-0.02040816326530612,-0.006802721088435374,0.006802721088435374,0.01020408163265306,0.01020408163265306,-0.003401360544217687,-0.030612244897959183,-0.06462585034013606,-0.09863945578231292,-0.11564625850340136,-0.12244897959183673,-0.12244897959183673,-0.12244897959183673,-0.12244897959183673,-0.12244897959183673,-0.12244897959183673,-0.12244897959183673,-0.12244897959183673,-0.12244897959183673,-0.12244897959183673,-0.12244897959183673,-0.12244897959183673,-0.12244897959183673,-0.12244897959183673,-0.12244897959183673,-0.12244897959183673,-0.12244897959183673,-0.12244897959183673,-0.12244897959183673,-0.12244897959183673,-0.12244897959183673,-0.12244897959183673,-0.12244897959183673,-0.12244897959183673,-0.12244897959183673,-0.12244897959183673,-0.12244897959183673,-0.12244897959183673,-0.12244897959183673,-0.12244897959183673,-0.12244897959183673,-0.12244897959183673,-0.12244897959183673,-0.12244897959183673,-0.12244897959183673,-0.12244897959183673,-0.12244897959183673,-0.12244897959183673,-0.12244897959183673,-0.12244897959183673,-0.12244897959183673,-0.12244897959183673,-0.12244897959183673,-0.12244897959183673,-0.12244897959183673,-0.12244897959183673,-0.12244897959183673,-0.12244897959183673,-0.12244897959183673,-0.12244897959183673,-0.12244897959183673,-0.12244897959183673,-0.12244897959183673,-0.12244897959183673,-0.12244897959183673,-0.12244897959183673,-0.12244897959183673,-0.12244897959183673,-0.12244897959183673,-0.12244897959183673,-0.12244897959183673,-0.12244897959183673,-0.12244897959183673,-0.12244897959183673,-0.12244897959183673,-0.12244897959183673,-0.12244897959183673,-0.12244897959183673,-0.12244897959183673,-0.12244897959183673,-0.12244897959183673,-0.12244897959183673,-0.12244897959183673,-0.12244897959183673,-0.12244897959183673,-0.12244897959183673,-0.12244897959183673,-0.12244897959183673,-0.12244897959183673,-0.12244897959183673,-0.12244897959183673,-0.12244897959183673,-0.12244897959183673,-0.12244897959183673,-0.12244897959183673,-0.12244897959183673,-0.12244897959183673,-0.12244897959183673,-0.12244897959183673,-0.12244897959183673,-0.12244897959183673,-0.12244897959183673,-0.12244897959183673,-0.12244897959183673,-0.12244897959183673,-0.12244897959183673,-0.12244897959183673,-0.12244897959183673,-0.12244897959183673,-0.12244897959183673,-0.12244897959183673,-0.12244897959183673,-0.12244897959183673,-0.12244897959183673,-0.12244897959183673,-0.12244897959183673,-0.12244897959183673,-0.12244897959183673,-0.12244897959183673,-0.12244897959183673,-0.12244897959183673,-0.12244897959183673,-0.12244897959183673,-0.12244897959183673,-0.12244897959183673,-0.12244897959183673,-0.12244897959183673,-0.12244897959183673,-0.12244897959183673,-0.12244897959183673,-0.12244897959183673,-0.12244897959183673,-0.12244897959183673,-0.12244897959183673,-0.12244897959183673,-0.12244897959183673,-0.12244897959183673,-0.12244897959183673,-0.12244897959183673,-0.12244897959183673,-0.12244897959183673,-0.12244897959183673,-0.12244897959183673,-0.12244897959183673,-0.12244897959183673,-0.12244897959183673,-0.12244897959183673,-0.12244897959183673,-0.12244897959183673,-0.12244897959183673,-0.12244897959183673,-0.12244897959183673,-0.12244897959183673,-0.12244897959183673,-0.12244897959183673,-0.12244897959183673,-0.12244897959183673,-0.12244897959183673,-0.12244897959183673,-0.12244897959183673,-0.12244897959183673,-0.12244897959183673,-0.12244897959183673,-0.12244897959183673,-0.12244897959183673,-0.12244897959183673,-0.12244897959183673,-0.12244897959183673,-0.12244897959183673,-0.12244897959183673,-0.12244897959183673,-0.12244897959183673,-0.12244897959183673,-0.12244897959183673,-0.12244897959183673,-0.12244897959183673,-0.12244897959183673,-0.12244897959183673,-0.12244897959183673,-0.12244897959183673,-0.12244897959183673,-0.12244897959183673,-0.12244897959183673,-0.12244897959183673,-0.12244897959183673,-0.12244897959183673,-0.12244897959183673,-0.12244897959183673,-0.12244897959183673,-0.12244897959183673,-0.12244897959183673,-0.12244897959183673,-0.12244897959183673,-0.12244897959183673,-0.12244897959183673,-0.12244897959183673,-0.12244897959183673,-0.12244897959183673,-0.12244897959183673,-0.12244897959183673,-0.12244897959183673,-0.12244897959183673,-0.12244897959183673,-0.12244897959183673,-0.12244897959183673,-0.12244897959183673,-0.12244897959183673,-0.12244897959183673,-0.12244897959183673,-0.12244897959183673,-0.12244897959183673,-0.12244897959183673,-0.12244897959183673,-0.12244897959183673,-0.12244897959183673,-0.12244897959183673,-0.12244897959183673,-0.12244897959183673,-0.12244897959183673,-0.12244897959183673,-0.12244897959183673,-0.12244897959183673,-0.12244897959183673,-0.12244897959183673,-0.12244897959183673,-0.12244897959183673,-0.12244897959183673,-0.12244897959183673,-0.12244897959183673,-0.12244897959183673,-0.12244897959183673,-0.12244897959183673,-0.12244897959183673,-0.12244897959183673,-0.12244897959183673,-0.12244897959183673,-0.12244897959183673,-0.12244897959183673,-0.12244897959183673,-0.12244897959183673,-0.12244897959183673,-0.12244897959183673,-0.12244897959183673,-0.12244897959183673,-0.12244897959183673,-0.12244897959183673,-0.12244897959183673,-0.12244897959183673,-0.12244897959183673,-0.12244897959183673,-0.12244897959183673,-0.12244897959183673,-0.12244897959183673,-0.12244897959183673,-0.12244897959183673,-0.12244897959183673,-0.12244897959183673,-0.12244897959183673,-0.12244897959183673,-0.12244897959183673,-0.12244897959183673,-0.12244897959183673,-0.12244897959183673,-0.12244897959183673,-0.12244897959183673,-0.12244897959183673,-0.12244897959183673,-0.12244897959183673,-0.12244897959183673,-0.12244897959183673,-0.12244897959183673,-0.12244897959183673,-0.12244897959183673,-0.12244897959183673,-0.12244897959183673,-0.12244897959183673,-0.12244897959183673,-0.12244897959183673,-0.12244897959183673,-0.12244897959183673,-0.12244897959183673,-0.12244897959183673,-0.12244897959183673,-0.12244897959183673,-0.12244897959183673,-0.12244897959183673,-0.12244897959183673,-0.12244897959183673,-0.12244897959183673,-0.12244897959183673,-0.12244897959183673,-0.12244897959183673,-0.12244897959183673,-0.12244897959183673,-0.12244897959183673,-0.12244897959183673,-0.12244897959183673,-0.12244897959183673,-0.12244897959183673,-0.12244897959183673,-0.12244897959183673,-0.12244897959183673,-0.12244897959183673,-0.12244897959183673,-0.12244897959183673,-0.12244897959183673,-0.12244897959183673,-0.12244897959183673,-0.12244897959183673,-0.12244897959183673,-0.12244897959183673,-0.12244897959183673,-0.12244897959183673,-0.12244897959183673,-0.12244897959183673,-0.12244897959183673,-0.12244897959183673,-0.12244897959183673,-0.12244897959183673,-0.12244897959183673,-0.12244897959183673,-0.12244897959183673,-0.12244897959183673,-0.12244897959183673,-0.12244897959183673,-0.12244897959183673,-0.12244897959183673,-0.12244897959183673,-0.12244897959183673,-0.12244897959183673,-0.12244897959183673,-0.12244897959183673,-0.12244897959183673,-0.12244897959183673,-0.12244897959183673,-0.12244897959183673,-0.12244897959183673,-0.12244897959183673,-0.12244897959183673,-0.12244897959183673,-0.12244897959183673,-0.12244897959183673,-0.12244897959183673,-0.12244897959183673,-0.12244897959183673,-0.12244897959183673,-0.12244897959183673,-0.12244897959183673,-0.12244897959183673,-0.12244897959183673,-0.12244897959183673,-0.12244897959183673,-0.12244897959183673,-0.12244897959183673,-0.12244897959183673,-0.12244897959183673,-0.12244897959183673,-0.12244897959183673,-0.12244897959183673,-0.12244897959183673,-0.12244897959183673,-0.12244897959183673,-0.12244897959183673,-0.12244897959183673,-0.12244897959183673,-0.12244897959183673,-0.12244897959183673,-0.12244897959183673,-0.12244897959183673,-0.12244897959183673,-0.12244897959183673,-0.12244897959183673,-0.12244897959183673,-0.12244897959183673,-0.12244897959183673,-0.12244897959183673,-0.12244897959183673,-0.12244897959183673,-0.12244897959183673,-0.12244897959183673,-0.12244897959183673,-0.12244897959183673,-0.12244897959183673,-0.12244897959183673,-0.12244897959183673,-0.12244897959183673,-0.12244897959183673,-0.12244897959183673,-0.12244897959183673,-0.12244897959183673,-0.12244897959183673,-0.12244897959183673,-0.12244897959183673,-0.12244897959183673,-0.12244897959183673,-0.12244897959183673,-0.12244897959183673,-0.12244897959183673,-0.12244897959183673,-0.12244897959183673,-0.12244897959183673,-0.12244897959183673,-0.12244897959183673,-0.12244897959183673,-0.12244897959183673,-0.12244897959183673,-0.12244897959183673,-0.12244897959183673,-0.12244897959183673,-0.12244897959183673,-0.12244897959183673,-0.12244897959183673,-0.12244897959183673,-0.12244897959183673,-0.12244897959183673,-0.12244897959183673,-0.12244897959183673,-0.12244897959183673,-0.12244897959183673,-0.12244897959183673,-0.12244897959183673,-0.12244897959183673,-0.12244897959183673,-0.12244897959183673,-0.12244897959183673,-0.12244897959183673,-0.12244897959183673,-0.12244897959183673,-0.12244897959183673,-0.12244897959183673,-0.12244897959183673,-0.12244897959183673,-0.12244897959183673,-0.12244897959183673,-0.12244897959183673,-0.12244897959183673,-0.12244897959183673,-0.12244897959183673,-0.12244897959183673,-0.12244897959183673,-0.12244897959183673,-0.12244897959183673,-0.12244897959183673,-0.12244897959183673,-0.12244897959183673,-0.12244897959183673,-0.12244897959183673,-0.12244897959183673,-0.12244897959183673,-0.12244897959183673,-0.12244897959183673,-0.12244897959183673,-0.12244897959183673,-0.12244897959183673,-0.12244897959183673,-0.12244897959183673,-0.12244897959183673,-0.12244897959183673,-0.12244897959183673,-0.12244897959183673,-0.12244897959183673,-0.12244897959183673,-0.12244897959183673,-0.12244897959183673,-0.12244897959183673,-0.12244897959183673,-0.12244897959183673,-0.12244897959183673,-0.12244897959183673,-0.12244897959183673,-0.12244897959183673,-0.12244897959183673,-0.12244897959183673,-0.12244897959183673,-0.12244897959183673,-0.12244897959183673,-0.12244897959183673,-0.12244897959183673,-0.12244897959183673,-0.12244897959183673,-0.12244897959183673,-0.12244897959183673,-0.12244897959183673,-0.12244897959183673,-0.12244897959183673,-0.12244897959183673,-0.12244897959183673,-0.12244897959183673,-0.12244897959183673,-0.12244897959183673,-0.12244897959183673,-0.12244897959183673,-0.12244897959183673,-0.12244897959183673,-0.12244897959183673,-0.12244897959183673,-0.12244897959183673,-0.12244897959183673,-0.12244897959183673,-0.12244897959183673,-0.12244897959183673,-0.12244897959183673,-0.12244897959183673,-0.12244897959183673,-0.12244897959183673,-0.12244897959183673,-0.12244897959183673,-0.12244897959183673,-0.12244897959183673,-0.12244897959183673,-0.12244897959183673,-0.12244897959183673,-0.12244897959183673,-0.12244897959183673,-0.12244897959183673,-0.12244897959183673,-0.12244897959183673,-0.12244897959183673,-0.12244897959183673,-0.12244897959183673,-0.12244897959183673,-0.12244897959183673,-0.12244897959183673,-0.12244897959183673,-0.12244897959183673,-0.12244897959183673,-0.12244897959183673,-0.12244897959183673,-0.12244897959183673,-0.12244897959183673,-0.12244897959183673,-0.12244897959183673,-0.12244897959183673,-0.12244897959183673,-0.12244897959183673,-0.12244897959183673,-0.12244897959183673,-0.12244897959183673,-0.12244897959183673,-0.12244897959183673,-0.12244897959183673,-0.12244897959183673,-0.12244897959183673,-0.12244897959183673,-0.12244897959183673,-0.12244897959183673,-0.12244897959183673,-0.12244897959183673,-0.12244897959183673,-0.12244897959183673,-0.12244897959183673,-0.12244897959183673,-0.12244897959183673,-0.12244897959183673,-0.12244897959183673,-0.12244897959183673,-0.12244897959183673,-0.12244897959183673,-0.12244897959183673,-0.12244897959183673,-0.12244897959183673,-0.12244897959183673,-0.12244897959183673,-0.12244897959183673,-0.12244897959183673,-0.12244897959183673,-0.12244897959183673,-0.12244897959183673,-0.12244897959183673,-0.12244897959183673,-0.12244897959183673,-0.12244897959183673,-0.12244897959183673,-0.12244897959183673,-0.12244897959183673,-0.12244897959183673,-0.12244897959183673,-0.12244897959183673,-0.12244897959183673,-0.12244897959183673,-0.12244897959183673,-0.12244897959183673,-0.12244897959183673,-0.12244897959183673,-0.12244897959183673,-0.12244897959183673,-0.12244897959183673,-0.12244897959183673,-0.12244897959183673,-0.12244897959183673,-0.12244897959183673,-0.12244897959183673,-0.12244897959183673,-0.12244897959183673,-0.12244897959183673,-0.12244897959183673,-0.12244897959183673,-0.12244897959183673,-0.12244897959183673,-0.12244897959183673,-0.12244897959183673,-0.12244897959183673,-0.12244897959183673,-0.12244897959183673,-0.12244897959183673,-0.12244897959183673,-0.12244897959183673,-0.12244897959183673,-0.12244897959183673,-0.12244897959183673,-0.12244897959183673,-0.12244897959183673,-0.12244897959183673,-0.12244897959183673,-0.12244897959183673,-0.12244897959183673,-0.12244897959183673,-0.12244897959183673,-0.11224489795918367,-0.10884353741496598,-0.09523809523809523,-0.05782312925170068,0.01020408163265306,0.08503401360544217,0.1836734693877551,0.2653061224489796,0.3299319727891156,0.37755102040816324,0.40816326530612246,0.4421768707482993,0.47959183673469385,0.5204081632653061,0.5782312925170068,0.5952380952380952,0.6054421768707483,0.6156462585034014,0.6156462585034014,0.6156462585034014,0.6156462585034014,0.6156462585034014,0.6156462585034014,0.6054421768707483,0.5952380952380952,0.5680272108843537,0.5476190476190477,0.5476190476190477,0.5408163265306123,0.5374149659863946,0.5170068027210885,0.48299319727891155,0.40816326530612246,0.3673469387755102,0.3469387755102041,0.336734693877551,0.3299319727891156,0.3299319727891156,0.3333333333333333,0.3333333333333333,0.3333333333333333,0.336734693877551,0.336734693877551,0.336734693877551,0.336734693877551,0.336734693877551,0.336734693877551,0.336734693877551,0.336734693877551,0.336734693877551,0.336734693877551,0.336734693877551,0.3333333333333333,0.3299319727891156,0.3299319727891156,0.32653061224489793,0.32653061224489793,0.32653061224489793,0.32653061224489793,0.336734693877551,0.3435374149659864,0.3469387755102041,0.35374149659863946,0.36054421768707484,0.36394557823129253,0.36394557823129253,0.36394557823129253,0.36394557823129253,0.36394557823129253,0.36394557823129253,0.36054421768707484,0.36054421768707484,0.35374149659863946,0.35034013605442177,0.3469387755102041,0.3401360544217687,0.336734693877551,0.3333333333333333,0.3333333333333333,0.3333333333333333,0.3333333333333333,0.3333333333333333,0.3333333333333333,0.3333333333333333,0.3333333333333333,0.3333333333333333,0.36394557823129253,0.3877551020408163,0.40476190476190477,0.41156462585034015,0.41156462585034015,0.41496598639455784,0.41496598639455784,0.41496598639455784,0.41496598639455784,0.41496598639455784,0.41496598639455784,0.41496598639455784,0.41496598639455784,0.41496598639455784,0.41836734693877553,0.41836734693877553,0.4217687074829932,0.4217687074829932,0.4217687074829932,0.42517006802721086,0.42517006802721086,0.42517006802721086,0.42517006802721086,0.42517006802721086,0.42517006802721086,0.42517006802721086,0.42517006802721086,0.42517006802721086,0.42517006802721086,0.42517006802721086,0.42517006802721086,0.42517006802721086,0.42517006802721086,0.42517006802721086,0.42517006802721086,0.42517006802721086,0.42517006802721086,0.42517006802721086,0.42517006802721086,0.42517006802721086,0.4217687074829932,0.4217687074829932,0.4217687074829932,0.41836734693877553,0.41836734693877553,0.41496598639455784,0.41496598639455784,0.41496598639455784,0.41496598639455784,0.41496598639455784,0.41496598639455784,0.41496598639455784,0.41496598639455784,0.41496598639455784,0.41156462585034015,0.41156462585034015,0.41156462585034015,0.41156462585034015,0.41156462585034015,0.41156462585034015,0.41156462585034015,0.41156462585034015,0.41156462585034015,0.41156462585034015,0.41156462585034015,0.41156462585034015,0.41156462585034015,0.41156462585034015,0.41156462585034015,0.41156462585034015,0.41156462585034015,0.41156462585034015,0.41156462585034015,0.41156462585034015,0.41156462585034015,0.41156462585034015,0.41156462585034015,0.41156462585034015,0.41156462585034015,0.41156462585034015,0.41156462585034015,0.41156462585034015,0.41156462585034015,0.41156462585034015,0.41156462585034015,0.41156462585034015,0.41156462585034015,0.41156462585034015,0.41156462585034015,0.41156462585034015,0.41156462585034015,0.41156462585034015,0.41156462585034015,0.41156462585034015,0.41156462585034015,0.41156462585034015,0.41156462585034015,0.41156462585034015,0.41156462585034015,0.41156462585034015,0.41156462585034015,0.41496598639455784,0.4217687074829932,0.42517006802721086,0.4387755102040816,0.45918367346938777,0.4897959183673469,0.5272108843537415,0.5612244897959183,0.5850340136054422,0.5952380952380952,0.5986394557823129,0.5986394557823129,0.5986394557823129,0.5986394557823129,0.5986394557823129,0.5986394557823129,0.5986394557823129,0.5986394557823129,0.5986394557823129,0.5986394557823129,0.5986394557823129,0.5986394557823129,0.5986394557823129,0.5986394557823129,0.5986394557823129,0.5986394557823129,0.5884353741496599,0.5714285714285714,0.5578231292517006,0.5544217687074829,0.5544217687074829,0.5544217687074829,0.5544217687074829,0.5544217687074829,0.5544217687074829,0.5544217687074829,0.5544217687074829,0.5544217687074829,0.5544217687074829,0.5544217687074829,0.5544217687074829,0.5544217687074829,0.5544217687074829,0.5510204081632653,0.5680272108843537,0.5850340136054422,0.5884353741496599,0.5884353741496599,0.5884353741496599,0.5748299319727891,0.5510204081632653,0.5272108843537415,0.5170068027210885,0.5102040816326531,0.5034013605442177,0.5034013605442177,0.5034013605442177,0.5034013605442177,0.5034013605442177,0.5034013605442177,0.5034013605442177,0.5034013605442177,0.5034013605442177,0.5034013605442177,0.5034013605442177,0.5034013605442177,0.5034013605442177,0.5034013605442177,0.5034013605442177,0.5034013605442177,0.5034013605442177,0.5034013605442177,0.5034013605442177,0.5034013605442177,0.5034013605442177,0.5034013605442177,0.5034013605442177,0.5034013605442177,0.5034013605442177,0.5034013605442177,0.5034013605442177,0.5034013605442177,0.5034013605442177,0.5034013605442177,0.5034013605442177,0.5034013605442177,0.5034013605442177,0.5034013605442177,0.5034013605442177,0.5034013605442177,0.5034013605442177,0.5034013605442177,0.5034013605442177,0.5034013605442177,0.5034013605442177,0.5034013605442177,0.5034013605442177,0.5034013605442177,0.5034013605442177,0.5034013605442177,0.5034013605442177,0.5034013605442177,0.5034013605442177,0.5034013605442177,0.5034013605442177,0.5034013605442177,0.5034013605442177,0.5034013605442177,0.5034013605442177,0.5034013605442177,0.5034013605442177,0.5034013605442177,0.5034013605442177,0.5034013605442177,0.5034013605442177,0.5034013605442177,0.5034013605442177,0.5034013605442177,0.5034013605442177,0.5034013605442177,0.5034013605442177,0.5034013605442177,0.5034013605442177,0.5034013605442177,0.5,0.4965986394557823,0.48299319727891155,0.45918367346938777,0.40816326530612246,0.3469387755102041,0.30612244897959184,0.2891156462585034,0.282312925170068,0.282312925170068,0.282312925170068,0.282312925170068,0.2789115646258503,0.2789115646258503,0.2789115646258503,0.2755102040816326,0.2755102040816326,0.2755102040816326,0.2755102040816326,0.2755102040816326,0.2755102040816326,0.2755102040816326,0.2755102040816326,0.2755102040816326,0.2755102040816326,0.2755102040816326,0.2755102040816326,0.2755102040816326,0.2755102040816326,0.272108843537415,0.2619047619047619,0.2108843537414966,0.16326530612244897,0.07142857142857142,0.04421768707482993,0.03741496598639456,0.03741496598639456,0.03741496598639456,0.03741496598639456,0.03741496598639456,0.03741496598639456,0.03741496598639456,0.03741496598639456,0.03741496598639456,0.03741496598639456,0.03741496598639456,0.03741496598639456,0.03741496598639456,0.03741496598639456,0.03741496598639456,0.03741496598639456,0.03741496598639456,0.03741496598639456,0.03741496598639456,0.03741496598639456,0.03741496598639456,0.03741496598639456,0.03741496598639456,0.03741496598639456,0.03741496598639456,0.04421768707482993,0.04421768707482993,0.047619047619047616,0.047619047619047616,0.047619047619047616,0.047619047619047616,0.047619047619047616,0.05442176870748299,0.05782312925170068,0.06462585034013606,0.07482993197278912,0.08163265306122448,0.08843537414965986,0.09863945578231292,0.11224489795918367,0.11564625850340136,0.11564625850340136,0.11564625850340136,0.11564625850340136,0.11564625850340136,0.11564625850340136,0.11564625850340136,0.11564625850340136,0.11564625850340136,0.11564625850340136,0.11564625850340136,0.11564625850340136,0.11564625850340136,0.11564625850340136,0.11564625850340136,0.11564625850340136,0.11564625850340136,0.11564625850340136,0.11564625850340136,0.11564625850340136,0.11564625850340136,0.11564625850340136,0.11564625850340136,0.11564625850340136,0.11564625850340136,0.11564625850340136,0.11564625850340136,0.11564625850340136,0.11564625850340136,0.11564625850340136,0.11564625850340136,0.11564625850340136,0.11564625850340136,0.11564625850340136,0.11564625850340136,0.11564625850340136,0.11564625850340136,0.11564625850340136,0.11564625850340136,0.11564625850340136,0.11564625850340136,0.11564625850340136,0.11564625850340136,0.11564625850340136,0.11564625850340136,0.11564625850340136,0.11564625850340136,0.11564625850340136,0.11564625850340136,0.11564625850340136,0.11564625850340136,0.11564625850340136,0.11564625850340136,0.12585034013605442,0.1292517006802721,0.1326530612244898,0.1326530612244898,0.1326530612244898,0.1326530612244898,0.1326530612244898,0.1326530612244898,0.1326530612244898,0.1326530612244898,0.1326530612244898,0.1326530612244898,0.1326530612244898,0.1326530612244898,0.1326530612244898,0.1326530612244898,0.1326530612244898,0.1326530612244898,0.1326530612244898,0.1326530612244898,0.1326530612244898,0.1326530612244898,0.1326530612244898,0.1326530612244898,0.1326530612244898,0.1326530612244898,0.1326530612244898,0.1326530612244898,0.1326530612244898,0.1326530612244898,0.1326530612244898,0.1326530612244898,0.1326530612244898,0.1326530612244898,0.1326530612244898,0.1326530612244898,0.1326530612244898,0.1326530612244898,0.1326530612244898,0.1326530612244898,0.1326530612244898,0.1326530612244898,0.1326530612244898,0.1326530612244898,0.1326530612244898,0.1326530612244898,0.1326530612244898,0.1326530612244898,0.1326530612244898,0.1326530612244898,0.1326530612244898,0.1326530612244898,0.1326530612244898,0.1326530612244898,0.1326530612244898,0.1326530612244898,0.1326530612244898,0.1326530612244898,0.1326530612244898,0.1326530612244898,0.1326530612244898,0.1326530612244898,0.1326530612244898,0.1326530612244898,0.1326530612244898,0.1326530612244898,0.1326530612244898,0.1326530612244898,0.1326530612244898,0.1326530612244898,0.1326530612244898,0.1326530612244898,0.1326530612244898,0.1326530612244898,0.1326530612244898,0.1326530612244898,0.1326530612244898,0.1326530612244898,0.1326530612244898,0.1326530612244898,0.1326530612244898,0.1326530612244898,0.1326530612244898,0.1326530612244898,0.1326530612244898,0.14285714285714285,0.19387755102040816,0.23469387755102042,0.30272108843537415,0.3333333333333333,0.35374149659863946,0.36394557823129253,0.3673469387755102,0.3673469387755102,0.3673469387755102,0.3673469387755102,0.3673469387755102,0.3673469387755102,0.3673469387755102,0.36394557823129253,0.35714285714285715,0.35034013605442177,0.35034013605442177,0.3469387755102041,0.3469387755102041,0.3469387755102041,0.3435374149659864,0.3401360544217687,0.336734693877551,0.3231292517006803,0.30952380952380953,0.2891156462585034,0.272108843537415,0.2619047619047619,0.25510204081632654,0.25170068027210885,0.25170068027210885,0.25170068027210885,0.25510204081632654,0.25510204081632654,0.2585034013605442,0.2585034013605442,0.2585034013605442,0.2585034013605442,0.2585034013605442,0.2585034013605442,0.2585034013605442,0.2585034013605442,0.2585034013605442,0.2585034013605442,0.2585034013605442,0.2653061224489796,0.272108843537415,0.282312925170068,0.2891156462585034,0.2925170068027211,0.29931972789115646,0.30272108843537415,0.30612244897959184,0.30952380952380953,0.3129251700680272,0.3129251700680272,0.3129251700680272,0.3129251700680272,0.3129251700680272,0.3129251700680272,0.3129251700680272,0.3129251700680272,0.3129251700680272,0.3129251700680272,0.3129251700680272,0.3129251700680272,0.3129251700680272,0.3129251700680272,0.3129251700680272,0.3129251700680272,0.3129251700680272,0.3129251700680272,0.3129251700680272,0.3129251700680272,0.3129251700680272,0.3129251700680272,0.3129251700680272,0.3129251700680272,0.3129251700680272,0.3129251700680272,0.3129251700680272,0.3129251700680272,0.3129251700680272,0.3129251700680272,0.3129251700680272,0.3129251700680272,0.3129251700680272,0.3129251700680272,0.3129251700680272,0.3129251700680272,0.3129251700680272,0.3129251700680272,0.3129251700680272,0.3129251700680272,0.3129251700680272,0.3129251700680272,0.3129251700680272,0.3129251700680272,0.3129251700680272,0.3129251700680272,0.3129251700680272,0.3129251700680272,0.3129251700680272,0.3129251700680272,0.3129251700680272,0.3129251700680272,0.3129251700680272,0.3129251700680272,0.3129251700680272,0.3129251700680272,0.3129251700680272,0.3231292517006803,0.4217687074829932,0.54421768707483,0.6156462585034014,0.6700680272108843,0.6972789115646258,0.717687074829932,0.7312925170068028,0.7414965986394558,0.7448979591836735,0.7482993197278912,0.7482993197278912,0.7551020408163265,0.7653061224489796,0.7653061224489796,0.7721088435374149,0.7789115646258503,0.7789115646258503,0.7789115646258503,0.7789115646258503,0.7789115646258503,0.7789115646258503,0.7789115646258503,0.782312925170068,0.8129251700680272,0.8877551020408163,0.9319727891156463,0.9523809523809523,0.9523809523809523,0.9523809523809523,0.9523809523809523,0.9523809523809523,0.9523809523809523,0.9523809523809523,0.95578231292517,0.95578231292517,0.95578231292517,0.95578231292517,0.95578231292517,0.9591836734693877,0.9591836734693877,0.9591836734693877,0.9591836734693877,0.9591836734693877,0.9591836734693877,0.9591836734693877,0.9591836734693877,0.9591836734693877,0.9591836734693877,0.9591836734693877,0.9591836734693877,0.9591836734693877,0.9591836734693877,0.9591836734693877,0.9591836734693877,0.9591836734693877,0.9591836734693877,0.9591836734693877,0.9591836734693877,0.9591836734693877,0.9659863945578231,0.9727891156462585,0.95578231292517,0.9319727891156463,0.9115646258503401,0.9013605442176871,0.9013605442176871,0.9013605442176871,0.9013605442176871,0.9013605442176871,0.9013605442176871,0.9013605442176871,0.9013605442176871,0.9013605442176871,0.9013605442176871,0.9013605442176871,0.9013605442176871,0.9013605442176871,0.9013605442176871,0.9013605442176871,0.9013605442176871,0.9013605442176871,0.9013605442176871,0.9013605442176871,0.9013605442176871,0.9013605442176871,0.9013605442176871,0.9013605442176871,0.9013605442176871,0.9013605442176871,0.9013605442176871,0.9013605442176871,0.9013605442176871,0.9013605442176871,0.9013605442176871,0.9013605442176871,0.9013605442176871,0.9013605442176871,0.9013605442176871,0.9013605442176871,0.9013605442176871,0.9013605442176871,0.9013605442176871,0.9013605442176871,0.9013605442176871,0.9013605442176871,0.9013605442176871,0.9013605442176871,0.9013605442176871,0.9013605442176871,0.9013605442176871,0.9013605442176871,0.9013605442176871,0.9013605442176871,0.9013605442176871,0.8945578231292517,0.8877551020408163,0.8843537414965986,0.8775510204081632,0.8775510204081632,0.8775510204081632,0.8775510204081632,0.8775510204081632,0.8707482993197279,0.8673469387755102,0.8605442176870748,0.8571428571428571,0.8571428571428571,0.8571428571428571,0.8571428571428571,0.8571428571428571,0.8571428571428571,0.8571428571428571,0.8571428571428571,0.8571428571428571,0.8571428571428571,0.8571428571428571,0.8571428571428571,0.8571428571428571,0.8571428571428571,0.8571428571428571,0.8571428571428571,0.8571428571428571,0.8469387755102041,0.8095238095238095,0.7857142857142857,0.7857142857142857,0.7857142857142857,0.7857142857142857,0.7857142857142857,0.7857142857142857,0.7857142857142857,0.7857142857142857,0.7857142857142857,0.7857142857142857,0.7857142857142857,0.7857142857142857,0.7857142857142857,0.7857142857142857,0.7857142857142857,0.7857142857142857,0.7857142857142857,0.7857142857142857,0.7857142857142857,0.7857142857142857,0.7857142857142857,0.7857142857142857,0.7857142857142857,0.7857142857142857,0.7857142857142857,0.7857142857142857,0.7857142857142857,0.7857142857142857,0.7857142857142857,0.7857142857142857,0.7857142857142857,0.7857142857142857,0.7857142857142857,0.7857142857142857,0.7857142857142857,0.7857142857142857,0.7857142857142857,0.7857142857142857,0.7857142857142857,0.7857142857142857,0.7857142857142857,0.7857142857142857,0.7857142857142857,0.7857142857142857,0.7857142857142857,0.7857142857142857,0.7857142857142857,0.7857142857142857,0.7857142857142857,0.7857142857142857,0.7857142857142857,0.7857142857142857,0.7857142857142857,0.7857142857142857,0.7857142857142857,0.7857142857142857,0.7857142857142857,0.7857142857142857,0.7857142857142857,0.7857142857142857,0.7857142857142857,0.7857142857142857,0.7857142857142857,0.7857142857142857,0.7857142857142857,0.7857142857142857,0.7857142857142857,0.7857142857142857,0.7857142857142857,0.7857142857142857,0.7857142857142857,0.7857142857142857,0.7857142857142857,0.7857142857142857,0.7857142857142857,0.7857142857142857,0.7857142857142857,0.7857142857142857,0.7857142857142857,0.7857142857142857,0.7857142857142857,0.7857142857142857,0.7857142857142857,0.7857142857142857,0.7857142857142857,0.7857142857142857,0.7857142857142857,0.7857142857142857,0.7857142857142857,0.7857142857142857,0.7857142857142857,0.7857142857142857,0.7653061224489796,0.6020408163265306,0.5068027210884354,0.40816326530612246,0.3673469387755102,0.36394557823129253,0.36054421768707484,0.35714285714285715,0.35714285714285715,0.35714285714285715,0.35714285714285715,0.35714285714285715,0.35034013605442177,0.35034013605442177,0.35034013605442177,0.35034013605442177,0.35034013605442177,0.35034013605442177,0.35034013605442177,0.35034013605442177,0.35034013605442177,0.35034013605442177,0.3435374149659864,0.3333333333333333,0.3299319727891156,0.3299319727891156,0.32653061224489793,0.32653061224489793,0.32653061224489793,0.3231292517006803,0.3197278911564626,0.3197278911564626,0.3163265306122449,0.30952380952380953,0.30612244897959184,0.30612244897959184,0.30612244897959184,0.30612244897959184,0.30612244897959184,0.30612244897959184,0.30612244897959184,0.30612244897959184,0.30612244897959184,0.30272108843537415,0.29931972789115646,0.29931972789115646,0.29591836734693877,0.29591836734693877,0.29591836734693877,0.29591836734693877,0.2925170068027211,0.2891156462585034,0.2857142857142857,0.282312925170068,0.2789115646258503,0.2789115646258503,0.2789115646258503,0.2789115646258503,0.2789115646258503,0.2789115646258503,0.2789115646258503,0.2789115646258503,0.2789115646258503,0.2789115646258503,0.2789115646258503,0.2789115646258503,0.2789115646258503,0.2789115646258503,0.2789115646258503,0.2789115646258503,0.2789115646258503,0.2789115646258503,0.2789115646258503,0.2789115646258503,0.2789115646258503,0.2789115646258503,0.2789115646258503,0.2789115646258503,0.2789115646258503,0.2789115646258503,0.2789115646258503,0.2789115646258503,0.2789115646258503,0.2789115646258503,0.2789115646258503,0.2789115646258503,0.2789115646258503,0.2789115646258503,0.2789115646258503,0.2789115646258503,0.2789115646258503,0.2789115646258503,0.2789115646258503,0.2789115646258503,0.2789115646258503,0.2789115646258503,0.2789115646258503,0.2789115646258503,0.2789115646258503,0.2789115646258503,0.2789115646258503,0.2789115646258503,0.2789115646258503,0.2789115646258503,0.2789115646258503,0.2789115646258503,0.2789115646258503,0.2789115646258503,0.2789115646258503,0.2789115646258503,0.2789115646258503,0.2789115646258503,0.2789115646258503,0.2789115646258503,0.2789115646258503,0.2789115646258503,0.2789115646258503,0.2789115646258503,0.2789115646258503,0.2789115646258503,0.2789115646258503,0.2789115646258503,0.2789115646258503,0.2789115646258503,0.2789115646258503,0.2789115646258503,0.2789115646258503,0.2789115646258503,0.2789115646258503,0.2789115646258503,0.2789115646258503,0.2789115646258503,0.2789115646258503,0.2789115646258503,0.2789115646258503,0.2789115646258503,0.2789115646258503,0.2789115646258503,0.2789115646258503,0.2789115646258503,0.2789115646258503,0.2789115646258503,0.2789115646258503,0.2789115646258503,0.2789115646258503,0.2789115646258503,0.2789115646258503,0.2789115646258503,0.2789115646258503,0.2789115646258503,0.2789115646258503,0.2789115646258503,0.2789115646258503,0.2789115646258503,0.2789115646258503,0.2789115646258503,0.2789115646258503,0.2789115646258503,0.2789115646258503,0.2789115646258503,0.2789115646258503,0.2789115646258503,0.2789115646258503,0.2789115646258503,0.2789115646258503,0.2789115646258503,0.2789115646258503,0.2789115646258503,0.2789115646258503,0.2789115646258503,0.2789115646258503,0.2789115646258503,0.2789115646258503,0.2789115646258503,0.2789115646258503,0.2789115646258503,0.2789115646258503,0.2789115646258503,0.2789115646258503,0.2789115646258503,0.2789115646258503,0.2789115646258503,0.2789115646258503,0.2789115646258503,0.2789115646258503,0.2789115646258503,0.2789115646258503,0.2789115646258503,0.2789115646258503,0.2789115646258503,0.2789115646258503,0.2789115646258503,0.2789115646258503,0.2789115646258503,0.2789115646258503,0.2789115646258503,0.2789115646258503,0.2789115646258503,0.282312925170068,0.2857142857142857,0.29591836734693877,0.3197278911564626,0.35034013605442177,0.38095238095238093,0.41156462585034015,0.43537414965986393,0.4523809523809524,0.46258503401360546,0.46258503401360546,0.46258503401360546,0.46258503401360546,0.46258503401360546,0.46258503401360546,0.46258503401360546,0.46258503401360546,0.46258503401360546,0.46258503401360546,0.46258503401360546,0.46258503401360546,0.46258503401360546,0.46258503401360546,0.46258503401360546,0.46258503401360546,0.46258503401360546,0.45918367346938777,0.45918367346938777,0.45918367346938777,0.45918367346938777,0.45918367346938777,0.45918367346938777,0.45918367346938777,0.45918367346938777,0.45918367346938777,0.45918367346938777,0.46598639455782315,0.47959183673469385,0.4897959183673469,0.4931972789115646,0.4931972789115646,0.4931972789115646,0.4931972789115646,0.48639455782312924,0.48639455782312924,0.48299319727891155,0.48299319727891155,0.48299319727891155,0.48299319727891155,0.48299319727891155,0.48299319727891155,0.48299319727891155,0.48299319727891155,0.48299319727891155,0.48299319727891155,0.48299319727891155,0.48299319727891155,0.48299319727891155,0.48299319727891155,0.48299319727891155,0.48299319727891155,0.48299319727891155,0.48299319727891155,0.48299319727891155,0.48299319727891155,0.48299319727891155,0.48299319727891155,0.48299319727891155,0.48299319727891155,0.48299319727891155,0.48299319727891155,0.48299319727891155,0.48299319727891155,0.48299319727891155,0.48299319727891155,0.48299319727891155,0.48299319727891155,0.48299319727891155,0.48299319727891155,0.48299319727891155,0.48299319727891155,0.48299319727891155,0.48299319727891155,0.48299319727891155,0.48299319727891155,0.48299319727891155,0.48299319727891155,0.48299319727891155,0.48299319727891155,0.48299319727891155,0.48299319727891155,0.48299319727891155,0.48299319727891155,0.48299319727891155,0.48299319727891155,0.48299319727891155,0.48299319727891155,0.48299319727891155,0.48299319727891155,0.48299319727891155,0.48299319727891155,0.48299319727891155,0.48299319727891155,0.48299319727891155,0.48299319727891155,0.48299319727891155,0.48299319727891155,0.48299319727891155,0.48299319727891155,0.48299319727891155,0.48299319727891155,0.48299319727891155,0.48299319727891155,0.48299319727891155,0.48299319727891155,0.48299319727891155,0.48299319727891155,0.48299319727891155,0.48299319727891155,0.48299319727891155,0.48299319727891155,0.48299319727891155,0.48299319727891155,0.48299319727891155,0.48299319727891155,0.48299319727891155,0.48299319727891155,0.48299319727891155,0.48299319727891155,0.48299319727891155,0.48299319727891155,0.48299319727891155,0.48299319727891155,0.48299319727891155,0.48299319727891155,0.48299319727891155,0.48299319727891155,0.48299319727891155,0.48299319727891155,0.48299319727891155,0.48299319727891155,0.48299319727891155,0.48299319727891155,0.48299319727891155,0.48299319727891155,0.48299319727891155,0.48299319727891155,0.48299319727891155,0.48299319727891155,0.48299319727891155,0.48299319727891155,0.48299319727891155,0.48299319727891155,0.48299319727891155,0.48299319727891155,0.48299319727891155,0.48299319727891155,0.48299319727891155,0.48299319727891155,0.48299319727891155,0.48299319727891155,0.48299319727891155,0.48299319727891155,0.48299319727891155,0.48299319727891155,0.48299319727891155,0.48299319727891155,0.48299319727891155,0.48299319727891155,0.48299319727891155,0.48299319727891155,0.48299319727891155,0.48299319727891155,0.48299319727891155,0.48299319727891155,0.48299319727891155,0.48299319727891155,0.48299319727891155,0.48299319727891155,0.48299319727891155,0.48299319727891155,0.48299319727891155,0.48299319727891155,0.48299319727891155,0.48299319727891155,0.48299319727891155,0.48299319727891155,0.48299319727891155,0.48299319727891155,0.48299319727891155,0.48299319727891155,0.48299319727891155,0.48299319727891155,0.48299319727891155,0.48299319727891155,0.48299319727891155,0.48299319727891155,0.48299319727891155,0.48299319727891155,0.48299319727891155,0.48299319727891155,0.48299319727891155,0.48299319727891155,0.48299319727891155,0.48299319727891155,0.48299319727891155,0.48299319727891155,0.48299319727891155,0.48299319727891155,0.48299319727891155,0.48299319727891155,0.48299319727891155,0.48299319727891155,0.48299319727891155,0.48299319727891155,0.48299319727891155,0.48299319727891155,