[{"success":true,"trial_type":"fullscreen","trial_index":0,"time_elapsed":5112,"internal_node_id":"0.0-0.0","protocol_sum":"","subject_identifier":108,"subject_sum":[47,202,52,109,182,86,24,113,2,206,128,106,199,50,224,106,98,223,13,187,40,41,229,17,167,112,85,109,57,142,26,110],"subject_pair":54,"STUDY_ID":"669a702db1122fc5150a13ce","PROLIFIC_PID":"63d408a690705bd9c54c50a6","SESSION_ID":"669ab09cf58f829ceee033d4","practice_instructions":1,"leaderboard_instructions":0,"bonus":0,"reveal_word":false,"self_rating":"2","confidence":"70"},{"view_history":"[{\"page_index\":0,\"viewing_time\":1587.5999999996275}]","rt":1587.7999999988824,"trial_type":"instructions","trial_index":1,"time_elapsed":6701,"internal_node_id":"0.0-1.0","protocol_sum":"","subject_identifier":108,"subject_sum":[47,202,52,109,182,86,24,113,2,206,128,106,199,50,224,106,98,223,13,187,40,41,229,17,167,112,85,109,57,142,26,110],"subject_pair":54,"STUDY_ID":"669a702db1122fc5150a13ce","PROLIFIC_PID":"63d408a690705bd9c54c50a6","SESSION_ID":"669ab09cf58f829ceee033d4","practice_instructions":1,"leaderboard_instructions":0,"bonus":0,"reveal_word":false,"self_rating":"2","confidence":"70"},{"view_history":"[{\"page_index\":0,\"viewing_time\":9444.900000000373}]","rt":9445.200000001118,"trial_type":"instructions","trial_index":2,"time_elapsed":16145,"internal_node_id":"0.0-2.0-0.0","protocol_sum":"","subject_identifier":108,"subject_sum":[47,202,52,109,182,86,24,113,2,206,128,106,199,50,224,106,98,223,13,187,40,41,229,17,167,112,85,109,57,142,26,110],"subject_pair":54,"STUDY_ID":"669a702db1122fc5150a13ce","PROLIFIC_PID":"63d408a690705bd9c54c50a6","SESSION_ID":"669ab09cf58f829ceee033d4","practice_instructions":1,"leaderboard_instructions":0,"bonus":0,"reveal_word":false,"self_rating":"2","confidence":"70"},{"rt":7649.800000000745,"responses":"{\"Q0\":\"... reveal the word with as <b>few letter guesses</b> as possible\"}","question_order":"[0]","trial_type":"survey-multi-choice","trial_index":3,"time_elapsed":23796,"internal_node_id":"0.0-2.0-1.0","protocol_sum":"","subject_identifier":108,"subject_sum":[47,202,52,109,182,86,24,113,2,206,128,106,199,50,224,106,98,223,13,187,40,41,229,17,167,112,85,109,57,142,26,110],"subject_pair":54,"correct":true,"test_part":"multichoice_nonpretend","STUDY_ID":"669a702db1122fc5150a13ce","PROLIFIC_PID":"63d408a690705bd9c54c50a6","SESSION_ID":"669ab09cf58f829ceee033d4","practice_instructions":1,"leaderboard_instructions":0,"bonus":0,"reveal_word":false,"self_rating":"2","confidence":"70"},{"view_history":"[{\"page_index\":0,\"viewing_time\":1215.7000000011176}]","rt":1215.800000000745,"trial_type":"instructions","trial_index":4,"time_elapsed":25013,"internal_node_id":"0.0-3.0","protocol_sum":"","subject_identifier":108,"subject_sum":[47,202,52,109,182,86,24,113,2,206,128,106,199,50,224,106,98,223,13,187,40,41,229,17,167,112,85,109,57,142,26,110],"subject_pair":54,"STUDY_ID":"669a702db1122fc5150a13ce","PROLIFIC_PID":"63d408a690705bd9c54c50a6","SESSION_ID":"669ab09cf58f829ceee033d4","practice_instructions":1,"leaderboard_instructions":0,"bonus":0,"reveal_word":false,"self_rating":"2","confidence":"70"},{"word":"ZEBRA","click_log":{"letter":["","A","E","Z","B","R"],"t":[0,2906.10000000149,4805.5,7538.800000000745,9188.60000000149,10055.10000000149],"hit":[null,1,1,1,1,1],"asked":["","A","AE","AEZ","AEZB","AEZBR"],"word_state":["_____","____A","_E__A","ZE__A","ZEB_A","ZEBRA"]},"hover_log":{"letter":["?","?","?","?","?","?","?","?","?","?","?","?","?","?","?","?","?","?","?","?","?","?","?","?","?","?","?","?","?","?","?","?","?","?","?","?","?","?","?","?","?","?","?","?","?","?","?","?","?","?","?","?","?","?","?","?","?","?","?","?","?","?","?","?","?","?","?","?","?","?","?","?","?","?","?","?","?","?","?","?","?","?","?","?","?","?","?","?","?","?","?","?","?","?","?","?","?","?","?","?","?","?","?","?","?","?","?","?","?","?","?","?","?","?","?","?","S","S","?","?","?","J","J","J","J","J","J","J","J","J","J","J","J","J","J","J","?","?","A","A","A","A","A","A","A","A","A","A","A","A","A","A","A","A","A","A","A","A","A","A","A","A","A","A","A","A","A","A","A","A","A","A","A","A","A","A","A","A","A","A","A","A","A","A","A","A","A","A","A","A","A","A","A","A","A","?","B","B","?","C","C","C","C","C","C","C","C","C","C","C","C","C","C","C","C","C","C","C","C","C","C","C","C","C","C","C","C","C","C","C","?","D","D","D","D","D","D","D","D","D","D","D","D","D","D","D","D","D","D","D","D","D","D","D","D","D","D","D","D","D","D","D","D","D","?","E","E","E","E","E","E","E","E","E","E","E","E","E","E","E","E","E","E","E","E","E","E","E","E","E","E","E","E","E","E","E","E","E","E","E","E","E","E","E","E","E","E","E","E","E","E","E","E","E","E","E","E","E","E","E","E","E","E","E","E","E","E","E","E","E","E","E","E","E","E","E","E","E","E","E","E","E","E","E","E","E","E","E","E","E","E","E","E","E","E","E","E","E","E","E","E","E","E","E","E","E","E","E","E","E","E","E","E","E","E","E","E","E","E","E","E","E","E","E","E","E","E","E","E","E","E","E","E","E","E","E","E","E","E","E","E","E","E","E","E","E","E","E","E","E","E","E","E","E","E","E","E","?","?","?","P","?","?","?","?","?","?","?","?","?","?","?","?","?","?","Z","Z","Z","Z","Z","Z","Z","Z","Z","Z","Z","Z","Z","Z","Z","Z","Z","Z","Z","Z","Z","Z","Z","Z","Z","Z","Z","Z","Z","Z","Z","Z","Z","Z","Z","Z","Z","Z","Z","Z","Z","Z","Z","Z","Z","Z","Z","Z","Z","Z","Z","Z","Z","Z","Z","Z","Z","Z","?","Y","?","?","?","N","?","E","E","E","E","E","E","E","E","E","E","E","E","E","E","E","?","D","D","D","?","C","C","C","C","C","C","C","C","C","C","C","?","?","?","?","B","B","B","B","B","B","B","B","B","B","B","B","B","B","B","B","B","B","?","C","D","?","?","?","?","P","P","P","?","?","?","?","?","?","?","?","?","?","?","Q","Q","Q","Q","Q","Q","Q","?","?","R","R","R","R","R","R","R","R","R","R","R","R","R","R","R","R","R","R","R","R","R","R","R","R","R","R","R","R","R","R","R","R","R","R","R","R","R","R","R","R","R","R","R","R","R","R","R","R","R","R","R","R","Q","?","?","W","V","?","U","U","U","U","U","U","U","U","U","U","U","U","U","U","U","U","U","U","U","U","U","U","U","U","U","U","U","U","U","U","U","U","U","U","U","U","U","U","U","U","U","U","U","U","U","U","U","U","U","U","U","U","U","U","U","U","U","U","U","U","U","U","U","U","U","U","U","U","U","U","U","U","U","U","U","U","U","U","U","U","U"],"t":[35,62,77,94,110,127,144,161,177,194,211,227,244,260,276,293,309,326,343,360,377,393,410,426,443,459,476,493,510,526,543,560,577,593,609,627,643,660,677,693,710,726,743,760,777,793,810,827,843,859,877,894,909,927,943,960,976,994,1010,1027,1043,1060,1077,1093,1109,1127,1143,1160,1176,1193,1210,1227,1243,1260,1277,1293,1310,1327,1343,1360,1376,1393,1410,1426,1443,1459,1476,1492,1510,1526,1543,1560,1577,1593,1609,1625,1642,1660,1676,1693,1709,1727,1744,1759,1777,1793,1810,1825,1843,1860,1877,1893,1909,1927,1943,1960,1978,1994,2010,2027,2044,2059,2076,2093,2109,2126,2143,2159,2176,2193,2210,2226,2243,2260,2277,2294,2310,2327,2344,2360,2377,2394,2410,2427,2444,2460,2477,2493,2510,2526,2543,2559,2576,2593,2609,2626,2643,2659,2676,2692,2709,2726,2742,2759,2775,2792,2809,2826,2843,2860,2877,2894,2910,2926,2943,2960,2977,2993,3010,3026,3044,3059,3076,3092,3109,3126,3144,3161,3177,3193,3210,3227,3243,3259,3277,3294,3310,3327,3343,3359,3377,3393,3409,3426,3443,3460,3476,3494,3510,3525,3543,3559,3576,3592,3610,3627,3644,3660,3677,3692,3710,3726,3743,3760,3777,3793,3810,3827,3843,3859,3876,3892,3909,3926,3943,3959,3977,3993,4009,4027,4043,4060,4077,4093,4109,4127,4143,4160,4177,4193,4209,4227,4243,4260,4276,4293,4309,4325,4343,4359,4377,4393,4410,4427,4443,4460,4476,4494,4510,4527,4543,4560,4576,4593,4610,4626,4643,4660,4675,4693,4710,4726,4743,4759,4775,4793,4810,4826,4843,4860,4877,4893,4910,4927,4943,4960,4976,4993,5009,5026,5043,5059,5077,5093,5109,5127,5143,5159,5176,5192,5209,5227,5243,5260,5276,5293,5310,5327,5343,5360,5377,5393,5410,5427,5443,5460,5477,5493,5510,5526,5543,5560,5576,5593,5610,5626,5643,5659,5676,5694,5710,5727,5743,5760,5777,5792,5810,5827,5844,5859,5877,5893,5909,5926,5943,5960,5977,5993,6010,6027,6042,6059,6077,6094,6110,6127,6143,6160,6177,6193,6210,6227,6242,6260,6276,6293,6309,6327,6343,6360,6377,6393,6409,6427,6442,6460,6477,6493,6509,6527,6543,6559,6576,6593,6610,6626,6644,6660,6677,6692,6710,6727,6743,6760,6777,6793,6810,6826,6843,6859,6877,6893,6909,6926,6943,6959,6976,6993,7009,7026,7042,7060,7076,7092,7109,7127,7143,7160,7176,7193,7209,7226,7243,7260,7277,7293,7310,7327,7342,7360,7377,7393,7409,7427,7442,7459,7476,7493,7510,7527,7543,7559,7575,7593,7609,7627,7643,7659,7677,7693,7710,7725,7743,7759,7777,7792,7810,7827,7843,7859,7875,7893,7909,7926,7942,7960,7977,7993,8010,8026,8043,8060,8077,8093,8109,8126,8143,8160,8177,8193,8210,8226,8242,8260,8276,8293,8309,8326,8343,8359,8376,8392,8409,8425,8443,8460,8476,8493,8509,8527,8543,8560,8576,8593,8610,8627,8643,8660,8677,8694,8709,8726,8743,8759,8776,8792,8809,8826,8842,8859,8876,8892,8909,8926,8942,8960,8977,8993,9010,9026,9043,9060,9076,9093,9109,9126,9142,9159,9177,9193,9210,9227,9243,9259,9275,9292,9309,9325,9343,9360,9377,9393,9409,9426,9443,9460,9477,9493,9510,9526,9543,9560,9577,9593,9610,9626,9643,9659,9676,9692,9709,9725,9743,9760,9776,9793,9809,9827,9843,9860,9876,9893,9910,9926,9943,9960,9977,9993,10010,10026,10042,10059,10076,10093,10109,10126,10143,10159,10177,10193,10209,10227,10243,10260,10276,10293,10309,10327,10343,10359,10377,10393,10410,10427,10443,10460,10476,10493,10510,10526,10543,10559,10576,10593,10609,10625,10642,10660,10677,10693,10709,10727,10744,10759,10777,10793,10810,10826,10843,10860,10877,10893,10909,10927,10943,10959,10977,10993,11010,11027,11043,11060,11077,11093,11110,11126,11143,11160,11177,11193,11210,11226,11243,11260,11277,11293,11310,11327,11343,11360,11377,11393,11410,11426,11443,11460,11476,11493,11510,11527,11543,11560,11576,11593,11610,11627,11643,11660,11677,11693,11710,11726,11742,11760,11777,11793,11810,11827,11843,11859,11876,11893,11910,11927,11943,11960,11977,11993,12010,12027,12043,12061],"hit":[null],"x":[-2.433673469387755,-2.433673469387755,-2.433673469387755,-2.433673469387755,-2.433673469387755,-2.433673469387755,-2.433673469387755,-2.433673469387755,-2.433673469387755,-2.433673469387755,-2.433673469387755,-2.433673469387755,-2.433673469387755,-2.433673469387755,-2.433673469387755,-2.433673469387755,-2.433673469387755,-2.433673469387755,-2.433673469387755,-2.433673469387755,-2.433673469387755,-2.433673469387755,-2.433673469387755,-2.433673469387755,-2.433673469387755,-2.433673469387755,-2.433673469387755,-2.433673469387755,-2.433673469387755,-2.433673469387755,-2.433673469387755,-2.433673469387755,-2.433673469387755,-2.433673469387755,-2.433673469387755,-2.433673469387755,-2.433673469387755,-2.433673469387755,-2.433673469387755,-2.433673469387755,-2.433673469387755,-2.433673469387755,-2.433673469387755,-2.433673469387755,-2.433673469387755,-2.433673469387755,-2.433673469387755,-2.433673469387755,-2.433673469387755,-2.433673469387755,-2.433673469387755,-2.433673469387755,-2.433673469387755,-2.433673469387755,-2.433673469387755,-2.433673469387755,-2.433673469387755,-2.433673469387755,-2.433673469387755,-2.433673469387755,-2.433673469387755,-2.433673469387755,-2.433673469387755,-2.433673469387755,-2.433673469387755,-2.433673469387755,-2.433673469387755,-2.433673469387755,-2.433673469387755,-2.433673469387755,-2.433673469387755,-2.433673469387755,-2.433673469387755,-2.433673469387755,-2.433673469387755,-2.433673469387755,-2.433673469387755,-2.433673469387755,-2.433673469387755,-2.433673469387755,-2.433673469387755,-2.433673469387755,-2.433673469387755,-2.433673469387755,-2.433673469387755,-2.433673469387755,-2.433673469387755,-2.433673469387755,-2.433673469387755,-2.433673469387755,-2.433673469387755,-2.433673469387755,-2.433673469387755,-2.433673469387755,-2.433673469387755,-2.433673469387755,-2.433673469387755,-2.433673469387755,-2.433673469387755,-2.433673469387755,-2.433673469387755,-2.433673469387755,-2.433673469387755,-2.433673469387755,-2.433673469387755,-2.433673469387755,-2.433673469387755,-2.433673469387755,-2.433673469387755,-2.433673469387755,-2.433673469387755,-2.433673469387755,-2.433673469387755,-2.433673469387755,-2.433673469387755,-2.433673469387755,-0.01020408163265306,-0.01020408163265306,-0.006802721088435374,-0.006802721088435374,0,0.003401360544217687,0.01020408163265306,0.013605442176870748,0.017006802721088437,0.02040816326530612,0.023809523809523808,0.023809523809523808,0.027210884353741496,0.030612244897959183,0.030612244897959183,0.034013605442176874,0.034013605442176874,0.034013605442176874,0.034013605442176874,0.034013605442176874,0.030612244897959183,0.023809523809523808,0.017006802721088437,0.013605442176870748,0.013605442176870748,0.013605442176870748,0.01020408163265306,0.01020408163265306,0.01020408163265306,0.01020408163265306,0.01020408163265306,0.01020408163265306,0.01020408163265306,0.01020408163265306,0.01020408163265306,0.01020408163265306,0.01020408163265306,0.01020408163265306,0.01020408163265306,0.01020408163265306,0.01020408163265306,0.01020408163265306,0.01020408163265306,0.01020408163265306,0.013605442176870748,0.013605442176870748,0.013605442176870748,0.013605442176870748,0.013605442176870748,0.013605442176870748,0.017006802721088437,0.017006802721088437,0.017006802721088437,0.017006802721088437,0.017006802721088437,0.017006802721088437,0.017006802721088437,0.017006802721088437,0.017006802721088437,0.017006802721088437,0.017006802721088437,0.017006802721088437,0.017006802721088437,0.017006802721088437,0.017006802721088437,0.017006802721088437,0.017006802721088437,0.017006802721088437,0.017006802721088437,0.017006802721088437,0.017006802721088437,0.017006802721088437,0.017006802721088437,0.017006802721088437,0.017006802721088437,0.017006802721088437,0.017006802721088437,0.02040816326530612,0.03741496598639456,0.06802721088435375,0.11224489795918367,0.1598639455782313,0.20748299319727892,0.23129251700680273,0.25170068027210885,0.2619047619047619,0.2687074829931973,0.272108843537415,0.272108843537415,0.2755102040816326,0.2755102040816326,0.2755102040816326,0.2755102040816326,0.2755102040816326,0.2755102040816326,0.2755102040816326,0.2755102040816326,0.2755102040816326,0.2755102040816326,0.2755102040816326,0.2755102040816326,0.2755102040816326,0.2755102040816326,0.2755102040816326,0.2755102040816326,0.2755102040816326,0.2755102040816326,0.2755102040816326,0.2755102040816326,0.2755102040816326,0.2755102040816326,0.282312925170068,0.30272108843537415,0.3333333333333333,0.3707482993197279,0.40476190476190477,0.42857142857142855,0.4489795918367347,0.46598639455782315,0.46598639455782315,0.46938775510204084,0.46938775510204084,0.46938775510204084,0.46938775510204084,0.46938775510204084,0.46938775510204084,0.46938775510204084,0.46938775510204084,0.46938775510204084,0.46938775510204084,0.46938775510204084,0.46938775510204084,0.46938775510204084,0.46938775510204084,0.46938775510204084,0.46938775510204084,0.46938775510204084,0.46938775510204084,0.46938775510204084,0.46938775510204084,0.46938775510204084,0.46938775510204084,0.46938775510204084,0.46938775510204084,0.46938775510204084,0.46938775510204084,0.47278911564625853,0.48299319727891155,0.4965986394557823,0.5170068027210885,0.5306122448979592,0.5476190476190477,0.5612244897959183,0.5680272108843537,0.5748299319727891,0.5782312925170068,0.5782312925170068,0.5782312925170068,0.5782312925170068,0.5782312925170068,0.5782312925170068,0.5782312925170068,0.5782312925170068,0.5782312925170068,0.5782312925170068,0.5782312925170068,0.5782312925170068,0.5782312925170068,0.5782312925170068,0.5782312925170068,0.5782312925170068,0.5782312925170068,0.5782312925170068,0.5782312925170068,0.5782312925170068,0.5782312925170068,0.5782312925170068,0.5782312925170068,0.5782312925170068,0.5782312925170068,0.5782312925170068,0.5782312925170068,0.5782312925170068,0.5782312925170068,0.5782312925170068,0.5782312925170068,0.5782312925170068,0.5782312925170068,0.5782312925170068,0.5782312925170068,0.5782312925170068,0.5782312925170068,0.5782312925170068,0.5782312925170068,0.5782312925170068,0.5782312925170068,0.5782312925170068,0.5782312925170068,0.5782312925170068,0.5782312925170068,0.5782312925170068,0.5782312925170068,0.5782312925170068,0.5782312925170068,0.5782312925170068,0.5782312925170068,0.5782312925170068,0.5782312925170068,0.5782312925170068,0.5782312925170068,0.5782312925170068,0.5782312925170068,0.5782312925170068,0.5782312925170068,0.5782312925170068,0.5782312925170068,0.5782312925170068,0.5782312925170068,0.5782312925170068,0.5782312925170068,0.5782312925170068,0.5782312925170068,0.5782312925170068,0.5782312925170068,0.5782312925170068,0.5782312925170068,0.5782312925170068,0.5782312925170068,0.5782312925170068,0.5782312925170068,0.5782312925170068,0.5782312925170068,0.5782312925170068,0.5782312925170068,0.5782312925170068,0.5782312925170068,0.5782312925170068,0.5782312925170068,0.5782312925170068,0.5782312925170068,0.5782312925170068,0.5782312925170068,0.5782312925170068,0.5782312925170068,0.5782312925170068,0.5782312925170068,0.5782312925170068,0.5782312925170068,0.5782312925170068,0.5782312925170068,0.5782312925170068,0.5782312925170068,0.5782312925170068,0.5782312925170068,0.5782312925170068,0.5782312925170068,0.5782312925170068,0.5782312925170068,0.5782312925170068,0.5782312925170068,0.5782312925170068,0.5782312925170068,0.5782312925170068,0.5782312925170068,0.5782312925170068,0.5782312925170068,0.5782312925170068,0.5782312925170068,0.5782312925170068,0.5782312925170068,0.5782312925170068,0.5782312925170068,0.5782312925170068,0.5782312925170068,0.5782312925170068,0.5782312925170068,0.5782312925170068,0.5782312925170068,0.5782312925170068,0.5782312925170068,0.5782312925170068,0.5782312925170068,0.5782312925170068,0.5782312925170068,0.5782312925170068,0.5782312925170068,0.5782312925170068,0.5748299319727891,0.564625850340136,0.564625850340136,0.564625850340136,0.564625850340136,0.564625850340136,0.564625850340136,0.564625850340136,0.564625850340136,0.564625850340136,0.564625850340136,0.564625850340136,0.5680272108843537,0.5850340136054422,0.6258503401360545,0.6870748299319728,0.7619047619047619,0.8469387755102041,0.9387755102040817,0.9727891156462585,0.9965986394557823,1.0136054421768708,1.0204081632653061,1.0204081632653061,1.0204081632653061,1.0204081632653061,1.0204081632653061,1.0204081632653061,1.0204081632653061,1.0204081632653061,1.0204081632653061,1.0204081632653061,1.0204081632653061,1.0170068027210883,1.0068027210884354,1,0.9897959183673469,0.9863945578231292,0.9863945578231292,0.9863945578231292,0.9863945578231292,0.9863945578231292,0.9863945578231292,0.9863945578231292,0.9863945578231292,0.9863945578231292,0.9863945578231292,0.9863945578231292,0.9863945578231292,0.9863945578231292,0.9863945578231292,0.9863945578231292,0.9863945578231292,0.9863945578231292,0.9863945578231292,0.9863945578231292,0.9863945578231292,0.9863945578231292,0.9863945578231292,0.9863945578231292,0.9863945578231292,0.9863945578231292,0.9863945578231292,0.9863945578231292,0.9863945578231292,0.9863945578231292,0.9863945578231292,0.9863945578231292,0.9863945578231292,0.9863945578231292,0.9863945578231292,0.9863945578231292,0.9863945578231292,0.9863945578231292,0.9863945578231292,0.9863945578231292,0.9863945578231292,0.9863945578231292,0.9863945578231292,0.9863945578231292,0.9863945578231292,0.9863945578231292,0.9863945578231292,0.9863945578231292,0.9863945578231292,0.9863945578231292,0.9863945578231292,0.9863945578231292,0.9795918367346939,0.9625850340136054,0.9149659863945578,0.8571428571428571,0.7789115646258503,0.6938775510204082,0.6258503401360545,0.5748299319727891,0.5544217687074829,0.5408163265306123,0.5408163265306123,0.54421768707483,0.5544217687074829,0.5544217687074829,0.5544217687074829,0.5544217687074829,0.5544217687074829,0.5544217687074829,0.5544217687074829,0.5544217687074829,0.5544217687074829,0.5544217687074829,0.5544217687074829,0.5340136054421769,0.5102040816326531,0.46938775510204084,0.42857142857142855,0.3843537414965986,0.36054421768707484,0.3401360544217687,0.3299319727891156,0.32653061224489793,0.3197278911564626,0.30952380952380953,0.29931972789115646,0.2857142857142857,0.272108843537415,0.2585034013605442,0.24489795918367346,0.23469387755102042,0.22108843537414966,0.2108843537414966,0.20408163265306123,0.19727891156462585,0.19387755102040816,0.19047619047619047,0.1870748299319728,0.1836734693877551,0.1836734693877551,0.18027210884353742,0.18027210884353742,0.18027210884353742,0.18027210884353742,0.18027210884353742,0.18027210884353742,0.18027210884353742,0.18027210884353742,0.18027210884353742,0.18027210884353742,0.18027210884353742,0.18027210884353742,0.18027210884353742,0.19387755102040816,0.23469387755102042,0.3741496598639456,0.5068027210884354,0.6054421768707483,0.7346938775510204,0.8061224489795918,0.8673469387755102,0.8945578231292517,0.9115646258503401,0.9183673469387755,0.9217687074829932,0.9217687074829932,0.9217687074829932,0.9217687074829932,0.9217687074829932,0.9251700680272109,0.9285714285714286,0.935374149659864,0.935374149659864,0.9387755102040817,0.9421768707482994,0.9523809523809523,0.9727891156462585,0.9931972789115646,1.0068027210884354,1.0272108843537415,1.0510204081632653,1.0680272108843538,1.0816326530612246,1.0918367346938775,1.1020408163265305,1.1088435374149659,1.1122448979591837,1.119047619047619,1.1224489795918366,1.1258503401360545,1.129251700680272,1.1326530612244898,1.1326530612244898,1.1360544217687074,1.1360544217687074,1.1360544217687074,1.1360544217687074,1.1360544217687074,1.1360544217687074,1.1360544217687074,1.1360544217687074,1.1360544217687074,1.1360544217687074,1.1360544217687074,1.1360544217687074,1.1360544217687074,1.1360544217687074,1.1360544217687074,1.1360544217687074,1.1360544217687074,1.1360544217687074,1.1360544217687074,1.1360544217687074,1.1360544217687074,1.1360544217687074,1.1360544217687074,1.1360544217687074,1.1360544217687074,1.1360544217687074,1.1360544217687074,1.1360544217687074,1.1360544217687074,1.1360544217687074,1.1360544217687074,1.1360544217687074,1.1360544217687074,1.1360544217687074,1.1360544217687074,1.1360544217687074,1.1360544217687074,1.1360544217687074,1.1360544217687074,1.1326530612244898,1.129251700680272,1.0918367346938775,1.034013605442177,0.8945578231292517,0.7346938775510204,0.608843537414966,0.4523809523809524,0.3673469387755102,0.30952380952380953,0.272108843537415,0.25170068027210885,0.25170068027210885,0.25170068027210885,0.25170068027210885,0.25170068027210885,0.25170068027210885,0.25170068027210885,0.25170068027210885,0.25170068027210885,0.25170068027210885,0.25170068027210885,0.25170068027210885,0.25170068027210885,0.25170068027210885,0.25170068027210885,0.25170068027210885,0.25170068027210885,0.25170068027210885,0.25170068027210885,0.25170068027210885,0.25170068027210885,0.25170068027210885,0.25170068027210885,0.25170068027210885,0.25170068027210885,0.25170068027210885,0.25170068027210885,0.25170068027210885,0.25170068027210885,0.25170068027210885,0.25170068027210885,0.25170068027210885,0.25170068027210885,0.25170068027210885,0.25170068027210885,0.25170068027210885,0.25170068027210885,0.25170068027210885,0.25170068027210885,0.25170068027210885,0.25170068027210885,0.25170068027210885,0.25170068027210885,0.25170068027210885,0.25170068027210885,0.25170068027210885,0.25170068027210885,0.25170068027210885,0.25170068027210885,0.25170068027210885,0.25170068027210885,0.25170068027210885,0.25170068027210885,0.25170068027210885,0.25170068027210885,0.25170068027210885,0.25170068027210885,0.25170068027210885,0.25170068027210885,0.25170068027210885,0.25170068027210885,0.25170068027210885,0.25170068027210885,0.25170068027210885,0.25170068027210885,0.25170068027210885,0.25170068027210885,0.25170068027210885,0.25170068027210885,0.25170068027210885,0.25170068027210885,0.25170068027210885,0.25170068027210885,0.25170068027210885,0.25170068027210885,0.25170068027210885,0.25170068027210885,0.25170068027210885,0.25170068027210885],"y":[-4.154761904761905,-4.154761904761905,-4.154761904761905,-4.154761904761905,-4.154761904761905,-4.154761904761905,-4.154761904761905,-4.154761904761905,-4.154761904761905,-4.154761904761905,-4.154761904761905,-4.154761904761905,-4.154761904761905,-4.154761904761905,-4.154761904761905,-4.154761904761905,-4.154761904761905,-4.154761904761905,-4.154761904761905,-4.154761904761905,-4.154761904761905,-4.154761904761905,-4.154761904761905,-4.154761904761905,-4.154761904761905,-4.154761904761905,-4.154761904761905,-4.154761904761905,-4.154761904761905,-4.154761904761905,-4.154761904761905,-4.154761904761905,-4.154761904761905,-4.154761904761905,-4.154761904761905,-4.154761904761905,-4.154761904761905,-4.154761904761905,-4.154761904761905,-4.154761904761905,-4.154761904761905,-4.154761904761905,-4.154761904761905,-4.154761904761905,-4.154761904761905,-4.154761904761905,-4.154761904761905,-4.154761904761905,-4.154761904761905,-4.154761904761905,-4.154761904761905,-4.154761904761905,-4.154761904761905,-4.154761904761905,-4.154761904761905,-4.154761904761905,-4.154761904761905,-4.154761904761905,-4.154761904761905,-4.154761904761905,-4.154761904761905,-4.154761904761905,-4.154761904761905,-4.154761904761905,-4.154761904761905,-4.154761904761905,-4.154761904761905,-4.154761904761905,-4.154761904761905,-4.154761904761905,-4.154761904761905,-4.154761904761905,-4.154761904761905,-4.154761904761905,-4.154761904761905,-4.154761904761905,-4.154761904761905,-4.154761904761905,-4.154761904761905,-4.154761904761905,-4.154761904761905,-4.154761904761905,-4.154761904761905,-4.154761904761905,-4.154761904761905,-4.154761904761905,-4.154761904761905,-4.154761904761905,-4.154761904761905,-4.154761904761905,-4.154761904761905,-4.154761904761905,-4.154761904761905,-4.154761904761905,-4.154761904761905,-4.154761904761905,-4.154761904761905,-4.154761904761905,-4.154761904761905,-4.154761904761905,-4.154761904761905,-4.154761904761905,-4.154761904761905,-4.154761904761905,-4.154761904761905,-4.154761904761905,-4.154761904761905,-4.154761904761905,-4.154761904761905,-4.154761904761905,-4.154761904761905,-4.154761904761905,-4.154761904761905,-4.154761904761905,-4.154761904761905,-4.154761904761905,0.8738095238095238,0.8452380952380952,0.7976190476190477,0.7404761904761905,0.6833333333333333,0.6261904761904762,0.5785714285714286,0.55,0.530952380952381,0.5214285714285715,0.5119047619047619,0.5119047619047619,0.5023809523809524,0.4928571428571429,0.4928571428571429,0.48333333333333334,0.4738095238095238,0.4642857142857143,0.4452380952380952,0.40714285714285714,0.33095238095238094,0.2357142857142857,0.14047619047619048,0.07380952380952381,-0.002380952380952381,-0.05,-0.07857142857142857,-0.09761904761904762,-0.10714285714285714,-0.10714285714285714,-0.10714285714285714,-0.10714285714285714,-0.10714285714285714,-0.10714285714285714,-0.10714285714285714,-0.10714285714285714,-0.10714285714285714,-0.10714285714285714,-0.10714285714285714,-0.10714285714285714,-0.10714285714285714,-0.10714285714285714,-0.09761904761904762,-0.0880952380952381,-0.07857142857142857,-0.05952380952380952,-0.05952380952380952,-0.05,-0.04047619047619048,-0.04047619047619048,-0.030952380952380953,-0.030952380952380953,-0.030952380952380953,-0.030952380952380953,-0.030952380952380953,-0.030952380952380953,-0.02142857142857143,-0.02142857142857143,-0.02142857142857143,-0.02142857142857143,-0.02142857142857143,-0.02142857142857143,-0.02142857142857143,-0.02142857142857143,-0.02142857142857143,-0.02142857142857143,-0.02142857142857143,-0.02142857142857143,-0.02142857142857143,-0.02142857142857143,-0.02142857142857143,-0.02142857142857143,-0.02142857142857143,-0.02142857142857143,-0.02142857142857143,-0.02142857142857143,-0.02142857142857143,-0.02142857142857143,-0.02142857142857143,-0.02142857142857143,-0.02142857142857143,-0.011904761904761904,-0.002380952380952381,0.007142857142857143,0.016666666666666666,0.02619047619047619,0.02619047619047619,0.03571428571428571,0.03571428571428571,0.03571428571428571,0.03571428571428571,0.04523809523809524,0.04523809523809524,0.04523809523809524,0.04523809523809524,0.04523809523809524,0.04523809523809524,0.04523809523809524,0.04523809523809524,0.04523809523809524,0.04523809523809524,0.04523809523809524,0.04523809523809524,0.04523809523809524,0.04523809523809524,0.04523809523809524,0.04523809523809524,0.04523809523809524,0.04523809523809524,0.04523809523809524,0.04523809523809524,0.04523809523809524,0.04523809523809524,0.04523809523809524,0.04523809523809524,0.04523809523809524,0.05476190476190476,0.05476190476190476,0.06428571428571428,0.06428571428571428,0.06428571428571428,0.06428571428571428,0.06428571428571428,0.06428571428571428,0.06428571428571428,0.06428571428571428,0.07380952380952381,0.07380952380952381,0.07380952380952381,0.07380952380952381,0.07380952380952381,0.07380952380952381,0.07380952380952381,0.07380952380952381,0.07380952380952381,0.07380952380952381,0.07380952380952381,0.07380952380952381,0.07380952380952381,0.07380952380952381,0.07380952380952381,0.07380952380952381,0.07380952380952381,0.07380952380952381,0.07380952380952381,0.07380952380952381,0.07380952380952381,0.06428571428571428,0.05476190476190476,0.05476190476190476,0.04523809523809524,0.03571428571428571,0.03571428571428571,0.03571428571428571,0.02619047619047619,0.02619047619047619,0.02619047619047619,0.02619047619047619,0.02619047619047619,0.02619047619047619,0.02619047619047619,0.02619047619047619,0.02619047619047619,0.02619047619047619,0.02619047619047619,0.02619047619047619,0.02619047619047619,0.02619047619047619,0.02619047619047619,0.02619047619047619,0.02619047619047619,0.02619047619047619,0.02619047619047619,0.02619047619047619,0.02619047619047619,0.02619047619047619,0.02619047619047619,0.02619047619047619,0.02619047619047619,0.02619047619047619,0.02619047619047619,0.02619047619047619,0.02619047619047619,0.02619047619047619,0.02619047619047619,0.02619047619047619,0.02619047619047619,0.02619047619047619,0.02619047619047619,0.02619047619047619,0.02619047619047619,0.02619047619047619,0.02619047619047619,0.02619047619047619,0.02619047619047619,0.02619047619047619,0.02619047619047619,0.02619047619047619,0.02619047619047619,0.02619047619047619,0.02619047619047619,0.02619047619047619,0.02619047619047619,0.02619047619047619,0.02619047619047619,0.02619047619047619,0.02619047619047619,0.02619047619047619,0.02619047619047619,0.02619047619047619,0.02619047619047619,0.02619047619047619,0.02619047619047619,0.02619047619047619,0.02619047619047619,0.02619047619047619,0.02619047619047619,0.02619047619047619,0.02619047619047619,0.016666666666666666,0.016666666666666666,0.007142857142857143,-0.002380952380952381,-0.002380952380952381,-0.002380952380952381,-0.002380952380952381,-0.002380952380952381,-0.002380952380952381,-0.002380952380952381,-0.002380952380952381,-0.002380952380952381,-0.002380952380952381,-0.002380952380952381,-0.002380952380952381,-0.002380952380952381,-0.002380952380952381,-0.002380952380952381,-0.002380952380952381,-0.002380952380952381,-0.002380952380952381,-0.002380952380952381,-0.002380952380952381,-0.002380952380952381,-0.002380952380952381,-0.002380952380952381,-0.002380952380952381,-0.002380952380952381,-0.002380952380952381,-0.002380952380952381,-0.002380952380952381,-0.002380952380952381,-0.002380952380952381,-0.002380952380952381,-0.002380952380952381,-0.002380952380952381,-0.002380952380952381,-0.002380952380952381,-0.002380952380952381,-0.002380952380952381,-0.002380952380952381,-0.002380952380952381,-0.002380952380952381,-0.002380952380952381,-0.002380952380952381,-0.002380952380952381,-0.002380952380952381,-0.002380952380952381,-0.002380952380952381,-0.002380952380952381,-0.002380952380952381,-0.002380952380952381,-0.002380952380952381,-0.002380952380952381,-0.002380952380952381,-0.002380952380952381,-0.002380952380952381,-0.002380952380952381,-0.002380952380952381,-0.002380952380952381,-0.002380952380952381,-0.002380952380952381,-0.002380952380952381,-0.002380952380952381,-0.002380952380952381,-0.002380952380952381,-0.002380952380952381,-0.002380952380952381,-0.02142857142857143,-0.04047619047619048,-0.04047619047619048,-0.04047619047619048,-0.04047619047619048,-0.04047619047619048,-0.04047619047619048,-0.04047619047619048,-0.04047619047619048,-0.04047619047619048,-0.04047619047619048,-0.04047619047619048,-0.04047619047619048,-0.002380952380952381,0.07380952380952381,0.1976190476190476,0.35,0.5023809523809524,0.6547619047619048,0.7119047619047619,0.7595238095238095,0.7880952380952381,0.8071428571428572,0.8166666666666667,0.8166666666666667,0.8261904761904761,0.8357142857142857,0.8357142857142857,0.8357142857142857,0.8357142857142857,0.8357142857142857,0.8357142857142857,0.8452380952380952,0.8642857142857143,0.9023809523809524,0.9404761904761905,0.969047619047619,0.9976190476190476,1.0071428571428571,1.0071428571428571,1.0071428571428571,1.0071428571428571,1.0071428571428571,1.0071428571428571,1.0071428571428571,1.0071428571428571,1.0071428571428571,1.0071428571428571,1.0071428571428571,1.0071428571428571,1.0071428571428571,1.0071428571428571,1.0071428571428571,1.0071428571428571,1.0071428571428571,1.0071428571428571,1.0071428571428571,1.0071428571428571,1.0071428571428571,1.0071428571428571,1.0071428571428571,1.0071428571428571,1.0071428571428571,1.0071428571428571,1.0071428571428571,1.0071428571428571,1.0071428571428571,1.0071428571428571,1.0071428571428571,1.0071428571428571,1.0071428571428571,1.0071428571428571,1.0071428571428571,1.0071428571428571,1.0071428571428571,1.0071428571428571,1.0071428571428571,1.0071428571428571,1.0071428571428571,1.0071428571428571,1.0071428571428571,1.0071428571428571,1.0071428571428571,1.0071428571428571,1.0071428571428571,1.0071428571428571,1.0071428571428571,1.0071428571428571,1.0071428571428571,0.9880952380952381,0.9595238095238096,0.9119047619047619,0.8261904761904761,0.7214285714285714,0.5785714285714286,0.40714285714285714,0.27380952380952384,0.12142857142857143,0.007142857142857143,-0.05952380952380952,-0.0880952380952381,-0.0880952380952381,-0.0880952380952381,-0.0880952380952381,-0.0880952380952381,-0.0880952380952381,-0.0880952380952381,-0.0880952380952381,-0.0880952380952381,-0.0880952380952381,-0.0880952380952381,-0.07857142857142857,-0.06904761904761905,-0.05,-0.030952380952380953,-0.02142857142857143,-0.02142857142857143,-0.02142857142857143,-0.02142857142857143,-0.02142857142857143,-0.02142857142857143,-0.02142857142857143,-0.02142857142857143,-0.011904761904761904,-0.011904761904761904,-0.011904761904761904,-0.011904761904761904,-0.02142857142857143,-0.04047619047619048,-0.05952380952380952,-0.06904761904761905,-0.07857142857142857,-0.07857142857142857,-0.07857142857142857,-0.07857142857142857,-0.0880952380952381,-0.0880952380952381,-0.0880952380952381,-0.09761904761904762,-0.09761904761904762,-0.09761904761904762,-0.09761904761904762,-0.09761904761904762,-0.09761904761904762,-0.09761904761904762,-0.09761904761904762,-0.09761904761904762,-0.09761904761904762,-0.09761904761904762,-0.09761904761904762,-0.09761904761904762,-0.06904761904761905,0.007142857142857143,0.08333333333333333,0.15,0.24523809523809523,0.30238095238095236,0.3595238095238095,0.40714285714285714,0.4357142857142857,0.4642857142857143,0.4738095238095238,0.4738095238095238,0.4738095238095238,0.4738095238095238,0.4738095238095238,0.4738095238095238,0.4738095238095238,0.4738095238095238,0.4738095238095238,0.4738095238095238,0.4738095238095238,0.4738095238095238,0.4928571428571429,0.5119047619047619,0.5119047619047619,0.5214285714285715,0.5214285714285715,0.5119047619047619,0.5119047619047619,0.5023809523809524,0.5023809523809524,0.5023809523809524,0.5023809523809524,0.4928571428571429,0.4928571428571429,0.4928571428571429,0.48333333333333334,0.48333333333333334,0.48333333333333334,0.48333333333333334,0.48333333333333334,0.48333333333333334,0.48333333333333334,0.48333333333333334,0.48333333333333334,0.48333333333333334,0.48333333333333334,0.48333333333333334,0.48333333333333334,0.48333333333333334,0.48333333333333334,0.48333333333333334,0.48333333333333334,0.48333333333333334,0.48333333333333334,0.48333333333333334,0.48333333333333334,0.48333333333333334,0.48333333333333334,0.48333333333333334,0.48333333333333334,0.48333333333333334,0.48333333333333334,0.48333333333333334,0.48333333333333334,0.48333333333333334,0.48333333333333334,0.48333333333333334,0.48333333333333334,0.48333333333333334,0.48333333333333334,0.48333333333333334,0.48333333333333334,0.48333333333333334,0.48333333333333334,0.48333333333333334,0.48333333333333334,0.48333333333333334,0.48333333333333334,0.48333333333333334,0.5023809523809524,0.5595238095238095,0.6642857142857143,0.7976190476190477,0.9023809523809524,1.0071428571428571,1.0547619047619048,1.0928571428571427,1.1023809523809525,1.1023809523809525,1.1023809523809525,1.1023809523809525,1.1023809523809525,1.1023809523809525,1.1023809523809525,1.1023809523809525,1.1023809523809525,1.1023809523809525,1.1023809523809525,1.1023809523809525,1.1023809523809525,1.1023809523809525,1.1023809523809525,1.1023809523809525,1.1023809523809525,1.1023809523809525,1.1023809523809525,1.1023809523809525,1.1023809523809525,1.1023809523809525,1.1023809523809525,1.1023809523809525,1.1023809523809525,1.1023809523809525,1.1023809523809525,1.1023809523809525,1.1023809523809525,1.1023809523809525,1.1023809523809525,1.1023809523809525,1.1023809523809525,1.1023809523809525,1.1023809523809525,1.1023809523809525,1.1023809523809525,1.1023809523809525,1.1023809523809525,1.1023809523809525,1.1023809523809525,1.1023809523809525,1.1023809523809525,1.1023809523809525,1.1023809523809525,1.1023809523809525,1.1023809523809525,1.1023809523809525,1.1023809523809525,1.1023809523809525,1.1023809523809525,1.1023809523809525,1.1023809523809525,1.1023809523809525,1.1023809523809525,1.1023809523809525,1.1023809523809525,1.1023809523809525,1.1023809523809525,1.1023809523809525,1.1023809523809525,1.1023809523809525,1.1023809523809525,1.1023809523809525,1.1023809523809525,1.1023809523809525,1.1023809523809525,1.1023809523809525,1.1023809523809525,1.1023809523809525,1.1023809523809525,1.1023809523809525,1.1023809523809525,1.1023809523809525,1.1023809523809525,1.1023809523809525,1.1023809523809525,1.1023809523809525,1.1023809523809525,1.1023809523809525]},"final_keyboard_state":["A","E","Z","B","R"],"num_clicks":5,"points":15,"cheat":false,"trial_type":"Hangman","trial_index":5,"time_elapsed":37085,"internal_node_id":"0.0-4.0","protocol_sum":"","subject_identifier":108,"subject_sum":[47,202,52,109,182,86,24,113,2,206,128,106,199,50,224,106,98,223,13,187,40,41,229,17,167,112,85,109,57,142,26,110],"subject_pair":54,"STUDY_ID":"669a702db1122fc5150a13ce","PROLIFIC_PID":"63d408a690705bd9c54c50a6","SESSION_ID":"669ab09cf58f829ceee033d4","practice_instructions":1,"leaderboard_instructions":0,"bonus":0,"reveal_word":false,"self_rating":"2","confidence":"70"},{"view_history":"[{\"page_index\":0,\"viewing_time\":2195.5},{\"page_index\":1,\"viewing_time\":4900.60000000149}]","rt":7096.4000000003725,"trial_type":"instructions","trial_index":6,"time_elapsed":44182,"internal_node_id":"0.0-5.0","protocol_sum":"","subject_identifier":108,"subject_sum":[47,202,52,109,182,86,24,113,2,206,128,106,199,50,224,106,98,223,13,187,40,41,229,17,167,112,85,109,57,142,26,110],"subject_pair":54,"STUDY_ID":"669a702db1122fc5150a13ce","PROLIFIC_PID":"63d408a690705bd9c54c50a6","SESSION_ID":"669ab09cf58f829ceee033d4","practice_instructions":1,"leaderboard_instructions":0,"bonus":0,"reveal_word":false,"self_rating":"2","confidence":"70"},{"rt":5264.800000000745,"responses":"{\"Q0\":\"...from <b>a previous session</b> that is part of the upcoming tournament.\"}","question_order":"[0]","trial_type":"survey-multi-choice","trial_index":7,"time_elapsed":49448,"internal_node_id":"0.0-6.0","protocol_sum":"","subject_identifier":108,"subject_sum":[47,202,52,109,182,86,24,113,2,206,128,106,199,50,224,106,98,223,13,187,40,41,229,17,167,112,85,109,57,142,26,110],"subject_pair":54,"correct":false,"test_part":"multichoice_leaderboard","STUDY_ID":"669a702db1122fc5150a13ce","PROLIFIC_PID":"63d408a690705bd9c54c50a6","SESSION_ID":"669ab09cf58f829ceee033d4","practice_instructions":1,"leaderboard_instructions":0,"bonus":0,"reveal_word":false,"self_rating":"2","confidence":"70"},{"view_history":"[{\"page_index\":0,\"viewing_time\":1442.5999999996275}]","rt":1442.7999999988824,"trial_type":"instructions","trial_index":8,"time_elapsed":50891,"internal_node_id":"0.0-7.0-0.0","protocol_sum":"","subject_identifier":108,"subject_sum":[47,202,52,109,182,86,24,113,2,206,128,106,199,50,224,106,98,223,13,187,40,41,229,17,167,112,85,109,57,142,26,110],"subject_pair":54,"STUDY_ID":"669a702db1122fc5150a13ce","PROLIFIC_PID":"63d408a690705bd9c54c50a6","SESSION_ID":"669ab09cf58f829ceee033d4","practice_instructions":1,"leaderboard_instructions":0,"bonus":0,"reveal_word":false,"self_rating":"2","confidence":"70"},{"rt":2144.9000000003725,"responses":"{\"Q0\":\"...from <b>a previous session</b> that is not part of the upcoming tournament.\"}","question_order":"[0]","trial_type":"survey-multi-choice","trial_index":9,"time_elapsed":53037,"internal_node_id":"0.0-7.0-1.0","protocol_sum":"","subject_identifier":108,"subject_sum":[47,202,52,109,182,86,24,113,2,206,128,106,199,50,224,106,98,223,13,187,40,41,229,17,167,112,85,109,57,142,26,110],"subject_pair":54,"correct":true,"test_part":"multichoice_leaderboard","STUDY_ID":"669a702db1122fc5150a13ce","PROLIFIC_PID":"63d408a690705bd9c54c50a6","SESSION_ID":"669ab09cf58f829ceee033d4","practice_instructions":1,"leaderboard_instructions":0,"bonus":0,"reveal_word":false,"self_rating":"2","confidence":"70"},{"view_history":"[{\"page_index\":0,\"viewing_time\":5043.200000001118}]","rt":5043.300000000745,"trial_type":"instructions","trial_index":10,"time_elapsed":58081,"internal_node_id":"0.0-8.0","protocol_sum":"","subject_identifier":108,"subject_sum":[47,202,52,109,182,86,24,113,2,206,128,106,199,50,224,106,98,223,13,187,40,41,229,17,167,112,85,109,57,142,26,110],"subject_pair":54,"STUDY_ID":"669a702db1122fc5150a13ce","PROLIFIC_PID":"63d408a690705bd9c54c50a6","SESSION_ID":"669ab09cf58f829ceee033d4","practice_instructions":1,"leaderboard_instructions":0,"bonus":0,"reveal_word":false,"self_rating":"2","confidence":"70"},{"rt":4027.5999999996275,"responses":"{\"Q0\":\"...players' leaderboard position (in terms of <b>points</b>) in an <b>upcoming tournament.</b>\"}","question_order":"[0]","trial_type":"survey-multi-choice","trial_index":11,"time_elapsed":62109,"internal_node_id":"0.0-9.0","protocol_sum":"","subject_identifier":108,"subject_sum":[47,202,52,109,182,86,24,113,2,206,128,106,199,50,224,106,98,223,13,187,40,41,229,17,167,112,85,109,57,142,26,110],"subject_pair":54,"correct":true,"test_part":"multichoice_tournament","STUDY_ID":"669a702db1122fc5150a13ce","PROLIFIC_PID":"63d408a690705bd9c54c50a6","SESSION_ID":"669ab09cf58f829ceee033d4","practice_instructions":1,"leaderboard_instructions":0,"bonus":0,"reveal_word":false,"self_rating":"2","confidence":"70"},{"view_history":"[{\"page_index\":0,\"viewing_time\":1232.5}]","rt":1232.699999999255,"trial_type":"instructions","trial_index":12,"time_elapsed":63342,"internal_node_id":"0.0-11.0","protocol_sum":"","subject_identifier":108,"subject_sum":[47,202,52,109,182,86,24,113,2,206,128,106,199,50,224,106,98,223,13,187,40,41,229,17,167,112,85,109,57,142,26,110],"subject_pair":54,"STUDY_ID":"669a702db1122fc5150a13ce","PROLIFIC_PID":"63d408a690705bd9c54c50a6","SESSION_ID":"669ab09cf58f829ceee033d4","practice_instructions":1,"leaderboard_instructions":0,"bonus":0,"reveal_word":false,"self_rating":"2","confidence":"70"},{"view_history":"[{\"page_index\":0,\"viewing_time\":5745.9000000003725}]","rt":5746,"trial_type":"instructions","trial_index":13,"time_elapsed":69089,"internal_node_id":"0.0-12.0-0.0","protocol_sum":"","subject_identifier":108,"subject_sum":[47,202,52,109,182,86,24,113,2,206,128,106,199,50,224,106,98,223,13,187,40,41,229,17,167,112,85,109,57,142,26,110],"subject_pair":54,"STUDY_ID":"669a702db1122fc5150a13ce","PROLIFIC_PID":"63d408a690705bd9c54c50a6","SESSION_ID":"669ab09cf58f829ceee033d4","practice_instructions":1,"leaderboard_instructions":0,"bonus":0,"reveal_word":false,"self_rating":"2","confidence":"70"},{"word":"FIG","click_log":{"letter":["","A","E","I","O","U","F","G"],"t":[0,12288.300000000745,13254.199999999255,14870.800000000745,20054,21020.699999999255,33504.59999999963,35420.59999999963],"hit":[null,0,0,1,0,0,1,1],"asked":["","A","AE","AEI","AEIO","AEIOU","AEIOUF","AEIOUFG"],"word_state":["___","___","___","_I_","_I_","_I_","FI_","FIG"]},"hover_log":{"letter":["?","?","?","?","?","?","?","?","?","?","?","?","?","?","?","?","?","?","?","?","?","?","?","?","?","?","?","?","?","?","?","?","?","?","?","?","?","?","?","?","?","?","?","?","?","?","?","?","?","?","?","?","?","?","?","?","?","?","?","?","?","?","?","?","?","?","?","?","?","?","?","?","?","?","?","?","?","?","?","?","?","?","?","?","?","?","?","?","?","?","?","?","?","?","?","?","?","?","?","?","?","?","?","?","?","?","?","?","?","?","?","?","?","?","?","?","?","?","?","?","?","?","?","?","?","?","?","?","?","?","?","?","?","?","?","?","?","?","?","?","?","?","?","?","?","?","?","?","?","?","?","?","?","?","?","?","?","?","?","?","?","?","?","?","?","?","?","?","?","?","?","?","?","?","?","?","?","?","?","?","?","?","?","?","?","?","?","?","?","?","?","?","?","?","?","?","?","?","?","?","?","?","?","?","?","?","?","?","?","?","?","?","?","?","?","?","?","?","?","?","?","?","?","?","?","?","?","?","?","?","?","?","?","?","?","?","?","?","?","?","?","?","?","?","?","?","?","?","?","?","?","?","?","?","?","?","?","?","?","?","?","?","?","?","?","?","?","?","?","?","?","?","?","?","?","?","?","?","?","?","?","?","?","?","?","?","?","?","?","?","?","?","?","?","?","?","?","?","?","?","?","?","?","?","?","?","?","?","?","?","?","?","?","?","?","?","?","?","?","?","?","?","?","?","?","?","?","?","?","?","?","?","?","?","?","?","?","?","?","?","?","?","?","?","?","?","?","?","?","?","?","?","?","?","?","?","?","?","?","?","?","?","?","?","?","?","?","?","?","?","?","?","?","?","?","?","?","?","?","?","?","?","?","?","?","?","?","?","?","?","?","?","?","?","?","?","?","?","?","?","?","?","?","?","?","?","?","?","?","?","?","?","?","?","?","?","?","?","?","?","?","?","?","?","?","?","?","?","?","?","?","?","?","?","?","?","?","?","?","?","?","?","?","?","?","?","?","?","?","?","?","?","?","?","?","?","?","?","?","?","?","?","?","?","?","?","?","?","?","?","?","?","?","?","?","?","?","?","?","?","?","?","?","?","?","?","?","?","?","?","?","?","?","?","?","?","?","?","?","?","?","?","?","?","?","?","?","?","?","?","?","?","?","?","?","?","?","?","?","?","?","?","?","?","?","?","?","?","?","?","?","?","?","?","?","?","?","?","?","?","?","?","?","?","?","?","?","?","?","?","?","?","?","?","?","?","?","?","?","?","?","?","?","?","?","?","?","?","?","?","?","?","?","?","?","?","?","?","?","?","?","?","?","?","?","?","?","?","?","?","?","?","?","?","?","?","?","?","?","?","?","?","?","?","?","?","?","?","?","?","?","?","?","?","?","?","?","?","?","?","?","?","?","?","?","?","?","?","?","?","?","?","?","?","?","?","?","?","?","?","?","?","?","?","?","?","?","?","?","?","?","?","?","?","?","?","?","?","?","?","?","?","?","?","?","?","?","?","?","?","?","?","?","?","?","?","?","?","?","?","?","?","?","?","?","?","?","?","?","?","?","?","?","?","?","?","?","?","?","?","?","?","?","?","?","?","?","?","?","?","?","?","?","?","?","?","?","?","?","?","?","?","?","?","?","?","?","?","?","?","?","?","?","?","?","?","?","?","?","?","?","?","?","?","?","?","?","?","?","?","?","?","?","?","?","?","?","?","?","?","?","?","?","?","?","?","?","?","?","?","?","?","?","?","?","?","?","?","?","?","?","?","?","?","?","?","?","?","?","?","?","?","?","?","?","?","?","?","?","?","?","?","?","?","?","?","?","?","?","?","?","?","?","?","?","?","?","?","?","?","?","?","?","?","?","?","?","?","?","?","?","?","?","?","?","?","?","?","?","?","?","?","?","?","?","?","?","?","?","?","?","?","?","?","?","?","?","?","?","?","?","?","?","?","?","?","?","?","?","?","?","?","?","?","?","?","?","?","?","?","?","?","?","?","?","?","?","?","?","?","?","?","?","?","?","?","?","?","?","?","?","?","?","?","?","?","?","?","?","?","?","?","?","?","?","?","?","?","?","?","?","?","?","?","?","?","?","?","?","?","?","?","?","?","?","?","?","?","?","?","?","?","?","?","?","?","?","?","?","?","?","?","?","?","?","?","?","?","?","?","?","?","?","?","?","?","?","?","?","?","?","?","?","?","?","?","?","?","?","?","?","?","?","?","?","?","?","?","?","?","?","?","?","?","?","?","?","?","?","?","?","?","?","?","?","?","?","?","?","?","?","?","?","?","?","?","?","?","?","?","?","?","?","?","?","?","?","?","?","?","?","?","?","?","?","?","?","?","?","?","?","?","?","?","?","?","?","?","?","?","?","?","?","?","?","?","?","?","?","?","?","?","?","?","?","?","?","?","?","?","?","?","?","?","?","?","?","?","?","?","?","?","?","?","?","?","?","?","?","?","?","?","?","?","?","?","?","?","?","?","?","?","?","?","?","?","?","?","?","?","?","?","?","?","?","?","?","?","?","?","?","?","?","?","?","?","?","?","?","?","?","?","?","?","?","?","?","?","?","?","?","?","?","?","?","?","?","?","?","?","?","?","?","?","?","?","?","?","?","?","?","?","?","?","?","?","?","?","?","?","?","?","?","?","?","?","?","?","?","?","?","?","?","?","?","?","?","?","?","?","?","?","?","?","?","?","?","?","?","?","?","?","?","?","?","?","?","?","?","?","?","?","?","?","?","?","?","?","?","?","?","?","?","?","?","?","?","?","?","?","?","?","?","?","?","?","?","?","?","?","?","?","?","?","?","?","?","?","?","?","?","?","?","?","?","?","?","?","?","?","?","?","?","?","?","?","?","?","?","?","?","?","?","?","?","?","?","?","?","?","?","?","?","?","?","?","?","?","?","?","?","?","?","?","?","?","?","?","?","?","?","?","?","?","?","?","?","?","?","?","?","?","?","?","?","?","?","?","?","?","?","?","?","?","?","?","?","?","?","?","?","?","?","?","?","?","?","?","?","?","?","?","?","?","?","?","?","?","?","?","?","?","?","?","?","?","?","?","?","?","?","?","?","?","?","?","?","?","?","?","?","?","?","?","?","?","?","?","?","?","?","?","?","?","?","?","?","?","?","?","?","?","?","?","?","?","?","?","?","?","?","?","?","?","?","?","?","?","?","?","?","?","?","?","?","?","?","?","?","?","?","?","?","?","?","?","?","?","?","?","?","?","?","?","?","?","?","?","?","?","?","?","?","?","?","?","?","?","?","?","?","?","?","?","?","?","?","?","?","?","?","?","?","?","?","?","?","?","?","?","?","?","?","?","?","?","?","?","?","?","?","?","?","?","?","?","?","?","?","?","?","?","?","?","?","?","?","?","?","?","?","?","?","?","?","?","?","?","?","?","?","?","?","?","?","?","?","?","?","?","?","?","?","?","?","?","?","?","?","?","?","?","?","?","?","?","?","?","?","?","?","?","?","?","?","?","?","?","?","?","?","?","?","?","?","?","?","?","?","?","?","?","?","?","?","?","?","?","?","?","?","?","?","?","?","?","?","?","?","?","?","?","?","?","?","?","?","?","?","?","?","?","?","?","?","?","?","?","?","?","?","?","?","?","?","?","?","?","?","?","?","?","?","?","?","?","?","?","?","?","?","?","?","?","?","?","?","?","?","?","?","?","?","?","?","?","?","?","?","?","?","?","?","?","?","?","?","?","?","?","?","?","?","?","?","?","?","?","?","?","?","?","?","?","?","?","?","?","?","?","?","?","?","?","?","?","?","?","?","?","?","?","?","?","?","?","?","?","?","?","?","?","?","?","?","?","?","?","?","?","?","?","?","?","?","?","?","?","?","?","?","?","?","?","?","?","?","?","?","?","?","?","?","?","?","?","?","?","?","?","?","?","?","?","?","?","?","?","?","?","?","?","?","?","?","?","?","?","?","?","?","?","?","?","?","?","?","?","?","?","?","?","?","?","?","?","?","?","?","?","?","?","?","?","?","?","?","?","?","?","?","?","?","?","?","?","?","?","?","?","?","?","?","?","?","?","?","?","?","?","?","?","?","?","?","?","?","?","?","?","?","?","?","?","?","?","?","?","?","?","?","?","?","?","?","?","?","?","?","?","?","?","?","?","?","?","?","?","?","?","?","?","?","?","?","?","?","?","?","?","?","?","?","?","?","?","?","?","?","?","?","?","?","?","?","?","?","?","?","?","?","?","?","?","?","?","?","?","?","?","?","?","?","?","?","?","?","?","?","?","?","?","?","?","?","?","?","?","?","?","?","?","?","?","?","?","?","?","?","?","?","?","?","?","?","?","?","?","?","?","?","?","?","?","?","?","?","?","?","?","?","?","?","?","?","?","?","?","?","?","?","?","?","?","?","?","?","?","?","?","?","?","?","?","?","?","?","?","?","?","?","?","?","?","?","?","?","?","?","?","?","?","?","?","?","?","?","?","?","?","?","?","?","?","?","?","?","?","?","?","?","?","?","?","?","?","?","?","?","?","?","?","?","?","?","?","?","?","?","?","?","?","?","?","?","?","?","?","?","?","?","?","?","?","?","?","?","?","?","?","?","?","?","?","?","?","?","?","?","?","?","?","?","?","?","?","?","?","?","?","?","?","?","?","?","?","?","?","?","?","?","?","?","?","?","?","?","?","?","?","?","?","?","?","?","?","?","?","?","?","?","?","?","?","?","?","?","?","?","?","?","?","?","?","?","?","?","?","?","?","?","?","?","?","?","?","?","?","?","?","?","?","?","?","?","?","?","?","?","?","?","?","?","?","?","?","?","?","?","?","?","?","?","?","?","?","?","?","?","?","?","?","?","?","?","?","?","?","?","?","?","?","?","?","?","?","?","?","?","?","?","?","?","?","?","?","?","?","?","?","?","?","?","?","?","?","?","?","?","?","?","?","?","?","?","?","?","?","?","?","?","?","?","?","?","?","?","?","?","?","?","?","?","?","?","?","?","?","?","?","?","?","?","?","?","?","?","?","?","?","?","?","?","?","?","?","?","?","?","?","?","?","?","?","?","?","?","?","?","?","?","?","?","?","?","?","?","?","?","?","?","?","?","?","?","?","?","?","?","?","?","?","?","?","?","?","?","?","?","?","?","?","?","?","?","?","?","?","?","?","?","?","?","?","?","?","?","?","?","?","?","?","?","?","?","?","?","?","?","?","?","?","?","?","?","?","?","?","?","?","?","?","?","?","?","?","?","?","?","?","?","?","?","?","?","?","?","?","?","?","?","?","?","?","?","?","?","?","?","?","?","?","?","?","?","?","?","?","?","?","?","?","?","?","?","?","?","?","?","?","?","?","?","?","?","?","?","?","?","?","?","?","?","?","?","?","?","?","?","?","?","?","?","?","?","?","?","?","?","?","?","?","?","?","?","?","?","?","?","?","?","?","?","?","?","?","?","?","?","?","?","?","?","?","?","?","?","?","?","?","?","?","?","?","?","?","?","?","?","?","?","?","?","?","?","?","?","?","?","?","?","?","?","?","?","?","?","?","?","?","?","?","?","?","?","?","?","?","?","?","?","?","?","?","?","?","?","?","?","?","?","?","?","?","?","?","?","?","?","?","?","?","?","?","?","?","?","?","?","?","?","?","?","?","?","?","?","?","?","?","?","?","?","?","?","?","?","?","?","?","?","?","?","?","?","?","?","?","?","?","?","?","?","?","?","?","?","?","?","?","?","?","?","?","?","?","?","?","?","?","?","?","?","?","?","?","?","?","?","?","?","?","?","?","?","?","?","?","?","?","?","?","?","?","?","?","?","?","?","?","?","?","?","?","?","?","?","?","?","?","?","?","?","?","?","?","?","?","?","?","?","?","?","?","?","?","?","?","?","?","?","?","?","?","?","?","?","?","?","?","?","?","?","?","?","?","?","?","?","?","?","?","?","?","?","?","?","?","?","?","?","?","?","?","?","?","?","?","?","?","?","?","?","?","?","?","?","?","?","?","?","?","?","?","?","?","?","?","?","?","?","?","?","?","?","?","?","?","?","?","?","?","?","?","?","?","?","?","?","?","?","?","?","?","?","?","?","?","?","?","?","?","?","?","?","?","?","?","?","?","?","?","?","?","?","?","?","?","?","?","?","?","?","?","?","?","?","?","?","?","?","?","?","?","?","?","?","?","?","?","?","?","?","?","?","?","?","?","?","?","?","?","?","?","?","?","?","?","?","?","?","?","?","?","?","?","?","?","?","?","?","?","?","?","?","?","?","?","?","?","?","?","?","?","?","?","?","?","?","?","?","?","?","?","?","?","?","?","?","?","?","?","?","?","?","?","?","?","?","?","?","?","?","?","?","?","?","?","?","?","?","?","?","?","?","?","?","?","?","?","?","?","?","?","?","?","?","?","?","?","?","?","?","?","?","?","?","?","?","?","?","?","?","?","?","?","?","?","?","?","?","?","?","?","?","?","?","?","?","?","?","?","?","?","?","?","?","?","?","?","?","?","?","?","?","?","?","?","?","?","?","?","?","?","?","?","?","?","?","?","?","?","?","?","?","?","?","?","?","?","?","?","?","?","?","?","?","?","?","?","?","?","?","?","?","?","?","?","?","?","?","?","?","?","?","?","?","?","?","?","?","?","?","?","?","?","?","?","?","?","?","?","?","?","?","?","?","?","?","?","?","?","?","?","?","?","?","?","?","?","?","?","?","?","?","?","?","?","?","?","?","?","?","?","?","?","?","?","?","?","?","?","?","?","?","?","?","?","?","?","?","?","?","?","?","?","?","?","?","?","?","?","?","?","?","?","?","?","?","?","?","?","?","?","?","?","?","?","?","?","?","?","?","?","?","?","?","?","?","?","?","?","?","?","?","?","?","?","?","?","?","?","?","?","?","?","?","?","?","?","?","?","?","?","?","?","?","?","?","?","?","?","?","?","?","?","?","?","?","?","?","?","?","?","?","?","?","?","?","?","?","?","?","?","?","?","?","?","?","?","?","?","?","?","?","?","?","?","?","?","?","?","?","?","?","?","?","?","?","?","?","?","?","?","?","?","?","?","?","?","?","?","?","?","?","?","?","?","?","?","?","?","?","?","?","?","?","?","?","?","?","?","?","?","?","?","?","?","?","?","?","?","?","?","?","?","?","?","?","?","?","?","?","?","?","?","?","?","?","?","?","?","?","?","?","?","?","?","?","?","?","?","?","?","?","?","?","?","?","?","?","?","?","?","?","?","?","?","?","?","?","?","?","?","?","?","?","?","?","?","?","?","?","?","?","?","?","?","?","?","?","?","?","?","?","?","?","?","?","?","?","?","?","?","?","?","?","?","?","?","?","?","?","?","?","?","?","?","?","?","?","?","?","?","?","?","?","?","?","?","?","?","?","?","?","?","?","?","?","?","?","?","?","?","?","?","?","?","?","?","?","?","?","?","?","?","?","?","?","?","?","?","?","?","?","?","?","?","?","?","?","?","?","?","?","?","?","?","?","?","?","?","?","?","?","?","?","?","?","?","?","?","?","?","?","?","?","?","?","?","?","?","?","?","?","?","?","?","?","?","?","?","?","?","?","?","?","?","?","?","?","?","?","?","?","?","?","?","?","?","?","?","?","?","?","?","?","?","?","?","?","?","?","?","?","?","?","?","?","?","?","?","?","?","?","?","?","?","?","?","?","?","?","?","?","?","?","?","?","?","?","?","?","?","?","?","?","?","?","?","?","?","?","?","?","?","?","?","?","?","?","?","?","?","?","?","?","?","?","?","?","?","?","?","?","?","?","?","?","?","?","?","?","?","?","?","?","?","?","?","?","?","?","?","?","?","?","?","?","?","?","?","?","?","?","?","?","?","?","?","?","?","?","?","?","?","?","?","?","?","?","?","?","?","?","?","?","?","?","?","?","?","?","?","?","?","?","?","?","?","?","?","?","?","?","?","?","?","?","?","?","?","?","?","?","?","?","?","?","?","?","?","?","?","?","?","?","?","?","?","?","?","?","?","?","?","?","?","?","?","?","?","?","?","?","?","?","?","?","?","?","?","?","?","?","?","?","?","?","?","?","?","?","?","?","?","?","?","?","?","?","?","?","?","?","?","?","?","?","?","?","?","?","?","?","?","?","?","?","?","?","?","?","?","?","?","?","?","?","?","?","?","?","?","?","?","?","?","?","?","?","?","?","?","?","?","?","?","?","?","?","?","?","?","?","?","?","?","?","?","?","?","?","?","?","?","?","?","?","?","?","?","?","?","?","?","?","?","?","?","?","?","?","?","?","?","?","?","?","?","?","?","?","?","?","?","?","?","?","?","?","?","?","?","?","?","?","?","?","?","?","?","?","?","?","?","?","?","?","?","?","?","?","?","?","?","?","?","?","?","?","?","?","?","?","?","?","?","?","?","?","?","?","?","?","?","?","?","?","?","?","?","?","?","?","?","?","?","?","?","?","?","?","?","?","?","?","?","?","?","?","?","?","?","?","?","?","?","?","?","?","?","?","?","?","?","?","?","?","?","?","?","?","?","?","?","?","?","?","?","?","?","?","?","?","?","?","?","?","?","?","?","?","?","?","?","?","?","?","?","?","?","?","?","?","?","?","?","?","?","?","?","?","?","?","?","?","?","?","?","?","?","?","?","?","?","?","?","?","?","?","?","?","?","?","?","?","?","?","?","?","?","?","?","?","?","?","?","?","?","?","?","?","?","?","?","?","?","?","?","?","?","?","?","?","?","?","?","?","?","?","?","?","?","?","?","?","?","?","?","?","?","?","?","?","?","?","?","?","?","?","?","?","?","?","?","?","?","?","?","?","?","?","?","?","?","?","?","?","?","?","?","?","?","?","?","?","?","?","?","?","?","?","?","?","?","?","?","?","?","?","?","?","?","?","?","?","?","?","?","?","?","?","?","?","?","?","?","?","?","?","?","?","?","?","?","?","?","?","?","?","?","?","?","?","?","?","?","?","?","?","?","?","?","?","?","?","?","?","?","?","?","?","?","?","?","?","?","?","?","?","?","?","?","?","?","?","?","?","?","?","?","?","?","?","?","?","?","?","?","?","?","?","?","?","?","?","?","?","?","?","?","?","?","?","?","?","?","?","?","?","?","?","?","?","?","?","?","?","?","?","?","?","?","?","?","?","?","?","?","?","?","?","?","?","?","?","?","?","?","?","?","?","?","?","?","?","?","?","?","?","?","?","?","?","?","?","?","?","?","?","?","?","?","?","?","?","?","?","?","?","?","?","?","?","?","?","?","?","?","?","?","?","?","?","?","?","?","?","?","?","?","?","?","?","?","?","?","?","?","?","?","?","?","?","?","?","?","?","?","?","?","?","?","?","?","?","?","?","?","?","?","?","?","?","?","?","?","?","?","?","?","?","?","?","?","?","?","?","?","?","?","?","?","?","?","?","?","?","?","?","?","?","?","?","?","?","?","?","?","?","?","?","?","?","?","?","?","?","?","?","?","?","?","?","?","?","?","?","?","?","?","?","?","?","?","?","?","?","?","?","?","?","?","?","?","?","?","?","?","?","?","?","?","?","?","?","?","?","?","?","?","?","?","?","?","?","?","?","?","?","?","?","?","?","?","?","?","?","?","?","?","?","?","?","?","?","?","?","?","?","?","?","?","?","?","?","?","?","?","?","?","?","?","?","?","?","?","?","?","?","?","?","?","?","?","?","?","?","?","?","?","?","?","?","?","?","?","?","?","?","?","?","?","?","?","?","?","?","?","?","?","?","?","?","?","?","?","?","?","?","?","?","?","?","?","?","?","?","?","?","?","?","?","?","?","?","?","?","?","?","?","?","?","?","?","?","?","?","?","?","?","?","?","?","?","?","?","?","?","?","?","?","?","?","?","?","?","?","?","?","?","?","?","?","?","?","?","?","?","?","?","?","?","?","?","?","?","?","?","?","?","?","?","?","?","?","?","?","?","?","?","?","?","?","?","?","?","?","?","?","?","?","?","?","?","?","?","?","?","?","?","?","?","?","?","?","?","?","?","?","?","?","?","?","?","?","?","?","?","?","?","?","?","?","?","?","?","?","?","?","?","?","?","?","?","?","?","?","?","?","?","?","?","?","?","?","?","?","?","?","?","?","?","?","?","?","?","?","?","?","?","?","?","?","?","?","?","?","?","?","?","?","?","?","?","?","?","?","?","?","?","?","?","?","?","?","?","?","?","?","?","?","?","?","?","?","?","?","?","?","?","?","?","?","?","?","?","?","?","?","?","?","?","?","?","?","?","?","?","?","?","?","?","?","?","?","?","?","?","?","?","?","?","?","?","?","?","?","?","?","?","?","?","?","?","?","?","?","?","?","?","?","?","?","?","?","?","?","?","?","?","?","?","?","?","?","?","?","?","?","?","?","?","?","?","?","?","?","?","?","?","?","?","?","?","?","?","?","?","?","?","?","?","?","?","?","?","?","?","?","?","?","?","?","?","?","?","?","?","?","?","?","?","?","?","?","?","?","?","?","?","?","?","?","?","?","?","?","?","?","?","?","?","?","?","?","?","?","?","?","?","?","?","?","?","?","?","?","?","?","?","?","?","?","?","?","?","?","?","?","?","?","?","?","?","?","?","?","?","?","?","?","?","?","?","?","?","?","?","?","?","?","?","?","?","?","?","?","?","?","?","?","?","?","?","?","?","?","?","?","?","?","?","?","?","?","?","?","?","?","?","?","?","?","?","?","?","?","?","?","?","?","?","?","?","?","?","?","?","?","?","?","?","?","?","?","?","?","?","?","?","?","?","?","?","?","?","?","?","?","?","?","?","?","?","?","?","?","?","?","?","?","?","?","?","?","?","?","?","?","?","?","?","?","?","?","?","?","?","?","?","?","?","?","?","?","?","?","?","?","?","?","?","?","?","?","?","?","?","?","?","?","?","?","?","?","?","?","?","?","?","?","?","?","?","?","?","?","?","?","?","?","?","?","?","?","?","?","?","?","?","?","?","?","?","?","?","?","?","?","?","?","?","?","?","?","?","?","?","?","?","?","?","?","?","?","?","?","?","?","?","?","?","?","?","?","?","?","?","?","?","?","?","?","?","?","?","?","?","?","?","?","?","?","?","?","?","?","?","?","?","?","?","?","?","?","?","?","?","?","?","?","?","?","?","?","?","?","?","?","?","?","?","?","?","?","?","?","?","?","?","?","?","?","?","?","?","?","?","?","?","?","?","?","?","?","?","?","?","?","?","?","?","?","?","?","?","?","?","?","?","?","?","?","?","?","?","?","?","?","?","?","?","?","?","?","?","?","?","?","?","?","?","?","?","?","?","?","?","?","?","?","?","?","?","?","?","?","?","?","?","?","?","?","?","?","?","?","?","?","?","?","?","?","?","?","?","?","?","?","?","?","?","?","?","?","?","?","?","?","?","?","?","?","?","?","?","?","?","?","?","?","?","?","?","?","?","?","?","?","?","?","?","?","?","?","?","?","?","?","?","?","?","?","?","?","?","?","?","?","?","?","?","?","?","?","?","?","?","?","?","?","?","?","?","?","?","?","?","?","?","?","?","?","?","?","?","?","?","?","?","?","?","?","?","?","?","?","?","?","?","?","?","?","?","?","?","?","?","?","?","?","?","?","?","?","?","?","?","?","?","?","?","?","?","?","?","?","?","?","?","?","?","?","?","?","?","?","?","?","?","?","?","?","?","?","?","?","?","?","?","?","?","?","?","?","?","?","?","?","?","?","?","?","?","?","?","?","?","?","?","?","?","?","?","?","?","?","?","?","?","?","?","?","?","?","?","?","?","?","?","?","?","?","?","?","?","?","?","?","?","?","?","?","?","?","?","?","?","?","?","?","?","?","?","?","?","?","?","?","?","?","?","?","?","?","?","?","?","?","?","?","?","?","?","?","?","?","?","?","?","?","?","?","?","?","?","?","?","?","?","?","?","?","?","?","?","?","?","?","?","?","?","?","?","?","?","?","?","?","?","?","?","?","?","?","?","?","?","?","?","?","?","?","?","?","?","?","?","?","?","?","?","?","?","?","?","?","?","?","?","?","?","?","?","?","?","?","?","?","?","?","?","?","?","?","?","?","?","?","?","?","?","?","?","?","?","?","?","?","?","?","?","?","?","?","?","?","?","?","?","?","?","?","?","?","?","?","?","?","?","?","?","?","?","?","?","?","?","?","?","?","?","?","?","?","?","?","?","?","?","?","?","?","?","?","?","?","?","?","?","?","?","?","?","?","?","?","?","?","?","?","?","?","?","?","?","?","?","?","?","?","?","?","?","?","?","?","?","?","?","?","?","?","?","?","?","?","?","?","?","?","?","?","?","?","?","?","?","?","?","?","?","?","?","?","?","?","?","?","?","?","?","?","?","?","?","?","?","?","?","?","?","?","?","?","?","?","?","?","?","?","?","?","?","?","?","?","?","?","?","?","?","?","?","?","?","?","?","?","?","?","?","?","?","?","?","?","?","?","?","?","?","?","?","?","?","?","?","?","?","?","?","?","?","?","?","?","?","?","?","?","?","?","?","?","?","?","?","?","?","?","?","?","?","?","?","?","?","?","?","?","?","?","?","?","?","?","?","?","?","?","?","?","?","?","?","?","?","?","?","?","?","?","?","?","?","?","?","?","?","?","?","?","?","?","?","?","?","?","?","?","?","?","?","?","?","?","?","?","?","?","?","?","?","?","?","?","?","?","?","?","?","?","?","?","?","?","?","?","?","?","?","?","?","?","?","?","?","?","?","?","?","?","?","?","?","?","?","?","?","?","?","?","?","?","?","?","?","?","?","?","?","?","?","?","?","?","?","?","?","?","?","?","?","?","?","?","?","?","?","?","?","?","?","?","?","?","?","?","?","?","?","?","?","?","?","?","?","?","?","?","?","?","?","?","?","?","?","?","?","?","?","?","?","?","?","?","?","?","?","?","?","?","?","?","?","?","?","?","?","?","?","?","?","?","?","?","?","?","?","?","?","?","?","?","?","?","?","?","?","?","?","?","?","?","?","?","?","?","?","?","?","?","?","?","?","?","?","?","?","?","?","?","?","?","?","?","?","?","?","?","?","?","?","?","?","?","?","?","?","?","?","?","?","?","?","?","?","?","?","?","?","?","?","?","?","?","?","?","?","?","?","?","?","?","?","?","?","?","?","?","?","?","?","?","?","?","?","?","?","?","?","?","?","?","?","?","?","?","?","?","?","?","?","?","?","?","?","?","?","?","?","?","?","?","?","?","?","?","?","?","?","?","?","?","?","?","?","?","?","?","?","?","?","?","?","?","?","?","?","?","?","?","?","?","?","?","?","?","?","?","?","?","?","?","?","?","?","?","?","?","?","?","?","?","?","?","?","?","?","?","?","?","?","?","?","?","?","?","?","?","?","?","?","?","?","?","?","?","?","?","?","?","?","?","?","?","?","?","?","?","?","?","?","?","?","?","?","?","?","?","?","?","?","?","?","?","?","?","?","?","?","?","?","?","?","?","?","?","?","?","?","?","?","?","?","?","?","?","?","?","?","?","?","?","?","?","?","?","?","?","?","?","?","?","?","?","?","?","?","?","?","?","?","?","?","?","?","?","?","?","?","?","?","?","?","?","?","?","?","?","?","?","?","?","?","?","?","?","?","?","?","?","?","?","?","?","?","?","?","?","?","?","?","?","?","?","?","?","?","?","?","?","?","?","?","?","?","?","?","?","?","?","?","?","?","?","?","?","?","?","?","?","?","?","?","?","?","?","?","?","?","?","?","?","?","?","?","?","?","?","?","?","?","?","?","?","?","?","?","?","?","?","?","?","?","?","?","?","?","?","?","?","?","?","?","?","?","?","?","?","?","?","?","?","?","?","?","?","?","?","?","?","?","?","?","?","?","?","?","?","?","?","?","?","?","?","?","?","?","?","?","?","?","?","?","?","?","?","?","?","?","?","?","?","?","?","?","?","?","?","?","?","?","?","?","?","?","?","?","?","?","?","?","?","?","?","?","?","?","?","?","?","?","?","?","?","?","?","?","?","?","?","?","?","?","?","?","?","?","?","?","?","?","?","?","?","?","?","?","?","?","?","?","?","?","?","?","?","?","?","?","?","?","?","?","?","?","?","?","?","?","?","?","?","?","?","?","?","?","?","?","?","?","?","?","?","?","?","?","?","?","?","?","?","?","?","?","?","?","?","?","?","?","?","?","?","?","?","?","?","?","?","?","?","?","?","?","?","?","?","?","?","?","?","?","?","?","?","?","?","?","?","?","?","?","?","?","?","?","?","?","?","?","?","?","?","?","?","?","?","?","?","?","?","?","?","?","?","?","?","?","?","?","?","?","?","?","?","?","?","?","?","?","?","?","?","?","?","?","?","?","?","?","?","?","?","?","?","?","?","?","?","?","?","?","?","?","?","?","?","?","?","?","?","?","?","?","?","?","?","?","?","?","?","?","?","?","?","?","?","?","?","?","?","?","?","?","?","?","?","?","?","?","?","?","?","?","?","?","?","?","?","?","?","?","?","?","?","?","?","?","?","?","?","?","?","?","?","?","?","?","?","?","?","?","?","?","?","?","?","?","?","?","?","?","?","?","?","?","?","?","?","?","?","?","?","?","?","?","?","?","?","?","?","?","?","?","?","?","?","?","?","?","?","?","?","?","?","?","?","?","?","?","?","?","?","?","?","?","?","?","?","?","?","?","?","?","?","?","?","?","?","?","?","?","?","?","?","?","?","?","?","?","?","?","?","?","?","?","?","?","?","?","?","?","?","?","?","?","?","?","?","?","?","?","?","?","?","?","?","?","?","?","?","?","?","?","?","?","?","?","?","?","?","?","?","?","?","?","?","?","?","?","?","?","?","?","?","?","?","?","?","?","?","?","?","?","?","?","?","?","?","?","?","?","?","?","?","?","?","?","?","?","?","?","?","?","?","?","?","?","?","?","?","?","?","?","?","?","?","?","?","?","?","?","?","?","?","?","?","?","?","?","?","?","?","?","?","?","?","?","?","?","?","?","?","?","?","?","?","?","?","?","?","?","?","?","?","?","?","?","?","?","?","?","?","?","?","?","?","?","?","?","?","?","?","?","?","?","?","?","?","?","?","?","?","?","?","?","?","?","?","?","?","?","?","?","?","?","?","?","?","?","?","?","?","?","?","?","?","?","?","?","?","?","?","?","?","?","?","?","?","?","?","?","?","?","?","?","?","?","?","?","?","?","?","?","?","?","?","?","?","?","?","?","?","?","?","?","?","?","?","?","?","?","?","?","?","?","?","?","?","?","?","?","?","?","?","?","?","?","?","?","?","?","?","?","?","?","?","?","?","?","?","?","?","?","?","?","?","?","?","?","?","?","?","?","?","?","?","?","?","?","?","?","?","?","?","?","?","?","?","?","?","?","?","?","?","?","?","?","?","?","?","?","?","?","?","?","?","?","?","?","?","?","?","?","?","?","?","?","?","?","?","?","?","?","?","?","?","?","?","?","?","?","?","?","?","?","?","?","?","?","?","?","?","?","?","?","?","?","?","?","?","?","?","?","?","?","?","?","?","?","?","?","?","?","?","?","?","?","?","?","?","?","?","?","?","?","?","?","?","?","?","?","?","?","?","?","?","?","?","?","?","?","?","?","?","?","?","?","?","?","?","?","?","?","?","?","?","?","?","?","?","?","?","?","?","?","?","?","?","?","?","?","?","?","?","?","?","?","?","?","?","?","?","?","?","?","?","?","?","?","?","?","?","?","?","?","?","?","?","?","?","?","?","?","?","?","?","?","?","?","?","?","?","?","?","?","?","?","?","?","?","?","?","?","?","?","?","?","?","?","?","?","?","?","?","?","?","?","?","?","?","?","?","?","?","?","?","?","?","?","?","?","?","?","?","?","?","?","?","?","?","?","?","?","?","?","?","?","?","?","?","?","?","?","?","?","?","?","?","?","?","?","?","?","?","?","?","?","?","?","?","?","?","?","?","?","?","?","?","?","?","?","?","?","?","?","?","?","?","?","?","?","?","?","?","?","?","?","?","?","?","?","?","?","?","?","?","?","?","?","?","?","?","?","?","?","?","?","?","?","?","?","?","?","?","?","?","?","?","?","?","?","?","?","?","?","?","?","?","?","?","?","?","?","?","?","?","?","?","?","?","?","?","?","?","?","?","?","?","?","?","?","?","?","?","?","?","?","?","?","?","?","?","?","?","?","?","?","?","?","?","?","?","?","?","?","?","?","?","?","?","?","?","?","?","?","?","?","?","?","?","?","?","?","?","?","?","?","?","?","?","?","?","?","?","?","?","?","?","?","?","?","?","?","?","?","?","?","?","?","?","?","?","?","?","?","?","?","?","?","?","?","?","?","?","?","?","?","?","?","?","?","?","?","?","?","?","?","?","?","?","?","?","?","?","?","?","?","?","?","?","?","?","?","?","?","?","?","?","?","?","?","?","?","?","?","?","?","?","?","?","?","?","?","?","?","?","?","?","?","?","?","?","?","?","?","?","?","?","?","?","?","?","?","?","?","?","?","?","?","?","?","?","?","?","?","?","?","?","?","?","?","?","?","?","?","?","?","?","?","?","?","?","?","?","?","?","?","?","?","?","?","?","?","?","?","?","?","?","?","?","?","?","?","?","?","?","?","?","?","?","?","?","?","?","?","?","?","?","?","?","?","?","?","?","?","?","?","?","?","?","?","?","?","?","?","?","?","?","?","?","?","?","?","?","?","?","?","?","?","?","?","?","?","?","?","?","?","?","?","?","?","?","?","?","?","?","?","?","?","?","?","?","?","?","?","?","?","?","?","?","?","?","?","?","?","?","?","?","?","?","?","?","?","?","?","?","?","?","?","?","?","?","?","?","?","?","?","?","?","?","?","?","?","?","?","?","?","?","?","?","?","?","?","?","?","?","?","?","?","?","?","?","?","?","?","?","?","?","?","?","?","?","?","?","?","?","?","?","?","?","?","?","?","?","?","?","?","?","?","?","?","?","?","?","?","?","?","?","?","?","?","?","?","?","?","?","?","?","?","?","?","?","?","?","?","?","?","?","?","?","?","?","?","?","?","?","?","?","?","?","?","?","?","?","?","?","?","?","?","?","?","?","?","?","?","?","?","?","?","?","?","?","?","?","?","?","?","?","?","?","?","?","?","?","?","?","?","?","?","?","?","?","?","?","?","?","?","?","?","?","?","?","?","?","?","?","?","?","?","?","?","?","?","?","?","?","?","?","?","?","?","?","?","?","?","?","?","?","?","?","?","?","?","?","?","?","?","?","?","?","?","?","?","?","?","?","?","?","?","?","?","?","?","?","?","?","?","?","?","?","?","?","?","?","?","?","?","?","?","?","?","?","?","?","?","?","?","?","?","?","?","?","?","?","?","?","?","?","?","?","?","?","?","?","?","?","?","?","?","?","?","?","?","?","?","?","?","?","?","?","?","?","?","?","?","?","?","?","?","?","?","?","?","?","?","?","?","?","?","?","?","?","?","?","?","?","?","?","?","?","?","?","?","?","?","?","?","?","?","?","?","?","?","?","?","?","?","?","?","?","?","?","?","?","?","?","?","?","?","?","?","?","?","?","?","?","?","?","?","?","?","?","?","?","?","?","?","?","?","?","?","?","?","?","?","?","?","?","?","?","?","?","?","?","?","?","?","?","?","?","?","?","?","?","?","?","?","?","?","?","?","?","?","?","?","?","?","?","?","?","?","?","?","?","?","?","?","?","?","?","?","?","?","?","?","?","?","?","?","?","?","?","?","?","?","?","?","?","?","?","?","?","?","?","?","?","?","?","?","?","?","?","?","?","?","?","?","?","?","?","?","?","?","?","?","?","?","?","?","?","?","?","?","?","?","?","?","?","?","?","?","?","?","?","?","?","?","?","?","?","?","?","?","?","?","?","?","?","?","?","?","?","?","?","?","?","?","?","?","?","?","?","?","?","?","?","?","?","?","?","?","?","?","?","?","?","?","?","?","?","?","?","?","?","?","?","?","?","?","?","?","?","?","?","?","?","?","?","?","?","?","?","?","?","?","?","?","?","?","?","?","?","?","?","?","?","?","?","?","?","?","?","?","?","?","?","?","?","?","?","?","?","?","?","?","?","?","?","?","?","?","?","?","?","?","?","?","?","?","?","?","?","?","?","?","?","?","?","?","?","?","?","?","?","?","?","?","?","?","?","?","?","?","?","?","?","?","?","?","?","?","?","?","?","?","?","?","?","?","?","?","?","?","?","?","?","?","?","?","?","?","?","?","?","?","?","?","?","?","?","?","?","?","?","?","?","?","?","?","?","?","?","?","?","?","?","?","?","?","?","?","?","?","?","?","?","?","?","?","?","?","?","?","?","?","?","?","?","?","?","?","?","?","?","?","?","?","?","?","?","?","?","?","?","?","?","?","?","?","?","?","?","?","?","?","?","?","?","?","?","?","?","?","?","?","?","?","?","?","?","?","?","?","?","?","?","?","?","?","?","?","?","?","?","?","?","?","?","?","?","?","?","?","?","?","?","?","?","?","?","?","?","?","?","?","?","?","?","?","?","?","?","?","?","?","?","?","?","?","?","?","?","?","?","?","?","?","?","?","?","?","?","?","?","?","?","?","?","?","?","?","?","?","?","?","?","?","?","?","?","?","?","?","?","?","?","?","?","?","?","?","?","?","?","?","?","?","?","?","?","?","?","?","?","?","?","?","?","?","?","?","?","?","?","?","?","?","?","?","?","?","?","?","?","?","?","?","?","?","?","?","?","?","?","?","?","?","?","?","?","?","?","?","?","?","?","?","?","?","?","?","?","?","?","?","?","?","?","?","?","?","?","?","?","?","?","?","?","?","?","?","?","?","?","?","?","?","?","?","?","?","?","?","?","?","?","?","?","?","?","?","?","?","?","?","?","?","?","?","?","?","?","?","?","?","?","?","?","?","?","?","?","?","?","?","?","?","?","?","?","?","?","?","?","?","?","?","?","?","?","?","?","?","?","?","?","?","?","?","?","?","?","?","?","?","?","?","?","?","?","?","?","?","?","?","?","?","?","?","?","?","?","?","?","?","?","?","?","?","?","?","?","?","?","?","?","?","?","?","?","?","?","?","?","?","?","?","?","?","?","?","?","?","?","?","?","?","?","?","?","?","?","?","?","?","?","?","?","?","?","?","?","?","?","?","?","?","?","?","?","?","?","?","?","?","?","?","?","?","?","?","?","?","?","?","?","?","?","?","?","?","?","?","?","?","?","?","?","?","?","?","?","?","?","?","?","?","?","?","?","?","?","?","?","?","?","?","?","?","?","?","?","?","?","?","?","?","?","?","?","?","?","?","?","?","?","?","?","?","?","?","?","?","?","?","?","?","?","?","?","?","?","?","?","?","?","?","?","?","?","?","?","?","?","?","?","?","?","?","?","?","?","?","?","?","?","?","?","?","?","?","?","?","?","?","?","?","?","?","?","?","?","?","?","?","?","?","?","?","?","?","?","?","?","?","?","?","?","?","?","?","?","?","?","?","?","?","?","?","?","?","?","?","?","?","?","?","?","?","?","?","?","?","?","?","?","?","?","?","?","?","?","?","?","?","?","?","?","?","?","?","?","?","?","?","?","?","?","?","?","?","?","?","?","?","?","?","?","?","?","?","?","?","?","?","?","?","?","?","?","?","?","?","?","?","?","?","?","?","?","?","?","?","?","?","?","?","?","?","?","?","?","?","?","?","?","?","?","?","?","?","?","?","?","?","?","?","?","?","?","?","?","?","?","?","?","?","?","?","?","?","?","?","?","?","?","?","?","?","?","?","?","?","?","?","?","?","?","?","?","?","?","?","?","?","?","?","?","?","?","?","?","?","?","?","?","?","?","?","?","?","?","?","?","?","?","?","?","?","?","?","?","?","?","?","?","?","?","?","?","?","?","?","?","?","?","?","?","?","?","?","?","?","?","?","?","?","?","?","?","?","?","?","?","?","?","?","?","?","?","?","?","?","?","?","?","?","?","?","?","?","?","?","?","?","?","?","?","?","?","?","?","?","?","?","?","?","?","?","?","?","?","?","?","?","?","?","?","?","?","?","?","?","?","?","?","?","?","?","?","?","?","?","?","?","?","?","?","?","?","?","?","?","?","?","?","?","?","?","?","?","?","?","?","?","?","?","?","?","?","?","?","?","?","?","?","?","?","?","?","?","?","?","?","?","?","?","?","?","?","?","?","?","?","?","?","?","?","?","?","?","?","?","?","?","?","?","?","?","?","?","?","?","?","?","?","?","?","?","?","?","?","?","?","?","?","?","?","?","?","?","?","?","?","?","?","?","?","?","?","?","?","?","?","?","?","?","?","?","?","?","?","?","?","?","?","?","?","?","?","?","?","?","?","?","?","?","?","?","?","?","?","?","?","?","?","?","?","?","?","?","?","?","?","?","?","?","?","?","?","?","?","?","?","?","?","?","?","?","?","?","?","?","?","?","?","?","?","?","?","?","?","?","?","?","?","?","?","?","?","?","?","?","?","?","?","?","?","?","?","?","?","?","?","?","?","?","?","?","?","?","?","?","?","?","?","?","?","?","?","?","?","?","?","?","?","?","?","?","?","?","?","?","?","?","?","?","?","?","?","?","?","?","?","?","?","?","?","?","?","?","?","?","?","?","?","?","?","?","?","?","?","?","?","?","?","?","?","?","?","?","?","?","?","?","?","?","?","?","?","?","?","?","?","?","?","?","?","?","?","?","?","?","?","?","?","?","?","?","?","?","?","?","?","?","?","?","?","?","?","?","?","?","?","?","?","?","?","?","?","?","?","?","?","?","?","?","?","?","?","?","?","?","?","?","?","?","?","?","?","?","?","?","?","?","?","?","?","?","?","?","?","?","?","?","?","?","?","?","?","?","?","?","?","?","?","?","?","?","?","?","?","?","?","?","?","?","?","?","?","?","?","?","?","?","?","?","?","?","?","?","?","?","?","?","?","?","?","?","?","?","?","?","?","?","?","?","?","?","?","?","?","?","?","?","?","?","?","?","?","?","?","?","?","?","?","?","?","?","?","?","?","?","?","?","?","?","?","?","?","?","?","?","?","?","?","?","?","?","?","?","?","?","?","?","?","?","?","?","?","?","?","?","?","?","?","?","?","?","?","?","?","?","?","?","?","?","?","?","?","?","?","?","?","?","?","?","?","?","?","?","?","?","?","?","?","?","?","?","?","?","?","?","?","?","?","?","?","?","?","?","?","?","?","?","?","?","?","?","?","?","?","?","?","?","?","?","?","?","?","?","?","?","?","?","?","?","?","?","?","?","?","?","?","?","?","?","?","?","?","?","?","?","?","?","?","?","?","?","?","?","?","?","?","?","?","?","?","?","?","?","?","?","?","?","?","?","?","?","?","?","?","?","?","?","?","?","?","?","?","?","?","?","?","?","?","?","?","?","?","?","?","?","?","?","?","?","?","?","?","?","?","?","?","?","?","?","?","?","?","?","?","?","?","?","?","?","?","?","?","?","?","?","?","?","?","?","?","?","?","?","?","?","?","?","?","?","?","?","?","?","?","?","?","?","?","?","?","?","?","?","?","?","?","?","?","?","?","?","?","?","?","?","?","?","?","?","?","?","?","?","?","?","?","?","?","?","?","?","?","?","?","?","?","?","?","?","?","?","?","?","?","?","?","?","?","?","?","?","?","?","?","?","?","?","?","?","?","?","?","?","?","?","?","?","?","?","?","?","?","?","?","?","?","?","?","?","?","?","?","?","?","?","?","?","?","?","?","?","?","?","?","?","?","?","?","?","?","?","?","?","?","?","?","?","?","?","?","?","?","?","?","?","?","?","?","?","?","?","?","?","?","?","?","?","?","?","?","?","?","?","?","?","?","?","?","?","?","?","?","?","?","?","?","?","?","?","?","?","?","?","?","?","?","?","?","?","?","?","?","?","?","?","?","?","?","?","?","?","?","?","?","?","?","?","?","?","?","?","?","?","?","?","?","?","?","?","?","?","?","?","?","?","?","?","?","?","?","?","?","?","?","?","?","?","?","?","?","?","?","?","?","?","?","?","?","?","?","?","?","?","?","?","?","?","?","?","?","?","?","?","?","?","?","?","?","?","?","?","?","?","?","?","?","?","?","?","?","?","?","?","?","?","?","?","?","?","?","?","?","?","?","?","?","?","?","?","?","?","?","?","?","?","?","?","?","?","?","?","?","?","?","?","?","?","?","?","?","?","?","?","?","?","?","?","?","?","?","?","?","?","?","?","?","?","?","?","?","?","?","?","?","?","?","?","?","?","?","?","?","?","?","?","?","?","?","?","?","?","?","?","?","?","?","?","?","?","?","?","?","?","?","?","?","?","?","?","?","?","?","?","?","?","?","?","?","?","?","?","?","?","?","?","?","?","?","?","?","?","?","?","?","?","?","?","?","?","?","?","?","?","?","?","?","?","?","?","?","?","?","?","?","?","?","?","?","?","?","?","?","?","?","?","?","?","?","?","?","?","?","?","?","?","?","?","?","?","?","?","?","?","?","?","?","?","?","?","?","?","?","?","?","?","?","?","?","?","?","?","?","?","?","?","?","?","?","?","?","?","?","?","?","?","?","?","?","?","?","?","?","?","?","?","?","?","?","?","?","?","?","?","?","?","?","?","?","?","?","?","?","?","?","?","?","?","?","?","?","?","?","?","?","?","?","?","?","?","?","?","?","?","?","?","?","?","?","?","?","?","?","?","?","?","?","?","?","?","?","?","?","?","?","?","?","?","?","?","?","?","?","?","?","?","?","?","?","?","?","?","?","?","?","?","?","?","?","?","?","?","?","?","?","?","?","?","?","?","?","?","?","?","?","?","?","?","?","?","?","?","?","?","?","?","?","?","?","?","?","?","?","?","?","?","?","?","?","?","?","?","?","?","?","?","?","?","?","?","?","?","?","?","?","?","?","?","?","?","?","?","?","?","?","?","?","?","?","?","?","?","?","?","?","?","?","?","?","?","?","?","?","?","?","?","?","?","?","?","?","?","?","?","?","?","?","?","?","?","?","?","?","?","?","?","?","?","?","?","?","?","?","?","?","?","?","?","?","?","?","?","?","?","?","?","?","?","?","?","?","?","?","?","?","?","?","?","?","?","?","?","?","?","?","?","?","?","?","?","?","?","?","?","?","?","?","?","?","?","?","?","?","?","?","?","?","?","?","?","?","?","?","?","?","?","?","?","?","?","?","?","?","?","?","?","?","?","?","?","?","?","?","?","?","?","?","?","?","?","?","?","?","?","?","?","?","?","?","?","?","?","?","?","?","?","?","?","?","?","?","?","?","?","?","?","?","?","?","?","?","?","?","?","?","?","?","?","?","?","?","?","?","?","?","?","?","?","?","?","?","?","?","?","?","?","?","?","?","?","?","?","?","?","?","?","?","?","?","?","?","?","?","?","?","?","?","?","?","?","?","?","?","?","?","?","?","?","?","?","?","?","?","?","?","?","?","?","?","?","?","?","?","?","?","?","?","?","?","?","?","?","?","?","?","?","?","?","?","?","?","?","?","?","?","?","?","?","?","?","?","?","?","?","?","?","?","?","?","?","?","?","?","?","?","?","?","?","?","?","?","?","?","?","?","?","?","?","?","?","?","?","?","?","?","?","?","?","?","?","?","?","?","?","?","?","?","?","?","?","?","?","?","?","?","?","?","?","?","?","?","?","?","?","?","?","?","?","?","?","?","?","?","?","?","?","?","?","?","?","?","?","?","?","?","?","?","?","?","?","?","?","?","?","?","?","?","?","?","?","?","?","?","?","?","?","?","?","?","?","?","?","?","?","?","?","?","?","?","?","?","?","?","?","?","?","?","?","?","?","?","?","?","?","?","?","?","?","?","?","?","?","?","?","?","?","?","?","?","?","?","?","?","?","?","?","?","?","?","?","?","?","?","?","?","?","?","?","?","?","?","?","?","?","?","?","?","?","?","?","?","?","?","?","?","?","?","?","?","?","?","?","?","?","?","?","?","?","?","?","?","?","?","?","?","?","?","?","?","?","?","?","?","?","?","?","?","?","?","?","?","?","?","?","?","?","?","?","?","?","?","?","?","?","?","?","?","?","?","?","?","?","?","?","?","?","?","?","?","?","?","?","?","?","?","?","?","?","?","?","?","?","?","?","?","?","?","?","?","?","?","?","?","?","?","?","?","?","?","?","?","?","?","?","?","?","?","?","?","?","?","?","?","?","?","?","?","?","?","?","?","?","?","?","?","?","?","?","?","?","?","?","?","?","?","?","?","?","?","?","?","?","?","?","?","?","?","?","?","?","?","?","?","?","?","?","?","?","?","?","?","?","?","?","?","?","?","?","?","?","?","?","?","?","?","?","?","?","?","?","?","?","?","?","?","?","?","?","?","?","?","?","?","?","?","?","?","?","?","?","?","?","?","?","?","?","?","?","?","?","?","?","?","?","?","?","?","?","?","?","?","?","?","?","?","?","?","?","?","?","?","?","?","?","?","?","?","?","?","?","?","?","?","?","?","?","?","?","?","?","?","?","?","?","?","?","?","?","?","?","?","?","?","?","?","?","?","?","?","?","?","?","?","?","?","?","?","?","?","?","?","?","?","?","?","?","?","?","?","?","?","?","?","?","?","?","?","?","?","?","?","?","?","?","?","?","?","?","?","?","?","?","?","?","?","?","?","?","?","?","?","?","?","?","?","?","?","?","?","?","?","?","?","?","?","?","?","?","?","?","?","?","?","?","?","?","?","?","?","?","?","?","?","?","?","?","?","?","?","?","?","?","?","?","?","?","?","?","?","?","?","?","?","?","?","?","?","?","?","?","?","?","?","?","?","?","?","?","?","?","?","?","?","?","?","?","?","?","?","?","?","?","?","?","?","?","?","?","?","?","?","?","?","?","?","?","?","?","?","?","?","?","?","?","?","?","?","?","?","?","?","?","?","?","?","?","?","?","?","?","?","?","?","?","?","?","?","?","?","?","?","?","?","?","?","?","?","?","?","?","?","?","?","?","?","?","?","?","?","?","?","?","?","?","?","?","?","?","?","?","?","?","?","?","?","?","?","?","?","?","?","?","?","?","?","?","?","?","?","?","?","?","?","?","?","?","?","?","?","?","?","?","?","?","?","?","?","?","?","?","?","?","?","?","?","?","?","?","?","?","?","?","?","?","?","?","?","?","?","?","?","?","?","?","?","?","?","?","?","?","?","?","?","?","?","?","?","?","?","?","?","?","?","?","?","?","?","?","?","?","?","?","?","?","?","?","?","?","?","?","?","?","?","?","?","?","?","?","?","?","?","?","?","?","?","?","?","?","?","?","?","?","?","?","?","?","?","?","?","?","?","?","?","?","?","?","?","?","?","?","?","?","?","?","?","?","?","?","?","?","?","?","?","?","?","?","?","?","?","?","?","?","?","?","?","?","?","?","?","?","?","?","?","?","?","?","?","?","?","?","?","?","?","?","?","?","?","?","?","?","?","?","?","?","?","?","?","?","?","?","?","?","?","?","?","?","?","?","?","?","?","?","?","?","?","?","?","?","?","?","?","?","?","?","?","?","?","?","?","?","?","?","?","?","?","?","?","?","?","?","?","?","?","?","?","?","?","?","?","?","?","?","?","?","?","?","?","?","?","?","?","?","?","?","?","?","?","?","?","?","?","?","?","?","?","?","?","?","?","?","?","?","?","?","?","?","?","?","?","?","?","?","?","?","?","?","?","?","?","?","?","?","?","?","?","?","?","?","?","?","?","?","?","?","?","?","?","?","?","?","?","?","?","?","?","?","?","?","?","?","?","?","?","?","?","?","?","?","?","?","?","?","?","?","?","?","?","?","?","?","?","?","?","?","?","?","?","?","?","?","?","?","?","?","?","?","?","?","?","?","?","?","?","?","?","?","?","?","?","?","?","?","?","?","?","?","?","?","?","?","?","?","?","?","?","?","?","?","?","?","?","?","?","?","?","?","?","?","?","?","?","?","?","?","?","?","?","?","?","?","?","?","?","?","?","?","?","?","?","?","?","?","?","?","?","?","?","?","?","?","?","?","?","?","?","?","?","?","?","?","?","?","?","?","?","?","?","?","?","?","?","?","?","?","?","?","?","?","?","?","?","?","?","?","?","?","?","?","?","?","?","?","?","?","?","?","?","?","?","?","?","?","?","?","?","?","?","?","?","?","?","?","?","?","?","?","?","?","?","?","?","?","?","?","?","?","?","?","?","?","?","?","?","?","?","?","?","?","?","?","?","?","?","?","?","?","?","?","?","?","?","?","?","?","?","?","?","?","?","?","?","?","?","?","?","?","?","?","?","?","?","?","?","?","?","?","?","?","?","?","?","?","?","?","?","?","?","?","?","?","?","?","?","?","?","?","?","?","?","?","?","?","?","?","?","?","?","?","?","?","?","?","?","?","?","?","?","?","?","?","?","?","?","?","?","?","?","?","?","?","?","?","?","?","?","?","?","?","?","?","?","?","?","?","?","?","?","?","?","?","?","?","?","?","?","?","?","?","?","?","?","?","?","?","?","?","?","?","?","?","?","?","?","?","?","?","?","?","?","?","?","?","?","?","?","?","?","?","?","?","?","?","?","?","?","?","?","?","?","?","?","?","?","?","?","?","?","?","?","?","?","?","?","?","?","?","?","?","?","?","?","?","?","?","?","?","?","?","?","?","?","?","?","?","?","?","?","?","?","?","?","?","?","?","?","?","?","?","?","?","?","?","?","?","?","?","?","?","?","?","?","?","?","?","?","?","?","?","?","?","?","?","?","?","?","?","?","?","?","?","?","?","?","?","?","?","?","?","?","?","?","?","?","?","?","?","?","?","?","?","?","?","?","?","?","?","?","?","?","?","?","?","?","?","?","?","?","?","?","?","?","?","?","?","?","?","?","?","?","?","?","?","?","?","?","?","?","?","?","?","?","?","?","?","?","?","?","?","?","?","?","?","?","?","?","?","?","?","?","?","?","?","?","?","?","?","?","?","?","?","?","?","?","?","?","?","?","?","?","?","?","?","?","?","?","?","?","?","?","?","?","?","?","?","?","?","?","?","?","?","?","?","?","?","?","?","?","?","?","?","?","?","?","?","?","?","?","?","?","?","?","?","?","?","?","?","?","?","?","?","?","?","?","?","?","?","?","?","?","?","?","?","?","?","?","?","?","?","?","?","?","?","?","?","?","?","?","?","?","?","?","?","?","?","?","?","?","?","?","?","?","?","?","?","?","?","?","?","?","?","?","?","?","?","?","?","?","?","?","?","?","?","?","?","?","?","?","?","?","?","?","?","?","?","?","?","?","?","?","?","?","?","?","?","?","?","?","?","?","?","?","?","?","?","?","?","?","?","?","?","?","?","?","?","?","?","?","?","?","?","?","?","?","?","?","?","?","?","?","?","?","?","?","?","?","?","?","?","?","?","?","?","?","?","?","?","?","?","?","?","?","?","?","?","?","?","?","?","?","?","?","?","?","?","?","?","?","?","?","?","?","?","?","?","?","?","?","?","?","?","?","?","?","?","?","?","?","?","?","?","?","?","?","?","?","?","?","?","?","?","?","?","?","?","?","?","?","?","?","?","?","?","?","?","?","?","?","?","?","?","?","?","?","?","?","?","?","?","?","?","?","?","?","?","?","?","?","?","?","?","?","?","?","?","?","?","?","?","?","?","?","?","?","?","?","?","?","?","?","?","?","?","?","?","?","?","?","?","?","?","?","?","?","?","?","?","?","?","?","?","?","?","?","?","?","?","?","?","?","?","?","?","?","?","?","?","?","?","?","?","?","?","?","?","?","?","?","?","?","?","?","?","?","?","?","?","?","?","?","?","?","?","?","?","?","?","?","?","?","?","?","?","?","?","?","?","?","?","?","?","?","?","?","?","?","?","?","?","?","?","?","?","?","?","?","?","?","?","?","?","?","?","?","?","?","?","?","?","?","?","?","?","?","?","?","?","?","?","?","?","?","?","?","?","?","?","?","?","?","?","?","?","?","?","?","?","?","?","?","?","?","?","?","?","?","?","?","?","?","?","?","?","?","?","?","?","?","?","?","?","?","?","?","?","?","?","?","?","?","?","?","?","?","?","?","?","?","?","?","?","?","?","?","?","?","?","?","?","?","?","?","?","?","?","?","?","?","?","?","?","?","?","?","?","?","?","?","?","?","?","?","?","?","?","?","?","?","?","?","?","?","?","?","?","?","?","?","?","?","?","?","?","?","?","?","?","?","?","?","?","?","?","?","?","?","?","?","?","?","?","?","?","?","?","?","?","?","?","?","?","?","?","?","?","?","?","?","?","?","?","?","?","?","?","?","?","?","?","?","?","?","?","?","?","?","?","?","?","?","?","?","?","?","?","?","?","?","?","?","?","?","?","?","?","?","?","?","?","?","?","?","?","?","?","?","?","?","?","?","?","?","?","?","?","?","?","?","?","?","?","?","?","?","?","?","?","?","?","?","?","?","?","?","?","?","?","?","?","?","?","?","?","?","?","?","?","?","?","?","?","?","?","?","?","?","?","?","?","?","?","?","?","?","?","?","?","?","?","?","?","?","?","?","?","?","?","?","?","?","?","?","?","?","?","?","?","?","?","?","?","?","?","?","?","?","?","?","?","?","?","?","?","?","?","?","?","?","?","?","?","?","?","?","?","?","?","?","?","?","?","?","?","?","?","?","?","?","?","?","?","?","?","?","?","?","?","?","?","?","?","?","?","?","?","?","?","?","?","?","?","?","?","?","?","?","?","?","?","?","?","?","?","?","?","?","?","?","?","?","?","?","?","?","?","?","?","?","?","?","?","?","?","?","?","?","?","?","?","?","?","?","?","?","?","?","?","?","?","?","?","?","?","?","?","?","?","?","?","?","?","?","?","?","?","?","?","?","?","?","?","?","?","?","?","?","?","?","?","?","?","?","?","?","?","?","?","?","?","?","?","?","?","?","?","?","?","?","?","?","?","?","?","?","?","?","?","?","?","?","?","?","?","?","?","?","?","?","?","?","?","?","?","?","?","?","?","?","?","?","?","?","?","?","?","?","?","?","?","?","?","?","?","?","?","?","?","?","?","?","?","?","?","?","?","?","?","?","?","?","?","?","?","?","?","?","?","?","?","?","?","?","?","?","?","?","?","?","?","?","?","?","?","?","?","?","?","?","?","?","?","?","?","?","?","?","?","?","?","?","?","?","?","?","?","?","?","?","?","?","?","?","?","?","?","?","?","?","?","?","?","?","?","?","?","?","?","?","?","?","?","?","?","?","?","?","?","?","?","?","?","?","?","?","?","?","?","?","?","?","?","?","?","?","?","?","?","?","?","?","?","?","?","?","?","?","?","?","?","?","?","?","?","?","?","?","?","?","?","?","?","?","?","?","?","?","?","?","?","?","?","?","?","?","?","?","?","?","?","?","?","?","?","?","?","?","?","?","?","?","?","?","?","?","?","?","?","?","?","?","?","?","?","?","?","?","?","?","?","?","?","?","?","?","?","?","?","?","?","?","?","?","?","?","?","?","?","?","?","?","?","?","?","?","?","?","?","?","?","?","?","?","?","?","?","?","?","?","?","?","?","?","?","?","?","?","?","?","?","?","?","?","?","?","?","?","?","?","?","?","?","?","?","?","?","?","?","?","?","?","?","?","?","?","?","?","?","?","?","?","?","?","?","?","?","?","?","?","?","?","?","?","?","?","?","?","?","?","?","?","?","?","?","?","?","?","?","?","?","?","?","?","?","?","?","?","?","?","?","?","?","?","?","?","?","?","?","?","?","?","?","?","?","?","?","?","?","?","?","?","?","?","?","?","?","?","?","?","?","?","?","?","?","?","?","?","?","?","?","?","?","?","?","?","?","?","?","?","?","?","?","?","?","?","?","?","?","?","?","?","?","?","?","?","?","?","?","?","?","?","?","?","?","?","?","?","?","?","?","?","?","?","?","?","?","?","?","?","?","?","?","?","?","?","?","?","?","?","?","?","?","?","?","?","?","?","?","?","?","?","?","?","?","?","?","?","?","?","?","?","?","?","?","?","?","?","?","?","?","?","?","?","?","?","?","?","?","?","?","?","?","?","?","?","?","?","?","?","?","?","?","?","?","?","?","?","?","?","?","?","?","?","?","?","?","?","?","?","?","?","?","?","?","?","?","?","?","?","?","?","?","?","?","?","?","?","?","?","?","?","?","?","?","?","?","?","?","?","?","?","?","?","?","?","?","?","?","?","?","?","?","?","?","?","?","?","?","?","?","?","?","?","?","?","?","?","?","?","?","?","?","?","?","?","?","?","?","?","?","?","?","?","?","?","?","?","?","?","?","?","?","?","?","?","?","?","?","?","?","?","?","?","?","?","?","?","?","?","?","?","?","?","?","?","?","?","?","?","?","?","?","?","?","?","?","?","?","?","?","?","?","?","?","?","?","?","?","?","?","?","?","?","?","?","?","?","?","?","?","?","?","?","?","?","?","?","?","?","?","?","?","?","?","?","?","?","?","?","?","?","?","?","?","?","?","?","?","?","?","?","?","?","?","?","?","?","?","?","?","?","?","?","?","?","?","?","?","?","?","?","?","?","?","?","?","?","?","?","?","?","?","?","?","?","?","?","?","?","?","?","?","?","?","?","?","?","?","?","?","?","?","?","?","?","?","?","?","?","?","?","?","?","?","?","?","?","?","?","?","?","?","?","?","?","?","?","?","?","?","?","?","?","?","?","?","?","?","?","?","?","?","?","?","?","?","?","?","?","?","?","?","?","?","?","?","?","?","?","?","?","?","?","?","?","?","?","?","?","?","?","?","?","?","?","?","?","?","?","?","?","?","?","?","?","?","?","?","?","?","?","?","?","?","?","?","?","?","?","?","?","?","?","?","?","?","?","?","?","?","?","?","?","?","?","?","?","?","?","?","?","?","?","?","?","?","?","?","?","?","?","?","?","?","?","?","?","?","?","?","?","?","?","?","?","?","?","?","?","?","?","?","?","?","?","?","?","?","?","?","?","?","?","?","?","?","?","?","?","?","?","?","?","?","?","?","?","?","?","?","?","?","?","?","?","?","?","?","?","?","?","?","?","?","?","?","?","?","?","?","?","?","?","?","?","?","?","?","?","?","?","?","?","?","?","?","?","?","?","?","?","?","?","?","?","?","?","?","?","?","?","?","?","?","?","?","?","?","?","?","?","?","?","?","?","?","?","?","?","?","?","?","?","?","?","?","?","?","?","?","?","?","?","?","?","?","?","?","?","?","?","?","?","?","?","?","?","?","?","?","?","?","?","?","?","?","?","?","?","?","?","?","?","?","?","?","?","?","?","?","?","?","?","?","?","?","?","?","?","?","?","?","?","?","?","?","?","?","?","?","?","?","?","?","?","?","?","?","?","?","?","?",