[{"success":true,"trial_type":"fullscreen","trial_index":0,"time_elapsed":3859,"internal_node_id":"0.0-0.0","protocol_sum":"","subject_identifier":104,"subject_sum":[65,207,192,209,242,209,39,176,69,85,183,36,109,132,1,155,77,39,113,10,63,58,255,110,119,100,55,91,30,6,224,93],"subject_pair":52,"STUDY_ID":"669a702db1122fc5150a13ce","PROLIFIC_PID":"62c44d672834a5c5ce7362f1","SESSION_ID":"669a88c85892b9edddecd835","practice_instructions":1,"leaderboard_instructions":0,"bonus":0,"reveal_word":false,"self_rating":"4","confidence":"82"},{"view_history":"[{\"page_index\":0,\"viewing_time\":4661.0999999940395}]","rt":4661.29999999702,"trial_type":"instructions","trial_index":1,"time_elapsed":8521,"internal_node_id":"0.0-1.0","protocol_sum":"","subject_identifier":104,"subject_sum":[65,207,192,209,242,209,39,176,69,85,183,36,109,132,1,155,77,39,113,10,63,58,255,110,119,100,55,91,30,6,224,93],"subject_pair":52,"STUDY_ID":"669a702db1122fc5150a13ce","PROLIFIC_PID":"62c44d672834a5c5ce7362f1","SESSION_ID":"669a88c85892b9edddecd835","practice_instructions":1,"leaderboard_instructions":0,"bonus":0,"reveal_word":false,"self_rating":"4","confidence":"82"},{"view_history":"[{\"page_index\":0,\"viewing_time\":17037}]","rt":17037.20000000298,"trial_type":"instructions","trial_index":2,"time_elapsed":25559,"internal_node_id":"0.0-2.0-0.0","protocol_sum":"","subject_identifier":104,"subject_sum":[65,207,192,209,242,209,39,176,69,85,183,36,109,132,1,155,77,39,113,10,63,58,255,110,119,100,55,91,30,6,224,93],"subject_pair":52,"STUDY_ID":"669a702db1122fc5150a13ce","PROLIFIC_PID":"62c44d672834a5c5ce7362f1","SESSION_ID":"669a88c85892b9edddecd835","practice_instructions":1,"leaderboard_instructions":0,"bonus":0,"reveal_word":false,"self_rating":"4","confidence":"82"},{"rt":8676.70000000298,"responses":"{\"Q0\":\"... reveal the word with as <b>few letter guesses</b> as possible\"}","question_order":"[0]","trial_type":"survey-multi-choice","trial_index":3,"time_elapsed":34238,"internal_node_id":"0.0-2.0-1.0","protocol_sum":"","subject_identifier":104,"subject_sum":[65,207,192,209,242,209,39,176,69,85,183,36,109,132,1,155,77,39,113,10,63,58,255,110,119,100,55,91,30,6,224,93],"subject_pair":52,"correct":true,"test_part":"multichoice_nonpretend","STUDY_ID":"669a702db1122fc5150a13ce","PROLIFIC_PID":"62c44d672834a5c5ce7362f1","SESSION_ID":"669a88c85892b9edddecd835","practice_instructions":1,"leaderboard_instructions":0,"bonus":0,"reveal_word":false,"self_rating":"4","confidence":"82"},{"view_history":"[{\"page_index\":0,\"viewing_time\":1637.3999999910593}]","rt":1637.5999999940395,"trial_type":"instructions","trial_index":4,"time_elapsed":35877,"internal_node_id":"0.0-3.0","protocol_sum":"","subject_identifier":104,"subject_sum":[65,207,192,209,242,209,39,176,69,85,183,36,109,132,1,155,77,39,113,10,63,58,255,110,119,100,55,91,30,6,224,93],"subject_pair":52,"STUDY_ID":"669a702db1122fc5150a13ce","PROLIFIC_PID":"62c44d672834a5c5ce7362f1","SESSION_ID":"669a88c85892b9edddecd835","practice_instructions":1,"leaderboard_instructions":0,"bonus":0,"reveal_word":false,"self_rating":"4","confidence":"82"},{"word":"ZEBRA","click_log":{"letter":["","A","L","T","R","C","S","E","Z","B"],"t":[0,9112,14790.39999999106,43327.59999999404,49858.69999998808,59754.59999999404,83461.69999998808,96292.39999999106,103813.69999998808,105904.59999999404],"hit":[null,1,0,0,1,0,0,1,1,1],"asked":["","A","AL","ALT","ALTR","ALTRC","ALTRCS","ALTRCSE","ALTRCSEZ","ALTRCSEZB"],"word_state":["_____","____A","____A","____A","___RA","___RA","___RA","_E_RA","ZE_RA","ZEBRA"]},"hover_log":{"letter":["?","?","?","J","?","?","?","T","T","T","?","?","?","?","?","?","?","?","?","?","?","?","?","?","?","?","?","?","?","?","?","?","?","?","?","?","?","?","?","?","?","?","?","?","?","?","?","?","?","?","?","?","?","?","?","?","?","?","?","?","?","?","?","?","?","?","?","?","?","?","?","?","?","?","?","?","?","?","?","?","?","?","?","?","?","?","?","?","?","?","?","?","?","?","?","?","?","?","?","?","?","?","?","?","?","?","?","?","?","?","?","?","?","?","?","?","?","?","?","?","?","?","?","?","?","?","?","?","?","?","?","?","?","?","?","?","?","?","?","?","?","?","?","?","?","?","?","?","?","?","?","?","?","?","?","?","?","?","?","?","?","?","?","?","?","?","?","?","?","?","?","?","?","?","?","?","?","?","?","?","?","?","?","?","?","?","?","?","?","?","?","?","?","?","?","?","?","?","?","?","?","?","?","?","?","?","?","?","?","?","?","?","?","?","?","?","?","?","?","?","?","?","?","?","?","?","?","?","?","?","?","?","?","?","?","?","?","?","?","E","?","?","?","?","?","?","?","?","?","?","?","?","?","?","?","?","?","?","?","?","?","?","?","?","O","O","O","O","N","N","N","N","N","N","N","N","N","N","N","N","N","N","N","N","N","N","N","N","N","N","N","N","N","N","N","N","N","N","N","N","N","N","N","N","N","N","N","N","N","N","N","N","N","N","N","N","N","N","N","N","N","N","N","N","N","N","N","N","N","N","N","N","N","N","N","?","?","?","?","?","?","?","?","?","?","?","?","?","?","?","?","?","?","?","?","?","?","?","?","?","?","?","?","?","?","?","?","?","?","?","?","?","?","?","?","?","?","?","?","?","?","?","?","?","?","?","?","?","?","?","?","?","?","?","?","?","?","?","?","?","?","?","?","?","?","?","?","?","?","?","?","?","?","?","?","?","?","?","?","?","?","?","?","?","?","?","?","?","?","?","?","?","?","?","?","?","?","?","?","?","?","?","?","?","?","?","?","?","?","?","?","?","?","?","?","?","?","?","?","?","?","?","?","?","?","?","?","?","?","?","?","?","?","?","?","?","?","?","?","?","?","?","?","?","?","?","?","?","?","?","?","?","?","?","?","?","?","?","?","?","?","?","?","?","?","?","?","C","?","?","?","?","B","B","B","B","B","B","?","?","?","?","?","A","A","A","A","A","A","A","A","A","A","A","A","A","A","A","A","A","A","A","A","A","A","A","A","A","A","A","A","A","A","A","A","A","A","A","?","?","?","?","?","?","?","?","?","?","?","?","A","A","?","?","?","?","?","?","?","?","?","?","?","?","?","D","D","D","D","?","E","E","E","?","?","?","?","?","?","?","?","?","?","?","?","?","?","?","?","?","?","?","?","?","?","?","?","?","?","?","?","?","?","?","?","?","?","?","?","?","?","?","?","?","?","?","?","?","?","?","?","?","?","?","?","?","?","?","?","?","?","?","?","?","?","?","?","?","?","?","?","?","?","?","?","?","?","?","?","?","?","?","?","?","?","?","?","?","?","?","?","?","?","?","?","G","G","G","G","?","?","?","?","?","?","?","?","Q","Q","?","R","R","R","R","R","?","?","?","?","?","?","?","?","?","?","?","?","?","?","?","?","?","?","?","?","?","?","?","?","?","?","?","?","?","?","?","?","?","?","?","?","T","T","T","T","?","U","U","U","U","U","U","?","?","?","?","?","?","?","?","?","?","?","L","L","L","L","L","L","L","L","L","L","L","L","L","L","L","L","L","L","L","L","L","L","L","L","L","L","L","L","L","L","L","L","L","L","L","L","L","L","L","L","L","L","L","L","L","L","L","L","L","L","L","L","L","L","L","L","L","L","L","L","L","L","L","L","L","L","L","L","L","L","L","L","L","L","L","L","L","L","L","L","L","L","L","L","L","L","L","L","L","L","L","L","L","L","L","L","L","L","L","L","L","L","L","L","L","L","L","L","L","L","L","L","L","L","L","L","L","L","L","L","L","L","L","L","L","L","L","L","L","L","L","L","L","L","L","L","L","L","L","L","L","L","L","L","L","L","L","L","L","L","L","L","L","L","L","L","L","L","L","L","L","L","L","L","L","L","L","L","L","L","L","L","L","L","L","L","L","L","L","L","L","L","L","L","L","L","L","L","L","L","L","L","L","L","L","L","?","?","?","?","?","?","L","?","?","D","D","?","?","?","?","?","?","?","?","?","?","?","?","?","?","?","?","?","?","?","?","?","?","?","?","?","?","?","?","?","?","?","?","?","?","?","?","?","?","?","?","?","?","?","?","?","?","?","?","?","?","?","?","?","C","C","C","D","D","E","?","?","?","?","?","?","?","?","?","?","?","?","?","?","?","?","?","?","?","?","?","?","?","?","?","?","?","?","?","?","?","?","?","?","?","?","?","?","?","?","?","?","?","?","?","?","?","?","?","?","?","?","?","?","?","?","?","?","?","?","?","?","?","?","?","?","?","?","?","?","?","?","?","?","?","?","?","?","?","?","?","?","?","?","?","?","?","?","?","?","?","?","?","?","?","?","?","?","?","?","?","?","?","?","?","?","?","?","?","?","?","?","?","?","?","?","?","?","?","?","?","?","?","?","?","?","?","?","?","?","?","?","Q","Q","?","?","G","?","?","?","?","?","?","?","?","?","?","?","?","?","?","?","?","?","?","?","?","?","?","?","?","?","?","?","?","?","?","?","?","?","?","?","?","?","?","?","?","?","?","?","?","?","?","?","?","?","?","?","?","?","?","?","?","?","?","?","?","C","C","C","C","C","C","C","C","?","D","D","D","D","D","D","D","D","D","D","D","D","D","D","D","D","D","D","D","D","D","D","D","D","D","D","D","D","D","D","D","D","D","D","D","D","D","D","D","D","D","D","D","D","D","D","D","D","D","D","D","D","D","D","D","D","D","D","D","D","D","D","D","D","D","D","D","D","?","?","?","?","?","?","?","?","L","L","?","?","?","?","?","?","?","?","?","?","?","?","?","?","?","?","?","?","?","?","?","?","?","?","?","?","?","?","?","?","?","?","?","?","?","?","?","?","?","?","?","?","?","?","?","?","?","?","?","?","?","?","?","?","?","?","?","?","?","?","?","?","?","?","?","?","?","?","?","?","?","?","?","?","?","?","?","?","?","?","?","?","?","?","?","?","?","?","?","?","?","?","?","?","?","?","?","?","?","?","?","?","?","?","?","?","?","?","?","?","?","?","?","M","?","?","?","?","?","?","?","?","?","?","?","?","?","?","?","?","?","?","?","V","V","V","V","V","V","V","V","V","V","V","V","V","V","?","?","W","W","W","W","?","?","?","?","?","?","?","?","?","?","?","?","?","?","?","?","?","?","?","?","?","?","?","?","?","?","?","?","?","?","?","?","?","?","?","?","?","?","?","?","?","?","?","?","?","?","?","?","?","?","?","?","?","?","?","?","?","?","?","?","?","?","?","?","?","?","?","?","?","?","?","?","?","?","?","?","?","?","?","?","?","?","?","?","?","?","?","?","?","?","?","?","?","?","?","?","?","?","?","?","?","?","?","?","?","?","?","?","?","?","?","?","?","?","?","?","?","?","?","?","?","?","?","?","?","?","?","?","?","?","?","?","?","?","?","?","?","?","?","?","?","?","?","?","?","?","?","?","?","?","?","?","?","?","?","?","?","?","?","?","?","?","?","?","?","?","?","?","?","?","?","?","?","?","?","?","?","?","?","?","?","?","?","?","?","?","?","?","?","?","?","?","?","?","?","?","?","?","?","?","?","?","?","?","?","?","?","?","?","?","?","?","?","?","?","?","?","?","?","?","?","?","?","?","?","?","?","?","?","?","?","?","?","?","?","?","?","?","?","?","?","?","?","?","?","?","Z","?","?","?","?","?","?","?","?","?","?","?","?","?","?","?","?","?","?","?","?","?","?","?","?","?","?","?","?","?","?","?","?","?","?","?","?","?","?","?","?","?","?","?","?","?","?","?","?","?","?","?","?","?","?","?","?","?","?","?","?","?","?","?","?","?","?","?","?","?","?","?","?","?","?","?","?","?","?","?","?","?","?","?","?","?","?","?","?","?","?","?","?","?","?","?","?","?","?","?","?","?","?","?","?","?","?","?","?","?","?","?","?","?","?","?","?","?","?","?","?","?","?","?","?","?","?","?","?","?","?","?","?","?","?","?","?","?","?","?","?","?","?","?","?","?","?","?","?","?","?","?","?","?","?","?","?","?","?","?","?","?","?","?","?","?","?","?","?","?","?","?","?","?","?","?","?","?","?","?","?","?","?","?","?","?","?","?","?","?","?","?","?","?","?","?","?","?","?","?","?","?","?","?","?","?","?","?","?","?","?","?","?","?","?","?","?","?","?","?","?","?","?","?","?","?","?","?","?","?","?","?","?","?","?","?","?","?","?","?","?","?","?","?","?","?","?","?","?","?","?","?","?","?","?","?","?","?","?","?","?","?","?","?","?","?","?","?","?","?","?","?","?","?","?","?","?","?","?","?","?","?","?","?","?","?","?","?","?","?","?","?","?","?","?","?","?","?","?","?","?","?","?","?","?","?","?","?","?","?","?","?","?","?","?","?","?","?","?","?","?","?","?","?","?","?","?","?","?","?","?","?","?","?","?","?","?","?","?","?","?","?","?","?","?","?","?","?","?","?","?","?","?","?","?","?","?","?","?","?","?","?","?","?","?","?","?","?","?","?","?","?","?","?","?","?","?","?","?","?","?","?","?","?","?","?","?","?","?","?","?","?","?","?","?","?","?","?","?","?","?","?","?","?","?","?","?","?","?","?","?","?","?","?","?","?","?","?","?","?","?","?","?","?","?","?","?","?","?","?","?","?","?","?","?","?","?","?","?","?","?","?","?","?","?","?","?","?","?","?","?","?","?","?","?","?","?","?","?","?","?","?","?","?","?","?","?","?","?","?","?","?","?","?","?","?","?","?","?","?","?","?","?","?","?","?","?","?","?","?","?","?","?","?","?","?","?","?","?","?","?","?","?","?","?","?","?","?","?","?","?","?","?","?","?","?","?","?","?","?","?","?","?","?","?","?","?","?","?","?","?","?","?","?","?","?","?","?","?","?","?","?","?","?","?","?","?","?","?","?","?","?","?","?","?","?","?","?","?","?","?","?","?","?","?","?","?","?","?","?","?","?","?","?","?","?","?","?","?","?","?","?","?","?","?","?","?","?","?","?","?","?","?","?","?","?","?","?","?","?","?","?","?","?","?","?","?","?","?","?","?","?","?","?","?","?","?","?","?","?","?","?","?","?","?","?","?","?","?","?","?","?","?","?","?","?","?","?","?","?","?","?","?","?","?","?","?","?","?","?","?","?","?","?","?","?","?","?","?","?","?","?","?","?","?","?","?","?","?","?","?","?","?","?","?","?","?","?","?","?","?","?","?","?","?","?","?","?","?","?","?","?","?","?","?","?","?","?","?","?","?","?","?","?","?","?","?","?","?","?","?","?","?","?","?","?","?","?","?","?","?","?","?","?","?","?","?","?","?","?","?","?","?","?","?","?","?","?","?","?","?","?","?","?","?","?","?","?","?","?","?","?","?","?","?","?","?","R","R","R","R","R","R","?","?","Q","Q","Q","?","P","O","?","?","?","?","?","M","?","L","?","?","C","?","?","?","?","?","?","?","?","?","?","?","?","?","?","?","?","?","A","A","A","A","?","?","?","?","?","A","?","?","?","?","?","?","?","?","?","?","?","C","C","?","?","?","?","?","?","?","?","?","?","?","?","?","?","?","?","?","?","?","?","?","V","V","U","U","?","?","?","?","?","?","?","T","T","T","T","T","T","T","T","T","T","T","T","T","T","T","T","T","T","T","T","T","T","T","T","T","T","T","T","T","T","T","T","T","T","T","T","T","T","T","T","T","T","T","T","T","T","T","T","T","T","T","T","T","T","T","T","T","T","T","T","T","T","T","T","T","T","T","T","T","T","T","T","T","T","T","T","T","T","T","T","T","T","T","T","T","T","T","T","T","T","T","T","?","U","U","?","V","V","V","V","V","V","V","V","V","V","V","?","W","W","W","W","W","W","W","W","W","W","W","?","?","?","?","?","?","X","X","X","X","Y","Y","?","Z","Z","Z","?","?","?","?","?","?","R","R","R","I","I","I","I","I","I","I","I","I","?","?","?","?","?","?","?","?","?","?","?","?","?","?","?","?","?","?","?","?","?","?","?","?","?","?","?","?","?","?","?","?","?","?","?","?","?","?","?","?","?","?","?","?","?","?","?","?","?","?","?","?","?","?","?","?","?","?","?","?","?","?","?","?","?","?","?","?","?","?","?","?","?","?","?","?","?","?","?","?","?","?","?","?","?","?","?","?","?","?","?","?","?","?","?","?","?","?","?","?","?","?","?","?","?","?","?","?","?","?","?","?","?","?","?","?","?","?","?","?","?","?","?","?","?","?","?","?","?","?","?","?","?","?","?","?","?","?","?","?","?","?","?","?","?","?","?","?","?","?","?","?","?","?","?","?","?","?","?","?","?","?","?","?","?","?","?","?","?","?","?","?","?","?","?","?","?","?","?","?","?","?","?","?","?","?","?","?","?","?","?","?","?","?","?","?","?","?","?","?","?","?","?","?","?","?","?","?","?","?","?","?","?","?","?","F","F","F","?","?","?","O","O","O","O","?","?","P","P","?","?","?","?","?","?","?","?","?","?","?","?","?","?","?","?","?","?","R","R","R","R","R","R","R","R","R","R","R","R","R","R","R","R","R","R","R","R","R","R","R","R","R","R","R","R","R","R","R","R","R","R","R","R","R","R","R","R","R","R","R","R","R","R","R","R","R","R","R","R","R","R","R","R","R","R","R","R","R","R","Q","Q","Q","Q","Q","Q","Q","Q","Q","Q","Q","Q","?","P","P","P","P","?","?","?","?","?","?","?","?","M","M","?","?","L","L","L","L","L","L","?","?","?","?","?","?","?","?","C","?","D","D","E","E","E","E","E","E","E","E","?","?","?","?","?","?","?","?","?","?","?","?","?","?","?","?","?","?","?","?","?","?","?","?","?","?","?","?","?","?","?","?","?","?","?","?","?","?","?","?","?","?","?","?","?","?","?","?","?","?","?","?","?","?","?","?","?","?","?","?","?","?","?","?","?","?","?","?","?","?","?","?","?","?","?","?","?","?","?","?","?","?","?","?","?","?","?","?","?","?","?","?","?","?","?","?","?","?","?","?","?","?","?","?","?","?","?","?","?","?","?","?","?","?","?","?","?","?","?","?","?","?","?","?","?","?","?","?","?","?","?","?","?","?","?","?","?","?","?","?","?","?","?","?","?","?","?","?","?","?","?","?","?","?","?","?","?","?","?","?","?","?","?","?","?","?","?","?","?","?","?","?","?","?","?","?","?","?","?","?","?","?","?","?","?","?","?","?","?","?","?","?","?","?","?","?","?","?","?","?","?","?","?","?","?","?","?","?","?","?","?","?","?","?","?","?","?","?","?","?","?","?","?","?","?","?","?","?","?","?","?","?","?","?","?","?","?","?","?","?","?","?","?","?","?","?","?","?","?","?","?","?","?","?","?","?","?","?","?","?","?","?","?","?","?","?","?","?","?","?","?","?","?","?","?","?","?","?","?","?","?","?","?","?","?","?","?","?","?","?","?","?","?","?","?","?","?","?","?","?","?","?","?","?","?","?","?","?","?","?","?","?","?","?","?","?","?","?","?","?","?","?","G","G","?","?","?","?","?","?","?","?","?","?","?","?","?","?","?","?","?","?","?","?","?","?","?","?","?","?","P","P","P","P","?","?","?","F","F","?","?","?","?","?","?","?","?","?","?","?","?","?","?","?","?","?","?","?","?","?","?","?","?","?","?","?","?","?","?","?","?","?","?","?","?","?","?","?","?","?","?","?","?","?","?","?","?","?","?","?","?","?","?","?","?","?","?","?","?","?","?","?","?","?","?","?","?","?","?","?","?","?","?","?","?","?","?","?","?","?","?","?","?","?","?","?","?","?","?","?","?","?","?","?","?","?","?","?","?","?","?","?","?","?","?","?","?","C","C","C","C","C","C","C","C","C","C","C","C","C","C","C","C","C","C","C","C","C","C","C","C","C","C","C","C","C","C","C","C","C","C","C","C","C","C","C","C","C","C","C","C","C","C","C","C","C","C","C","C","C","C","C","C","C","C","C","C","C","C","C","C","C","C","C","C","C","C","C","C","C","C","C","C","C","C","C","C","C","C","C","C","C","C","C","C","C","C","C","C","C","C","C","C","C","C","C","C","C","C","C","C","C","C","C","C","C","C","C","C","C","C","C","C","C","C","C","C","?","?","?","?","?","?","?","?","?","?","?","?","?","?","?","?","?","?","?","?","?","?","?","?","?","?","?","?","?","?","?","?","?","?","?","?","?","?","?","?","?","?","?","?","?","?","?","?","?","?","?","?","?","?","?","?","?","?","?","?","?","?","?","?","?","?","?","?","?","?","?","?","?","?","?","?","?","?","?","?","?","?","?","?","?","?","?","?","?","?","?","?","?","?","?","?","?","?","?","?","?","?","?","?","?","?","?","?","?","?","?","?","?","?","?","?","?","?","?","?","?","?","?","?","?","?","?","?","?","?","?","?","?","?","?","?","?","?","?","?","?","?","?","?","?","?","?","?","?","?","?","?","?","?","?","?","?","?","?","?","?","?","?","?","?","?","?","?","?","?","?","?","?","?","?","?","?","?","?","?","?","?","?","?","?","?","?","?","?","?","?","?","?","?","?","?","?","?","?","?","?","?","?","?","?","?","?","?","?","?","?","?","?","?","?","?","?","?","?","?","?","?","?","?","?","?","?","?","?","?","?","?","?","?","?","?","?","?","?","?","?","?","?","?","?","?","?","?","?","?","?","?","?","?","?","?","?","?","?","?","?","?","?","?","?","?","?","?","?","?","?","?","?","?","?","?","?","?","?","?","?","?","?","?","?","?","?","?","?","?","?","?","?","?","?","?","?","?","?","?","?","?","?","?","?","?","?","?","?","?","?","?","?","?","?","?","?","?","?","?","?","?","?","?","?","?","?","?","?","?","?","?","?","?","?","?","?","?","?","?","?","?","?","?","?","?","?","?","?","?","?","?","?","?","?","?","?","?","?","?","?","?","?","?","?","?","?","?","?","?","?","?","?","?","?","?","?","?","?","?","?","?","?","?","?","?","?","?","?","?","?","?","?","?","?","?","?","?","?","?","?","?","?","?","?","?","?","?","?","?","?","?","?","?","?","?","?","?","?","?","?","?","?","?","?","?","?","?","?","?","?","?","?","?","?","?","?","?","?","?","?","?","?","?","?","?","?","?","?","?","?","?","?","?","?","?","?","G","G","G","G","?","?","?","?","?","?","?","?","?","?","?","?","?","?","?","?","?","?","?","?","?","?","?","?","?","?","P","P","P","P","?","?","?","?","?","P","P","P","P","?","?","?","?","?","?","?","?","?","?","?","P","P","P","P","P","P","P","P","P","P","P","P","?","?","?","?","?","?","?","?","?","G","G","G","G","G","G","G","G","G","G","G","G","G","G","G","G","G","G","G","G","G","G","G","G","G","G","G","G","G","G","G","G","G","G","G","G","G","G","G","G","G","G","G","G","G","G","G","G","G","G","G","G","G","G","G","G","?","?","?","F","F","F","F","F","F","F","F","F","F","F","F","F","F","F","F","F","F","F","F","F","F","F","F","F","F","F","F","F","F","F","F","F","F","?","?","?","?","?","G","G","G","G","G","G","G","G","G","G","G","G","G","G","G","G","G","G","G","G","G","G","?","?","H","H","H","H","H","H","H","H","H","H","H","H","H","H","H","H","H","H","H","H","H","H","H","H","H","H","H","H","H","H","H","H","H","?","G","G","G","F","F","F","F","?","E","E","E","E","E","E","E","E","?","?","?","?","?","?","D","D","D","D","D","D","D","D","D","D","D","D","D","D","D","D","D","D","D","D","D","D","D","D","D","D","D","D","D","D","D","D","D","D","D","D","D","D","D","D","D","D","D","D","D","D","D","D","D","D","D","D","D","D","D","D","D","D","D","D","D","D","D","D","D","D","D","D","D","D","D","D","D","D","D","D","D","D","D","D","D","D","D","D","D","D","D","D","D","D","D","D","D","D","D","D","D","D","D","D","D","D","D","D","D","D","D","D","D","D","D","D","D","D","D","D","D","D","D","D","D","D","?","?","M","M","M","M","?","?","?","?","W","W","W","W","W","W","W","W","W","W","W","W","W","W","W","W","W","?","?","V","V","V","V","V","V","V","V","V","V","V","V","V","V","V","V","V","V","?","?","?","?","?","?","?","?","?","?","M","M","M","M","M","M","M","M","M","M","M","M","M","M","M","M","M","M","M","M","M","M","M","M","M","M","M","M","M","M","M","M","M","M","M","M","M","M","M","M","M","M","M","M","M","M","M","M","M","M","M","M","M","M","M","M","M","M","M","M","M","M","M","M","M","M","M","M","M","M","M","M","M","M","M","M","M","M","M","M","M","M","M","M","M","M","M","M","M","M","M","M","M","M","M","M","M","M","M","M","M","M","M","M","M","M","M","M","M","M","M","M","M","M","M","M","M","M","M","M","M","M","M","M","M","M","M","M","M","M","M","M","M","M","M","M","M","M","M","M","M","M","M","M","M","M","M","M","M","M","M","M","M","M","M","M","M","M","M","M","M","M","M","M","M","M","M","M","M","M","M","M","M","M","M","M","M","M","M","M","M","M","M","M","M","M","M","M","M","M","M","M","M","M","M","M","M","M","M","M","M","M","M","M","M","M","?","?","?","?","?","L","L","L","L","L","?","?","?","?","?","?","?","?","K","K","K","K","K","K","K","K","K","K","K","K","K","K","K","K","K","K","K","K","K","K","K","K","K","K","K","K","K","K","K","K","K","K","K","K","K","K","K","K","K","K","K","K","K","K","K","K","K","K","K","K","K","K","K","K","K","K","K","K","K","K","K","K","K","K","K","K","K","K","K","K","K","K","K","K","K","K","?","?","?","J","J","J","J","J","J","J","J","J","J","J","J","J","J","J","J","J","J","J","J","J","J","J","J","J","J","J","J","J","J","J","J","J","J","J","J","J","J","J","J","J","J","J","J","J","J","J","J","J","J","J","J","J","J","J","J","J","J","J","J","J","J","J","J","J","J","J","J","J","J","J","J","J","?","?","?","?","S","S","S","S","S","S","S","?","?","?","?","?","?","?","?","?","?","?","?","?","?","?","?","?","?","?","?","?","?","?","?","?","?","?","?","?","?","?","?","?","?","?","?","?","?","?","?","?","?","?","?","S","S","S","S","S","S","S","S","S","S","S","S","S","S","S","S","S","S","S","S","S","S","S","S","S","S","S","S","S","S","S","S","S","S","S","S","S","S","S","S","S","S","S","S","S","S","S","S","S","S","S","S","S","S","S","S","S","S","S","S","S","S","S","S","S","S","S","S","S","S","S","S","S","S","S","S","S","S","S","S","S","S","S","S","S","?","?","T","T","?","U","U","?","?","?","?","V","V","V","?","?","?","?","?","?","?","?","?","Z","Z","Z","Z","Z","Z","Z","Z","Z","Z","Z","Z","Z","Z","Z","Z","Z","Z","Z","Z","Z","Z","Z","Z","?","?","?","?","?","?","?","?","?","?","?","?","?","?","?","?","?","?","?","?","?","Z","?","?","?","?","?","?","?","?","?","?","?","?","?","?","?","?","?","U","?","S","S","S","S","S","S","?","?","?","?","?","?","?","?","?","?","?","?","?","?","?","?","?","?","?","?","?","?","?","?","?","?","?","?","?","?","?","?","?","?","?","?","?","?","?","?","?","?","?","?","?","?","?","?","?","?","?","?","?","?","?","?","?","?","?","?","?","?","?","?","?","?","?","?","?","?","?","?","?","?","?","?","?","?","?","?","?","?","?","?","?","?","?","?","?","?","?","?","?","?","?","?","W","W","W","W","W","W","W","W","W","W","W","W","W","W","W","W","W","W","W","W","W","W","W","W","W","W","W","W","W","W","W","W","W","W","W","W","W","W","W","W","W","W","W","W","W","W","W","W","W","W","W","W","W","W","W","W","W","W","W","W","W","W","W","W","W","W","W","W","W","W","W","W","W","W","W","W","W","?","?","?","?","?","?","?","?","?","M","M","?","?","?","L","L","L","L","L","L","L","L","L","L","L","?","?","?","?","?","?","?","?","?","?","?","?","?","?","?","?","?","B","B","B","B","B","B","B","B","B","B","B","B","B","B","B","B","B","B","B","B","B","B","B","B","B","B","B","B","B","B","B","B","B","B","B","B","B","B","B","B","B","B","B","B","B","B","B","B","B","B","B","B","B","B","B","B","B","B","B","B","B","B","B","B","B","B","B","B","B","?","?","?","?","?","?","?","?","?","?","?","D","D","D","D","D","D","?","?","?","?","?","?","?","?","?","?","?","?","?","?","?","?","?","?","?","?","E","E","E","E","E","?","?","?","?","D","D","D","D","D","D","D","D","D","D","D","D","D","D","D","?","?","E","E","E","E","E","E","E","E","E","E","E","E","E","E","E","E","E","E","E","E","E","E","E","E","E","E","E","E","E","E","E","E","E","E","E","E","E","E","E","E","E","E","E","E","E","E","E","E","E","E","E","E","E","E","E","E","E","E","E","E","E","E","E","E","E","E","E","E","E","E","E","E","E","E","E","E","E","E","E","E","E","E","E","E","E","E","E","E","E","E","E","E","E","E","E","E","E","E","E","E","E","E","E","E","E","E","E","E","E","E","E","E","E","E","E","E","E","E","E","E","E","E","E","E","E","E","E","E","E","E","E","E","E","E","E","E","E","E","E","E","E","E","E","E","E","E","E","E","E","E","E","E","E","E","E","E","E","E","E","E","E","E","E","E","E","E","E","E","E","E","E","E","E","E","E","E","E","E","E","E","E","E","E","E","E","E","E","E","E","E","E","E","E","E","E","E","E","E","E","E","E","E","E","E","E","E","E","E","E","E","E","E","E","E","E","E","E","E","E","E","E","E","E","E","E","E","E","E","E","?","?","?","?","?","?","?","?","?","?","E","E","E","E","E","E","E","E","E","E","E","E","E","E","E","E","E","E","E","E","E","E","E","E","E","E","E","E","E","E","E","E","E","E","E","E","E","E","E","E","E","E","E","E","E","E","E","E","E","E","E","E","E","E","E","E","E","E","E","E","E","E","E","E","E","E","E","E","E","E","E","E","E","?","F","F","F","F","F","F","F","F","F","F","F","F","F","F","F","F","F","F","F","F","?","?","?","?","?","?","?","?","?","?","?","?","?","?","?","?","?","?","?","?","?","?","?","?","?","?","?","?","?","?","?","?","?","?","?","?","?","?","?","?","?","?","?","?","?","?","?","?","?","?","?","?","?","?","?","?","?","?","?","?","?","?","?","?","?","?","?","?","?","?","?","?","?","?","?","?","?","?","?","?","?","?","?","?","?","?","?","?","?","?","?","?","?","?","?","?","?","?","?","?","?","?","?","?","?","?","?","?","?","?","?","?","?","?","?","?","?","?","?","?","?","?","?","?","?","?","?","?","?","?","?","?","?","?","?","?","?","?","?","?","?","?","?","?","?","?","?","?","?","?","?","?","?","?","?","?","?","?","?","?","?","?","?","?","?","?","?","?","?","?","?","?","?","?","?","?","?","?","?","?","?","?","?","?","?","?","?","?","?","?","?","?","?","?","?","?","?","?","?","?","?","?","?","?","?","?","?","?","?","?","?","?","?","?","?","?","?","?","?","?","?","?","?","?","?","?","?","?","?","?","?","?","?","?","?","?","?","?","?","?","?","?","?","?","?","?","?","?","?","?","?","?","?","?","?","?","?","?","?","?","?","?","?","?","?","?","?","?","?","?","?","?","?","?","?","?","?","?","?","?","?","?","?","?","?","?","?","?","?","?","?","?","?","?","?","?","?","?","?","?","?","?","?","?","E","?","?","?","?","?","?","?","?","?","?","?","?","?","?","E","?","?","?","?","?","?","?","?","?","?","?","?","?","?","?","?","?","?","?","?","E","E","?","?","?","N","?","?","?","?","W","W","?","X","X","X","?","?","?","?","?","?","?","?","Z","Z","Z","Z","Z","Z","Z","Z","Z","Z","Z","Z","Z","Z","Z","Z","Z","Z","Z","Z","Z","Z","Z","Z","Z","Z","Z","Z","Z","Z","Z","Z","?","Y","?","?","N","?","M","?","?","?","?","?","?","?","?","?","?","?","?","?","E","E","E","?","?","?","?","?","?","?","?","?","?","?","?","?","?","?","F","?","?","P","P","?","?","?","?","N","?","M","M","M","?","?","?","?","?","?","?","?","L","L","?","?","?","C","C","C","?","D","D","?","E","E","E","E","E","?","?","?","?","?","?","?","?","?","C","?","?","B","B","B","B","B","B","B","B","B","B","B","B","B","B","B","B","B","B","B","B","B","B","B","B","B","B","B","B","B","B","B","B","B","B","B","B","?","?","?","?","C","C","C","D","?","F","G","H","H","H","H","H","H","H","H","H","H","H","H","H","H","H","?","?","R","R","?","?","?","?","?","?","?","?","?","?","?","?","?","?","?","?","?","?","?","?","?","?","?","?","?","?","?","?","?","?","?","?","?","?","?","?","?","?","?","?","?","?","?","?","?","?","?","?","?","?","?","?","?","?","?","?","?","?","?","?","?","?","?","?","?","?","?","?","?","?","?","?","?","?","?","?","?","?","?","?","?","?","?","?","?"],"t":[35,44,60,79,94,111,128,146,161,178,194,210,227,244,260,276,293,309,327,344,360,377,393,410,426,443,460,476,493,509,526,543,559,576,593,609,626,643,659,676,693,709,726,743,759,776,793,809,826,843,859,875,892,909,925,942,959,975,992,1009,1025,1042,1058,1075,1092,1109,1125,1142,1158,1176,1191,1208,1225,1242,1258,1275,1291,1308,1323,1340,1357,1373,1390,1408,1424,1441,1457,1474,1491,1507,1524,1541,1557,1574,1590,1607,1624,1641,1657,1674,1690,1707,1724,1741,1757,1773,1789,1806,1823,1840,1856,1873,1890,1906,1923,1940,1956,1973,1989,2006,2023,2039,2056,2073,2089,2106,2123,2139,2156,2172,2190,2206,2222,2238,2255,2272,2289,2306,2322,2339,2356,2372,2388,2405,2421,2438,2455,2472,2488,2505,2521,2538,2555,2572,2588,2605,2621,2638,2655,2672,2688,2704,2720,2737,2753,2771,2788,2804,2821,2837,2854,2871,2888,2904,2920,2937,2954,2971,2987,3003,3021,3037,3054,3070,3087,3104,3120,3137,3154,3170,3187,3204,3220,3237,3254,3270,3287,3303,3320,3336,3354,3370,3386,3403,3420,3436,3453,3469,3486,3502,3519,3536,3553,3570,3586,3603,3619,3636,3653,3669,3686,3703,3719,3736,3753,3769,3785,3802,3819,3835,3852,3869,3886,3902,3919,3935,3952,3969,3985,4002,4019,4035,4052,4068,4085,4101,4118,4135,4152,4168,4185,4202,4218,4235,4251,4268,4285,4301,4318,4335,4351,4368,4384,4401,4418,4433,4451,4468,4485,4501,4517,4534,4550,4567,4583,4600,4617,4634,4650,4667,4683,4700,4717,4733,4750,4767,4783,4800,4817,4833,4850,4866,4883,4900,4916,4933,4950,4966,4983,5000,5016,5033,5050,5066,5083,5099,5116,5133,5149,5166,5183,5199,5216,5232,5249,5265,5282,5299,5316,5332,5349,5365,5382,5399,5415,5432,5448,5465,5482,5499,5515,5531,5548,5565,5582,5598,5614,5631,5648,5666,5682,5698,5715,5731,5748,5764,5781,5798,5815,5831,5847,5864,5881,5898,5914,5931,5948,5965,5981,5997,6014,6031,6048,6064,6081,6098,6114,6131,6147,6164,6180,6197,6214,6230,6247,6264,6280,6297,6314,6330,6347,6363,6380,6397,6413,6430,6447,6463,6480,6497,6513,6530,6546,6563,6580,6596,6612,6630,6646,6663,6679,6695,6712,6729,6746,6763,6779,6796,6813,6829,6847,6862,6879,6895,6912,6929,6945,6962,6978,6995,7012,7029,7046,7062,7079,7095,7112,7129,7145,7162,7178,7195,7211,7228,7245,7261,7278,7295,7312,7328,7345,7361,7378,7395,7411,7428,7445,7461,7478,7494,7511,7528,7545,7561,7578,7594,7611,7627,7644,7661,7677,7694,7711,7727,7743,7760,7777,7793,7810,7827,7844,7860,7877,7894,7910,7927,7944,7960,7977,7994,8010,8027,8044,8060,8077,8093,8110,8127,8143,8160,8176,8193,8210,8227,8242,8259,8276,8292,8309,8326,8342,8359,8375,8392,8409,8426,8443,8460,8476,8492,8509,8526,8543,8559,8575,8592,8609,8625,8642,8658,8675,8692,8708,8725,8742,8758,8775,8791,8808,8825,8841,8858,8875,8892,8908,8925,8941,8957,8974,8991,9008,9024,9042,9058,9075,9092,9108,9126,9141,9158,9175,9192,9208,9225,9241,9257,9275,9291,9308,9324,9341,9357,9374,9391,9407,9424,9441,9457,9474,9491,9507,9523,9540,9557,9574,9590,9607,9624,9640,9656,9673,9690,9706,9722,9739,9757,9773,9789,9806,9823,9840,9856,9872,9889,9906,9922,9939,9956,9973,9989,10006,10023,10039,10056,10072,10089,10106,10122,10139,10156,10172,10189,10206,10222,10239,10255,10272,10289,10304,10321,10338,10355,10373,10388,10405,10422,10438,10455,10472,10488,10505,10521,10538,10555,10571,10588,10605,10621,10638,10655,10671,10688,10705,10721,10737,10755,10771,10788,10804,10821,10837,10854,10871,10887,10904,10920,10936,10953,10970,10987,11003,11020,11037,11053,11070,11086,11103,11120,11137,11153,11170,11187,11204,11220,11237,11253,11270,11287,11303,11320,11336,11353,11370,11386,11403,11420,11437,11453,11470,11486,11503,11519,11536,11553,11569,11586,11603,11620,11636,11652,11669,11685,11702,11719,11736,11752,11768,11785,11802,11819,11836,11852,11869,11885,11902,11919,11935,11952,11969,11984,12001,12018,12035,12051,12067,12084,12101,12117,12134,12150,12167,12184,12201,12217,12233,12250,12267,12283,12300,12317,12334,12350,12367,12384,12400,12418,12433,12450,12467,12483,12500,12516,12533,12550,12567,12583,12600,12616,12633,12650,12666,12683,12699,12716,12733,12749,12766,12783,12799,12816,12832,12850,12865,12882,12899,12915,12932,12949,12965,12982,12999,13015,13032,13049,13065,13082,13098,13116,13132,13148,13166,13182,13198,13215,13232,13248,13265,13282,13299,13315,13331,13348,13365,13382,13398,13415,13432,13448,13465,13481,13498,13515,13532,13548,13565,13581,13598,13615,13631,13648,13664,13681,13698,13714,13731,13748,13764,13781,13797,13814,13830,13847,13864,13881,13897,13914,13930,13947,13963,13980,13997,14014,14031,14047,14064,14080,14097,14114,14130,14146,14163,14180,14197,14213,14230,14247,14263,14280,14296,14313,14330,14346,14363,14379,14396,14413,14430,14446,14463,14479,14496,14513,14529,14546,14562,14579,14596,14612,14629,14646,14662,14679,14695,14712,14729,14746,14762,14779,14796,14812,14829,14846,14862,14879,14896,14912,14929,14946,14963,14978,14994,15012,15029,15045,15062,15078,15095,15112,15129,15145,15161,15178,15194,15212,15227,15244,15261,15278,15294,15311,15328,15344,15361,15377,15394,15411,15427,15444,15461,15478,15494,15511,15527,15544,15560,15577,15594,15610,15627,15644,15660,15677,15694,15711,15727,15743,15760,15777,15793,15810,15827,15843,15859,15876,15893,15910,15926,15943,15961,15977,15993,16010,16026,16043,16060,16076,16093,16110,16126,16143,16160,16176,16193,16210,16226,16242,16259,16275,16292,16309,16326,16342,16359,16375,16392,16409,16426,16442,16459,16476,16492,16508,16525,16542,16558,16575,16592,16609,16625,16641,16658,16675,16691,16708,16725,16741,16758,16775,16792,16808,16825,16841,16858,16875,16891,16908,16924,16941,16958,16974,16991,17008,17025,17041,17057,17074,17091,17107,17124,17141,17157,17174,17191,17207,17224,17240,17257,17274,17290,17307,17323,17340,17357,17374,17391,17407,17423,17440,17457,17473,17490,17506,17523,17539,17556,17573,17590,17606,17622,17639,17656,17673,17689,17706,17723,17739,17756,17772,17789,17806,17822,17839,17855,17872,17889,17905,17922,17938,17955,17972,17988,18005,18021,18038,18055,18072,18088,18105,18122,18138,18155,18172,18188,18205,18222,18238,18255,18272,18288,18305,18322,18338,18354,18371,18387,18404,18421,18438,18455,18471,18488,18505,18521,18538,18554,18571,18588,18604,18621,18638,18654,18671,18687,18704,18721,18737,18754,18770,18787,18804,18821,18837,18854,18870,18887,18904,18920,18937,18954,18970,18987,19003,19020,19036,19052,19070,19087,19103,19120,19136,19153,19170,19186,19203,19219,19236,19253,19270,19286,19303,19319,19336,19352,19369,19385,19402,19418,19435,19451,19469,19486,19503,19519,19536,19552,19569,19585,19602,19619,19635,19652,19669,19685,19702,19719,19735,19752,19769,19785,19802,19818,19835,19852,19868,19885,19902,19918,19935,19952,19968,19985,20001,20018,20035,20051,20068,20084,20101,20118,20134,20151,20168,20184,20201,20218,20234,20251,20267,20284,20301,20317,20334,20350,20367,20383,20400,20416,20434,20450,20467,20483,20500,20516,20533,20550,20567,20584,20600,20617,20633,20650,20666,20683,20700,20715,20732,20749,20766,20783,20799,20816,20832,20849,20866,20883,20899,20916,20933,20949,20966,20982,20999,21015,21032,21049,21066,21082,21099,21115,21132,21149,21165,21182,21199,21215,21232,21248,21265,21282,21298,21315,21331,21348,21365,21381,21398,21415,21431,21448,21465,21482,21498,21514,21531,21547,21564,21581,21598,21615,21631,21648,21664,21681,21698,21715,21731,21747,21764,21781,21797,21814,21830,21847,21864,21881,21897,21914,21931,21947,21963,21980,21997,22014,22030,22047,22063,22080,22097,22113,22129,22146,22163,22180,22196,22213,22229,22246,22263,22279,22296,22313,22329,22346,22363,22379,22396,22413,22429,22446,22462,22479,22496,22512,22529,22546,22562,22579,22595,22612,22629,22645,22662,22679,22695,22712,22728,22745,22762,22779,22795,22812,22828,22845,22862,22878,22895,22911,22928,22945,22961,22978,22994,23011,23028,23044,23061,23078,23094,23111,23128,23144,23161,23177,23194,23211,23227,23244,23261,23277,23294,23311,23327,23343,23360,23378,23394,23410,23427,23444,23460,23477,23494,23510,23527,23543,23559,23577,23593,23610,23627,23643,23660,23676,23693,23710,23726,23743,23760,23776,23793,23810,23827,23843,23859,23876,23893,23910,23927,23943,23960,23976,23992,24009,24026,24043,24059,24076,24093,24109,24126,24142,24159,24176,24192,24209,24226,24242,24259,24276,24292,24309,24325,24343,24359,24375,24394,24409,24425,24442,24458,24475,24492,24509,24525,24542,24558,24575,24591,24608,24624,24641,24658,24674,24691,24708,24724,24741,24757,24774,24791,24808,24824,24841,24857,24874,24891,24908,24924,24940,24957,24973,24991,25007,25024,25041,25057,25075,25090,25107,25124,25141,25157,25174,25191,25208,25223,25240,25257,25273,25290,25306,25323,25340,25356,25373,25390,25406,25423,25439,25456,25473,25489,25506,25522,25539,25556,25572,25589,25606,25622,25639,25656,25672,25689,25706,25722,25741,25756,25772,25788,25805,25822,25838,25855,25872,25888,25906,25922,25939,25955,25971,25988,26005,26021,26038,26055,26071,26088,26105,26121,26138,26154,26171,26188,26204,26221,26238,26255,26271,26287,26303,26321,26338,26354,26371,26388,26404,26421,26437,26454,26470,26487,26504,26522,26537,26554,26570,26587,26604,26620,26637,26653,26670,26687,26703,26720,26737,26754,26770,26787,26803,26820,26837,26853,26869,26886,26902,26919,26936,26953,26970,26986,27002,27019,27036,27053,27069,27086,27102,27119,27136,27153,27169,27185,27202,27219,27235,27252,27269,27286,27302,27319,27336,27352,27369,27386,27402,27418,27435,27452,27468,27485,27502,27518,27535,27552,27568,27585,27602,27618,27634,27651,27667,27684,27702,27717,27734,27750,27767,27784,27801,27818,27834,27850,27868,27883,27901,27917,27934,27950,27967,27983,28000,28017,28034,28050,28067,28084,28100,28116,28133,28150,28166,28184,28200,28216,28233,28250,28266,28283,28300,28316,28333,28350,28365,28383,28400,28416,28433,28449,28467,28483,28500,28515,28532,28549,28566,28583,28600,28616,28633,28650,28666,28683,28700,28716,28733,28749,28766,28782,28799,28816,28832,28849,28866,28882,28899,28916,28931,28949,28965,28981,28998,29014,29031,29048,29065,29082,29098,29115,29131,29148,29165,29182,29199,29216,29231,29248,29265,29281,29298,29315,29331,29348,29365,29381,29398,29415,29432,29448,29464,29481,29498,29514,29531,29548,29564,29581,29597,29614,29631,29647,29664,29681,29697,29714,29731,29747,29764,29780,29797,29814,29830,29847,29863,29880,29896,29914,29930,29946,29963,29980,29996,30012,30030,30046,30063,30079,30096,30113,30129,30146,30163,30179,30196,30213,30229,30246,30263,30279,30296,30313,30329,30346,30363,30379,30396,30412,30429,30446,30462,30479,30495,30511,30529,30545,30562,30579,30595,30612,30629,30646,30662,30679,30695,30711,30728,30745,30761,30778,30794,30811,30828,30844,30861,30878,30895,30911,30928,30944,30961,30978,30994,31011,31028,31044,31061,31077,31094,31111,31127,31143,31160,31177,31194,31211,31227,31244,31261,31277,31294,31310,31327,31344,31360,31377,31393,31410,31427,31443,31460,31477,31493,31510,31526,31543,31560,31576,31593,31610,31626,31643,31659,31676,31693,31709,31726,31743,31759,31776,31792,31809,31826,31842,31859,31875,31892,31909,31926,31943,31959,31976,31992,32009,32026,32042,32059,32075,32092,32108,32125,32142,32158,32175,32191,32208,32225,32242,32258,32275,32292,32308,32325,32342,32358,32375,32392,32408,32425,32441,32458,32475,32491,32508,32525,32541,32558,32574,32591,32607,32625,32641,32657,32674,32691,32707,32724,32741,32756,32773,32790,32808,32824,32840,32857,32874,32890,32907,32924,32940,32957,32973,32990,33006,33023,33040,33056,33073,33090,33107,33123,33139,33156,33172,33189,33206,33224,33239,33255,33273,33289,33306,33323,33339,33356,33372,33389,33405,33423,33439,33455,33472,33489,33506,33522,33539,33556,33572,33589,33606,33622,33639,33656,33672,33689,33705,33722,33739,33755,33772,33789,33805,33822,33839,33855,33872,33888,33905,33921,33938,33955,33971,33988,34004,34021,34037,34054,34071,34087,34104,34121,34139,34154,34171,34187,34204,34221,34237,34254,34270,34287,34303,34320,34337,34354,34370,34387,34404,34421,34437,34454,34470,34487,34504,34520,34537,34554,34570,34587,34602,34619,34636,34653,34670,34687,34703,34720,34736,34753,34770,34786,34804,34819,34836,34853,34869,34886,34903,34919,34936,34953,34969,34986,35003,35019,35036,35053,35069,35086,35103,35119,35136,35153,35169,35186,35202,35219,35235,35252,35269,35285,35302,35318,35334,35351,35368,35384,35402,35418,35435,35451,35468,35485,35502,35518,35534,35551,35568,35584,35601,35618,35634,35651,35668,35684,35701,35718,35734,35751,35768,35784,35801,35818,35834,35851,35867,35884,35901,35917,35934,35950,35967,35983,36000,36016,36033,36050,36067,36083,36100,36117,36133,36150,36167,36183,36200,36216,36233,36250,36267,36283,36300,36316,36333,36349,36366,36383,36399,36416,36433,36449,36466,36482,36499,36516,36532,36549,36566,36582,36599,36616,36632,36649,36666,36682,36699,36715,36732,36749,36766,36782,36799,36815,36831,36848,36864,36881,36898,36915,36932,36948,36965,36981,36998,37014,37031,37049,37064,37081,37097,37114,37131,37148,37164,37180,37197,37214,37231,37248,37265,37280,37297,37314,37330,37347,37363,37382,37396,37413,37430,37447,37464,37480,37496,37513,37530,37547,37564,37580,37597,37614,37630,37647,37663,37680,37697,37713,37730,37747,37764,37780,37796,37813,37829,37846,37862,37879,37895,37913,37928,37945,37963,37979,37995,38012,38029,38046,38063,38079,38096,38113,38129,38146,38162,38179,38195,38212,38229,38245,38262,38279,38296,38312,38329,38345,38362,38379,38395,38412,38428,38445,38462,38479,38495,38512,38528,38544,38561,38578,38595,38612,38628,38644,38661,38678,38695,38711,38728,38744,38761,38778,38794,38810,38827,38844,38861,38877,38894,38911,38927,38944,38961,38977,38994,39010,39027,39043,39060,39077,39094,39111,39127,39144,39161,39177,39194,39210,39227,39244,39260,39277,39294,39310,39327,39343,39360,39377,39393,39409,39426,39443,39460,39476,39493,39510,39526,39543,39560,39576,39592,39609,39625,39642,39660,39676,39692,39709,39726,39742,39759,39775,39792,39809,39825,39842,39859,39875,39892,39909,39925,39942,39959,39975,39992,40008,40025,40042,40058,40075,40092,40108,40125,40142,40158,40174,40191,40207,40225,40241,40258,40275,40291,40308,40324,40341,40358,40374,40391,40408,40424,40441,40458,40474,40491,40508,40524,40541,40557,40574,40591,40607,40624,40641,40657,40673,40689,40706,40724,40740,40757,40774,40790,40807,40824,40840,40857,40873,40890,40907,40924,40940,40956,40973,40990,41007,41023,41039,41056,41073,41090,41106,41123,41139,41156,41173,41190,41206,41222,41240,41256,41273,41289,41305,41322,41339,41356,41372,41389,41405,41422,41438,41455,41472,41488,41505,41522,41539,41555,41571,41588,41605,41622,41638,41655,41672,41688,41704,41721,41738,41754,41771,41788,41805,41821,41838,41855,41871,41888,41904,41921,41938,41955,41972,41987,42004,42021,42037,42054,42070,42087,42103,42120,42136,42153,42170,42186,42203,42221,42237,42254,42270,42287,42304,42320,42337,42354,42370,42387,42404,42420,42436,42453,42469,42486,42503,42519,42537,42553,42570,42587,42603,42620,42636,42653,42670,42686,42702,42719,42735,42752,42768,42785,42802,42819,42835,42853,42869,42885,42902,42918,42935,42952,42969,42986,43002,43019,43035,43052,43068,43085,43102,43118,43135,43152,43168,43185,43202,43218,43234,43252,43268,43285,43301,43318,43335,43351,43368,43385,43400,43417,43434,43451,43468,43484,43501,43518,43535,43551,43568,43584,43601,43617,43634,43651,43667,43684,43700,43717,43734,43751,43767,43784,43800,43817,43834,43850,43866,43883,43900,43917,43933,43950,43966,43983,44000,44017,44033,44050,44066,44083,44100,44116,44133,44150,44166,44183,44200,44216,44233,44250,44266,44283,44299,44316,44332,44349,44366,44383,44399,44416,44432,44449,44466,44483,44499,44516,44532,44549,44565,44582,44599,44615,44632,44649,44665,44682,44698,44715,44732,44748,44765,44782,44798,44815,44831,44849,44865,44881,44898,44914,44931,44947,44965,44981,44997,45014,45031,45048,45065,45081,45098,45114,45131,45148,45164,45181,45197,45214,45230,45248,45264,45281,45297,45314,45331,45347,45364,45381,45397,45414,45431,45446,45464,45480,45497,45514,45530,45547,45564,45580,45597,45613,45630,45647,45663,45679,45696,45713,45729,45746,45763,45780,45796,45813,45829,45846,45863,45879,45896,45913,45930,45949,45962,45979,45995,46012,46029,46046,46062,46079,46096,46112,46129,46146,46162,46179,46196,46212,46228,46245,46262,46279,46295,46312,46329,46345,46362,46379,46395,46412,46428,46445,46461,46478,46494,46511,46528,46545,46561,46578,46595,46612,46628,46644,46661,46678,46694,46711,46728,46744,46761,46777,46794,46810,46827,46844,46860,46877,46894,46910,46927,46944,46960,46977,46994,47010,47026,47044,47060,47077,47093,47110,47126,47143,47160,47177,47193,47210,47226,47243,47260,47276,47293,47310,47326,47343,47359,47376,47393,47409,47426,47443,47459,47476,47492,47509,47526,47542,47559,47575,47592,47609,47625,47642,47659,47675,47692,47709,47725,47742,47759,47775,47792,47808,47825,47842,47858,47875,47892,47908,47925,47942,47958,47975,47991,48008,48025,48041,48058,48074,48091,48108,48124,48141,48158,48175,48191,48208,48224,48241,48257,48274,48291,48307,48324,48340,48357,48374,48390,48407,48424,48440,48457,48474,48490,48507,48523,48540,48557,48573,48590,48607,48623,48640,48657,48673,48690,48707,48723,48739,48756,48773,48790,48806,48824,48840,48856,48873,48890,48907,48923,48940,48956,48975,48989,49006,49023,49039,49056,49073,49089,49106,49122,49139,49155,49171,49189,49205,49222,49239,49255,49272,49288,49305,49322,49339,49355,49372,49389,49405,49422,49438,49455,49471,49488,49505,49521,49538,49554,49572,49588,49604,49621,49638,49654,49671,49688,49704,49721,49738,49754,49771,49787,49804,49821,49837,49854,49871,49886,49904,49921,49937,49954,49971,49987,50004,50020,50037,50054,50070,50088,50104,50120,50137,50153,50170,50187,50203,50220,50236,50253,50270,50286,50303,50320,50337,50353,50370,50387,50403,50420,50436,50453,50470,50486,50503,50520,50536,50553,50569,50586,50603,50619,50636,50653,50670,50686,50702,50719,50736,50752,50769,50786,50803,50819,50836,50852,50869,50885,50902,50919,50935,50952,50969,50985,51001,51019,51035,51052,51068,51085,51101,51118,51135,51151,51168,51185,51201,51218,51234,51251,51267,51284,51300,51317,51334,51351,51368,51384,51401,51418,51434,51451,51468,51484,51501,51518,51534,51551,51567,51584,51600,51617,51634,51650,51667,51684,51700,51717,51734,51750,51767,51783,51800,51816,51833,51850,51867,51883,51900,51917,51933,51950,51967,51984,52000,52017,52033,52049,52066,52083,52100,52116,52133,52149,52166,52183,52199,52216,52233,52249,52266,52282,52299,52315,52332,52349,52365,52382,52399,52416,52433,52449,52465,52482,52499,52515,52532,52548,52565,52582,52598,52614,52631,52648,52665,52682,52698,52715,52731,52748,52765,52781,52798,52814,52831,52848,52864,52881,52898,52914,52931,52948,52964,52980,52997,53014,53031,53048,53064,53081,53097,53114,53130,53147,53164,53180,53197,53214,53230,53247,53265,53280,53297,53313,53330,53347,53364,53380,53396,53413,53430,53446,53462,53480,53496,53513,53530,53546,53563,53580,53596,53613,53630,53646,53663,53679,53696,53713,53729,53746,53762,53779,53796,53812,53829,53846,53862,53878,53896,53912,53928,53945,53961,53979,53995,54012,54028,54045,54062,54079,54095,54112,54129,54145,54162,54179,54195,54212,54228,54245,54262,54278,54295,54312,54328,54344,54361,54378,54395,54411,54428,54444,54461,54477,54494,54511,54528,54544,54561,54578,54594,54611,54627,54645,54661,54678,54694,54711,54727,54744,54761,54777,54793,54810,54827,54843,54860,54877,54894,54910,54927,54943,54960,54977,54993,55010,55026,55043,55060,55076,55093,55110,55127,55143,55160,55176,55193,55210,55226,55243,55259,55276,55292,55309,55326,55342,55359,55376,55393,55409,55425,55442,55459,55475,55492,55508,55525,55541,55558,55575,55592,55608,55625,55642,55658,55675,55692,55708,55725,55742,55758,55775,55792,55808,55825,55841,55858,55875,55891,55908,55924,55941,55958,55975,55991,56008,56025,56041,56058,56074,56091,56108,56124,56141,56158,56174,56191,56207,56225,56241,56257,56274,56291,56307,56324,56340,56357,56374,56390,56407,56424,56440,56457,56473,56490,56507,56523,56540,56556,56573,56589,56606,56624,56639,56656,56673,56689,56706,56723,56739,56756,56773,56789,56806,56822,56839,56856,56872,56889,56906,56922,56939,56956,56973,56988,57006,57022,57039,57056,57072,57088,57106,57122,57139,57155,57172,57189,57205,57222,57238,57255,57272,57289,57305,57322,57338,57354,57371,57388,57405,57421,57438,57455,57471,57488,57505,57521,57538,57554,57571,57587,57604,57620,57637,57654,57670,57687,57704,57721,57737,57754,57770,57787,57804,57821,57837,57854,57870,57887,57904,57920,57937,57954,57970,57986,58003,58020,58037,58054,58070,58087,58103,58120,58137,58153,58170,58186,58203,58220,58236,58253,58270,58286,58303,58319,58336,58352,58369,58386,58403,58420,58436,58452,58469,58486,58502,58519,58535,58552,58569,58585,58602,58619,58635,58652,58669,58685,58701,58719,58735,58752,58769,58785,58802,58819,58834,58851,58868,58884,58901,58918,58935,58952,58968,58985,59001,59018,59035,59051,59068,59085,59101,59118,59134,59151,59168,59184,59201,59217,59235,59251,59267,59284,59301,59318,59334,59350,59367,59384,59400,59417,59434,59450,59467,59484,59500,59516,59533,59550,59567,59583,59600,59616,59633,59650,59672,59699,59716,59733,59749,59766,59782,59799,59816,59833,59849,59866,59883,59899,59916,59932,59949,59966,59982,59998,60015,60032,60049,60066,60082,60099,60115,60132,60149,60166,60181,60198,60215,60232,60248,60265,60282,60298,60315,60332,60348,60365,60382,60398,60415,60431,60448,60465,60481,60498,60514,60531,60548,60564,60581,60598,60614,60631,60648,60664,60681,60698,60714,60731,60747,60763,60781,60797,60813,60830,60847,60863,60880,60897,60914,60930,60947,60963,60980,60997,61013,61030,61047,61064,61080,61097,61113,61130,61147,61163,61180,61197,61213,61230,61247,61263,61279,61296,61313,61329,61346,61363,61379,61396,61413,61429,61446,61463,61479,61496,61512,61529,61546,61562,61579,61596,61612,61629,61645,61662,61679,61695,61712,61729,61745,61762,61779,61795,61812,61828,61845,61861,61878,61894,61911,61928,61945,61961,61978,61995,62012,62028,62045,62061,62078,62094,62110,62127,62144,62161,62178,62194,62211,62227,62244,62261,62277,62294,62311,62327,62344,62361,62377,62394,62410,62427,62443,62460,62477,62494,62510,62527,62544,62560,62577,62594,62610,62627,62643,62660,62677,62693,62710,62727,62743,62760,62776,62792,62809,62826,62843,62860,62876,62893,62909,62925,62942,62958,62975,62992,63009,63026,63043,63059,63076,63093,63109,63126,63142,63159,63175,63192,63209,63225,63242,63258,63275,63291,63308,63325,63342,63359,63375,63392,63409,63425,63442,63458,63475,63492,63508,63525,63541,63558,63575,63591,63608,63625,63641,63658,63675,63691,63708,63725,63741,63758,63774,63791,63808,63824,63841,63857,63874,63891,63907,63924,63941,63957,63974,63991,64006,64023,64040,64057,64074,64090,64107,64123,64140,64157,64173,64190,64207,64223,64240,64257,64273,64290,64306,64323,64340,64356,64373,64390,64406,64423,64440,64456,64472,64490,64506,64523,64539,64556,64573,64589,64606,64623,64639,64655,64672,64689,64706,64722,64739,64756,64772,64789,64805,64822,64838,64855,64872,64888,64905,64922,64938,64955,64972,64988,65005,65022,65038,65055,65071,65088,65104,65121,65138,65155,65171,65188,65204,65221,65238,65254,65271,65288,65304,65321,65337,65354,65371,65387,65404,65421,65437,65454,65471,65487,65504,65520,65537,65554,65570,65587,65604,65620,65637,65653,65670,65687,65704,65720,65737,65753,65770,65787,65803,65820,65836,65853,65870,65886,65903,65920,65936,65953,65970,65986,66002,66019,66036,66052,66069,66086,66103,66119,66135,66152,66168,66186,66202,66219,66236,66252,66269,66285,66302,66319,66335,66352,66369,66385,66402,66418,66435,66452,66468,66485,66502,66518,66535,66552,66568,66585,66602,66618,66635,66651,66668,66684,66701,66718,66734,66751,66768,66784,66801,66818,66834,66851,66868,66884,66901,66918,66934,66951,66967,66984,67001,67018,67034,67050,67067,67084,67101,67117,67134,67151,67167,67183,67200,67216,67233,67250,67267,67284,67300,67317,67333,67350,67366,67383,67400,67417,67433,67449,67466,67483,67499,67516,67533,67550,67566,67583,67599,67616,67633,67649,67666,67683,67699,67716,67732,67749,67766,67782,67799,67816,67832,67849,67866,67882,67899,67916,67932,67949,67965,67981,67998,68014,68031,68048,68065,68082,68098,68114,68131,68148,68164,68181,68198,68214,68231,68248,68264,68280,68297,68314,68331,68347,68364,68381,68398,68414,68430,68447,68464,68481,68497,68514,68530,68547,68564,68580,68597,68613,68630,68646,68663,68680,68697,68713,68730,68747,68764,68780,68797,68813,68830,68847,68863,68880,68897,68913,68930,68947,68964,68979,68996,69013,69030,69046,69063,69080,69096,69113,69129,69146,69163,69180,69196,69213,69229,69246,69263,69279,69296,69312,69329,69345,69362,69379,69396,69412,69429,69445,69462,69479,69495,69512,69528,69545,69562,69579,69595,69612,69628,69645,69662,69678,69695,69712,69728,69745,69761,69778,69795,69812,69828,69845,69861,69878,69895,69911,69928,69945,69961,69978,69994,70011,70028,70044,70061,70078,70094,70111,70128,70144,70161,70177,70193,70210,70227,70244,70260,70277,70294,70310,70327,70343,70360,70376,70393,70410,70427,70443,70460,70477,70493,70510,70526,70543,70560,70576,70593,70610,70626,70643,70660,70676,70693,70709,70726,70743,70759,70776,70793,70809,70826,70843,70859,70876,70892,70909,70926,70943,70959,70976,70993,71008,71026,71042,71059,71075,71092,71109,71125,71142,71159,71175,71192,71208,71225,71241,71258,71275,71291,71308,71325,71341,71358,71375,71391,71408,71424,71441,71457,71474,71491,71508,71524,71541,71557,71574,71591,71607,71624,71641,71657,71674,71691,71707,71724,71741,71757,71774,71791,71807,71824,71841,71857,71874,71890,71907,71924,71940,71957,71974,71990,72006,72023,72040,72056,72073,72090,72106,72123,72140,72156,72173,72190,72206,72223,72239,72256,72273,72289,72306,72323,72339,72356,72373,72389,72406,72423,72439,72455,72472,72489,72505,72522,72538,72555,72572,72589,72606,72622,72639,72655,72672,72689,72705,72722,72739,72755,72772,72789,72805,72822,72838,72855,72872,72888,72904,72921,72938,72955,72971,72988,73005,73021,73038,73054,73071,73088,73105,73121,73137,73154,73171,73188,73204,73221,73237,73254,73271,73287,73304,73321,73337,73354,73370,73387,73404,73420,73437,73454,73470,73487,73503,73520,73537,73553,73570,73586,73603,73620,73637,73653,73670,73686,73703,73720,73736,73753,73770,73786,73803,73820,73836,73853,73870,73886,73903,73920,73936,73953,73969,73986,74002,74019,74036,74052,74069,74086,74102,74119,74135,74152,74168,74185,74202,74218,74235,74252,74268,74285,74302,74318,74335,74352,74368,74385,74402,74418,74435,74451,74468,74485,74501,74518,74535,74551,74568,74584,74601,74618,74634,74651,74667,74684,74701,74717,74734,74751,74767,74784,74801,74817,74834,74851,74867,74884,74900,74917,74934,74950,74967,74983,75000,75017,75033,75050,75067,75083,75100,75117,75133,75150,75167,75183,75200,75217,75233,75250,75266,75283,75300,75316,75333,75350,75366,75383,75400,75416,75433,75450,75466,75483,75499,75516,75532,75549,75565,75582,75599,75615,75632,75649,75666,75682,75698,75715,75732,75749,75765,75782,75799,75815,75832,75849,75865,75882,75898,75915,75932,75948,75965,75982,75998,76015,76031,76048,76065,76081,76098,76115,76131,76148,76164,76181,76198,76214,76231,76248,76264,76281,76298,76314,76331,76348,76364,76381,76397,76414,76431,76447,76464,76480,76497,76513,76530,76547,76564,76580,76597,76613,76630,76647,76663,76680,76696,76713,76730,76746,76762,76779,76796,76813,76830,76846,76863,76880,76896,76913,76930,76946,76962,76979,76996,77013,77029,77046,77062,77079,77096,77112,77129,77146,77162,77179,77196,77212,77229,77246,77262,77279,77295,77312,77329,77345,77362,77379,77395,77412,77428,77445,77462,77478,77495,77512,77528,77545,77562,77578,77595,77611,77628,77644,77661,77678,77695,77711,77728,77744,77761,77778,77794,77810,77827,77844,77861,77877,77894,77911,77927,77944,77961,77977,77994,78010,78027,78044,78060,78077,78094,78110,78127,78143,78160,78177,78193,78210,78227,78243,78260,78277,78293,78310,78326,78343,78360,78376,78393,78410,78426,78443,78460,78476,78493,78509,78526,78543,78559,78576,78593,78609,78626,78642,78659,78676,78693,78709,78726,78742,78759,78776,78792,78809,78825,78842,78859,78875,78892,78908,78925,78942,78958,78975,78992,79008,79025,79042,79058,79075,79092,79108,79125,79142,79158,79175,79192,79208,79224,79241,79258,79275,79291,79308,79324,79341,79358,79375,79391,79408,79424,79441,79458,79474,79491,79507,79524,79541,79557,79573,79591,79607,79624,79641,79657,79673,79690,79707,79723,79740,79757,79773,79790,79807,79823,79840,79857,79873,79890,79906,79923,79939,79956,79973,79990,80006,80023,80040,80056,80073,80089,80106,80123,80139,80156,80172,80189,80206,80222,80239,80256,80272,80289,80306,80322,80339,80356,80372,80389,80405,80422,80439,80455,80472,80489,80505,80522,80538,80555,80572,80588,80605,80622,80638,80655,80672,80688,80705,80721,80738,80755,80771,80788,80804,80821,80838,80855,80871,80888,80905,80921,80938,80954,80971,80987,81004,81020,81038,81054,81070,81087,81104,81121,81137,81154,81170,81187,81204,81220,81237,81254,81270,81288,81303,81320,81337,81354,81370,81387,81403,81420,81437,81453,81470,81486,81503,81520,81536,81553,81569,81586,81603,81620,81636,81653,81669,81686,81702,81719,81736,81752,81769,81786,81803,81819,81836,81852,81869,81886,81902,81919,81936,81952,81969,81985,82002,82019,82035,82052,82068,82085,82102,82119,82135,82152,82169,82185,82202,82219,82236,82251,82268,82285,82301,82318,82335,82351,82368,82384,82401,82417,82434,82451,82468,82484,82501,82518,82534,82551,82570,82584,82601,82617,82634,82651,82667,82684,82700,82717,82734,82750,82767,82784,82800,82817,82834,82850,82867,82883,82900,82917,82933,82950,82967,82983,83000,83017,83033,83050,83067,83083,83099,83116,83133,83149,83166,83183,83199,83216,83233,83249,83266,83283,83300,83316,83333,83349,83366,83386,83399,83416,83432,83449,83466,83482,83499,83516,83532,83549,83565,83582,83599,83615,83632,83649,83665,83682,83698,83715,83731,83748,83764,83781,83798,83815,83832,83848,83865,83881,83898,83915,83931,83948,83964,83981,83998,84014,84030,84048,84064,84081,84098,84114,84131,84147,84164,84180,84197,84214,84230,84248,84264,84281,84297,84314,84331,84347,84364,84380,84397,84414,84430,84447,84464,84480,84497,84513,84530,84547,84563,84580,84597,84613,84630,84647,84663,84680,84697,84713,84730,84746,84763,84780,84796,84813,84830,84846,84863,84879,84896,84913,84929,84946,84963,84979,84995,85012,85029,85046,85062,85079,85095,85111,85128,85145,85162,85178,85195,85212,85229,85245,85261,85278,85295,85312,85328,85345,85361,85378,85395,85412,85428,85445,85462,85478,85495,85511,85528,85545,85561,85578,85594,85611,85628,85645,85661,85678,85694,85711,85728,85744,85761,85777,85794,85811,85827,85844,85861,85877,85894,85910,85927,85944,85960,85977,85993,86010,86027,86043,86060,86077,86093,86110,86127,86143,86160,86177,86193,86210,86227,86243,86260,86276,86293,86309,86326,86343,86359,86376,86393,86409,86426,86442,86459,86476,86492,86509,86526,86542,86559,86576,86592,86609,86627,86642,86658,86676,86692,86709,86725,86742,86759,86775,86792,86809,86825,86842,86858,86875,86892,86908,86924,86942,86958,86975,86991,87008,87025,87041,87058,87075,87091,87108,87125,87141,87158,87175,87191,87208,87224,87241,87258,87275,87291,87308,87324,87341,87357,87374,87390,87407,87423,87441,87457,87474,87490,87507,87524,87540,87557,87574,87590,87607,87623,87640,87657,87673,87690,87707,87723,87740,87756,87773,87790,87806,87822,87840,87856,87873,87889,87906,87923,87939,87956,87972,87989,88006,88022,88039,88056,88072,88089,88106,88122,88139,88156,88172,88189,88205,88222,88239,88255,88272,88289,88305,88322,88339,88355,88372,88388,88405,88422,88438,88454,88472,88488,88505,88521,88538,88555,88571,88588,88605,88621,88638,88655,88671,88688,88705,88721,88738,88754,88771,88788,88804,88821,88838,88854,88871,88887,88904,88921,88937,88954,88971,88987,89004,89021,89037,89054,89071,89087,89103,89120,89137,89155,89170,89186,89203,89219,89236,89253,89270,89287,89304,89320,89337,89353,89370,89386,89403,89420,89436,89453,89470,89486,89502,89519,89536,89553,89569,89586,89602,89619,89636,89653,89669,89686,89702,89719,89736,89752,89769,89785,89802,89819,89835,89852,89869,89885,89902,89918,89935,89952,89968,89985,90001,90018,90035,90052,90068,90085,90101,90118,90135,90151,90168,90185,90201,90218,90234,90251,90268,90284,90301,90318,90334,90351,90367,90384,90401,90417,90434,90451,90467,90484,90501,90517,90534,90550,90566,90583,90600,90617,90634,90650,90667,90683,90700,90717,90734,90750,90767,90783,90800,90817,90834,90850,90867,90883,90900,90917,90933,90950,90966,90983,91000,91016,91033,91050,91066,91083,91099,91116,91133,91149,91166,91182,91199,91216,91232,91249,91266,91282,91299,91316,91332,91349,91366,91382,91399,91415,91432,91449,91465,91482,91499,91515,91532,91549,91565,91582,91598,91615,91631,91648,91664,91681,91698,91715,91731,91748,91765,91781,91798,91815,91831,91847,91865,91881,91898,91913,91930,91947,91964,91981,91997,92014,92030,92047,92064,92081,92097,92114,92130,92147,92163,92180,92197,92213,92230,92247,92263,92280,92297,92313,92330,92347,92363,92380,92396,92413,92430,92446,92463,92480,92496,92513,92529,92546,92563,92580,92596,92613,92629,92646,92663,92679,92696,92712,92729,92746,92762,92779,92795,92812,92829,92846,92862,92879,92895,92912,92929,92945,92962,92979,92995,93012,93029,93045,93062,93078,93095,93112,93128,93145,93161,93178,93195,93211,93228,93245,93261,93278,93294,93311,93328,93344,93361,93378,93394,93411,93428,93444,93461,93477,93494,93511,93528,93544,93561,93578,93594,93611,93627,93644,93661,93677,93694,93710,93727,93744,93760,93776,93793,93810,93827,93843,93860,93876,93893,93910,93927,93943,93960,93976,93993,94010,94026,94043,94059,94076,94093,94109,94126,94143,94159,94176,94193,94209,94226,94243,94259,94276,94292,94309,94326,94342,94359,94376,94392,94409,94426,94442,94459,94475,94492,94509,94525,94542,94559,94575,94592,94609,94625,94642,94658,94675,94691,94708,94725,94742,94758,94775,94791,94808,94824,94841,94858,94874,94891,94908,94924,94941,94958,94974,94991,95008,95024,95041,95058,95074,95091,95107,95124,95141,95157,95174,95191,95207,95224,95240,95257,95273,95290,95307,95324,95340,95357,95374,95390,95407,95423,95440,95457,95473,95490,95507,95523,95540,95556,95573,95590,95606,95623,95640,95656,95673,95689,95706,95723,95739,95756,95773,95790,95806,95823,95839,95856,95872,95888,95905,95922,95939,95955,95972,95988,96005,96022,96039,96056,96072,96088,96105,96122,96138,96155,96172,96188,96204,96221,96238,96254,96271,96287,96304,96321,96337,96354,96371,96388,96405,96421,96438,96455,96471,96488,96505,96521,96538,96554,96571,96588,96604,96621,96637,96654,96671,96687,96704,96721,96737,96754,96771,96787,96804,96821,96837,96853,96870,96887,96904,96920,96936,96953,96970,96987,97004,97020,97037,97053,97070,97087,97103,97120,97137,97153,97170,97186,97203,97220,97236,97253,97270,97286,97303,97320,97336,97353,97370,97386,97402,97419,97435,97452,97469,97486,97503,97519,97536,97552,97569,97586,97602,97619,97636,97652,97669,97685,97702,97719,97735,97752,97769,97785,97802,97818,97835,97852,97868,97885,97902,97918,97935,97951,97968,97985,98001,98018,98034,98051,98068,98084,98101,98118,98134,98151,98168,98184,98201,98217,98234,98251,98267,98284,98301,98317,98334,98351,98367,98384,98400,98417,98434,98450,98467,98483,98500,98517,98533,98550,98567,98583,98600,98617,98634,98650,98667,98683,98700,98718,98733,98749,98766,98783,98799,98816,98833,98849,98866,98882,98899,98915,98932,98949,98965,98982,98998,99015,99032,99049,99065,99082,99098,99116,99131,99148,99165,99182,99198,99215,99232,99248,99265,99282,99298,99315,99331,99348,99364,99381,99398,99414,99431,99448,99464,99481,99498,99514,99531,99548,99565,99581,99598,99615,99631,99647,99665,99681,99698,99714,99731,99748,99764,99781,99798,99814,99831,99848,99864,99881,99897,99914,99930,99947,99964,99980,99997,100014,100031,100047,100064,100080,100096,100113,100130,100146,100163,100180,100197,100213,100230,100247,100263,100280,100296,100313,100330,100346,100363,100380,100396,100413,100429,100446,100463,100479,100496,100513,100529,100546,100562,100579,100596,100612,100629,100646,100662,100679,100695,100712,100729,100745,100762,100779,100795,100812,100829,100845,100862,100878,100895,100912,100928,100945,100961,100978,100995,101011,101028,101045,101061,101078,101095,101111,101128,101145,101161,101178,101194,101211,101228,101244,101261,101278,101294,101311,101327,101344,101361,101377,101394,101411,101427,101443,101461,101477,101494,101510,101527,101544,101560,101576,101593,101610,101627,101643,101660,101676,101693,101710,101727,101743,101760,101777,101793,101810,101826,101843,101860,101876,101893,101910,101926,101943,101959,101976,101992,102009,102026,102043,102059,102076,102093,102109,102126,102143,102159,102176,102192,102209,102225,102242,102258,102275,102292,102309,102326,102342,102359,102376,102392,102409,102426,102441,102459,102475,102491,102508,102525,102542,102558,102575,102592,102608,102625,102642,102658,102675,102691,102708,102725,102741,102758,102774,102791,102808,102824,102841,102858,102874,102891,102908,102924,102941,102958,102974,102991,103007,103024,103041,103057,103074,103090,103107,103124,103141,103157,103174,103190,103207,103224,103240,103257,103273,103289,103306,103323,103340,103356,103373,103390,103407,103423,103440,103456,103473,103490,103506,103523,103539,103556,103573,103589,103606,103623,103639,103655,103673,103689,103706,103722,103739,103756,103772,103789,103805,103822,103839,103856,103872,103889,103906,103922,103939,103955,103972,103989,104006,104022,104038,104055,104071,104088,104105,104122,104139,104155,104172,104188,104205,104222,104239,104254,104271,104288,104305,104321,104338,104354,104371,104387,104404,104421,104438,104454,104471,104488,104504,104521,104538,104554,104571,104588,104604,104621,104637,104654,104671,104688,104704,104721,104737,104754,104770,104787,104804,104820,104837,104853,104870,104887,104903,104920,104937,104953,104970,104986,105003,105020,105037,105053,105070,105086,105103,105120,105136,105153,105169,105186,105203,105219,105236,105252,105270,105286,105303,105319,105336,105352,105368,105385,105402,105419,105435,105451,105468,105485,105502,105519,105535,105552,105569,105585,105602,105618,105635,105652,105669,105685,105702,105718,105735,105751,105768,105785,105801,105818,105835,105851,105868,105884,105901,105918,105935,105952,105968,105984,106000,106017,106034,106051,106067,106084,106101,106118,106134,106151,106168,106184,106200,106217,106234,106251,106267,106284,106301,106317,106334,106350,106367,106384,106400,106417,106434,106450,106466,106483,106500,106516,106534,106550,106567,106583,106600,106616,106633,106650,106667,106683,106700,106716,106733,106750,106766,106783,106800,106816,106833,106849,106866,106883,106899,106916,106933,106949,106966,106982,106999,107016,107033,107049,107066,107082,107099,107115,107132,107149,107165,107182,107199,107215,107232,107248,107265,107282,107299,107315,107332,107348,107365,107381,107398,107414,107431,107448,107465,107481,107498,107515,107531,107547,107564,107581,107598,107615,107631,107647,107663,107680,107696,107713,107730,107746,107763,107780,107797,107813,107829,107846,107863,107879,107896,107914],"hit":[null],"x":[-2.693877551020408,-2.693877551020408,-2.693877551020408,0.047619047619047616,0.05782312925170068,0.07142857142857142,0.08503401360544217,0.10884353741496598,0.13945578231292516,0.1564625850340136,0.16666666666666666,0.16666666666666666,0.16666666666666666,0.14285714285714285,0.08843537414965986,0.034013605442176874,-0.06802721088435375,-0.1598639455782313,-0.2925170068027211,-0.46258503401360546,-0.5476190476190477,-0.6020408163265306,-0.6258503401360545,-0.6394557823129252,-0.6394557823129252,-0.6292517006802721,-0.5884353741496599,-0.564625850340136,-0.5544217687074829,-0.5510204081632653,-0.5510204081632653,-0.5510204081632653,-0.564625850340136,-0.6020408163265306,-0.6360544217687075,-0.7108843537414966,-0.7687074829931972,-0.7857142857142857,-0.8061224489795918,-0.8809523809523809,-0.9387755102040817,-1,-1.1020408163265305,-1.2006802721088434,-1.2346938775510203,-1.2653061224489797,-1.2789115646258504,-1.282312925170068,-1.282312925170068,-1.2551020408163265,-1.2142857142857142,-1.1734693877551021,-1.1122448979591837,-1.034013605442177,-1,-0.9897959183673469,-0.9795918367346939,-0.9489795918367347,-0.9285714285714286,-0.8945578231292517,-0.8367346938775511,-0.7721088435374149,-0.7210884353741497,-0.6870748299319728,-0.6258503401360545,-0.5544217687074829,-0.46258503401360546,-0.35034013605442177,-0.282312925170068,-0.08503401360544217,-0.023809523809523808,0.0782312925170068,0.14285714285714285,0.20408163265306123,0.3401360544217687,0.38095238095238093,0.4489795918367347,0.5068027210884354,0.5782312925170068,0.6394557823129252,0.7006802721088435,0.7380952380952381,0.7857142857142857,0.8367346938775511,0.8605442176870748,0.8639455782312925,0.8673469387755102,0.891156462585034,0.9047619047619048,0.9251700680272109,0.9421768707482994,0.9659863945578231,0.9693877551020408,0.9693877551020408,0.95578231292517,0.8843537414965986,0.7925170068027211,0.7040816326530612,0.6530612244897959,0.5952380952380952,0.5816326530612245,0.5816326530612245,0.5782312925170068,0.5782312925170068,0.5782312925170068,0.5782312925170068,0.5782312925170068,0.5782312925170068,0.5918367346938775,0.5952380952380952,0.5952380952380952,0.5952380952380952,0.5952380952380952,0.5952380952380952,0.5850340136054422,0.5612244897959183,0.5204081632653061,0.4523809523809524,0.37755102040816324,0.30952380952380953,0.2687074829931973,0.22789115646258504,0.22108843537414966,0.20748299319727892,0.1836734693877551,0.11904761904761904,0.06802721088435375,0.03741496598639456,0.01020408163265306,0,-0.013605442176870748,-0.027210884353741496,-0.05102040816326531,-0.0782312925170068,-0.12244897959183673,-0.14965986394557823,-0.17346938775510204,-0.20068027210884354,-0.29931972789115646,-0.3673469387755102,-0.46598639455782315,-0.5816326530612245,-0.6598639455782312,-0.7142857142857143,-0.7517006802721088,-0.7959183673469388,-0.8231292517006803,-0.826530612244898,-0.826530612244898,-0.826530612244898,-0.826530612244898,-0.826530612244898,-0.8299319727891157,-0.8299319727891157,-0.8299319727891157,-0.8333333333333334,-0.8333333333333334,-0.8333333333333334,-0.8333333333333334,-0.8333333333333334,-0.8333333333333334,-0.8333333333333334,-0.8333333333333334,-0.8333333333333334,-0.8333333333333334,-0.8333333333333334,-0.8333333333333334,-0.8333333333333334,-0.8333333333333334,-0.8333333333333334,-0.8333333333333334,-0.8333333333333334,-0.8333333333333334,-0.8333333333333334,-0.8333333333333334,-0.8333333333333334,-0.826530612244898,-0.8163265306122449,-0.8129251700680272,-0.8129251700680272,-0.8129251700680272,-0.8129251700680272,-0.8129251700680272,-0.8129251700680272,-0.8095238095238095,-0.7755102040816326,-0.7551020408163265,-0.7278911564625851,-0.6598639455782312,-0.5476190476190477,-0.4387755102040816,-0.272108843537415,-0.05442176870748299,0.09183673469387756,0.20748299319727892,0.272108843537415,0.336734693877551,0.3945578231292517,0.40816326530612246,0.40816326530612246,0.40816326530612246,0.40816326530612246,0.4013605442176871,0.391156462585034,0.37755102040816324,0.35034013605442177,0.3333333333333333,0.32653061224489793,0.30612244897959184,0.272108843537415,0.25170068027210885,0.22789115646258504,0.20748299319727892,0.18027210884353742,0.1598639455782313,0.1598639455782313,0.1598639455782313,0.16666666666666666,0.22108843537414966,0.3333333333333333,0.4013605442176871,0.445578231292517,0.4931972789115646,0.5952380952380952,0.608843537414966,0.6122448979591837,0.6122448979591837,0.6122448979591837,0.6122448979591837,0.6190476190476191,0.6190476190476191,0.6190476190476191,0.6190476190476191,0.6190476190476191,0.6190476190476191,0.6190476190476191,0.6190476190476191,0.6190476190476191,0.6122448979591837,0.5952380952380952,0.5884353741496599,0.5850340136054422,0.5850340136054422,0.5850340136054422,0.5850340136054422,0.5884353741496599,0.6054421768707483,0.6258503401360545,0.6632653061224489,0.7006802721088435,0.7244897959183674,0.7380952380952381,0.7619047619047619,0.7687074829931972,0.7721088435374149,0.7789115646258503,0.782312925170068,0.782312925170068,0.7857142857142857,0.7857142857142857,0.7857142857142857,0.782312925170068,0.7789115646258503,0.7721088435374149,0.7517006802721088,0.7244897959183674,0.6836734693877551,0.6564625850340136,0.6292517006802721,0.6020408163265306,0.5748299319727891,0.5714285714285714,0.5680272108843537,0.5680272108843537,0.5680272108843537,0.5680272108843537,0.5680272108843537,0.5680272108843537,0.5680272108843537,0.5680272108843537,0.5680272108843537,0.5680272108843537,0.5680272108843537,0.5680272108843537,0.5680272108843537,0.5680272108843537,0.5680272108843537,0.5680272108843537,0.5680272108843537,0.5680272108843537,0.5680272108843537,0.5680272108843537,0.5680272108843537,0.5680272108843537,0.5680272108843537,0.5680272108843537,0.5680272108843537,0.5680272108843537,0.5680272108843537,0.5680272108843537,0.5680272108843537,0.5680272108843537,0.5680272108843537,0.5680272108843537,0.5680272108843537,0.5680272108843537,0.5680272108843537,0.5680272108843537,0.5680272108843537,0.5680272108843537,0.5680272108843537,0.5680272108843537,0.5680272108843537,0.5680272108843537,0.5680272108843537,0.5680272108843537,0.5680272108843537,0.5680272108843537,0.5680272108843537,0.5680272108843537,0.5680272108843537,0.5680272108843537,0.5680272108843537,0.5680272108843537,0.5680272108843537,0.5680272108843537,0.5680272108843537,0.5680272108843537,0.5680272108843537,0.5680272108843537,0.5680272108843537,0.5680272108843537,0.5680272108843537,0.5680272108843537,0.5544217687074829,0.54421768707483,0.5,0.41836734693877553,0.3707482993197279,0.3299319727891156,0.3231292517006803,0.3197278911564626,0.3197278911564626,0.3197278911564626,0.3197278911564626,0.3197278911564626,0.3197278911564626,0.3197278911564626,0.3197278911564626,0.3163265306122449,0.3163265306122449,0.3163265306122449,0.3163265306122449,0.3163265306122449,0.3163265306122449,0.3163265306122449,0.3163265306122449,0.3163265306122449,0.3163265306122449,0.3197278911564626,0.3469387755102041,0.35714285714285715,0.3741496598639456,0.4013605442176871,0.41156462585034015,0.42517006802721086,0.43197278911564624,0.4421768707482993,0.4421768707482993,0.445578231292517,0.445578231292517,0.445578231292517,0.445578231292517,0.445578231292517,0.445578231292517,0.445578231292517,0.4557823129251701,0.4897959183673469,0.5272108843537415,0.5612244897959183,0.5952380952380952,0.6326530612244898,0.6360544217687075,0.6360544217687075,0.6428571428571429,0.6462585034013606,0.6462585034013606,0.6462585034013606,0.6462585034013606,0.6462585034013606,0.6462585034013606,0.6462585034013606,0.6462585034013606,0.6462585034013606,0.6462585034013606,0.6428571428571429,0.6428571428571429,0.6428571428571429,0.6462585034013606,0.6632653061224489,0.6870748299319728,0.7108843537414966,0.7278911564625851,0.7346938775510204,0.7414965986394558,0.7448979591836735,0.7448979591836735,0.7482993197278912,0.7482993197278912,0.7482993197278912,0.7482993197278912,0.7482993197278912,0.7482993197278912,0.7482993197278912,0.7482993197278912,0.7482993197278912,0.7482993197278912,0.7482993197278912,0.7585034013605442,0.7789115646258503,0.8061224489795918,0.8197278911564626,0.8435374149659864,0.8537414965986394,0.8639455782312925,0.8707482993197279,0.8707482993197279,0.8809523809523809,0.8843537414965986,0.8843537414965986,0.8843537414965986,0.8843537414965986,0.8843537414965986,0.8843537414965986,0.8843537414965986,0.8843537414965986,0.8843537414965986,0.8843537414965986,0.8877551020408163,0.891156462585034,0.9081632653061225,0.9115646258503401,0.9217687074829932,0.9421768707482994,0.9591836734693877,0.9659863945578231,0.9659863945578231,0.9489795918367347,0.8707482993197279,0.7653061224489796,0.6768707482993197,0.5272108843537415,0.32653061224489793,0.19727891156462585,0.09863945578231292,0.05102040816326531,0.003401360544217687,-0.006802721088435374,-0.006802721088435374,-0.006802721088435374,0.006802721088435374,0.05102040816326531,0.12585034013605442,0.20408163265306123,0.29931972789115646,0.35714285714285715,0.3945578231292517,0.40816326530612246,0.41156462585034015,0.41496598639455784,0.42517006802721086,0.43537414965986393,0.43537414965986393,0.43537414965986393,0.38095238095238093,0.3197278911564626,0.25510204081632654,0.20408163265306123,0.10204081632653061,0.09183673469387756,0.08843537414965986,0.08843537414965986,0.12585034013605442,0.1870748299319728,0.22108843537414966,0.3163265306122449,0.47278911564625853,0.5680272108843537,0.6530612244897959,0.6904761904761905,0.7244897959183674,0.7448979591836735,0.7551020408163265,0.7585034013605442,0.7653061224489796,0.7755102040816326,0.7755102040816326,0.7755102040816326,0.7755102040816326,0.7755102040816326,0.7653061224489796,0.7448979591836735,0.6836734693877551,0.5782312925170068,0.46938775510204084,0.3741496598639456,0.3129251700680272,0.24489795918367346,0.22448979591836735,0.21768707482993196,0.21768707482993196,0.20408163265306123,0.18027210884353742,0.17346938775510204,0.1564625850340136,0.12585034013605442,0.10204081632653061,0.08843537414965986,0.07482993197278912,0.061224489795918366,0.05782312925170068,0.05782312925170068,0.05782312925170068,0.05442176870748299,0.05102040816326531,0.05102040816326531,0.05102040816326531,0.05102040816326531,0.047619047619047616,0.04421768707482993,0.04081632653061224,0.034013605442176874,0.030612244897959183,0.02040816326530612,0.01020408163265306,0,0,-0.006802721088435374,-0.01020408163265306,-0.01020408163265306,-0.01020408163265306,-0.01020408163265306,-0.01020408163265306,-0.01020408163265306,-0.01020408163265306,-0.01020408163265306,-0.01020408163265306,-0.01020408163265306,0,0.003401360544217687,0.003401360544217687,0.003401360544217687,0.01020408163265306,0.01020408163265306,0.01020408163265306,0.01020408163265306,0.01020408163265306,0.006802721088435374,0,-0.006802721088435374,-0.013605442176870748,-0.017006802721088437,-0.02040816326530612,-0.02040816326530612,-0.02040816326530612,-0.023809523809523808,-0.027210884353741496,-0.030612244897959183,-0.030612244897959183,-0.030612244897959183,-0.023809523809523808,0.013605442176870748,0.05102040816326531,0.09523809523809523,0.11904761904761904,0.2108843537414966,0.24149659863945577,0.2687074829931973,0.282312925170068,0.2891156462585034,0.29931972789115646,0.30612244897959184,0.3129251700680272,0.32653061224489793,0.36394557823129253,0.391156462585034,0.42517006802721086,0.4489795918367347,0.46598639455782315,0.4965986394557823,0.5204081632653061,0.5340136054421769,0.5408163265306123,0.5578231292517006,0.5612244897959183,0.5612244897959183,0.5578231292517006,0.5510204081632653,0.54421768707483,0.54421768707483,0.54421768707483,0.54421768707483,0.54421768707483,0.54421768707483,0.54421768707483,0.54421768707483,0.5476190476190477,0.5612244897959183,0.5714285714285714,0.5884353741496599,0.6360544217687075,0.6530612244897959,0.6904761904761905,0.7380952380952381,0.7755102040816326,0.8163265306122449,0.8299319727891157,0.8367346938775511,0.8367346938775511,0.8367346938775511,0.8367346938775511,0.8197278911564626,0.782312925170068,0.6904761904761905,0.608843537414966,0.5612244897959183,0.5374149659863946,0.5374149659863946,0.5374149659863946,0.5374149659863946,0.5374149659863946,0.5374149659863946,0.5374149659863946,0.5374149659863946,0.5374149659863946,0.5374149659863946,0.5374149659863946,0.5102040816326531,0.5034013605442177,0.5034013605442177,0.5034013605442177,0.5034013605442177,0.5068027210884354,0.5136054421768708,0.5306122448979592,0.5340136054421769,0.5374149659863946,0.5408163265306123,0.54421768707483,0.54421768707483,0.54421768707483,0.54421768707483,0.54421768707483,0.54421768707483,0.5408163265306123,0.5340136054421769,0.5306122448979592,0.5102040816326531,0.5068027210884354,0.5068027210884354,0.5068027210884354,0.5034013605442177,0.5034013605442177,0.5034013605442177,0.5034013605442177,0.5102040816326531,0.5238095238095238,0.5340136054421769,0.5544217687074829,0.5952380952380952,0.6258503401360545,0.6394557823129252,0.6496598639455783,0.6938775510204082,0.7142857142857143,0.7517006802721088,0.8027210884353742,0.8333333333333334,0.8469387755102041,0.8469387755102041,0.8469387755102041,0.8469387755102041,0.8469387755102041,0.8435374149659864,0.8367346938775511,0.8231292517006803,0.8231292517006803,0.8231292517006803,0.8231292517006803,0.8231292517006803,0.8299319727891157,0.8367346938775511,0.8435374149659864,0.8639455782312925,0.9115646258503401,0.9387755102040817,0.9693877551020408,1.0034013605442176,1.054421768707483,1.0782312925170068,1.1020408163265305,1.1122448979591837,1.119047619047619,1.119047619047619,1.119047619047619,1.119047619047619,1.119047619047619,1.1054421768707483,1.0952380952380953,1.0748299319727892,1.064625850340136,1.0442176870748299,1.034013605442177,1.0238095238095237,0.9965986394557823,0.9523809523809523,0.9047619047619048,0.8571428571428571,0.826530612244898,0.7857142857142857,0.7278911564625851,0.6870748299319728,0.6564625850340136,0.5952380952380952,0.5510204081632653,0.5102040816326531,0.4557823129251701,0.3979591836734694,0.36054421768707484,0.3231292517006803,0.29931972789115646,0.2653061224489796,0.22448979591836735,0.2108843537414966,0.20748299319727892,0.19727891156462585,0.19047619047619047,0.17687074829931973,0.17346938775510204,0.16666666666666666,0.1598639455782313,0.15306122448979592,0.15306122448979592,0.1564625850340136,0.17687074829931973,0.20408163265306123,0.22789115646258504,0.24829931972789115,0.2687074829931973,0.272108843537415,0.2755102040816326,0.2755102040816326,0.2755102040816326,0.2755102040816326,0.2755102040816326,0.2755102040816326,0.2755102040816326,0.2755102040816326,0.2789115646258503,0.2789115646258503,0.2857142857142857,0.2891156462585034,0.29931972789115646,0.30272108843537415,0.30612244897959184,0.30952380952380953,0.3129251700680272,0.3129251700680272,0.3129251700680272,0.3129251700680272,0.3129251700680272,0.3129251700680272,0.3129251700680272,0.3129251700680272,0.3129251700680272,0.3129251700680272,0.3129251700680272,0.30952380952380953,0.30952380952380953,0.30952380952380953,0.30952380952380953,0.30952380952380953,0.30952380952380953,0.30952380952380953,0.30952380952380953,0.30612244897959184,0.30612244897959184,0.30612244897959184,0.30612244897959184,0.30612244897959184,0.30612244897959184,0.29931972789115646,0.29931972789115646,0.29931972789115646,0.29591836734693877,0.29591836734693877,0.29591836734693877,0.29591836734693877,0.29591836734693877,0.29591836734693877,0.29591836734693877,0.29591836734693877,0.29591836734693877,0.29591836734693877,0.29591836734693877,0.29591836734693877,0.29591836734693877,0.29591836734693877,0.29591836734693877,0.29591836734693877,0.29591836734693877,0.29591836734693877,0.29591836734693877,0.29591836734693877,0.29591836734693877,0.29591836734693877,0.29591836734693877,0.29591836734693877,0.2925170068027211,0.2891156462585034,0.2857142857142857,0.2857142857142857,0.282312925170068,0.2789115646258503,0.2755102040816326,0.272108843537415,0.2687074829931973,0.2653061224489796,0.2619047619047619,0.2619047619047619,0.2619047619047619,0.2619047619047619,0.2619047619047619,0.2619047619047619,0.2619047619047619,0.2619047619047619,0.2619047619047619,0.2619047619047619,0.2619047619047619,0.2619047619047619,0.2619047619047619,0.2619047619047619,0.2619047619047619,0.2619047619047619,0.2619047619047619,0.2619047619047619,0.2619047619047619,0.2619047619047619,0.2619047619047619,0.2619047619047619,0.2619047619047619,0.2619047619047619,0.2619047619047619,0.2619047619047619,0.2619047619047619,0.2619047619047619,0.2619047619047619,0.2619047619047619,0.2619047619047619,0.2619047619047619,0.2619047619047619,0.2619047619047619,0.2619047619047619,0.2619047619047619,0.2619047619047619,0.2619047619047619,0.2619047619047619,0.2619047619047619,0.2619047619047619,0.2619047619047619,0.2619047619047619,0.2619047619047619,0.2619047619047619,0.2619047619047619,0.2619047619047619,0.2619047619047619,0.2619047619047619,0.2619047619047619,0.2619047619047619,0.2619047619047619,0.2619047619047619,0.2619047619047619,0.2619047619047619,0.2619047619047619,0.2619047619047619,0.2619047619047619,0.2619047619047619,0.2619047619047619,0.2619047619047619,0.2619047619047619,0.2585034013605442,0.2585034013605442,0.2585034013605442,0.2619047619047619,0.2755102040816326,0.2857142857142857,0.2925170068027211,0.29931972789115646,0.30952380952380953,0.30952380952380953,0.30952380952380953,0.30952380952380953,0.30952380952380953,0.30952380952380953,0.30952380952380953,0.30952380952380953,0.30952380952380953,0.30952380952380953,0.30952380952380953,0.30952380952380953,0.30952380952380953,0.30952380952380953,0.30952380952380953,0.30952380952380953,0.30952380952380953,0.30952380952380953,0.30952380952380953,0.30952380952380953,0.30952380952380953,0.30952380952380953,0.30952380952380953,0.30952380952380953,0.30952380952380953,0.30952380952380953,0.30952380952380953,0.30952380952380953,0.30952380952380953,0.30952380952380953,0.30952380952380953,0.30952380952380953,0.30952380952380953,0.30952380952380953,0.30952380952380953,0.30952380952380953,0.30952380952380953,0.30952380952380953,0.30952380952380953,0.30952380952380953,0.30952380952380953,0.30952380952380953,0.30952380952380953,0.30952380952380953,0.30952380952380953,0.30952380952380953,0.30952380952380953,0.30952380952380953,0.30952380952380953,0.30952380952380953,0.30952380952380953,0.30952380952380953,0.30952380952380953,0.30952380952380953,0.30952380952380953,0.30952380952380953,0.30952380952380953,0.30952380952380953,0.30952380952380953,0.30952380952380953,0.30952380952380953,0.2653061224489796,0.24149659863945577,0.23809523809523808,0.23469387755102042,0.23809523809523808,0.25170068027210885,0.2755102040816326,0.3469387755102041,0.3979591836734694,0.43197278911564624,0.4557823129251701,0.4931972789115646,0.5680272108843537,0.6292517006802721,0.7006802721088435,0.7482993197278912,0.8503401360544217,0.9897959183673469,1.0952380952380953,1.1700680272108843,1.2142857142857142,1.2755102040816326,1.2789115646258504,1.2789115646258504,1.2789115646258504,1.2755102040816326,1.217687074829932,1.1768707482993197,1.0408163265306123,0.8775510204081632,0.7925170068027211,0.7551020408163265,0.7482993197278912,0.7414965986394558,0.7414965986394558,0.7414965986394558,0.7414965986394558,0.7414965986394558,0.7380952380952381,0.7312925170068028,0.7040816326530612,0.6462585034013606,0.5816326530612245,0.5136054421768708,0.47619047619047616,0.42517006802721086,0.3741496598639456,0.3163265306122449,0.2653061224489796,0.22789115646258504,0.1292517006802721,0.09523809523809523,0.08163265306122448,0.0782312925170068,0.0782312925170068,0.0782312925170068,0.0782312925170068,0.0782312925170068,0.08843537414965986,0.1054421768707483,0.12244897959183673,0.15306122448979592,0.19387755102040816,0.23129251700680273,0.2755102040816326,0.30272108843537415,0.32653061224489793,0.3741496598639456,0.4489795918367347,0.5408163265306123,0.6224489795918368,0.7517006802721088,0.8095238095238095,0.8367346938775511,0.8571428571428571,0.8639455782312925,0.8639455782312925,0.8639455782312925,0.8639455782312925,0.8639455782312925,0.8639455782312925,0.8639455782312925,0.8503401360544217,0.8333333333333334,0.8095238095238095,0.7721088435374149,0.7585034013605442,0.7585034013605442,0.7517006802721088,0.7517006802721088,0.7517006802721088,0.7517006802721088,0.7517006802721088,0.7517006802721088,0.7517006802721088,0.7517006802721088,0.7517006802721088,0.7517006802721088,0.7517006802721088,0.7517006802721088,0.7517006802721088,0.7517006802721088,0.7517006802721088,0.7517006802721088,0.7517006802721088,0.7517006802721088,0.7517006802721088,0.7517006802721088,0.7517006802721088,0.7517006802721088,0.7517006802721088,0.7517006802721088,0.7517006802721088,0.7517006802721088,0.7517006802721088,0.7517006802721088,0.7517006802721088,0.7517006802721088,0.7517006802721088,0.7517006802721088,0.7517006802721088,0.7517006802721088,0.7517006802721088,0.7517006802721088,0.7517006802721088,0.7517006802721088,0.7517006802721088,0.7517006802721088,0.7517006802721088,0.7517006802721088,0.7517006802721088,0.7517006802721088,0.7448979591836735,0.7380952380952381,0.7278911564625851,0.6972789115646258,0.6700680272108843,0.6530612244897959,0.6122448979591837,0.5374149659863946,0.42857142857142855,0.2789115646258503,0.1598639455782313,0,-0.17346938775510204,-0.2585034013605442,-0.2755102040816326,-0.2789115646258503,-0.23469387755102042,-0.20748299319727892,-0.13945578231292516,-0.05782312925170068,0,0.09523809523809523,0.14965986394557823,0.23469387755102042,0.3163265306122449,0.3707482993197279,0.41836734693877553,0.445578231292517,0.47278911564625853,0.5068027210884354,0.5170068027210885,0.5238095238095238,0.5272108843537415,0.5272108843537415,0.5272108843537415,0.5272108843537415,0.5136054421768708,0.5034013605442177,0.4931972789115646,0.48639455782312924,0.48299319727891155,0.47278911564625853,0.47278911564625853,0.46938775510204084,0.46938775510204084,0.46938775510204084,0.46938775510204084,0.47959183673469385,0.5170068027210885,0.5544217687074829,0.673469387755102,0.7074829931972789,0.782312925170068,0.8537414965986394,0.9625850340136054,1.034013605442177,1.0680272108843538,1.0782312925170068,1.0850340136054422,1.0850340136054422,1.0850340136054422,1.0850340136054422,1.0850340136054422,1.0850340136054422,1.08843537414966,1.08843537414966,1.08843537414966,1.08843537414966,1.0850340136054422,1.0748299319727892,1.0272108843537415,0.9727891156462585,0.9149659863945578,0.8639455782312925,0.8231292517006803,0.7482993197278912,0.7142857142857143,0.7108843537414966,0.7074829931972789,0.7074829931972789,0.7040816326530612,0.6904761904761905,0.6802721088435374,0.6530612244897959,0.6156462585034014,0.5782312925170068,0.5272108843537415,0.45918367346938777,0.42857142857142855,0.4217687074829932,0.41836734693877553,0.41836734693877553,0.41836734693877553,0.41836734693877553,0.4217687074829932,0.43197278911564624,0.4421768707482993,0.4523809523809524,0.4557823129251701,0.4557823129251701,0.4557823129251701,0.4489795918367347,0.43537414965986393,0.41836734693877553,0.3945578231292517,0.3877551020408163,0.38095238095238093,0.3707482993197279,0.3469387755102041,0.30952380952380953,0.2891156462585034,0.272108843537415,0.2653061224489796,0.2653061224489796,0.2619047619047619,0.2619047619047619,0.2619047619047619,0.2619047619047619,0.2619047619047619,0.2687074829931973,0.30272108843537415,0.3673469387755102,0.3979591836734694,0.42517006802721086,0.42857142857142855,0.42857142857142855,0.41156462585034015,0.37755102040816324,0.35714285714285715,0.336734693877551,0.30952380952380953,0.30272108843537415,0.29591836734693877,0.2857142857142857,0.2755102040816326,0.2619047619047619,0.2585034013605442,0.25170068027210885,0.25170068027210885,0.25170068027210885,0.25170068027210885,0.272108843537415,0.30612244897959184,0.36394557823129253,0.40476190476190477,0.43197278911564624,0.4489795918367347,0.46938775510204084,0.47278911564625853,0.47278911564625853,0.47278911564625853,0.47278911564625853,0.47278911564625853,0.47278911564625853,0.47278911564625853,0.47278911564625853,0.47278911564625853,0.47278911564625853,0.47278911564625853,0.47278911564625853,0.47278911564625853,0.47278911564625853,0.47278911564625853,0.47278911564625853,0.47278911564625853,0.46938775510204084,0.46598639455782315,0.45918367346938777,0.4557823129251701,0.4523809523809524,0.4489795918367347,0.4489795918367347,0.4489795918367347,0.4421768707482993,0.43537414965986393,0.42857142857142855,0.42517006802721086,0.41496598639455784,0.41496598639455784,0.41496598639455784,0.41496598639455784,0.41496598639455784,0.41496598639455784,0.41496598639455784,0.41496598639455784,0.41496598639455784,0.41496598639455784,0.41496598639455784,0.41496598639455784,0.41156462585034015,0.41156462585034015,0.41156462585034015,0.41156462585034015,0.41156462585034015,0.41156462585034015,0.41156462585034015,0.41156462585034015,0.41156462585034015,0.41156462585034015,0.41156462585034015,0.41156462585034015,0.41156462585034015,0.41156462585034015,0.41156462585034015,0.41156462585034015,0.40816326530612246,0.40816326530612246,0.40476190476190477,0.4013605442176871,0.4013605442176871,0.3945578231292517,0.391156462585034,0.38095238095238093,0.3707482993197279,0.36054421768707484,0.3401360544217687,0.3231292517006803,0.30612244897959184,0.2925170068027211,0.2687074829931973,0.2619047619047619,0.2585034013605442,0.25170068027210885,0.25170068027210885,0.24829931972789115,0.23469387755102042,0.23469387755102042,0.23129251700680273,0.23129251700680273,0.23129251700680273,0.23129251700680273,0.23129251700680273,0.23129251700680273,0.23129251700680273,0.23129251700680273,0.23129251700680273,0.23129251700680273,0.23129251700680273,0.23129251700680273,0.23129251700680273,0.23129251700680273,0.23129251700680273,0.23129251700680273,0.23129251700680273,0.23129251700680273,0.23129251700680273,0.23129251700680273,0.23129251700680273,0.23129251700680273,0.23129251700680273,0.23129251700680273,0.23129251700680273,0.23129251700680273,0.23129251700680273,0.23129251700680273,0.23129251700680273,0.23129251700680273,0.23129251700680273,0.23129251700680273,0.23129251700680273,0.23129251700680273,0.23129251700680273,0.23129251700680273,0.23129251700680273,0.23129251700680273,0.23129251700680273,0.23129251700680273,0.23129251700680273,0.23129251700680273,0.23129251700680273,0.23129251700680273,0.23129251700680273,0.23129251700680273,0.23129251700680273,0.23129251700680273,0.23129251700680273,0.23129251700680273,0.23129251700680273,0.23129251700680273,0.23129251700680273,0.23129251700680273,0.22789115646258504,0.22789115646258504,0.22789115646258504,0.22789115646258504,0.22789115646258504,0.22789115646258504,0.22789115646258504,0.22789115646258504,0.22789115646258504,0.22789115646258504,0.22789115646258504,0.22789115646258504,0.22789115646258504,0.22789115646258504,0.22789115646258504,0.22789115646258504,0.22789115646258504,0.22789115646258504,0.22789115646258504,0.22789115646258504,0.22789115646258504,0.22108843537414966,0.22108843537414966,0.22108843537414966,0.22108843537414966,0.22108843537414966,0.22108843537414966,0.22108843537414966,0.22108843537414966,0.22108843537414966,0.22108843537414966,0.22108843537414966,0.22108843537414966,0.22108843537414966,0.22108843537414966,0.22108843537414966,0.22108843537414966,0.22108843537414966,0.22108843537414966,0.22108843537414966,0.22108843537414966,0.22108843537414966,0.22108843537414966,0.22108843537414966,0.22108843537414966,0.22108843537414966,0.22108843537414966,0.22448979591836735,0.23469387755102042,0.30272108843537415,0.3469387755102041,0.3673469387755102,0.3877551020408163,0.4217687074829932,0.46258503401360546,0.48639455782312924,0.4965986394557823,0.5,0.5068027210884354,0.5136054421768708,0.5136054421768708,0.5136054421768708,0.5136054421768708,0.5136054421768708,0.5136054421768708,0.5034013605442177,0.5,0.4897959183673469,0.47619047619047616,0.46938775510204084,0.45918367346938777,0.4557823129251701,0.4489795918367347,0.445578231292517,0.4421768707482993,0.4387755102040816,0.43537414965986393,0.43537414965986393,0.43197278911564624,0.42857142857142855,0.42857142857142855,0.42857142857142855,0.42857142857142855,0.42857142857142855,0.42857142857142855,0.42857142857142855,0.4387755102040816,0.46598639455782315,0.4897959183673469,0.5102040816326531,0.5238095238095238,0.5340136054421769,0.5374149659863946,0.5374149659863946,0.5306122448979592,0.5238095238095238,0.48299319727891155,0.4557823129251701,0.41156462585034015,0.3401360544217687,0.2789115646258503,0.24489795918367346,0.21768707482993196,0.20748299319727892,0.19387755102040816,0.19387755102040816,0.19387755102040816,0.19387755102040816,0.19387755102040816,0.19387755102040816,0.19387755102040816,0.19387755102040816,0.19387755102040816,0.19387755102040816,0.19387755102040816,0.19387755102040816,0.19387755102040816,0.20408163265306123,0.22789115646258504,0.25510204081632654,0.29931972789115646,0.391156462585034,0.4489795918367347,0.5136054421768708,0.5680272108843537,0.7040816326530612,0.7380952380952381,0.7721088435374149,0.8197278911564626,0.8639455782312925,0.8979591836734694,0.9251700680272109,0.9591836734693877,0.9897959183673469,1.0238095238095237,1.0476190476190477,1.0714285714285714,1.1020408163265305,1.1496598639455782,1.1938775510204083,1.2312925170068028,1.2687074829931972,1.3639455782312926,1.3945578231292517,1.4149659863945578,1.4251700680272108,1.4285714285714286,1.4285714285714286,1.4285714285714286,1.4285714285714286,1.4285714285714286,1.4285714285714286,1.4251700680272108,1.4251700680272108,1.4251700680272108,1.4251700680272108,1.4251700680272108,1.4251700680272108,1.4251700680272108,1.4251700680272108,1.4251700680272108,1.4251700680272108,1.4251700680272108,1.4251700680272108,1.4251700680272108,1.4251700680272108,1.4251700680272108,1.4251700680272108,1.4251700680272108,1.4251700680272108,1.4251700680272108,1.4251700680272108,1.4251700680272108,1.4251700680272108,1.4251700680272108,1.4251700680272108,1.4217687074829932,1.4183673469387754,1.41156462585034,1.3911564625850341,1.3571428571428572,1.3231292517006803,1.282312925170068,1.2687074829931972,1.251700680272109,1.251700680272109,1.2448979591836735,1.2448979591836735,1.2448979591836735,1.2448979591836735,1.2448979591836735,1.2448979591836735,1.2448979591836735,1.2448979591836735,1.2448979591836735,1.2448979591836735,1.2448979591836735,1.2448979591836735,1.248299319727891,1.248299319727891,1.248299319727891,1.248299319727891,1.248299319727891,1.251700680272109,1.2551020408163265,1.2585034013605443,1.2687074829931972,1.2925170068027212,1.2993197278911566,1.3061224489795917,1.3197278911564625,1.3265306122448979,1.3299319727891157,1.3333333333333333,1.336734693877551,1.336734693877551,1.336734693877551,1.336734693877551,1.336734693877551,1.336734693877551,1.336734693877551,1.336734693877551,1.336734693877551,1.336734693877551,1.336734693877551,1.336734693877551,1.336734693877551,1.336734693877551,1.336734693877551,1.336734693877551,1.336734693877551,1.336734693877551,1.336734693877551,1.3401360544217686,1.3435374149659864,1.346938775510204,1.3503401360544218,1.3537414965986394,1.3571428571428572,1.3605442176870748,1.3605442176870748,1.3639455782312926,1.3639455782312926,1.3673469387755102,1.370748299319728,1.370748299319728,1.3741496598639455,1.3741496598639455,1.3741496598639455,1.3775510204081634,1.3775510204081634,1.380952380952381,1.3843537414965987,1.3843537414965987,1.3843537414965987,1.3843537414965987,1.3843537414965987,1.3843537414965987,1.3877551020408163,1.4047619047619047,1.4251700680272108,1.4319727891156462,1.4319727891156462,1.41156462585034,1.3435374149659864,1.3129251700680271,1.3095238095238095,1.3095238095238095,1.3095238095238095,1.3095238095238095,1.316326530612245,1.3231292517006803,1.3231292517006803,1.3231292517006803,1.3231292517006803,1.32312