[{"success":true,"trial_type":"fullscreen","trial_index":0,"time_elapsed":4057,"internal_node_id":"0.0-0.0","protocol_sum":"","subject_identifier":522,"subject_sum":[232,136,166,118,225,146,109,12,8,181,241,31,185,17,109,245,139,98,96,75,5,132,111,57,248,214,252,77,208,186,49,241],"subject_pair":261,"STUDY_ID":"66a3ed3c5d10d0e7d8a6b9da","PROLIFIC_PID":"669a46079b232cffded0d413","SESSION_ID":"66a4489413e6605e1a443557","practice_instructions":1,"leaderboard_instructions":0,"bonus":0,"reveal_word":false,"self_rating":"4","confidence":"77"},{"view_history":"[{\"page_index\":0,\"viewing_time\":6105}]","rt":6106,"trial_type":"instructions","trial_index":1,"time_elapsed":10167,"internal_node_id":"0.0-1.0","protocol_sum":"","subject_identifier":522,"subject_sum":[232,136,166,118,225,146,109,12,8,181,241,31,185,17,109,245,139,98,96,75,5,132,111,57,248,214,252,77,208,186,49,241],"subject_pair":261,"STUDY_ID":"66a3ed3c5d10d0e7d8a6b9da","PROLIFIC_PID":"669a46079b232cffded0d413","SESSION_ID":"66a4489413e6605e1a443557","practice_instructions":1,"leaderboard_instructions":0,"bonus":0,"reveal_word":false,"self_rating":"4","confidence":"77"},{"view_history":"[{\"page_index\":0,\"viewing_time\":50903}]","rt":50904,"trial_type":"instructions","trial_index":2,"time_elapsed":61073,"internal_node_id":"0.0-2.0-0.0","protocol_sum":"","subject_identifier":522,"subject_sum":[232,136,166,118,225,146,109,12,8,181,241,31,185,17,109,245,139,98,96,75,5,132,111,57,248,214,252,77,208,186,49,241],"subject_pair":261,"STUDY_ID":"66a3ed3c5d10d0e7d8a6b9da","PROLIFIC_PID":"669a46079b232cffded0d413","SESSION_ID":"66a4489413e6605e1a443557","practice_instructions":1,"leaderboard_instructions":0,"bonus":0,"reveal_word":false,"self_rating":"4","confidence":"77"},{"rt":49133,"responses":"{\"Q0\":\"... reveal the word with as <b>few letter guesses</b> as possible\"}","question_order":"[0]","trial_type":"survey-multi-choice","trial_index":3,"time_elapsed":110214,"internal_node_id":"0.0-2.0-1.0","protocol_sum":"","subject_identifier":522,"subject_sum":[232,136,166,118,225,146,109,12,8,181,241,31,185,17,109,245,139,98,96,75,5,132,111,57,248,214,252,77,208,186,49,241],"subject_pair":261,"correct":true,"test_part":"multichoice_nonpretend","STUDY_ID":"66a3ed3c5d10d0e7d8a6b9da","PROLIFIC_PID":"669a46079b232cffded0d413","SESSION_ID":"66a4489413e6605e1a443557","practice_instructions":1,"leaderboard_instructions":0,"bonus":0,"reveal_word":false,"self_rating":"4","confidence":"77"},{"view_history":"[{\"page_index\":0,\"viewing_time\":2506}]","rt":2507,"trial_type":"instructions","trial_index":4,"time_elapsed":112725,"internal_node_id":"0.0-3.0","protocol_sum":"","subject_identifier":522,"subject_sum":[232,136,166,118,225,146,109,12,8,181,241,31,185,17,109,245,139,98,96,75,5,132,111,57,248,214,252,77,208,186,49,241],"subject_pair":261,"STUDY_ID":"66a3ed3c5d10d0e7d8a6b9da","PROLIFIC_PID":"669a46079b232cffded0d413","SESSION_ID":"66a4489413e6605e1a443557","practice_instructions":1,"leaderboard_instructions":0,"bonus":0,"reveal_word":false,"self_rating":"4","confidence":"77"},{"word":"ZEBRA","click_log":{"letter":["","A","M","I","D","C","E","S","T","W","L","P","O","F","K","R","Z","B"],"t":[0,4271,27713,34728,37427,38698,39874,53403,55323,57222,63236,67707,69032,74587,77994,83076,93904,98730],"hit":[null,1,0,0,0,0,1,0,0,0,0,0,0,0,0,1,1,1],"asked":["","A","AM","AMI","AMID","AMIDC","AMIDCE","AMIDCES","AMIDCEST","AMIDCESTW","AMIDCESTWL","AMIDCESTWLP","AMIDCESTWLPO","AMIDCESTWLPOF","AMIDCESTWLPOFK","AMIDCESTWLPOFKR","AMIDCESTWLPOFKRZ","AMIDCESTWLPOFKRZB"],"word_state":["_____","____A","____A","____A","____A","____A","_E__A","_E__A","_E__A","_E__A","_E__A","_E__A","_E__A","_E__A","_E__A","_E_RA","ZE_RA","ZEBRA"]},"hover_log":{"letter":["?","?","?","?","?","?","?","?","?","?","?","?","?","?","?","?","?","?","?","?","?","?","?","?","?","?","?","?","?","?","?","?","?","?","?","?","?","?","?","?","?","?","?","?","?","?","?","?","?","?","?","?","?","?","?","?","?","?","?","?","?","?","C","C","C","C","?","?","?","?","?","?","?","?","?","?","?","?","?","?","?","?","C","C","C","B","B","B","B","B","B","B","A","A","A","A","A","A","A","A","A","A","A","A","A","A","A","A","A","A","A","A","A","A","A","A","A","A","A","A","A","A","A","A","A","A","A","A","A","A","A","A","B","B","?","?","?","?","?","?","?","?","?","?","?","?","?","?","?","?","L","?","K","K","K","K","K","K","?","L","?","?","?","X","X","X","X","X","?","?","Y","Y","Y","Y","Y","Y","?","?","X","X","X","X","?","?","?","?","?","?","?","?","?","?","?","?","?","?","?","?","?","?","?","?","?","?","?","?","?","?","?","?","N","N","N","N","N","N","N","N","N","N","N","N","N","N","N","N","N","N","N","N","N","N","N","N","N","N","N","?","?","?","?","?","?","M","M","M","?","?","?","?","?","?","L","L","L","L","L","L","L","L","L","L","L","L","L","L","L","L","L","L","L","L","?","M","M","M","M","?","?","?","?","?","?","F","F","F","G","G","?","?","?","?","?","?","?","?","?","?","?","?","?","?","?","?","?","?","?","?","?","?","?","?","?","?","?","?","?","?","?","?","?","?","?","?","?","P","P","P","P","P","O","O","O","O","N","N","?","?","?","?","M","M","M","M","M","M","M","M","M","M","M","M","M","M","M","M","M","M","M","M","?","?","?","?","F","F","?","?","?","?","?","?","?","?","?","?","?","?","?","?","?","?","?","?","?","?","?","?","?","?","?","?","?","?","?","?","?","?","?","?","?","?","?","?","?","?","?","?","?","?","?","?","?","?","?","?","?","?","?","?","?","?","?","?","?","?","?","?","?","?","?","?","?","?","?","?","?","?","?","?","?","?","?","?","?","D","D","D","?","?","?","?","?","?","?","?","?","?","?","?","?","?","?","?","?","?","?","?","?","?","?","?","?","?","?","?","?","?","?","?","?","?","?","?","?","?","?","?","?","?","?","?","?","?","?","?","?","?","?","?","J","J","J","J","J","J","J","?","A","A","A","A","A","A","A","A","A","A","?","?","?","?","?","?","?","?","?","?","?","?","?","?","?","?","?","?","?","?","?","?","?","?","?","?","?","?","?","?","?","?","?","?","?","?","?","?","?","?","?","?","?","?","?","?","?","?","?","?","?","?","?","?","?","?","?","?","?","?","?","?","?","?","?","?","?","?","?","?","?","?","?","?","?","?","?","?","?","?","?","?","?","?","?","?","?","?","?","?","?","?","?","?","?","?","?","?","?","?","?","?","?","?","?","?","?","?","?","?","?","?","?","?","?","?","?","?","?","?","?","?","?","?","?","?","?","?","?","?","?","?","?","?","?","?","?","?","?","?","?","?","?","?","?","?","?","?","?","?","?","?","?","?","?","?","?","?","?","?","?","?","?","?","?","?","?","?","?","?","?","?","A","A","A","A","A","A","A","A","A","A","A","A","A","A","A","A","A","A","A","A","A","A","A","A","A","A","A","A","A","A","A","A","A","A","A","A","A","A","A","A","A","A","A","A","A","A","A","A","A","A","A","A","A","A","A","A","A","A","A","A","A","?","?","?","?","?","?","?","?","?","?","?","?","B","B","B","B","B","?","C","C","C","C","C","C","C","C","C","C","?","?","?","?","?","?","?","?","?","?","?","?","?","M","M","M","M","M","M","M","M","M","M","M","M","M","M","M","M","M","M","M","M","M","M","M","M","M","M","M","M","M","M","M","M","M","M","M","M","M","M","M","M","M","M","M","M","M","M","M","M","M","M","M","M","M","M","M","M","M","M","M","M","M","M","M","M","M","M","M","M","M","M","M","M","M","M","M","M","M","M","M","M","?","?","?","L","L","L","L","L","L","L","L","?","?","M","M","N","O","?","?","?","?","?","?","?","?","?","?","?","?","?","?","?","?","?","?","?","?","?","?","?","?","?","?","?","?","?","?","?","?","?","?","?","?","?","?","?","?","?","H","H","H","H","H","H","H","H","H","H","H","H","H","H","H","H","H","H","H","H","?","?","?","?","I","I","I","I","I","I","I","I","I","I","I","I","I","I","I","I","I","I","I","I","I","I","I","I","I","I","I","I","I","I","I","I","I","I","I","I","I","I","I","I","I","I","I","I","I","I","I","I","I","I","I","I","I","I","I","I","I","I","I","I","I","I","I","I","I","I","I","I","I","I","I","I","I","I","I","I","I","I","I","I","I","I","I","I","I","I","I","I","I","I","I","I","I","I","I","I","I","I","I","I","I","I","I","I","I","I","I","I","I","I","I","I","I","I","I","I","I","I","I","I","I","I","I","?","?","?","?","?","?","?","?","H","?","?","?","?","?","?","?","?","?","F","F","F","F","F","F","F","F","?","E","E","E","?","?","?","?","?","?","?","?","?","?","?","?","?","?","?","?","?","?","D","D","D","D","D","D","D","D","D","D","D","D","D","D","D","D","D","D","D","D","D","D","D","D","D","D","D","D","D","D","D","D","D","D","D","D","D","D","D","D","D","D","D","D","D","D","D","D","D","D","D","D","D","?","?","?","?","?","?","C","C","C","C","C","C","C","C","C","C","C","C","C","C","C","C","C","C","C","C","C","C","C","C","C","C","C","C","C","C","C","C","C","?","?","D","D","D","D","D","?","?","E","E","E","E","E","E","E","E","E","E","E","E","E","E","E","E","E","E","E","E","E","E","E","E","E","E","E","E","E","E","E","E","E","E","E","E","E","E","E","E","E","E","E","E","E","E","E","E","E","E","E","E","?","?","?","?","?","?","?","?","?","?","?","?","?","?","?","?","?","?","?","?","?","?","?","?","?","?","?","?","?","?","?","?","?","?","?","?","?","?","?","?","?","?","?","?","?","?","?","?","?","?","?","?","?","?","?","?","?","?","?","?","?","?","?","?","?","?","?","?","?","D","D","D","?","?","?","L","L","L","?","?","?","?","?","?","?","?","?","?","?","?","?","?","?","?","?","?","?","?","?","?","?","?","?","?","?","?","?","?","?","?","?","?","?","?","?","?","?","?","?","?","L","L","L","L","L","L","L","L","L","?","?","?","?","?","?","?","?","?","?","?","?","?","?","?","?","?","N","N","N","N","N","N","N","N","N","N","N","N","N","N","N","N","N","N","N","N","N","N","N","N","N","N","N","N","N","N","N","N","N","N","?","?","?","?","?","?","?","?","?","O","O","O","O","O","O","O","O","O","O","O","?","?","?","?","?","?","?","W","W","W","W","W","W","W","W","W","W","W","W","W","W","W","W","W","W","W","W","W","W","W","W","W","W","W","W","W","W","W","W","W","W","W","W","W","W","W","W","W","W","W","W","W","W","W","W","W","W","W","W","W","W","W","W","W","W","W","W","W","W","W","W","W","W","W","W","W","W","W","W","W","W","W","W","W","W","W","W","W","W","W","W","W","W","W","W","W","W","W","W","W","W","W","W","W","W","W","W","?","?","V","V","V","V","?","U","U","U","U","U","U","U","?","?","?","T","T","T","T","T","?","?","?","S","S","S","S","S","S","S","S","S","S","S","S","S","S","S","S","S","S","S","S","S","S","?","?","?","?","?","T","T","T","T","T","T","T","T","T","T","T","T","T","T","T","T","T","T","T","T","T","T","T","?","U","U","U","U","U","U","U","U","U","?","?","?","?","?","?","?","?","?","?","?","T","T","T","T","T","T","T","T","T","T","T","T","T","T","T","T","T","T","T","T","T","T","T","T","T","T","T","T","T","T","T","?","?","U","U","U","U","U","U","?","?","?","?","?","?","?","?","?","?","?","?","V","V","V","V","?","?","?","?","?","?","?","?","?","?","?","?","?","?","?","?","?","?","V","?","?","?","?","W","W","W","W","W","W","W","W","W","W","W","W","W","W","W","W","W","W","W","W","W","W","W","W","W","W","W","W","W","W","W","W","W","?","?","V","V","V","V","V","?","?","?","?","?","?","?","?","?","?","?","?","?","?","?","?","?","?","V","V","V","?","?","?","?","?","?","?","?","?","V","V","V","V","V","V","V","V","V","V","V","V","V","V","V","V","V","V","V","V","V","V","V","V","V","V","V","V","V","V","V","V","V","V","V","V","V","V","V","?","W","?","?","?","?","?","?","?","Y","Y","Y","Y","Y","Y","Y","Y","Y","Y","Y","Y","Y","Y","?","?","?","?","?","P","P","P","P","P","P","P","P","P","P","P","P","P","?","O","?","N","?","?","M","M","M","M","M","M","M","?","?","?","?","?","?","?","?","L","L","L","L","L","L","L","L","L","L","L","L","L","L","L","L","L","L","L","L","L","L","L","L","L","?","?","?","?","?","?","?","K","K","K","K","?","?","?","?","?","?","?","?","L","L","L","L","L","L","L","L","L","L","L","L","L","L","L","L","L","L","L","L","L","L","L","L","L","L","L","L","L","L","L","L","L","L","L","L","L","L","?","?","?","?","?","?","?","?","?","K","K","K","K","K","K","K","K","K","K","K","K","K","K","K","K","K","K","K","K","?","?","?","?","?","?","?","?","L","L","?","?","?","?","?","?","F","F","F","F","F","?","G","G","G","G","G","G","G","G","G","G","G","G","G","G","G","G","G","G","G","G","G","G","G","G","G","G","G","G","G","G","G","G","G","G","G","G","?","?","?","?","P","P","P","P","P","P","P","P","P","P","P","P","P","P","P","P","P","P","P","P","P","P","P","P","P","P","P","P","P","P","P","P","P","P","P","P","P","P","P","P","?","?","?","?","?","?","O","O","O","O","O","O","O","O","O","O","O","O","O","O","O","O","O","O","O","O","O","O","O","O","O","O","O","O","O","O","O","O","O","O","O","O","O","O","?","?","?","?","?","?","?","?","?","?","?","G","G","G","G","G","?","?","?","?","?","?","?","F","F","F","F","F","F","F","F","F","F","F","F","F","F","F","F","F","F","F","F","F","F","F","F","F","F","F","F","F","F","F","F","F","F","?","?","?","?","?","?","G","G","G","G","G","G","G","G","G","G","G","G","G","G","G","G","G","G","?","?","?","?","?","?","?","?","?","?","?","?","F","F","F","F","F","F","F","F","F","F","F","F","F","F","F","F","F","F","F","F","F","F","F","F","F","F","F","F","F","F","F","F","F","F","F","F","F","F","F","F","F","F","F","F","F","F","F","F","F","F","F","F","F","F","F","F","F","F","F","F","F","F","F","F","F","F","F","F","F","F","F","F","F","F","?","?","?","?","G","G","G","G","G","G","G","G","G","G","G","G","G","G","G","G","G","G","?","?","?","?","?","?","?","?","?","F","F","F","F","?","?","E","?","?","?","?","?","?","?","?","?","?","?","?","?","?","?","?","?","?","?","?","?","?","?","?","?","?","?","?","?","?","K","K","K","K","K","K","K","K","K","K","K","K","K","K","K","K","K","K","K","K","K","K","?","?","?","L","L","?","?","?","?","?","?","E","E","E","E","E","E","E","E","E","?","F","F","F","F","F","?","?","G","G","G","G","G","G","G","G","G","G","G","G","G","G","G","G","G","G","G","G","G","G","G","G","G","G","G","G","G","G","G","G","G","?","?","?","?","?","?","?","?","G","G","G","G","G","G","G","G","G","G","G","G","G","G","G","G","G","G","G","G","G","G","?","?","?","?","?","?","Q","Q","Q","Q","Q","Q","Q","Q","Q","Q","Q","Q","?","?","?","?","?","?","?","?","?","?","?","?","?","R","R","R","R","R","R","R","R","R","R","R","R","R","R","R","R","R","R","R","R","R","R","R","R","R","R","R","R","R","R","R","R","R","R","R","?","?","?","?","?","Q","Q","Q","Q","Q","Q","Q","Q","Q","Q","Q","Q","Q","Q","?","?","?","?","?","?","?","?","?","?","?","?","?","?","?","?","?","?","?","?","?","?","?","?","?","?","?","?","?","?","?","?","?","?","?","?","?","?","?","?","?","?","?","?","?","?","?","?","?","?","?","?","?","?","?","?","?","?","?","?","?","?","?","?","?","?","?","?","?","?","?","?","?","?","?","?","?","?","?","?","?","?","?","?","?","?","?","?","?","?","Y","Y","Y","Y","Y","Y","Y","Y","Y","Y","Y","Y","Y","Y","Y","Y","Y","Y","Y","Y","Y","Y","?","?","?","?","?","?","?","?","?","?","?","?","?","?","?","?","?","?","?","?","?","?","?","?","?","?","?","?","?","?","?","?","?","?","?","?","?","?","?","?","?","?","?","?","?","?","?","?","Q","Q","Q","Q","Q","Q","Q","Q","Q","Q","Q","Q","?","?","?","?","?","?","?","?","?","?","?","?","?","Q","Q","Q","Q","?","?","?","?","?","?","?","?","?","?","?","?","?","?","?","?","?","?","?","?","?","?","?","Z","Z","Z","Z","Z","Z","Z","Z","Z","Z","Z","Z","Z","Z","Z","Z","Z","Z","Z","Z","Z","Z","Z","Z","Z","Z","Z","Z","Z","Z","Z","Z","Z","Z","Z","Z","Z","Z","Z","Z","Z","Z","Z","Z","Z","Z","Z","Z","Z","Z","Z","Z","Z","Z","Z","Z","Z","Z","Z","Z","Z","Z","Z","Z","Z","Z","Z","Z","Z","Z","Z","Z","Z","Z","Z","Z","Z","Z","Z","Z","Z","Z","Z","?","Y","Y","Y","Y","X","X","X","X","X","X","X","X","?","?","?","?","?","?","?","N","N","N","N","N","N","N","N","N","N","N","N","N","?","?","?","?","?","?","?","V","V","V","V","V","V","?","?","?","?","?","V","V","V","?","W","W","W","W","W","W","W","?","?","?","?","?","P","P","P","P","P","P","P","P","P","P","?","?","?","?","?","?","?","?","?","?","?","?","?","?","?","?","?","?","?","?","?","?","?","O","O","O","?","N","N","N","N","N","N","N","N","N","N","?","?","?","?","?","M","M","M","M","M","M","M","M","M","?","?","?","?","?","?","?","?","?","C","C","C","C","C","C","C","C","C","C","C","C","C","C","?","?","?","?","?","?","B","B","B","B","B","B","B","B","B","B","B","B","B","B","B","B","B","B","B","B","B","B","B","B","B","B","B","B","B","B","B","B","B","B","B","B","B","B","B","B","B","?","?","?","?","C","C","C","C","C","C","C","C","C","C","C","C","C","C","C","C","C","C","C","C","C","C","C","C","C","C","?","?","?","?","?","?","?","?","?","?","?","?","?","?","?","?","?","?","?","?","?","M","M","M","M","M","M","M","M","M"],"t":[56,84,96,791,806,829,914,929,960,1041,1092,1193,1209,1261,1306,1341,1355,1390,1424,1451,1465,1480,1524,1550,1561,1577,1592,1624,1641,1661,1674,1707,1725,1740,1762,1793,1825,1859,1894,1926,1959,1973,1994,2027,2059,2092,2157,2193,2213,2287,2310,2322,2409,2428,2462,2479,2496,2513,2530,2545,2560,2595,2619,2643,2659,2678,2711,2726,2762,2778,2812,2827,2860,2873,2887,2957,2994,3012,3034,3050,3066,3082,3098,3115,3132,3164,3180,3208,3227,3268,3310,3363,3411,3427,3476,3491,3523,3540,3556,3579,3604,3624,3657,3676,3695,3725,3744,3761,3775,3791,3806,3893,3924,4008,4029,4126,4141,4156,4243,4277,4363,4384,4425,4440,4457,4542,4573,4646,4682,4697,4716,4751,4779,4798,4828,4841,4858,4873,4887,4908,4923,4956,4972,4999,5013,5110,5126,5167,5200,5223,5237,5255,5271,5297,5313,5345,5364,5436,5454,5475,5505,5512,5549,5633,5648,5679,5695,5710,5747,5762,5830,5843,5915,5930,5965,6014,6101,6125,6147,6172,6199,6220,6248,6267,6297,6312,6327,6343,6429,6460,6478,6503,6534,6550,6581,6601,6632,6648,6662,6682,6693,6707,6729,6742,6770,6788,6802,6829,6851,6880,6899,6912,6931,6945,6961,6994,7008,7029,7042,7056,7084,7106,7131,7151,7179,7215,7232,7263,7278,7294,7312,7325,7340,7360,7373,7388,7429,7461,7486,7501,7520,7535,7550,7566,7580,7598,7632,7648,7682,7698,7733,7750,7783,7802,7834,7853,7884,7913,7928,7962,7993,8044,8074,8098,8118,8152,8167,8199,8215,8232,8251,8266,8302,8326,8338,8360,8374,8404,8421,8464,8482,8498,8514,8531,8549,8567,8600,8618,8652,8673,8700,8720,8750,8769,8800,8817,8849,8863,8878,8892,8906,8929,8963,8984,9003,9032,9052,9067,9084,9101,9116,9134,9150,9183,9195,9210,9236,9243,9262,9276,9309,9324,9354,9375,9404,9423,9462,9473,9500,9515,9546,9559,9577,9591,9626,9650,9673,9687,9702,9718,9733,9752,9780,9795,9812,9828,9863,9895,9926,9956,9983,9999,10015,10031,10047,10070,10084,10115,10134,10164,10179,10194,10211,10229,10241,10259,10273,10305,10322,10340,10362,10375,10387,10405,10432,10457,10465,10480,10506,10520,10528,10556,10572,10589,10624,10639,10671,10682,10697,10720,10732,10747,10767,10791,10814,10845,10874,10901,10916,10950,10965,10985,11001,11016,11029,11052,11066,11102,11123,11166,11186,11282,11297,11314,11348,11379,11394,11449,11472,11562,11585,11682,11699,11715,11732,11748,11768,11784,11800,11819,11847,11871,11909,11926,11956,11972,11987,12003,12020,12039,12070,12087,12102,12135,12152,12188,12206,12246,12267,12326,12351,12371,12402,12432,12456,12475,12502,12520,12616,12631,12650,12663,12681,12697,12715,12750,12780,12815,12838,12854,12883,12902,12934,12950,12966,13018,13034,13051,13064,13102,13136,13153,13187,13204,13236,13252,13287,13302,13349,13367,13466,13484,13517,13533,13620,13633,13722,13746,13772,13800,13835,13845,13871,13885,13949,13968,13984,14002,14030,14046,14062,14079,14102,14124,14155,14174,14206,14223,14253,14266,14288,14302,14316,14331,14351,14382,14467,14505,14519,14537,14635,14646,14662,14750,14782,14868,14885,14901,14920,14933,14963,15035,15057,15151,15168,15184,15271,15302,15385,15404,15502,15513,15530,15618,15640,15736,15752,15769,15855,15887,15968,15990,16087,16103,16118,16203,16233,16320,16339,16436,16451,16465,16552,16582,16671,16688,16703,16791,16822,16905,16924,17020,17036,17052,17139,17171,17254,17284,17305,17369,17385,17400,17487,17518,17603,17621,17636,17724,17755,17838,17860,17954,17973,17989,18073,18105,18188,18208,18305,18319,18334,18428,18447,18539,18557,18572,18662,18679,18772,18806,18890,18902,18917,19006,19035,19122,19139,19154,19241,19266,19281,19368,19399,19480,19520,19590,19622,19705,19726,19822,19839,19855,19941,19973,20057,20076,20172,20189,20204,20294,20312,20406,20424,20439,20526,20553,20639,20669,20756,20773,20790,20875,20906,20989,21009,21106,21121,21138,21224,21254,21340,21360,21440,21454,21493,21529,21554,21658,21674,21689,21777,21806,21857,21891,21928,21959,21994,22010,22028,22042,22061,22089,22109,22124,22135,22227,22242,22361,22392,22408,22422,22493,22508,22610,22721,22737,22752,22841,22942,22959,23058,23070,23088,23110,23176,23196,23243,23293,23307,23392,23423,23477,23544,23641,23656,23673,23709,23738,23752,23793,23894,23914,23991,24008,24026,24039,24126,24161,24178,24226,24326,24344,24360,24375,24392,24406,24429,24442,24464,24480,24514,24550,24579,24613,24627,24666,24682,24694,24721,24734,24748,24782,24818,24850,24880,24900,24936,24948,24985,25018,25049,25088,25099,25114,25133,25171,25183,25202,25228,25251,25267,25283,25314,25330,25349,25364,25381,25414,25453,25473,25500,25533,25555,25582,25602,25646,25664,25679,25762,25775,25789,25811,25843,25927,25948,25963,26048,26080,26162,26181,26211,26230,26245,26261,26275,26292,26327,26360,26377,26401,26495,26514,26529,26616,26635,26728,26745,26760,26848,26878,26962,26981,27080,27094,27109,27196,27222,27240,27253,27314,27330,27429,27459,27571,27646,27663,27688,27785,27828,27851,27864,27898,27912,28013,28030,28101,28132,28199,28227,28241,28329,28351,28399,28432,28464,28478,28497,28510,28581,28630,28681,28700,28718,28737,28750,28784,28815,28848,28870,28902,28921,28938,28953,28986,29002,29019,29050,29086,29120,29163,29197,29234,29267,29298,29314,29333,29345,29363,29398,29432,29464,29498,29598,29614,29648,29667,29701,29723,29753,29770,29800,29817,29832,29848,29863,29879,29900,29916,29945,29959,29980,29995,30024,30038,30059,30072,30088,30105,30121,30151,30168,30183,30207,30219,30229,30249,30260,30273,30334,30366,30414,30432,30447,30480,30493,30508,30531,30564,30586,30608,30623,30639,30656,30671,30685,30702,30719,30734,30749,30765,30850,30868,30898,30916,30949,30966,31000,31014,31049,31066,31101,31115,31165,31183,31216,31232,31282,31299,31399,31414,31449,31466,31500,31515,31552,31561,31600,31613,31629,31666,31695,31708,31782,31804,31898,31929,31946,31962,32048,32079,32165,32182,32198,32283,32319,32337,32400,32416,32432,32519,32559,32573,32599,32622,32650,32668,32733,32749,32781,32795,32832,32843,32859,32883,32914,33000,33017,33032,33120,33148,33234,33254,33350,33364,33381,33467,33498,33585,33602,33617,33704,33735,33820,33838,33936,33950,33965,34052,34075,34170,34190,34203,34289,34318,34406,34424,34519,34536,34552,34637,34669,34755,34772,34868,34884,34900,34985,35015,35101,35119,35135,35152,35167,35237,35264,35278,35318,35369,35419,35517,35532,35547,35635,35658,35688,35738,35791,35841,35872,35911,35941,35974,35993,36016,36040,36070,36091,36104,36124,36155,36164,36196,36208,36228,36265,36278,36308,36324,36341,36389,36422,36457,36475,36504,36537,36553,36569,36589,36602,36616,36638,36671,36689,36709,36726,36743,36758,36773,36788,36838,36855,36891,36906,36940,36957,36990,37008,37026,37042,37122,37155,37189,37215,37226,37241,37262,37278,37292,37307,37325,37354,37371,37386,37424,37438,37456,37496,37505,37542,37574,37655,37668,37683,37737,37749,37778,37856,37874,37907,37920,37936,37956,37970,38001,38018,38033,38050,38066,38081,38105,38121,38155,38172,38222,38240,38255,38272,38284,38339,38370,38388,38425,38441,38457,38471,38489,38503,38520,38554,38570,38583,38672,38692,38788,38803,38817,38905,38927,39021,39039,39070,39086,39104,39125,39139,39153,39178,39195,39228,39246,39277,39292,39309,39325,39342,39358,39376,39402,39459,39496,39509,39527,39560,39576,39591,39607,39624,39724,39740,39839,39856,39957,39972,40073,40091,40139,40156,40191,40205,40240,40256,40306,40323,40356,40374,40473,40489,40589,40608,40640,40656,40757,40773,40858,40873,40943,40956,40990,41007,41057,41073,41108,41127,41176,41241,41256,41272,41307,41358,41380,41408,41462,41511,41525,41546,41574,41601,41624,41650,41738,41762,41793,41808,41823,41911,41933,42026,42044,42059,42150,42169,42260,42282,42308,42377,42403,42496,42517,42617,42635,42726,42744,42842,42854,42872,42958,42990,43075,43093,43110,43197,43217,43232,43320,43349,43431,43455,43544,43565,43659,43675,43691,43777,43807,43893,43911,43927,44010,44023,44043,44093,44145,44197,44229,44245,44261,44278,44309,44330,44366,44399,44432,44454,44471,44489,44514,44546,44563,44578,44592,44682,44703,44727,44748,44764,44780,44877,44891,44907,44976,45010,45045,45093,45111,45194,45226,45240,45254,45312,45346,45434,45445,45528,45539,45553,45647,45664,45761,45776,45792,45879,45901,45964,45998,46013,46029,46059,46078,46097,46111,46130,46154,46182,46214,46246,46282,46297,46315,46331,46351,46382,46415,46450,46483,46503,46530,46552,46573,46584,46597,46615,46644,46671,46688,46706,46720,46738,46753,46789,46829,46846,46860,46880,46896,46927,46942,46958,46978,47010,47044,47066,47097,47132,47145,47160,47177,47212,47243,47289,47315,47331,47346,47396,47411,47427,47456,47475,47498,47535,47564,47584,47614,47630,47646,47665,47681,47695,47712,47765,47783,47815,47830,47878,47903,47921,47948,47981,47997,48014,48031,48045,48069,48094,48117,48138,48164,48188,48202,48217,48230,48246,48264,48280,48299,48315,48334,48365,48381,48413,48429,48463,48481,48516,48531,48565,48614,48628,48640,48664,48681,48714,48816,48830,48863,48946,48966,49063,49076,49092,49181,49199,49297,49310,49326,49414,49435,49533,49546,49580,49649,49670,49763,49782,49881,49914,49997,50017,50033,50120,50152,50233,50254,50348,50366,50467,50482,50585,50604,50698,50713,50730,50817,50847,50932,50951,51048,51063,51079,51165,51187,51282,51300,51313,51403,51424,51517,51535,51551,51637,51667,51749,51781,51868,51884,51982,51994,52010,52100,52120,52215,52234,52252,52274,52300,52317,52332,52350,52382,52407,52429,52447,52489,52522,52553,52572,52594,52634,52646,52676,52687,52707,52737,52772,52786,52821,52856,52887,52918,52932,52947,52986,53011,53025,53040,53119,53219,53247,53264,53280,53367,53397,53435,53466,53486,53518,53535,53551,53567,53581,53602,53614,53627,53651,53691,53706,53723,53751,53768,53784,53802,53816,53833,53851,53865,53896,53912,53927,53951,53980,54001,54021,54053,54071,54103,54137,54152,54168,54183,54200,54216,54240,54260,54289,54319,54400,54415,54431,54486,54521,54537,54564,54578,54611,54641,54675,54706,54736,54778,54793,54809,54868,54890,54920,54943,54961,54974,54987,55016,55034,55118,55148,55185,55206,55236,55252,55268,55352,55365,55381,55434,55467,55492,55507,55523,55553,55571,55603,55620,55636,55652,55669,55688,55717,55733,55751,55777,55794,55810,55825,55858,55870,55900,55955,55985,56004,56028,56057,56078,56108,56140,56157,56171,56188,56205,56222,56257,56274,56304,56334,56420,56437,56455,56487,56504,56519,56538,56550,56566,56597,56612,56638,56668,56686,56709,56739,56758,56791,56810,56824,56856,56868,56886,56905,56920,56936,56954,56970,57019,57035,57071,57087,57119,57136,57238,57255,57374,57392,57480,57502,57589,57620,57704,57726,57819,57837,57853,57920,57933,57954,57986,58008,58033,58046,58067,58083,58113,58132,58162,58177,58190,58209,58221,58235,58289,58315,58330,58390,58421,58459,58471,58487,58504,58536,58549,58571,58605,58622,58646,58690,58710,58755,58773,58788,58804,58819,58835,58871,58905,58937,58970,59010,59027,59044,59057,59075,59105,59122,59138,59189,59203,59288,59319,59405,59422,59438,59526,59557,59569,59604,59637,59669,59699,59724,59740,59755,59788,59806,59821,59856,59868,59956,59985,60057,60073,60109,60128,60141,60156,60186,60259,60287,60324,60376,60393,60425,60442,60476,60490,60507,60521,60535,60622,60645,60676,60693,60723,60740,60756,60772,60789,60804,60824,60841,60854,60878,60901,60916,60935,60965,60980,60997,61011,61027,61041,61056,61093,61105,61122,61142,61159,61196,61213,61245,61263,61280,61296,61323,61341,61358,61375,61391,61407,61453,61463,61483,61514,61528,61544,61562,61578,61596,61612,61626,61643,61656,61672,61694,61708,61750,61767,61795,61815,61844,61860,61891,61907,61923,62009,62039,62090,62121,62159,62178,62210,62242,62257,62280,62313,62337,62353,62368,62390,62422,62509,62526,62542,62576,62591,62607,62625,62641,62655,62673,62686,62704,62735,62750,62775,62797,62829,62845,62941,62954,62970,63025,63057,63091,63121,63208,63225,63243,63329,63358,63444,63461,63557,63573,63589,63676,63706,63793,63810,63909,63924,63940,63966,63986,64009,64033,64062,64083,64111,64132,64146,64161,64177,64193,64279,64309,64325,64350,64365,64410,64429,64447,64460,64475,64493,64508,64523,64542,64556,64587,64603,64618,64643,64674,64760,64777,64814,64844,64860,64875,64889,64907,64921,64942,64956,64973,64996,65013,65049,65098,65115,65130,65147,65161,65175,65194,65215,65248,65264,65300,65345,65360,65376,65411,65424,65441,65460,65488,65503,65591,65622,65705,65724,65811,65843,65927,65947,65962,66050,66072,66161,66182,66278,66295,66311,66397,66422,66512,66532,66578,66612,66646,66695,66711,66724,66761,66847,66882,66911,66934,66969,66983,67014,67029,67049,67081,67120,67212,67232,67329,67345,67371,67392,67449,67471,67560,67582,67680,67695,67712,67798,67827,67845,67868,67884,67902,67916,67950,67966,67981,67997,68012,68029,68046,68059,68075,68107,68122,68148,68172,68204,68219,68234,68250,68266,68362,68379,68393,68412,68425,68441,68495,68526,68566,68600,68617,68633,68649,68665,68679,68712,68727,68741,68829,68854,68869,68885,68980,68995,69012,69099,69130,69215,69235,69331,69347,69363,69413,69427,69464,69497,69531,69543,69565,69651,69683,69699,69766,69781,69798,69811,69886,69915,69966,70016,70067,70095,70164,70201,70216,70250,70286,70315,70349,70415,70430,70448,70464,70484,70515,70531,70631,70649,70748,70765,70799,70827,70849,70860,70875,70916,70938,70966,70982,70998,71029,71100,71132,71214,71236,71332,71347,71362,71451,71473,71507,71522,71550,71569,71617,71636,71652,71666,71681,71698,71717,71746,71762,71775,71796,71834,71854,71882,71901,72000,72012,72028,72116,72147,72182,72202,72218,72234,72251,72271,72298,72315,72331,72348,72361,72378,72416,72429,72459,72475,72490,72519,72539,72568,72585,72601,72617,72631,72648,72682,72699,72713,72729,72743,72767,72798,72834,72855,72885,72917,72966,72980,72999,73014,73028,73117,73147,73233,73250,73265,73352,73392,73468,73487,73584,73614,73630,73646,73734,73756,73852,73867,73883,73970,74000,74086,74103,74201,74215,74231,74317,74348,74437,74453,74467,74555,74585,74669,74689,74785,74801,74817,74904,74935,75019,75038,75134,75149,75166,75251,75282,75320,75354,75403,75454,75487,75538,75550,75570,75582,75623,75705,75721,75736,75753,75835,75848,75863,75935,76037,76054,76070,76157,76181,76195,76289,76310,76328,76340,76355,76386,76401,76488,76519,76589,76608,76627,76641,76658,76675,76691,76723,76745,76755,76779,76798,76827,76848,76875,76900,76914,76929,76939,76958,76986,77003,77021,77052,77070,77086,77102,77116,77130,77146,77171,77189,77270,77288,77333,77351,77368,77382,77399,77417,77459,77490,77570,77585,77601,77688,77728,77803,77870,77885,77901,77989,78012,78105,78123,78221,78232,78248,78305,78404,78424,78458,78474,78492,78509,78542,78575,78611,78642,78675,78710,78727,78759,78792,78824,78836,78853,78890,78903,78924,78960,78994,79027,79060,79092,79140,79177,79209,79241,79259,79291,79322,79373,79409,79508,79589,79614,79630,79656,79678,79772,79802,79817,79905,79936,80023,80041,80138,80154,80169,80256,80287,80373,80392,80489,80504,80520,80606,80637,80690,80724,80774,80809,80860,80891,80992,81010,81095,81109,81122,81140,81192,81226,81257,81324,81356,81375,81390,81407,81422,81458,81470,81504,81518,81536,81558,81589,81674,81689,81704,81725,81741,81757,81780,81794,81830,81851,81878,81914,81930,81949,81960,81977,81990,82006,82042,82056,82071,82092,82105,82122,82143,82181,82196,82212,82260,82277,82297,82328,82360,82391,82426,82458,82486,82522,82552,82583,82615,82642,82657,82676,82692,82708,82721,82738,82757,82790,82807,82832,82891,82910,82924,82942,82956,83041,83074,83159,83178,83274,83289,83321,83394,83413,83492,83510,83557,83575,83592,83643,83660,83696,83730,83765,83794,83832,83851,83873,83895,83908,83923,83937,84026,84049,84078,84096,84128,84142,84160,84177,84207,84222,84308,84339,84393,84494,84510,84526,84560,84572,84643,84673,84760,84779,84877,84890,84907,84993,85022,85109,85126,85142,85229,85259,85345,85365,85460,85475,85490,85578,85607,85693,85712,85727,85814,85847,85927,85958,86045,86061,86077,86163,86195,86279,86298,86394,86411,86426,86513,86538,86628,86647,86662,86744,86758,86774,86861,86892,86978,86996,87028,87044,87130,87160,87231,87267,87357,87376,87392,87481,87500,87563,87579,87662,87675,87708,87724,87742,87763,87802,87820,87838,87855,87870,87888,87917,87950,87983,88018,88050,88084,88114,88197,88230,88268,88284,88316,88331,88352,88381,88404,88480,88499,88596,88611,88628,88713,88745,88831,88848,88880,88898,88912,88926,88963,88975,88991,89030,89063,89081,89102,89118,89150,89169,89186,89201,89219,89249,89265,89297,89313,89349,89365,89398,89415,89454,89467,89497,89514,89563,89594,89613,89625,89640,89664,89695,89748,89767,89796,89815,89831,89848,89864,89879,89895,89912,89928,89947,89962,89977,90000,90016,90052,90070,90098,90135,90152,90167,90184,90199,90217,90232,90249,90276,90293,90306,90331,90361,90381,90401,90481,90514,90530,90548,90564,90580,90597,90635,90656,90686,90720,90736,90754,90766,90782,90798,90813,90851,90863,90877,90898,90931,90955,90971,91000,91016,91031,91065,91079,91096,91119,91162,91174,91190,91205,91221,91239,91267,91288,91301,91316,91330,91362,91432,91463,91549,91568,91665,91679,91695,91765,91850,91868,91900,91916,91931,91999,92011,92099,92128,92215,92233,92250,92336,92369,92449,92480,92567,92582,92598,92685,92715,92801,92820,92916,92931,92947,93033,93065,93152,93170,93235,93266,93300,93312,93384,93415,93502,93520,93617,93632,93648,93742,93775,93819,93920,93936,93952,94038,94070,94151,94182,94269,94286,94302,94335,94349,94435,94449,94468,94509,94540,94560,94604,94624,94642,94660,94688,94704,94731,94745,94767,94788,94803,94826,94859,94893,94930,94958,94990,95026,95040,95054,95070,95116,95128,95162,95195,95208,95228,95243,95264,95276,95288,95302,95320,95345,95357,95375,95387,95417,95454,95481,95501,95513,95526,95544,95559,95574,95605,95621,95648,95662,95720,95743,95774,95794,95814,95838,95868,95885,95903,95920,95936,95952,95977,95998,96013,96037,96052,96081,96099,96122,96141,96174,96201,96221,96236,96250,96275,96318,96342,96357,96374,96389,96406,96420,96436,96457,96470,96484,96503,96517,96548,96564,96586,96621,96640,96661,96672,96694,96714,96728,96757,96773,96796,96816,96825,96845,96861,96873,96892,96909,96942,96978,96993,97008,97025,97042,97055,97073,97092,97104,97121,97151,97201,97214,97229,97243,97262,97290,97310,97339,97357,97392,97418,97440,97466,97492,97513,97542,97561,97591,97611,97623,97654,97670,97688,97701,97716,97740,97757,97790,97806,97842,97861,97890,97907,97957,97968,97983,98020,98053,98071,98095,98112,98126,98141,98158,98174,98190,98206,98222,98235,98251,98282,98295,98384,98406,98487,98501,98517,98571,98602,98689,98705,98721,98815,98833,98923,98943,98972,98993,99008,99023,99041,99057,99072,99088,99103,99134,99155,99171,99200,99227,99247,99279,99300,99316,99342,99357,99372,99404,99419,99436,99459,99472,99484,99522,99551,99640,99658,99673,99756,99771,99785,99839,99874,99889,99913,99943,99963,99990,100009,100040,100059,100079,100091,100106,100121,100140,100167,100183,100256,100289,100313,100344,100364,100378,100395,100408,100424,100476,100491,100505,100543,100552,100567,100645,100664,100679,100771],"hit":[null],"x":[-1.6054421768707483,-1.6054421768707483,-1.6054421768707483,-0.16326530612244897,-0.16326530612244897,-0.16326530612244897,-0.17006802721088435,-0.17346938775510204,-0.17346938775510204,-0.17346938775510204,-0.17346938775510204,-0.17346938775510204,-0.17346938775510204,-0.17687074829931973,-0.17687074829931973,-0.17687074829931973,-0.17687074829931973,-0.18027210884353742,-0.1836734693877551,-0.1836734693877551,-0.1836734693877551,-0.1836734693877551,-0.1836734693877551,-0.1836734693877551,-0.1870748299319728,-0.19047619047619047,-0.19047619047619047,-0.19047619047619047,-0.19387755102040816,-0.19727891156462585,-0.20408163265306123,-0.21428571428571427,-0.22108843537414966,-0.22448979591836735,-0.23469387755102042,-0.24489795918367346,-0.25170068027210885,-0.2585034013605442,-0.272108843537415,-0.272108843537415,-0.272108843537415,-0.272108843537415,-0.272108843537415,-0.272108843537415,-0.272108843537415,-0.2687074829931973,-0.2687074829931973,-0.2687074829931973,-0.272108843537415,-0.30612244897959184,-0.3197278911564626,-0.3231292517006803,-0.3231292517006803,-0.3231292517006803,-0.3231292517006803,-0.3129251700680272,-0.29931972789115646,-0.2857142857142857,-0.25170068027210885,-0.20748299319727892,-0.1292517006802721,0.1836734693877551,0.2857142857142857,0.3197278911564626,0.3231292517006803,0.3299319727891156,0.3401360544217687,0.3435374149659864,0.35374149659863946,0.3673469387755102,0.4421768707482993,0.48299319727891155,0.5238095238095238,0.5272108843537415,0.5272108843537415,0.5272108843537415,0.5136054421768708,0.4965986394557823,0.46258503401360546,0.43197278911564624,0.391156462585034,0.35374149659863946,0.30612244897959184,0.272108843537415,0.24829931972789115,0.19047619047619047,0.17687074829931973,0.16326530612244897,0.16326530612244897,0.14965986394557823,0.10204081632653061,0.10204081632653061,0.047619047619047616,0.047619047619047616,0.047619047619047616,0.047619047619047616,0.047619047619047616,0.047619047619047616,0.04081632653061224,0.034013605442176874,0.027210884353741496,0.027210884353741496,0.027210884353741496,0.027210884353741496,0.027210884353741496,0.027210884353741496,0.023809523809523808,0.023809523809523808,0.02040816326530612,0.02040816326530612,0.02040816326530612,0.02040816326530612,0.02040816326530612,0.02040816326530612,0.02040816326530612,0.02040816326530612,0.02040816326530612,0.02040816326530612,0.02040816326530612,0.02040816326530612,0.02040816326530612,0.02040816326530612,0.02040816326530612,0.02040816326530612,0.02040816326530612,0.02040816326530612,0.02040816326530612,0.02040816326530612,0.02040816326530612,0.02040816326530612,0.027210884353741496,0.04081632653061224,0.1054421768707483,0.16326530612244897,0.24489795918367346,0.2585034013605442,0.2857142857142857,0.3197278911564626,0.3469387755102041,0.3843537414965986,0.40816326530612246,0.4489795918367347,0.47619047619047616,0.4931972789115646,0.4965986394557823,0.4965986394557823,0.4965986394557823,0.4897959183673469,0.4489795918367347,0.32653061224489793,0.29591836734693877,0.23129251700680273,0.19047619047619047,0.17006802721088435,0.16666666666666666,0.16666666666666666,0.16666666666666666,0.19727891156462585,0.22789115646258504,0.2653061224489796,0.3673469387755102,0.38095238095238093,0.4489795918367347,0.6870748299319728,0.7210884353741497,0.7551020408163265,0.7585034013605442,0.7619047619047619,0.7993197278911565,0.7993197278911565,0.8877551020408163,0.8877551020408163,0.8877551020408163,0.8843537414965986,0.8741496598639455,0.8435374149659864,0.7993197278911565,0.7755102040816326,0.7551020408163265,0.7346938775510204,0.7210884353741497,0.7074829931972789,0.673469387755102,0.6666666666666666,0.6564625850340136,0.6530612244897959,0.6530612244897959,0.6496598639455783,0.6496598639455783,0.6496598639455783,0.6496598639455783,0.6462585034013606,0.6326530612244898,0.6258503401360545,0.6190476190476191,0.6122448979591837,0.5986394557823129,0.5850340136054422,0.5782312925170068,0.5748299319727891,0.5714285714285714,0.5714285714285714,0.5680272108843537,0.564625850340136,0.564625850340136,0.564625850340136,0.564625850340136,0.564625850340136,0.564625850340136,0.5680272108843537,0.5680272108843537,0.5680272108843537,0.564625850340136,0.564625850340136,0.5612244897959183,0.5578231292517006,0.5578231292517006,0.5578231292517006,0.5578231292517006,0.5544217687074829,0.5510204081632653,0.54421768707483,0.5408163265306123,0.5374149659863946,0.5306122448979592,0.5306122448979592,0.5306122448979592,0.5306122448979592,0.5272108843537415,0.5272108843537415,0.5238095238095238,0.5238095238095238,0.5238095238095238,0.5238095238095238,0.5238095238095238,0.5238095238095238,0.5238095238095238,0.5204081632653061,0.5102040816326531,0.5102040816326531,0.5034013605442177,0.48299319727891155,0.47278911564625853,0.45918367346938777,0.445578231292517,0.43197278911564624,0.40816326530612246,0.4013605442176871,0.38095238095238093,0.3741496598639456,0.36054421768707484,0.35034013605442177,0.3197278911564626,0.30272108843537415,0.2789115646258503,0.272108843537415,0.2653061224489796,0.25170068027210885,0.24489795918367346,0.24489795918367346,0.24489795918367346,0.24489795918367346,0.24489795918367346,0.24829931972789115,0.25170068027210885,0.2653061224489796,0.272108843537415,0.2925170068027211,0.29931972789115646,0.3129251700680272,0.3197278911564626,0.3333333333333333,0.35034013605442177,0.38095238095238093,0.3945578231292517,0.42857142857142855,0.4557823129251701,0.5136054421768708,0.564625850340136,0.6428571428571429,0.6632653061224489,0.6768707482993197,0.6870748299319728,0.6972789115646258,0.7210884353741497,0.7448979591836735,0.8095238095238095,0.8367346938775511,0.891156462585034,0.9115646258503401,0.9251700680272109,0.9319727891156463,0.9421768707482994,0.9591836734693877,0.9795918367346939,0.9863945578231292,0.9931972789115646,0.9965986394557823,0.9965986394557823,0.9931972789115646,0.9931972789115646,0.9931972789115646,0.9897959183673469,0.9829931972789115,0.9795918367346939,0.9523809523809523,0.9387755102040817,0.9319727891156463,0.9285714285714286,0.9251700680272109,0.9251700680272109,0.9251700680272109,0.9217687074829932,0.9319727891156463,0.9319727891156463,0.9319727891156463,0.9285714285714286,0.9251700680272109,0.9251700680272109,0.9217687074829932,0.9115646258503401,0.9081632653061225,0.9047619047619048,0.8979591836734694,0.8775510204081632,0.8707482993197279,0.8571428571428571,0.8367346938775511,0.8231292517006803,0.8129251700680272,0.7687074829931972,0.7482993197278912,0.717687074829932,0.6870748299319728,0.6054421768707483,0.564625850340136,0.5102040816326531,0.4897959183673469,0.46938775510204084,0.45918367346938777,0.4489795918367347,0.4387755102040816,0.4217687074829932,0.41836734693877553,0.41496598639455784,0.41156462585034015,0.40816326530612246,0.40816326530612246,0.40816326530612246,0.40816326530612246,0.40816326530612246,0.40816326530612246,0.40816326530612246,0.40816326530612246,0.40816326530612246,0.40816326530612246,0.41156462585034015,0.41836734693877553,0.42857142857142855,0.46258503401360546,0.4931972789115646,0.5170068027210885,0.5714285714285714,0.6462585034013606,0.6938775510204082,0.7380952380952381,0.7959183673469388,0.8809523809523809,0.9285714285714286,0.9523809523809523,0.9795918367346939,1.0170068027210883,1.0238095238095237,1.030612244897959,1.0408163265306123,1.0476190476190477,1.0510204081632653,1.0510204081632653,1.0510204081632653,1.0510204081632653,1.0510204081632653,1.0476190476190477,1.0374149659863945,1.0272108843537415,1,0.9931972789115646,0.9727891156462585,0.9659863945578231,0.9659863945578231,0.9659863945578231,0.9659863945578231,0.9659863945578231,0.9625850340136054,0.9625850340136054,0.9625850340136054,0.9625850340136054,0.9625850340136054,0.9591836734693877,0.9591836734693877,0.9523809523809523,0.9421768707482994,0.9387755102040817,0.935374149659864,0.9285714285714286,0.9251700680272109,0.9217687074829932,0.9149659863945578,0.9081632653061225,0.9047619047619048,0.9047619047619048,0.9047619047619048,0.9047619047619048,0.9047619047619048,0.9047619047619048,0.9047619047619048,0.9081632653061225,0.9081632653061225,0.9081632653061225,0.9115646258503401,0.9115646258503401,0.9115646258503401,0.9115646258503401,0.9115646258503401,0.9115646258503401,0.9115646258503401,0.9115646258503401,0.9047619047619048,0.8979591836734694,0.891156462585034,0.8843537414965986,0.8639455782312925,0.8333333333333334,0.7755102040816326,0.7517006802721088,0.717687074829932,0.7074829931972789,0.6972789115646258,0.6870748299319728,0.6802721088435374,0.673469387755102,0.6428571428571429,0.6156462585034014,0.5918367346938775,0.5374149659863946,0.5102040816326531,0.46258503401360546,0.445578231292517,0.42857142857142855,0.41836734693877553,0.40816326530612246,0.4013605442176871,0.40816326530612246,0.4013605442176871,0.4013605442176871,0.4013605442176871,0.4013605442176871,0.3979591836734694,0.4013605442176871,0.4013605442176871,0.4013605442176871,0.4013605442176871,0.4013605442176871,0.4013605442176871,0.4013605442176871,0.4013605442176871,0.4013605442176871,0.4013605442176871,0.4013605442176871,0.4013605442176871,0.4013605442176871,0.4013605442176871,0.4013605442176871,0.4013605442176871,0.4013605442176871,0.4013605442176871,0.4013605442176871,0.3945578231292517,0.3877551020408163,0.3843537414965986,0.3843537414965986,0.35374149659863946,0.3435374149659864,0.32653061224489793,0.3129251700680272,0.29931972789115646,0.2925170068027211,0.2789115646258503,0.2755102040816326,0.2755102040816326,0.2755102040816326,0.2755102040816326,0.2755102040816326,0.2687074829931973,0.2687074829931973,0.2653061224489796,0.2653061224489796,0.2653061224489796,0.25170068027210885,0.19047619047619047,0.08503401360544217,0.013605442176870748,-0.01020408163265306,-0.017006802721088437,-0.017006802721088437,-0.017006802721088437,-0.017006802721088437,-0.017006802721088437,-0.017006802721088437,-0.034013605442176874,-0.03741496598639456,-0.04081632653061224,-0.04081632653061224,-0.04081632653061224,-0.034013605442176874,-0.027210884353741496,-0.023809523809523808,-0.02040816326530612,-0.017006802721088437,-0.017006802721088437,-0.02040816326530612,-0.02040816326530612,-0.02040816326530612,-0.017006802721088437,-0.017006802721088437,-0.017006802721088437,-0.017006802721088437,-0.017006802721088437,-0.017006802721088437,-0.017006802721088437,-0.017006802721088437,-0.02040816326530612,-0.02040816326530612,-0.02040816326530612,-0.02040816326530612,-0.02040816326530612,-0.02040816326530612,-0.02040816326530612,-0.02040816326530612,-0.09863945578231292,-0.12244897959183673,-0.12244897959183673,-0.12244897959183673,-0.12244897959183673,-0.12244897959183673,-0.12244897959183673,-0.12244897959183673,-0.12244897959183673,-0.12244897959183673,-0.12244897959183673,-0.12244897959183673,-0.12244897959183673,-0.12244897959183673,-0.12244897959183673,-0.12244897959183673,-0.12244897959183673,-0.12244897959183673,-0.12244897959183673,-0.12244897959183673,-0.12244897959183673,-0.12244897959183673,-0.12244897959183673,-0.12244897959183673,-0.12244897959183673,-0.12244897959183673,-0.12585034013605442,-0.12585034013605442,-0.12585034013605442,-0.12585034013605442,-0.12585034013605442,-0.12585034013605442,-0.12585034013605442,-0.12585034013605442,-0.12585034013605442,-0.12585034013605442,-0.12585034013605442,-0.12585034013605442,-0.12585034013605442,-0.12585034013605442,-0.12585034013605442,-0.12585034013605442,-0.12585034013605442,-0.12585034013605442,-0.12585034013605442,-0.12585034013605442,-0.12585034013605442,-0.12585034013605442,-0.12585034013605442,-0.12585034013605442,-0.12585034013605442,-0.12585034013605442,-0.12585034013605442,-0.12585034013605442,-0.12585034013605442,-0.12585034013605442,-0.12585034013605442,-0.12585034013605442,-0.12585034013605442,-0.12585034013605442,-0.12585034013605442,-0.12585034013605442,-0.12585034013605442,-0.12585034013605442,-0.12585034013605442,-0.12585034013605442,-0.12585034013605442,-0.12585034013605442,-0.12585034013605442,-0.12585034013605442,-0.12585034013605442,-0.12585034013605442,-0.12585034013605442,-0.12585034013605442,-0.12585034013605442,-0.12585034013605442,-0.12585034013605442,-0.12585034013605442,-0.12585034013605442,-0.12585034013605442,-0.12585034013605442,-0.12585034013605442,-0.12585034013605442,-0.12585034013605442,-0.12585034013605442,-0.12585034013605442,-0.12585034013605442,-0.12585034013605442,-0.12585034013605442,-0.12585034013605442,-0.12585034013605442,-0.12585034013605442,-0.12585034013605442,-0.12585034013605442,-0.12585034013605442,-0.12585034013605442,-0.12585034013605442,-0.12585034013605442,-0.12585034013605442,-0.12585034013605442,-0.12585034013605442,-0.12585034013605442,-0.12585034013605442,-0.12585034013605442,-0.12585034013605442,-0.12585034013605442,-0.12585034013605442,-0.12585034013605442,-0.12585034013605442,-0.12585034013605442,-0.12585034013605442,-0.12585034013605442,-0.12585034013605442,-0.12585034013605442,-0.12585034013605442,-0.12585034013605442,-0.12585034013605442,-0.12585034013605442,-0.12585034013605442,-0.12585034013605442,-0.12585034013605442,-0.12585034013605442,-0.12585034013605442,-0.12585034013605442,-0.12585034013605442,-0.12585034013605442,-0.12585034013605442,-0.12585034013605442,-0.12585034013605442,-0.12585034013605442,-0.12585034013605442,-0.12585034013605442,-0.12585034013605442,-0.12585034013605442,-0.12585034013605442,-0.12585034013605442,-0.11904761904761904,-0.11224489795918367,-0.09183673469387756,-0.09183673469387756,-0.09183673469387756,-0.09183673469387756,-0.09183673469387756,-0.09183673469387756,-0.09183673469387756,-0.09183673469387756,-0.08843537414965986,-0.08163265306122448,-0.07482993197278912,-0.07482993197278912,-0.07142857142857142,-0.06802721088435375,-0.047619047619047616,-0.023809523809523808,-0.017006802721088437,-0.01020408163265306,-0.006802721088435374,-0.003401360544217687,-0.003401360544217687,0,0,0,0,0,0,0,0,0,0,0,0,0,0,0,0,0,0.006802721088435374,0.006802721088435374,0.01020408163265306,0.013605442176870748,0.013605442176870748,0.013605442176870748,0.013605442176870748,0.017006802721088437,0.017006802721088437,0.017006802721088437,0.017006802721088437,0.017006802721088437,0.013605442176870748,0.01020408163265306,0.01020408163265306,0.006802721088435374,0.01020408163265306,0.01020408163265306,0.01020408163265306,0.01020408163265306,0.01020408163265306,0.01020408163265306,0.01020408163265306,0.006802721088435374,0.006802721088435374,0.006802721088435374,0.003401360544217687,0,0,0,-0.003401360544217687,-0.003401360544217687,-0.003401360544217687,0,0,0.003401360544217687,0.01020408163265306,0.02040816326530612,0.034013605442176874,0.05442176870748299,0.061224489795918366,0.07142857142857142,0.08163265306122448,0.08503401360544217,0.09523809523809523,0.09863945578231292,0.10204081632653061,0.11224489795918367,0.12244897959183673,0.1326530612244898,0.14625850340136054,0.1598639455782313,0.1836734693877551,0.19387755102040816,0.21768707482993196,0.24149659863945577,0.24829931972789115,0.2653061224489796,0.2755102040816326,0.2857142857142857,0.2857142857142857,0.30612244897959184,0.3197278911564626,0.3333333333333333,0.3435374149659864,0.3469387755102041,0.3469387755102041,0.3469387755102041,0.3469387755102041,0.35034013605442177,0.35034013605442177,0.35034013605442177,0.35374149659863946,0.35374149659863946,0.36054421768707484,0.36394557823129253,0.3673469387755102,0.3877551020408163,0.4013605442176871,0.40476190476190477,0.40816326530612246,0.40816326530612246,0.40816326530612246,0.40816326530612246,0.40816326530612246,0.40816326530612246,0.40816326530612246,0.40816326530612246,0.40816326530612246,0.40816326530612246,0.40816326530612246,0.40816326530612246,0.40816326530612246,0.40816326530612246,0.40816326530612246,0.40816326530612246,0.40816326530612246,0.40816326530612246,0.41496598639455784,0.41496598639455784,0.41496598639455784,0.41496598639455784,0.41496598639455784,0.41836734693877553,0.4217687074829932,0.4217687074829932,0.4217687074829932,0.4217687074829932,0.42517006802721086,0.42517006802721086,0.42517006802721086,0.42517006802721086,0.42517006802721086,0.42517006802721086,0.42517006802721086,0.42517006802721086,0.42517006802721086,0.42517006802721086,0.42517006802721086,0.42517006802721086,0.42517006802721086,0.42517006802721086,0.42517006802721086,0.42517006802721086,0.42517006802721086,0.42517006802721086,0.42517006802721086,0.42517006802721086,0.42517006802721086,0.42517006802721086,0.42517006802721086,0.42517006802721086,0.42517006802721086,0.42517006802721086,0.42517006802721086,0.42517006802721086,0.42517006802721086,0.42517006802721086,0.42517006802721086,0.42517006802721086,0.42517006802721086,0.41836734693877553,0.40476190476190477,0.3945578231292517,0.3877551020408163,0.3877551020408163,0.3877551020408163,0.3877551020408163,0.3877551020408163,0.3843537414965986,0.38095238095238093,0.38095238095238093,0.38095238095238093,0.38095238095238093,0.38095238095238093,0.38095238095238093,0.37755102040816324,0.3741496598639456,0.3673469387755102,0.35374149659863946,0.3469387755102041,0.30612244897959184,0.2687074829931973,0.24829931972789115,0.24829931972789115,0.24829931972789115,0.2653061224489796,0.30272108843537415,0.32653061224489793,0.35374149659863946,0.3673469387755102,0.4013605442176871,0.46938775510204084,0.5408163265306123,0.6870748299319728,0.7551020408163265,0.7551020408163265,0.7551020408163265,0.7448979591836735,0.7414965986394558,0.7414965986394558,0.7380952380952381,0.7346938775510204,0.7346938775510204,0.7312925170068028,0.7312925170068028,0.7278911564625851,0.7278911564625851,0.7278911564625851,0.7278911564625851,0.7312925170068028,0.7346938775510204,0.7482993197278912,0.7687074829931972,0.7891156462585034,0.8027210884353742,0.8163265306122449,0.826530612244898,0.8367346938775511,0.8401360544217688,0.8435374149659864,0.8435374149659864,0.8435374149659864,0.8503401360544217,0.8707482993197279,0.8775510204081632,0.8843537414965986,0.8945578231292517,0.9115646258503401,0.9149659863945578,0.9251700680272109,0.9319727891156463,0.9387755102040817,0.9455782312925171,0.9523809523809523,0.9523809523809523,0.9625850340136054,0.9727891156462585,0.9863945578231292,0.9931972789115646,1,1.0068027210884354,1.0136054421768708,1.0136054421768708,1.0136054421768708,1.0136054421768708,1.0136054421768708,1.0170068027210883,1.0170068027210883,1.0170068027210883,1.0204081632653061,1.0204081632653061,1.0204081632653061,1.0272108843537415,1.034013605442177,1.0510204081632653,1.0612244897959184,1.0748299319727892,1.0816326530612246,1.0918367346938775,1.098639455782313,1.1020408163265305,1.1088435374149659,1.1156462585034013,1.1224489795918366,1.129251700680272,1.129251700680272,1.1258503401360545,1.1224489795918366,1.1224489795918366,1.119047619047619,1.119047619047619,1.1156462585034013,1.1156462585034013,1.1122448979591837,1.1122448979591837,1.1088435374149659,1.1054421768707483,1.1054421768707483,1.1054421768707483,1.1020408163265305,1.1020408163265305,1.1020408163265305,1.1020408163265305,1.1020408163265305,1.1020408163265305,1.1020408163265305,1.1054421768707483,1.1088435374149659,1.1088435374149659,1.1156462585034013,1.1156462585034013,1.1224489795918366,1.1224489795918366,1.1258503401360545,1.129251700680272,1.1326530612244898,1.1360544217687074,1.1360544217687074,1.1360544217687074,1.1360544217687074,1.1360544217687074,1.1360544217687074,1.1360544217687074,1.1360544217687074,1.1360544217687074,1.1360544217687074,1.1360544217687074,1.1360544217687074,1.1360544217687074,1.1360544217687074,1.1360544217687074,1.1360544217687074,1.1360544217687074,1.1360544217687074,1.1360544217687074,1.1360544217687074,1.1360544217687074,1.1326530612244898,1.1258503401360545,1.119047619047619,1.119047619047619,1.119047619047619,1.119047619047619,1.129251700680272,1.129251700680272,1.129251700680272,1.129251700680272,1.129251700680272,1.1326530612244898,1.1326530612244898,1.1326530612244898,1.1326530612244898,1.1326530612244898,1.1326530612244898,1.1326530612244898,1.1326530612244898,1.1326530612244898,1.1326530612244898,1.1326530612244898,1.1326530612244898,1.1326530612244898,1.1326530612244898,1.1326530612244898,1.1326530612244898,1.1326530612244898,1.1326530612244898,1.1326530612244898,1.1326530612244898,1.1326530612244898,1.1326530612244898,1.1326530612244898,1.1326530612244898,1.1326530612244898,1.1326530612244898,1.1326530612244898,1.1326530612244898,1.1326530612244898,1.1326530612244898,1.1326530612244898,1.1326530612244898,1.1326530612244898,1.1326530612244898,1.1326530612244898,1.1326530612244898,1.1326530612244898,1.1326530612244898,1.1326530612244898,1.1326530612244898,1.1326530612244898,1.1326530612244898,1.1326530612244898,1.1326530612244898,1.1326530612244898,1.1326530612244898,1.1326530612244898,1.1326530612244898,1.1326530612244898,1.1326530612244898,1.1156462585034013,1.1088435374149659,1.1088435374149659,1.098639455782313,1.0748299319727892,1.0680272108843538,1.0680272108843538,1.0680272108843538,1.0680272108843538,1.0680272108843538,1.064625850340136,1.0578231292517006,1.0034013605442176,0.9455782312925171,0.9149659863945578,0.8979591836734694,0.8843537414965986,0.8707482993197279,0.8537414965986394,0.8435374149659864,0.8367346938775511,0.8095238095238095,0.7414965986394558,0.7346938775510204,0.7278911564625851,0.717687074829932,0.7006802721088435,0.6904761904761905,0.6802721088435374,0.673469387755102,0.6462585034013606,0.5714285714285714,0.5612244897959183,0.5374149659863946,0.5306122448979592,0.5170068027210885,0.5102040816326531,0.5102040816326531,0.5102040816326531,0.5102040816326531,0.5102040816326531,0.5102040816326531,0.5068027210884354,0.5068027210884354,0.5068027210884354,0.5034013605442177,0.5034013605442177,0.5034013605442177,0.5034013605442177,0.4965986394557823,0.4931972789115646,0.4897959183673469,0.48299319727891155,0.47619047619047616,0.46938775510204084,0.46258503401360546,0.4523809523809524,0.4489795918367347,0.4421768707482993,0.43537414965986393,0.42857142857142855,0.4217687074829932,0.41156462585034015,0.3945578231292517,0.38095238095238093,0.38095238095238093,0.37755102040816324,0.38095238095238093,0.3843537414965986,0.3877551020408163,0.3945578231292517,0.3945578231292517,0.3945578231292517,0.3945578231292517,0.3945578231292517,0.3945578231292517,0.3979591836734694,0.3979591836734694,0.3979591836734694,0.3979591836734694,0.4013605442176871,0.4013605442176871,0.4013605442176871,0.40476190476190477,0.40816326530612246,0.40816326530612246,0.40816326530612246,0.40816326530612246,0.40816326530612246,0.40816326530612246,0.40816326530612246,0.40816326530612246,0.40816326530612246,0.40816326530612246,0.40816326530612246,0.40816326530612246,0.40816326530612246,0.40816326530612246,0.40476190476190477,0.4013605442176871,0.3945578231292517,0.391156462585034,0.3877551020408163,0.38095238095238093,0.37755102040816324,0.3673469387755102,0.36054421768707484,0.36054421768707484,0.35034013605442177,0.35034013605442177,0.3469387755102041,0.3401360544217687,0.336734693877551,0.3333333333333333,0.3333333333333333,0.3231292517006803,0.3231292517006803,0.3197278911564626,0.3197278911564626,0.3197278911564626,0.3129251700680272,0.3129251700680272,0.30952380952380953,0.30952380952380953,0.30952380952380953,0.30612244897959184,0.30612244897959184,0.30612244897959184,0.30612244897959184,0.30612244897959184,0.30612244897959184,0.30612244897959184,0.30612244897959184,0.30612244897959184,0.30612244897959184,0.30612244897959184,0.30612244897959184,0.30612244897959184,0.30612244897959184,0.30612244897959184,0.3129251700680272,0.3163265306122449,0.32653061224489793,0.3401360544217687,0.35374149659863946,0.3673469387755102,0.37755102040816324,0.4013605442176871,0.41156462585034015,0.4421768707482993,0.46258503401360546,0.48299319727891155,0.5068027210884354,0.5408163265306123,0.5782312925170068,0.5782312925170068,0.5816326530612245,0.5816326530612245,0.5816326530612245,0.5816326530612245,0.5850340136054422,0.5850340136054422,0.5850340136054422,0.5816326530612245,0.5782312925170068,0.5816326530612245,0.5850340136054422,0.5850340136054422,0.5850340136054422,0.5850340136054422,0.5850340136054422,0.5850340136054422,0.5850340136054422,0.5850340136054422,0.5850340136054422,0.5850340136054422,0.5884353741496599,0.5918367346938775,0.5918367346938775,0.5918367346938775,0.5986394557823129,0.5986394557823129,0.5986394557823129,0.5986394557823129,0.5986394557823129,0.5986394557823129,0.5986394557823129,0.5986394557823129,0.6020408163265306,0.6020408163265306,0.6020408163265306,0.6020408163265306,0.5986394557823129,0.5986394557823129,0.5986394557823129,0.5986394557823129,0.5952380952380952,0.5952380952380952,0.5884353741496599,0.5850340136054422,0.5816326530612245,0.564625850340136,0.5578231292517006,0.5578231292517006,0.5510204081632653,0.54421768707483,0.54421768707483,0.54421768707483,0.5306122448979592,0.5238095238095238,0.5238095238095238,0.5238095238095238,0.5238095238095238,0.5238095238095238,0.5238095238095238,0.5238095238095238,0.5238095238095238,0.5204081632653061,0.5170068027210885,0.5170068027210885,0.5170068027210885,0.5170068027210885,0.5170068027210885,0.5170068027210885,0.5170068027210885,0.5170068027210885,0.5170068027210885,0.5170068027210885,0.5170068027210885,0.5170068027210885,0.5170068027210885,0.5170068027210885,0.5170068027210885,0.5170068027210885,0.5170068027210885,0.5170068027210885,0.5170068027210885,0.5170068027210885,0.5170068027210885,0.5170068027210885,0.5170068027210885,0.5170068027210885,0.5170068027210885,0.5170068027210885,0.5170068027210885,0.5170068027210885,0.5170068027210885,0.5170068027210885,0.5170068027210885,0.5170068027210885,0.5170068027210885,0.5170068027210885,0.5170068027210885,0.5170068027210885,0.5170068027210885,0.5170068027210885,0.5170068027210885,0.5170068027210885,0.5170068027210885,0.5170068027210885,0.5170068027210885,0.5170068027210885,0.5170068027210885,0.5170068027210885,0.5170068027210885,0.5170068027210885,0.5204081632653061,0.5238095238095238,0.5170068027210885,0.5034013605442177,0.4965986394557823,0.4897959183673469,0.4897959183673469,0.48639455782312924,0.47278911564625853,0.46258503401360546,0.42517006802721086,0.3673469387755102,0.32653061224489793,0.2925170068027211,0.2585034013605442,0.24489795918367346,0.23809523809523808,0.23469387755102042,0.23129251700680273,0.23129251700680273,0.23129251700680273,0.22789115646258504,0.22448979591836735,0.22448979591836735,0.22108843537414966,0.22108843537414966,0.21768707482993196,0.21768707482993196,0.21768707482993196,0.21768707482993196,0.21768707482993196,0.21768707482993196,0.21428571428571427,0.2108843537414966,0.2108843537414966,0.2108843537414966,0.2108843537414966,0.2108843537414966,0.2108843537414966,0.2108843537414966,0.2108843537414966,0.2108843537414966,0.2108843537414966,0.2108843537414966,0.2108843537414966,0.2108843537414966,0.2108843537414966,0.2108843537414966,0.2108843537414966,0.2108843537414966,0.2108843537414966,0.2108843537414966,0.2108843537414966,0.2108843537414966,0.21768707482993196,0.22448979591836735,0.22448979591836735,0.22789115646258504,0.23129251700680273,0.23809523809523808,0.24149659863945577,0.24489795918367346,0.25170068027210885,0.25510204081632654,0.2653061224489796,0.2687074829931973,0.282312925170068,0.2891156462585034,0.29931972789115646,0.30952380952380953,0.3299319727891156,0.36054421768707484,0.3707482993197279,0.38095238095238093,0.3945578231292517,0.40816326530612246,0.4217687074829932,0.4421768707482993,0.4557823129251701,0.46938775510204084,0.47619047619047616,0.48639455782312924,0.4965986394557823,0.5,0.5102040816326531,0.5238095238095238,0.5306122448979592,0.5408163265306123,0.5510204081632653,0.5578231292517006,0.5782312925170068,0.5816326530612245,0.5850340136054422,0.5884353741496599,0.5918367346938775,0.6020408163265306,0.6054421768707483,0.608843537414966,0.608843537414966,0.608843537414966,0.608843537414966,0.608843537414966,0.6020408163265306,0.5918367346938775,0.5850340136054422,0.5850340136054422,0.5850340136054422,0.5816326530612245,0.5816326530612245,0.5816326530612245,0.5816326530612245,0.5816326530612245,0.5816326530612245,0.5816326530612245,0.5850340136054422,0.5850340136054422,0.5918367346938775,0.608843537414966,0.6190476190476191,0.6258503401360545,0.6258503401360545,0.6326530612244898,0.6326530612244898,0.6326530612244898,0.6326530612244898,0.6428571428571429,0.6530612244897959,0.6564625850340136,0.6632653061224489,0.6836734693877551,0.6938775510204082,0.7074829931972789,0.7108843537414966,0.7108843537414966,0.7142857142857143,0.7142857142857143,0.7142857142857143,0.717687074829932,0.7142857142857143,0.7040816326530612,0.7006802721088435,0.6938775510204082,0.6802721088435374,0.6666666666666666,0.6462585034013606,0.6258503401360545,0.6122448979591837,0.6054421768707483,0.5986394557823129,0.5952380952380952,0.5884353741496599,0.5884353741496599,0.5850340136054422,0.5782312925170068,0.5714285714285714,0.5578231292517006,0.5510204081632653,0.5374149659863946,0.5306122448979592,0.5238095238095238,0.5238095238095238,0.5238095238095238,0.5238095238095238,0.5272108843537415,0.5306122448979592,0.5306122448979592,0.54421768707483,0.5476190476190477,0.5510204081632653,0.5510204081632653,0.5544217687074829,0.5544217687074829,0.5544217687074829,0.5544217687074829,0.5544217687074829,0.5544217687074829,0.5544217687074829,0.5544217687074829,0.5544217687074829,0.5544217687074829,0.5544217687074829,0.5544217687074829,0.5544217687074829,0.5544217687074829,0.5544217687074829,0.5544217687074829,0.5544217687074829,0.5544217687074829,0.5544217687074829,0.5544217687074829,0.5544217687074829,0.5544217687074829,0.5544217687074829,0.5544217687074829,0.5544217687074829,0.5544217687074829,0.5544217687074829,0.5544217687074829,0.5544217687074829,0.5544217687074829,0.5544217687074829,0.5544217687074829,0.5544217687074829,0.5544217687074829,0.5544217687074829,0.5544217687074829,0.5544217687074829,0.5544217687074829,0.5544217687074829,0.5544217687074829,0.5544217687074829,0.5544217687074829,0.5544217687074829,0.5544217687074829,0.5544217687074829,0.5544217687074829,0.5544217687074829,0.5544217687074829,0.5544217687074829,0.5544217687074829,0.5544217687074829,0.5544217687074829,0.5544217687074829,0.5544217687074829,0.5544217687074829,0.5544217687074829,0.5544217687074829,0.5544217687074829,0.5544217687074829,0.5544217687074829,0.5544217687074829,0.5544217687074829,0.5544217687074829,0.5544217687074829,0.5544217687074829,0.5544217687074829,0.5544217687074829,0.5544217687074829,0.5544217687074829,0.5544217687074829,0.5544217687074829,0.5544217687074829,0.5544217687074829,0.5544217687074829,0.54421768707483,0.5238095238095238,0.5068027210884354,0.4897959183673469,0.46938775510204084,0.4523809523809524,0.43537414965986393,0.41156462585034015,0.35714285714285715,0.3231292517006803,0.3163265306122449,0.3129251700680272,0.30952380952380953,0.29931972789115646,0.2857142857142857,0.25170068027210885,0.22789115646258504,0.21768707482993196,0.20748299319727892,0.1870748299319728,0.17687074829931973,0.14625850340136054,0.11224489795918367,0.08503401360544217,0.07482993197278912,0.06802721088435375,0.06462585034013606,0.05102040816326531,0.04081632653061224,0.03741496598639456,0.03741496598639456,0.034013605442176874,0.034013605442176874,0.034013605442176874,0.034013605442176874,0.034013605442176874,0.034013605442176874,0.034013605442176874,0.034013605442176874,0.034013605442176874,0.034013605442176874,0.034013605442176874,0.03741496598639456,0.04081632653061224,0.04421768707482993,0.04421768707482993,0.047619047619047616,0.05442176870748299,0.05442176870748299,0.061224489795918366,0.07482993197278912,0.07482993197278912,0.0782312925170068,0.08163265306122448,0.08503401360544217,0.08503401360544217,0.08843537414965986,0.08843537414965986,0.09523809523809523,0.09523809523809523,0.10204081632653061,0.10884353741496598,0.10884353741496598,0.11224489795918367,0.11564625850340136,0.11564625850340136,0.11904761904761904,0.11904761904761904,0.12244897959183673,0.1292517006802721,0.1292517006802721,0.13945578231292516,0.1564625850340136,0.1598639455782313,0.17006802721088435,0.17687074829931973,0.1836734693877551,0.2108843537414966,0.24489795918367346,0.2687074829931973,0.2755102040816326,0.2755102040816326,0.2755102040816326,0.2755102040816326,0.2755102040816326,0.2619047619047619,0.25510204081632654,0.22789115646258504,0.22108843537414966,0.2108843537414966,0.2108843537414966,0.20748299319727892,0.20408163265306123,0.20408163265306123,0.19727891156462585,0.19727891156462585,0.19727891156462585,0.19727891156462585,0.19727891156462585,0.19387755102040816,0.1870748299319728,0.18027210884353742,0.17346938775510204,0.17006802721088435,0.17006802721088435,0.16666666666666666,0.16326530612244897,0.16326530612244897,0.16326530612244897,0.16326530612244897,0.16326530612244897,0.16326530612244897,0.16326530612244897,0.16326530612244897,0.16326530612244897,0.16326530612244897,0.16326530612244897,0.16326530612244897,0.16666666666666666,0.16666666666666666,0.16666666666666666,0.17006802721088435,0.17006802721088435,0.17006802721088435,0.17346938775510204,0.17687074829931973,0.18027210884353742,0.18027210884353742,0.1870748299319728,0.2108843537414966,0.22789115646258504,0.23809523809523808,0.25170068027210885,0.2585034013605442,0.272108843537415,0.2857142857142857,0.3129251700680272,0.3197278911564626,0.3197278911564626,0.3197278911564626,0.3197278911564626,0.3197278911564626,0.32653061224489793,0.3333333333333333,0.3401360544217687,0.35714285714285715,0.38095238095238093,0.3843537414965986,0.3877551020408163,0.3979591836734694,0.4013605442176871,0.41156462585034015,0.4489795918367347,0.46938775510204084,0.4897959183673469,0.4897959183673469,0.4897959183673469,0.4897959183673469,0.4897959183673469,0.4897959183673469,0.4897959183673469,0.4897959183673469,0.4897959183673469,0.4897959183673469,0.48639455782312924,0.48299319727891155,0.48299319727891155,0.48299319727891155,0.48299319727891155,0.48299319727891155,0.48299319727891155,0.48299319727891155,0.4897959183673469,0.5034013605442177,0.5068027210884354,0.5102040816326531,0.5204081632653061,0.5238095238095238,0.5238095238095238,0.5272108843537415,0.5306122448979592,0.5374149659863946,0.5408163265306123,0.54421768707483,0.54421768707483,0.54421768707483,0.5476190476190477,0.5510204081632653,0.5510204081632653,0.5510204081632653,0.5510204081632653,0.5510204081632653,0.5510204081632653,0.5510204081632653,0.5510204081632653,0.5510204081632653,0.5510204081632653,0.5510204081632653,0.5510204081632653,0.5510204081632653,0.5510204081632653,0.5510204081632653,0.5510204081632653,0.5510204081632653,0.5510204081632653,0.5510204081632653,0.5476190476190477,0.54421768707483,0.5306122448979592,0.5102040816326531,0.4897959183673469,0.46598639455782315,0.42857142857142855,0.40816326530612246,0.391156462585034,0.37755102040816324,0.3741496598639456,0.3673469387755102,0.3673469387755102,0.3673469387755102,0.36394557823129253,0.36394557823129253,0.36394557823129253,0.36394557823129253,0.36394557823129253,0.36394557823129253,0.36394557823129253,0.36394557823129253,0.36394557823129253,0.3673469387755102,0.3673469387755102,0.3673469387755102,0.3673469387755102,0.3673469387755102,0.3707482993197279,0.3707482993197279,0.3707482993197279,0.3673469387755102,0.3673469387755102,0.3673469387755102,0.3673469387755102,0.3673469387755102,0.3673469387755102,0.3673469387755102,0.3673469387755102,0.3673469387755102,0.37755102040816324,0.38095238095238093,0.38095238095238093,0.38095238095238093,0.38095238095238093,0.3877551020408163,0.3877551020408163,0.3877551020408163,0.3877551020408163,0.391156462585034,0.391156462585034,0.391156462585034,0.391156462585034,0.391156462585034,0.391156462585034,0.391156462585034,0.391156462585034,0.3945578231292517,0.3945578231292517,0.3945578231292517,0.4013605442176871,0.4013605442176871,0.40476190476190477,0.40476190476190477,0.40816326530612246,0.40816326530612246,0.41496598639455784,0.41836734693877553,0.4217687074829932,0.42857142857142855,0.42857142857142855,0.42857142857142855,0.42857142857142855,0.43197278911564624,0.43197278911564624,0.4387755102040816,0.4489795918367347,0.46598639455782315,0.47619047619047616,0.4965986394557823,0.5510204081632653,0.5986394557823129,0.6802721088435374,0.7619047619047619,0.7789115646258503,0.7959183673469388,0.8027210884353742,0.826530612244898,0.8367346938775511,0.8503401360544217,0.8571428571428571,0.8571428571428571,0.8605442176870748,0.8605442176870748,0.8571428571428571,0.8571428571428571,0.8571428571428571,0.8571428571428571,0.8571428571428571,0.8571428571428571,0.8571428571428571,0.8571428571428571,0.8571428571428571,0.8571428571428571,0.8571428571428571,0.8571428571428571,0.8571428571428571,0.8571428571428571,0.8571428571428571,0.8571428571428571,0.8571428571428571,0.8571428571428571,0.8571428571428571,0.8571428571428571,0.8571428571428571,0.8537414965986394,0.8469387755102041,0.8401360544217688,0.8299319727891157,0.8197278911564626,0.8027210884353742,0.7278911564625851,0.6530612244897959,0.5578231292517006,0.5136054421768708,0.4897959183673469,0.46938775510204084,0.4523809523809524,0.4421768707482993,0.4387755102040816,0.43197278911564624,0.4217687074829932,0.4013605442176871,0.3707482993197279,0.36054421768707484,0.35714285714285715,0.35374149659863946,0.35034013605442177,0.3469387755102041,0.3469387755102041,0.3401360544217687,0.32653061224489793,0.3163265306122449,0.30612244897959184,0.30272108843537415,0.30272108843537415,0.29931972789115646,0.29591836734693877,0.2857142857142857,0.2755102040816326,0.272108843537415,0.2653061224489796,0.2585034013605442,0.25170068027210885,0.24829931972789115,0.24829931972789115,0.24489795918367346,0.24489795918367346,0.24489795918367346,0.24489795918367346,0.24489795918367346,0.24489795918367346,0.23809523809523808,0.23469387755102042,0.23129251700680273,0.22789115646258504,0.22448979591836735,0.22448979591836735,0.22108843537414966,0.21428571428571427,0.21428571428571427,0.20748299319727892,0.20408163265306123,0.20068027210884354,0.20068027210884354,0.20068027210884354,0.20068027210884354,0.20408163265306123,0.2108843537414966,0.2108843537414966,0.21428571428571427,0.21768707482993196,0.21768707482993196,0.22108843537414966,0.22448979591836735,0.22789115646258504,0.23809523809523808,0.24149659863945577,0.24829931972789115,0.25170068027210885,0.2585034013605442,0.2653061224489796,0.272108843537415,0.272108843537415,0.272108843537415,0.272108843537415,0.2755102040816326,0.2789115646258503,0.2789115646258503,0.2789115646258503,0.2789115646258503,0.2789115646258503,0.2789115646258503,0.2789115646258503,0.2789115646258503,0.2789115646258503,0.2789115646258503,0.2789115646258503,0.2789115646258503,0.2789115646258503,0.2789115646258503,0.2789115646258503,0.2789115646258503,0.2789115646258503,0.2789115646258503,0.2789115646258503,0.2789115646258503,0.2755102040816326,0.2687074829931973,0.2653061224489796,0.25510204081632654,0.24829931972789115,0.23469387755102042,0.21768707482993196,0.21428571428571427,0.2108843537414966,0.20748299319727892,0.20748299319727892,0.20748299319727892,0.20408163265306123,0.20408163265306123,0.20068027210884354,0.19727891156462585,0.19727891156462585,0.19727891156462585,0.19387755102040816,0.19387755102040816,0.19387755102040816,0.19047619047619047,0.1870748299319728,0.1836734693877551,0.1836734693877551,0.1836734693877551,0.18027210884353742,0.17687074829931973,0.17687074829931973,0.17346938775510204,0.17006802721088435,0.17006802721088435,0.17006802721088435,0.1836734693877551,0.19727891156462585,0.20408163265306123,0.2108843537414966,0.21428571428571427,0.21768707482993196,0.21768707482993196,0.21768707482993196,0.22108843537414966,0.22789115646258504,0.24489795918367346,0.2619047619047619,0.3333333333333333,0.5374149659863946,0.5986394557823129,0.6394557823129252,0.6700680272108843,0.6836734693877551,0.6870748299319728,0.6938775510204082,0.6972789115646258,0.7244897959183674,0.7380952380952381,0.7721088435374149,0.8095238095238095,0.8163265306122449,0.8163265306122449,0.8231292517006803,0.8231292517006803,0.8299319727891157,0.8333333333333334,0.8367346938775511,0.8367346938775511,0.8367346938775511,0.8367346938775511,0.8367346938775511,0.8367346938775511,0.8367346938775511,0.8367346938775511,0.8367346938775511,0.8367346938775511,0.8367346938775511,0.8367346938775511,0.8367346938775511,0.8367346938775511,0.8367346938775511,0.8367346938775511,0.8367346938775511,0.8367346938775511,0.8367346938775511,0.8367346938775511,0.8367346938775511,0.8367346938775511,0.8367346938775511,0.8367346938775511,0.8401360544217688,0.8435374149659864,0.8435374149659864,0.8435374149659864,0.8469387755102041,0.8469387755102041,0.8537414965986394,0.8639455782312925,0.8639455782312925,0.8707482993197279,0.8707482993197279,0.8707482993197279,0.8707482993197279,0.8707482993197279,0.8707482993197279,0.8707482993197279,0.8707482993197279,0.8707482993197279,0.8707482993197279,0.8707482993197279,0.8707482993197279,0.8707482993197279,0.8707482993197279,0.8707482993197279,0.8707482993197279,0.8707482993197279,0.8707482993197279,0.8673469387755102,0.8673469387755102,0.8673469387755102,0.8639455782312925,0.8639455782312925,0.8639455782312925,0.8639455782312925,0.8639455782312925,0.8639455782312925,0.8571428571428571,0.8503401360544217,0.8503401360544217,0.8435374149659864,0.8435374149659864,0.8367346938775511,0.8333333333333334,0.8299319727891157,0.8299319727891157,0.8231292517006803,0.8231292517006803,0.8197278911564626,0.8061224489795918,0.7959183673469388,0.782312925170068,0.7755102040816326,0.7755102040816326,0.7755102040816326,0.7755102040816326,0.7721088435374149,0.7721088435374149,0.7721088435374149,0.7721088435374149,0.7721088435374149,0.7687074829931972,0.7687074829931972,0.7687074829931972,0.7585034013605442,0.7551020408163265,0.7517006802721088,0.7482993197278912,0.7414965986394558,0.7414965986394558,0.7414965986394558,0.7414965986394558,0.7414965986394558,0.7414965986394558,0.7414965986394558,0.7414965986394558,0.7414965986394558,0.7414965986394558,0.7414965986394558,0.7414965986394558,0.7414965986394558,0.7414965986394558,0.7414965986394558,0.7414965986394558,0.7414965986394558,0.7414965986394558,0.7414965986394558,0.7414965986394558,0.7414965986394558,0.7448979591836735,0.7448979591836735,0.7448979591836735,0.7482993197278912,0.7482993197278912,0.7619047619047619,0.7687074829931972,0.7687074829931972,0.7755102040816326,0.7755102040816326,0.7755102040816326,0.7755102040816326,0.7891156462585034,0.7891156462585034,0.7891156462585034,0.7925170068027211,0.8061224489795918,0.8095238095238095,0.8095238095238095,0.8095238095238095,0.8027210884353742,0.7959183673469388,0.7891156462585034,0.782312925170068,0.782312925170068,0.7789115646258503,0.7789115646258503,0.7755102040816326,0.7687074829931972,0.7687074829931972,0.7653061224489796,0.7619047619047619,0.7619047619047619,0.7619047619047619,0.7619047619047619,0.7619047619047619,0.7551020408163265,0.7551020408163265,0.7517006802721088,0.7482993197278912,0.7482993197278912,0.7448979591836735,0.7414965986394558,0.7414965986394558,0.7414965986394558,0.7414965986394558,0.7414965986394558,0.7414965986394558,0.7414965986394558,0.7414965986394558,0.7414965986394558,0.7414965986394558,0.7414965986394558,0.7414965986394558,0.7414965986394558,0.7414965986394558,0.7448979591836735,0.7482993197278912,0.7551020408163265,0.7551020408163265,0.7619047619047619,0.7687074829931972,0.7755102040816326,0.782312925170068,0.782312925170068,0.7891156462585034,0.7891156462585034,0.7959183673469388,0.7993197278911565,0.8027210884353742,0.8061224489795918,0.8061224489795918,0.8095238095238095,0.8095238095238095,0.8095238095238095,0.8095238095238095,0.8095238095238095,0.8095238095238095,0.8095238095238095,0.8095238095238095,0.8095238095238095,0.8095238095238095,0.8095238095238095,0.8095238095238095,0.8095238095238095,0.8027210884353742,0.7959183673469388,0.7959183673469388,0.7959183673469388,0.7925170068027211,0.7925170068027211,0.7925170068027211,0.7891156462585034,0.7891156462585034,0.782312925170068,0.782312925170068,0.7789115646258503,0.7755102040816326,0.7687074829931972,0.7551020408163265,0.7551020408163265,0.7517006802721088,0.7482993197278912,0.7482993197278912,0.7482993197278912,0.7414965986394558,0.7380952380952381,0.7380952380952381,0.7346938775510204,0.7346938775510204,0.7278911564625851,0.7278911564625851,0.7278911564625851,0.7278911564625851,0.7210884353741497,0.7210884353741497,0.7210884353741497,0.717687074829932,0.717687074829932,0.7142857142857143,0.7142857142857143,0.7142857142857143,0.7142857142857143,0.7142857142857143,0.7142857142857143,0.7142857142857143,0.7142857142857143,0.7142857142857143,0.7142857142857143,0.7142857142857143,0.7142857142857143,0.7142857142857143,0.7142857142857143,0.7142857142857143,0.7142857142857143,0.7142857142857143,0.7142857142857143,0.7142857142857143,0.7142857142857143,0.7142857142857143,0.7142857142857143,0.7142857142857143,0.7142857142857143,0.7142857142857143,0.7142857142857143,0.7142857142857143,0.7142857142857143,0.7142857142857143,0.7142857142857143,0.7142857142857143,0.7142857142857143,0.7142857142857143,0.7142857142857143,0.7142857142857143,0.7142857142857143,0.7142857142857143,0.7142857142857143,0.7142857142857143,0.7142857142857143,0.7142857142857143,0.7142857142857143,0.7142857142857143,0.7142857142857143,0.7142857142857143,0.7142857142857143,0.7142857142857143,0.7142857142857143,0.7142857142857143,0.7210884353741497,0.7380952380952381,0.7517006802721088,0.7619047619047619,0.7755102040816326,0.7755102040816326,0.782312925170068,0.782312925170068,0.7993197278911565,0.8163265306122449,0.8231292517006803,0.8231292517006803,0.8231292517006803,0.826530612244898,0.826530612244898,0.8299319727891157,0.8299319727891157,0.8299319727891157,0.8299319727891157,0.8299319727891157,0.8299319727891157,0.8299319727891157,0.8299319727891157,0.8299319727891157,0.8129251700680272,0.8027210884353742,0.7959183673469388,0.7959183673469388,0.7959183673469388,0.7959183673469388,0.7959183673469388,0.7959183673469388,0.7891156462585034,0.7789115646258503,0.7687074829931972,0.7619047619047619,0.7414965986394558,0.7210884353741497,0.6836734693877551,0.6020408163265306,0.5850340136054422,0.5714285714285714,0.5476190476190477,0.5034013605442177,0.48299319727891155,0.4523809523809524,0.41496598639455784,0.3877551020408163,0.3673469387755102,0.35374149659863946,0.35034013605442177,0.3435374149659864,0.3401360544217687,0.336734693877551,0.3333333333333333,0.3231292517006803,0.30952380952380953,0.29591836734693877,0.282312925170068,0.272108843537415,0.2653061224489796,0.25510204081632654,0.24829931972789115,0.24829931972789115,0.24489795918367346,0.24149659863945577,0.23129251700680273,0.21768707482993196,0.2108843537414966,0.20408163265306123,0.19727891156462585,0.19047619047619047,0.1836734693877551,0.18027210884353742,0.18027210884353742,0.18027210884353742,0.18027210884353742,0.18027210884353742,0.18027210884353742,0.18027210884353742,0.18027210884353742,0.18027210884353742,0.18027210884353742,0.18027210884353742,0.18027210884353742,0.18027210884353742,0.18027210884353742,0.18027210884353742,0.18027210884353742,0.18027210884353742,0.1836734693877551,0.1836734693877551,0.1836734693877551,0.1870748299319728,0.19387755102040816,0.20068027210884354,0.2108843537414966,0.25170068027210885,0.2925170068027211,0.35034013605442177,0.3843537414965986,0.4013605442176871,0.4387755102040816,0.46258503401360546,0.5034013605442177,0.5612244897959183,0.5748299319727891,0.5782312925170068,0.5782312925170068,0.5816326530612245,0.5850340136054422,0.5884353741496599,0.5986394557823129,0.6122448979591837,0.6530612244897959,0.7006802721088435,0.7278911564625851,0.7346938775510204,0.7414965986394558,0.7687074829931972,0.7789115646258503,0.7925170068027211,0.8129251700680272,0.8163265306122449,0.8231292517006803,0.8299319727891157,0.8333333333333334,0.8367346938775511,0.8367346938775511,0.8367346938775511,0.8401360544217688,0.8401360544217688,0.8401360544217688,0.8401360544217688,0.8401360544217688,0.8401360544217688,0.8401360544217688,0.8401360544217688,0.8401360544217688,0.8401360544217688,0.8401360544217688,0.8401360544217688,0.8401360544217688,0.8401360544217688,0.8401360544217688,0.8401360544217688,0.8401360544217688,0.8401360544217688,0.8401360544217688,0.8401360544217688,0.8401360544217688,0.8401360544217688,0.8435374149659864,0.8537414965986394,0.8673469387755102,0.8775510204081632,0.8775510204081632,0.8775510204081632,0.8775510204081632,0.8809523809523809,0.8809523809523809,0.8843537414965986,0.8843537414965986,0.8843537414965986,0.8843537414965986,0.8843537414965986,0.8843537414965986,0.8843537414965986,0.8843537414965986,0.8843537414965986,0.8843537414965986,0.8843537414965986,0.8843537414965986,0.8843537414965986,0.8843537414965986,0.8809523809523809,0.8775510204081632,0.8775510204081632,0.8741496598639455,0.8741496598639455,0.8775510204081632,0.8775510204081632,0.8775510204081632,0.8843537414965986,0.8945578231292517,0.9183673469387755,0.9523809523809523,0.9931972789115646,1.0068027210884354,1.0170068027210883,1.0272108843537415,1.0272108843537415,1.034013605442177,1.034013605442177,1.0374149659863945,1.0374149659863945,1.0374149659863945,1.0408163265306123,1.0476190476190477,1.0476190476190477,1.0510204081632653,1.0510204081632653,1.054421768707483,1.0612244897959184,1.064625850340136,1.064625850340136,1.064625850340136,1.0680272108843538,1.0680272108843538,1.0680272108843538,1.0714285714285714,1.0714285714285714,1.0748299319727892,1.0782312925170068,1.0816326530612246,1.0816326530612246,1.0850340136054422,1.08843537414966,1.08843537414966,1.08843537414966,1.08843537414966,1.0918367346938775,1.0952380952380953,1.098639455782313,1.1020408163265305,1.1020408163265305,1.1020408163265305,1.1054421768707483,1.1054421768707483,1.1088435374149659,1.1088435374149659,1.1088435374149659,1.1088435374149659,1.1088435374149659,1.1088435374149659,1.1088435374149659,1.1088435374149659,1.1088435374149659,1.1088435374149659,1.1088435374149659,1.1088435374149659,1.1088435374149659,1.1088435374149659,1.1088435374149659,1.1088435374149659,1.1088435374149659,1.1088435374149659,1.1088435374149659,1.1054421768707483,1.1020408163265305,1.0952380952380953,1.0918367346938775,1.0850340136054422,1.0748299319727892,1.0612244897959184,1.0442176870748299,1.030612244897959,1.0204081632653061,1.0068027210884354,0.9795918367346939,0.9727891156462585,0.9693877551020408,0.9693877551020408,0.9693877551020408,0.9659863945578231,0.9591836734693877,0.9591836734693877,0.95578231292517,0.9523809523809523,0.9489795918367347,0.9455782312925171,0.9421768707482994,0.9387755102040817,0.9387755102040817,0.9387755102040817,0.9387755102040817,0.9387755102040817,0.935374149659864,0.935374149659864,0.9319727891156463,0.9319727891156463,0.9217687074829932,0.9217687074829932,0.9217687074829932,0.9217687074829932,0.9217687074829932,0.9217687074829932,0.9217687074829932,0.9217687074829932,0.9217687074829932,0.9217687074829932,0.9217687074829932,0.9217687074829932,0.9217687074829932,0.9217687074829932,0.9217687074829932,0.9217687074829932,0.9217687074829932,0.9217687074829932,0.9217687074829932,0.9217687074829932,0.9217687074829932,0.9217687074829932,0.9217687074829932,0.9217687074829932,0.9217687074829932,0.9217687074829932,0.9217687074829932,0.9217687074829932,0.9217687074829932,0.9217687074829932,0.9217687074829932,0.9217687074829932,0.9217687074829932,0.9217687074829932,0.9217687074829932,0.9217687074829932,0.9217687074829932,0.9217687074829932,0.9217687074829932,0.9217687074829932,0.9217687074829932,0.9217687074829932,0.9217687074829932,0.9217687074829932,0.9217687074829932,0.9217687074829932,0.9217687074829932,0.9217687074829932,0.9217687074829932,0.9217687074829932,0.9251700680272109,0.9251700680272109,0.9251700680272109,0.9251700680272109,0.9251700680272109,0.9319727891156463,0.9251700680272109,0.9115646258503401,0.9115646258503401,0.9115646258503401,0.9115646258503401,0.9115646258503401,0.9115646258503401,0.9115646258503401,0.9115646258503401,0.9115646258503401,0.9149659863945578,0.9149659863945578,0.9183673469387755,0.9251700680272109,0.9319727891156463,0.9319727891156463,0.9319727891156463,0.9319727891156463,0.9319727891156463,0.9285714285714286,0.9149659863945578,0.9081632653061225,0.8945578231292517,0.8707482993197279,0.8503401360544217,0.8435374149659864,0.8435374149659864,0.8435374149659864,0.8469387755102041,0.8537414965986394,0.8809523809523809,0.8877551020408163,0.891156462585034,0.9081632653061225,0.9081632653061225,0.9081632653061225,0.9081632653061225,0.9081632653061225,0.9081632653061225,0.9081632653061225,0.9081632653061225,0.9081632653061225,0.9081632653061225,0.9081632653061225,0.9081632653061225,0.9115646258503401,0.9149659863945578,0.9149659863945578,0.9183673469387755,0.9183673469387755,0.9183673469387755,0.9183673469387755,0.9183673469387755,0.9251700680272109,0.9319727891156463,0.9319727891156463,0.9387755102040817,0.9421768707482994,0.9455782312925171,0.95578231292517,0.9625850340136054,0.9727891156462585,0.9795918367346939,0.9829931972789115,0.9829931972789115,0.9863945578231292,0.9897959183673469,0.9931972789115646,0.9965986394557823,1,1,1.0034013605442176,1.0034013605442176,1.0068027210884354,1.0068027210884354,1.0068027210884354,1.0068027210884354,1.0068027210884354,1.0068027210884354,1.0068027210884354,1.0068027210884354,1.0068027210884354,1.0068027210884354,1.0068027210884354,1.0068027210884354,1.0068027210884354,1.0068027210884354,1.0068027210884354,1.0068027210884354,1.0068027210884354,1.0068027210884354,1.0068027210884354,1.0068027210884354,1.0068027210884354,1.010204081632653,1.0068027210884354,1.010204081632653,1.0136054421768708,1.0136054421768708,1.0170068027210883,1.0204081632653061,1.0204081632653061,1.0204081632653061,1.0238095238095237,1.0272108843537415,1.030612244897959,1.030612244897959,1.030612244897959,1.034013605442177,1.034013605442177,1.034013605442177,1.034013605442177,1.034013605442177,1.034013605442177,1.034013605442177,1.030612244897959,1.030612244897959,1.034013605442177,1.0374149659863945,1.0408163265306123,1.0408163265306123,1.0408163265306123,1.0578231292517006,1.0612244897959184,1.064625850340136,1.064625850340136,1.0612244897959184,1.0612244897959184,1.0612244897959184,1.0612244897959184,1.0612244897959184,1.0612244897959184,1.0578231292517006,1.0578231292517006,1.054421768707483,1.054421768707483,1.0510204081632653,1.0510204081632653,1.0442176870748299,1.0442176870748299,1.0442176870748299,1.0408163265306123,1.0408163265306123,1.0374149659863945,1.034013605442177,1.0238095238095237,1.0204081632653061,1.0204081632653061,1.0204081632653061,1.0170068027210883,1.0136054421768708,1.010204081632653,1.0068027210884354,1,0.9931972789115646,0.9897959183673469,0.9897959183673469,0.9897959183673469,0.9897959183673469,0.9897959183673469,0.9897959183673469,0.9897959183673469,0.9897959183673469,0.9897959183673469,0.9897959183673469,0.9897959183673469,0.9897959183673469,0.9897959183673469,0.9897959183673469,0.9897959183673469,0.9897959183673469,0.9897959183673469,0.9897959183673469,0.9897959183673469,0.9897959183673469,0.9897959183673469,0.9897959183673469,0.9897959183673469,0.9897959183673469,0.9897959183673469,0.9897959183673469,0.9897959183673469,0.9897959183673469,0.9897959183673469,0.9897959183673469,0.9897959183673469,0.9897959183673469,0.9897959183673469,0.9897959183673469,0.9897959183673469,0.9897959183673469,0.9897959183673469,0.9897959183673469,0.9897959183673469,0.9897959183673469,0.9897959183673469,0.9931972789115646,0.9931972789115646,0.9931972789115646,0.9965986394557823,0.9965986394557823,0.9965986394557823,0.9965986394557823,0.9965986394557823,0.9965986394557823,0.9965986394557823,0.9965986394557823,0.9965986394557823,1,1,1,1,1,1,1,1,1,1,1,1,1,1,1,1,0.9931972789115646,0.9863945578231292,0.9795918367346939,0.9523809523809523,0.9251700680272109,0.9047619047619048,0.8809523809523809,0.8299319727891157,0.7993197278911565,0.7721088435374149,0.7448979591836735,0.7278911564625851,0.7210884353741497,0.7142857142857143,0.7074829931972789,0.6870748299319728,0.673469387755102,0.6190476190476191,0.5986394557823129,0.5918367346938775,0.5850340136054422,0.5850340136054422,0.5850340136054422,0.5816326530612245,0.5782312925170068,0.5748299319727891,0.5714285714285714,0.5612244897959183,0.5578231292517006,0.5544217687074829,0.5476190476190477,0.5374149659863946,0.5374149659863946,0.5306122448979592,0.5238095238095238,0.5204081632653061,0.5170068027210885,0.5102040816326531,0.5034013605442177,0.4965986394557823,0.47619047619047616,0.46258503401360546,0.4387755102040816,0.4217687074829932,0.41156462585034015,0.40816326530612246,0.4013605442176871,0.3979591836734694,0.3945578231292517,0.391156462585034,0.36054421768707484,0.35374149659863946,0.35374149659863946,0.35374149659863946,0.36054421768707484,0.3979591836734694,0.42517006802721086,0.46258503401360546,0.5034013605442177,0.5374149659863946,0.5374149659863946,0.54421768707483,0.5476190476190477,0.5578231292517006,0.5714285714285714,0.5816326530612245,0.6156462585034014,0.6224489795918368,0.6666666666666666,0.7108843537414966,0.7959183673469388,0.8299319727891157,0.8367346938775511,0.8537414965986394,0.8571428571428571,0.8639455782312925,0.8639455782312925,0.8673469387755102,0.8707482993197279,0.8775510204081632,0.8979591836734694,0.9115646258503401,0.9115646258503401,0.9183673469387755,0.9183673469387755,0.9217687074829932,0.9319727891156463,0.9319727891156463,0.935374149659864,0.9387755102040817,0.9455782312925171,0.9489795918367347,0.9489795918367347,0.9489795918367347,0.9489795918367347,0.9489795918367347,0.9455782312925171,0.9387755102040817,0.935374149659864,0.9251700680272109,0.9183673469387755,0.8775510204081632,0.8401360544217688,0.7891156462585034,0.7482993197278912,0.7074829931972789,0.673469387755102,0.6326530612244898,0.6054421768707483,0.5884353741496599,0.5782312925170068,0.5748299319727891,0.5680272108843537,0.5544217687074829,0.5374149659863946,0.5306122448979592,0.5238095238095238,0.5170068027210885,0.5102040816326531,0.5068027210884354,0.5,0.48639455782312924,0.48299319727891155,0.47619047619047616,0.47619047619047616,0.46938775510204084,0.4489795918367347,0.4489795918367347,0.4421768707482993,0.42857142857142855,0.42517006802721086,0.4217687074829932,0.40816326530612246,0.4013605442176871,0.391156462585034,0.38095238095238093,0.3741496598639456,0.3673469387755102,0.36054421768707484,0.35374149659863946,0.3469387755102041,0.336734693877551,0.32653061224489793,0.3197278911564626,0.3129251700680272,0.30612244897959184,0.29931972789115646,0.29591836734693877,0.2925170068027211,0.2891156462585034,0.282312925170068,0.272108843537415,0.25510204081632654,0.24829931972789115,0.22789115646258504,0.21768707482993196,0.20748299319727892,0.20408163265306123,0.20068027210884354,0.20068027210884354,0.20068027210884354,0.19727891156462585,0.19727891156462585,0.19387755102040816,0.19047619047619047,0.19047619047619047,0.1836734693877551,0.1836734693877551,0.17687074829931973,0.17687074829931973,0.16666666666666666,0.16326530612244897,0.1564625850340136,0.1564625850340136,0.15306122448979592,0.14965986394557823,0.14965986394557823,0.14965986394557823,0.14965986394557823,0.14625850340136054,0.14625850340136054,0.14625850340136054,0.14625850340136054,0.14625850340136054,0.14625850340136054,0.14625850340136054,0.14625850340136054,0.14625850340136054,0.14625850340136054,0.14625850340136054,0.14965986394557823,0.14965986394557823,0.14965986394557823,0.14965986394557823,0.15306122448979592,0.1564625850340136,0.1564625850340136,0.16326530612244897,0.16326530612244897,0.17006802721088435,0.17687074829931973,0.19047619047619047,0.20408163265306123,0.21768707482993196,0.23809523809523808,0.24489795918367346,0.272108843537415,0.282312925170068,0.2925170068027211,0.29931972789115646,0.29931972789115646,0.30612244897959184,0.30612244897959184,0.30612244897959184,0.30952380952380953,0.3129251700680272,0.3163265306122449,0.3129251700680272,0.3129251700680272,0.3129251700680272,0.3129251700680272,0.3129251700680272,0.3129251700680272,0.3163265306122449,0.3129251700680272,0.3129251700680272,0.30952380952380953,0.30952380952380953,0.3163265306122449,0.3163265306122449,0.3197278911564626,0.32653061224489793,0.3333333333333333,0.3333333333333333,0.3333333333333333,0.3333333333333333,0.3299319727891156,0.32653061224489793,0.32653061224489793,0.32653061224489793,0.3231292517006803,0.3231292517006803,0.3231292517006803,0.3231292517006803,0.3231292517006803,0.3333333333333333,0.3741496598639456,0.38095238095238093,0.3877551020408163,0.391156462585034,0.3945578231292517,0.3945578231292517,0.3945578231292517,0.3945578231292517,0.3979591836734694,0.3979591836734694,0.4013605442176871,0.4013605442176871,0.4013605442176871,0.4013605442176871,0.4013605442176871,0.4013605442176871],"y":[-3.1746031746031744,-3.1746031746031744,-3.1746031746031744,0.9539682539682541,0.9444444444444446,0.9349206349206352,0.8301587301587303,0.8111111111111113,0.8111111111111113,0.8015873015873017,0.8015873015873017,0.8015873015873017,0.8015873015873017,0.8015873015873017,0.8015873015873017,0.8015873015873017,0.8015873015873017,0.8015873015873017,0.8015873015873017,0.8015873015873017,0.8015873015873017,0.8015873015873017,0.8015873015873017,0.8015873015873017,0.8015873015873017,0.8015873015873017,0.8015873015873017,0.8015873015873017,0.8015873015873017,0.8015873015873017,0.8111111111111113,0.8111111111111113,0.8206349206349208,0.8301587301587303,0.8587301587301589,0.877777777777778,0.9063492063492066,0.9253968253968256,0.9349206349206352,0.9349206349206352,0.9063492063492066,0.896825396825397,0.8873015873015875,0.8682539682539684,0.8587301587301589,0.8587301587301589,0.8492063492063494,0.8587301587301589,0.8587301587301589,0.9158730158730161,0.9444444444444446,0.9444444444444446,0.9444444444444446,0.9444444444444446,0.9444444444444446,0.9253968253968256,0.896825396825397,0.8587301587301589,0.7920634920634922,0.7158730158730161,0.5825396825396827,0.14444444444444463,-0.007936507936507756,-0.07460317460317442,-0.08412698412698395,-0.10317460317460299,-0.1412698412698411,-0.15079365079365062,-0.16031746031746014,-0.17936507936507917,-0.23650793650793633,-0.2650793650793649,-0.31269841269841253,-0.322222222222222,-0.322222222222222,-0.322222222222222,-0.303174603174603,-0.2746031746031744,-0.22698412698412682,-0.17936507936507917,-0.1412698412698411,-0.11269841269841252,-0.08412698412698395,-0.05555555555555537,-0.046031746031745854,0.0015873015873017677,0.020634920634920815,0.03015873015873034,0.03015873015873034,0.03015873015873034,0.06825396825396843,0.06825396825396843,0.09682539682539701,0.09682539682539701,0.08730158730158748,0.07777777777777796,0.06825396825396843,0.05873015873015891,0.049206349206349385,0.03015873015873034,0.011111111111111292,0.011111111111111292,0.011111111111111292,0.0015873015873017677,0.0015873015873017677,0.0015873015873017677,0.0015873015873017677,0.0015873015873017677,0.0015873015873017677,0.0015873015873017677,0.0015873015873017677,0.0015873015873017677,0.0015873015873017677,0.0015873015873017677,0.0015873015873017677,0.0015873015873017677,0.0015873015873017677,0.0015873015873017677,0.0015873015873017677,0.0015873015873017677,0.0015873015873017677,-0.007936507936507756,-0.007936507936507756,-0.007936507936507756,-0.007936507936507756,-0.007936507936507756,-0.007936507936507756,-0.007936507936507756,0.0015873015873017677,0.0015873015873017677,0.011111111111111292,0.03968253968253986,0.09682539682539701,0.14444444444444463,0.20158730158730176,0.2111111111111113,0.2111111111111113,0.2111111111111113,0.2111111111111113,0.2111111111111113,0.2111111111111113,0.22063492063492082,0.22063492063492082,0.22063492063492082,0.22063492063492082,0.22063492063492082,0.22063492063492082,0.22063492063492082,0.24920634920634938,0.3349206349206351,0.3634920634920637,0.3920634920634922,0.4206349206349208,0.43015873015873035,0.43968253968253984,0.43968253968253984,0.4492063492063494,0.5444444444444446,0.5920634920634923,0.6396825396825399,0.7349206349206351,0.7539682539682542,0.8396825396825398,1.0111111111111113,1.0396825396825398,1.0492063492063495,1.0492063492063495,1.0492063492063495,1.0396825396825398,1.0396825396825398,1.058730158730159,1.058730158730159,1.058730158730159,1.0396825396825398,1.0206349206349208,0.9634920634920636,0.9253968253968256,0.9158730158730161,0.9063492063492066,0.8873015873015875,0.877777777777778,0.8682539682539684,0.8587301587301589,0.8492063492063494,0.8396825396825398,0.8396825396825398,0.8396825396825398,0.8396825396825398,0.8396825396825398,0.8396825396825398,0.8396825396825398,0.8301587301587303,0.8206349206349208,0.8111111111111113,0.8111111111111113,0.8015873015873017,0.7825396825396828,0.7730158730158732,0.7539682539682542,0.7539682539682542,0.7539682539682542,0.7539682539682542,0.7444444444444446,0.7349206349206351,0.7349206349206351,0.7253968253968256,0.7158730158730161,0.696825396825397,0.6873015873015875,0.6682539682539684,0.6587301587301589,0.6396825396825399,0.6396825396825399,0.6206349