[{"success":true,"trial_type":"fullscreen","trial_index":0,"time_elapsed":3617,"internal_node_id":"0.0-0.0","protocol_sum":"","subject_identifier":317,"subject_sum":[126,216,240,243,183,7,149,109,159,177,232,137,225,17,83,224,170,10,133,73,131,8,29,38,47,190,94,237,227,45,167,202],"subject_pair":158,"STUDY_ID":"66a0b3911f23dfc7665bb169","PROLIFIC_PID":"6630fcae418bde6a9e7c3b47","SESSION_ID":"66a13d9c846db3c5c469f296","practice_instructions":1,"leaderboard_instructions":0,"bonus":0,"reveal_word":true,"self_rating":"3","confidence":"82"},{"view_history":"[{\"page_index\":0,\"viewing_time\":4504.300000011921}]","rt":4505,"trial_type":"instructions","trial_index":1,"time_elapsed":8126,"internal_node_id":"0.0-1.0","protocol_sum":"","subject_identifier":317,"subject_sum":[126,216,240,243,183,7,149,109,159,177,232,137,225,17,83,224,170,10,133,73,131,8,29,38,47,190,94,237,227,45,167,202],"subject_pair":158,"STUDY_ID":"66a0b3911f23dfc7665bb169","PROLIFIC_PID":"6630fcae418bde6a9e7c3b47","SESSION_ID":"66a13d9c846db3c5c469f296","practice_instructions":1,"leaderboard_instructions":0,"bonus":0,"reveal_word":true,"self_rating":"3","confidence":"82"},{"view_history":"[{\"page_index\":0,\"viewing_time\":13587.799999982119}]","rt":13588.09999999404,"trial_type":"instructions","trial_index":2,"time_elapsed":21715,"internal_node_id":"0.0-2.0-0.0","protocol_sum":"","subject_identifier":317,"subject_sum":[126,216,240,243,183,7,149,109,159,177,232,137,225,17,83,224,170,10,133,73,131,8,29,38,47,190,94,237,227,45,167,202],"subject_pair":158,"STUDY_ID":"66a0b3911f23dfc7665bb169","PROLIFIC_PID":"6630fcae418bde6a9e7c3b47","SESSION_ID":"66a13d9c846db3c5c469f296","practice_instructions":1,"leaderboard_instructions":0,"bonus":0,"reveal_word":true,"self_rating":"3","confidence":"82"},{"rt":7549.699999988079,"responses":"{\"Q0\":\"... reveal the word with as <b>few letter guesses</b> as possible\"}","question_order":"[0]","trial_type":"survey-multi-choice","trial_index":3,"time_elapsed":29267,"internal_node_id":"0.0-2.0-1.0","protocol_sum":"","subject_identifier":317,"subject_sum":[126,216,240,243,183,7,149,109,159,177,232,137,225,17,83,224,170,10,133,73,131,8,29,38,47,190,94,237,227,45,167,202],"subject_pair":158,"correct":true,"test_part":"multichoice_nonpretend","STUDY_ID":"66a0b3911f23dfc7665bb169","PROLIFIC_PID":"6630fcae418bde6a9e7c3b47","SESSION_ID":"66a13d9c846db3c5c469f296","practice_instructions":1,"leaderboard_instructions":0,"bonus":0,"reveal_word":true,"self_rating":"3","confidence":"82"},{"view_history":"[{\"page_index\":0,\"viewing_time\":2188}]","rt":2188.2000000178814,"trial_type":"instructions","trial_index":4,"time_elapsed":31456,"internal_node_id":"0.0-3.0","protocol_sum":"","subject_identifier":317,"subject_sum":[126,216,240,243,183,7,149,109,159,177,232,137,225,17,83,224,170,10,133,73,131,8,29,38,47,190,94,237,227,45,167,202],"subject_pair":158,"STUDY_ID":"66a0b3911f23dfc7665bb169","PROLIFIC_PID":"6630fcae418bde6a9e7c3b47","SESSION_ID":"66a13d9c846db3c5c469f296","practice_instructions":1,"leaderboard_instructions":0,"bonus":0,"reveal_word":true,"self_rating":"3","confidence":"82"},{"word":"ZEBRA","click_log":{"letter":["","S","A","R","M","F","E","Z","B"],"t":[0,4967.700000017881,7228.0999999940395,10640.09999999404,13920.40000000596,16221.200000017881,17262.09999999404,21419.20000001788,23407.40000000596],"hit":[null,0,1,1,0,0,1,1,1],"asked":["","S","SA","SAR","SARM","SARMF","SARMFE","SARMFEZ","SARMFEZB"],"word_state":["_____","_____","____A","___RA","___RA","___RA","_E_RA","ZE_RA","ZEBRA"]},"hover_log":{"letter":["?","?","?","?","?","?","?","?","?","?","?","?","?","?","?","?","?","?","?","?","?","?","?","?","?","?","?","?","?","?","?","?","?","?","?","?","?","?","?","?","?","?","?","?","?","?","?","?","?","?","?","?","?","?","?","?","?","?","?","?","?","?","?","?","?","?","?","?","?","?","?","?","?","?","?","?","?","?","?","?","?","?","?","?","?","?","?","?","?","J","J","J","J","J","?","?","?","?","?","?","?","?","?","?","?","?","?","?","?","?","?","C","C","C","?","?","?","?","?","?","?","?","?","?","?","?","?","?","?","?","?","?","?","?","?","?","?","?","?","?","?","?","?","?","?","?","?","?","?","?","?","?","?","?","?","?","?","?","?","?","?","?","?","?","?","?","?","?","?","?","?","?","?","?","?","?","?","?","?","?","?","?","?","?","?","?","?","?","?","?","?","?","?","?","?","?","?","?","?","?","?","?","?","?","?","?","B","B","B","?","?","?","?","?","?","?","?","?","?","?","?","?","?","D","D","D","D","D","D","D","D","D","D","D","?","?","?","?","?","M","M","M","M","M","M","M","M","M","?","?","?","?","?","?","?","T","T","T","T","T","?","?","?","?","?","S","S","S","S","S","S","S","S","S","S","S","S","S","S","S","S","S","S","S","S","S","S","S","S","S","S","S","S","S","S","S","S","S","S","S","S","S","S","S","S","S","S","S","S","S","S","S","S","S","S","S","S","S","S","S","S","S","S","S","S","S","S","S","S","S","S","S","S","S","S","S","S","S","S","S","S","S","S","S","S","S","S","S","S","S","S","S","S","S","S","S","S","S","S","S","S","S","S","S","S","S","S","S","?","?","?","?","?","?","?","?","?","?","?","?","K","K","K","K","K","K","K","K","K","K","K","?","?","?","?","?","?","?","?","?","?","?","?","?","?","?","A","A","A","A","A","A","A","A","A","A","A","A","A","A","A","A","A","A","A","A","A","A","A","A","A","A","A","A","A","A","A","A","A","A","A","A","A","A","A","A","A","A","A","A","A","A","A","A","A","A","A","A","A","A","A","A","A","A","A","A","A","A","A","A","A","A","A","A","A","A","A","A","A","A","A","A","A","A","A","A","A","A","A","A","A","A","A","A","A","A","A","A","A","A","A","A","A","A","A","A","A","A","A","A","A","A","A","A","A","A","A","A","A","A","A","A","A","A","A","A","A","A","A","A","A","A","A","A","A","A","?","?","?","?","?","?","?","M","M","M","?","?","N","N","N","N","N","N","N","N","N","N","N","N","N","N","N","N","N","N","N","N","N","N","N","N","N","N","N","N","?","O","O","O","?","P","P","P","P","P","P","P","P","?","?","Q","Q","Q","Q","Q","Q","Q","Q","Q","Q","Q","Q","Q","Q","?","?","?","?","R","R","R","R","R","R","R","R","R","R","R","R","R","R","R","R","R","R","R","R","R","R","R","R","R","R","R","R","R","R","R","R","R","R","R","R","R","R","R","R","R","R","R","R","R","R","R","R","R","R","R","R","R","R","R","R","R","R","R","R","R","R","R","R","R","R","R","R","R","R","R","R","R","R","R","R","R","R","R","R","R","R","R","R","R","R","R","R","R","R","R","R","R","R","R","R","R","R","R","R","R","R","R","R","R","R","R","R","R","R","R","R","R","R","R","R","R","R","R","R","R","R","R","R","R","R","?","Q","Q","Q","Q","Q","?","?","P","P","P","P","P","P","P","P","P","P","P","P","?","?","O","O","O","O","O","O","O","O","O","?","?","?","?","?","?","?","?","?","?","?","?","?","?","?","?","?","?","?","?","?","?","?","?","?","?","?","N","N","N","N","?","?","?","M","M","M","M","M","M","M","M","M","M","M","M","M","M","M","M","M","M","M","M","M","M","M","M","M","M","M","M","M","M","M","M","M","M","M","M","M","M","M","M","M","M","M","M","M","M","M","M","M","M","M","M","M","M","M","M","M","M","M","M","M","M","M","M","M","M","M","M","M","M","M","M","M","M","M","M","M","M","M","M","M","M","M","M","M","M","M","M","M","M","M","M","M","M","M","M","M","M","M","M","M","M","M","M","M","M","M","M","M","M","M","?","?","?","?","N","N","N","N","N","N","N","N","N","N","N","N","N","?","?","?","?","?","?","?","?","?","?","?","?","F","F","F","F","F","F","F","F","F","F","F","F","F","F","F","F","F","F","F","F","F","F","F","F","F","F","F","F","F","F","F","F","F","F","F","F","F","F","F","F","F","F","F","F","F","F","F","F","F","F","F","F","F","F","F","F","F","F","F","F","F","F","?","?","E","E","E","E","E","E","E","E","E","E","E","E","E","E","E","E","E","E","E","E","E","E","E","E","E","E","E","E","E","E","E","E","E","E","E","E","E","E","E","E","E","E","E","E","E","E","E","E","E","E","E","E","E","E","E","E","E","E","E","E","E","E","E","E","E","E","E","E","E","E","E","E","E","E","E","E","E","E","E","E","E","E","E","E","E","E","E","E","E","E","E","E","E","E","E","E","E","E","E","E","E","E","E","E","E","E","E","E","E","E","E","E","E","E","E","E","E","E","E","E","E","E","E","E","E","E","E","E","E","E","E","E","E","E","E","E","E","E","E","E","E","E","E","E","E","E","E","E","E","E","E","E","E","E","E","E","E","E","E","E","E","E","E","E","E","E","E","E","E","E","E","E","E","E","E","E","E","E","E","E","E","E","E","E","E","E","E","E","E","E","E","E","E","E","E","E","E","E","E","E","E","E","E","E","E","E","E","E","E","E","E","E","E","E","?","?","?","O","O","?","?","?","?","?","?","?","?","?","?","?","?","?","?","?","?","?","?","?","?","?","?","?","?","?","?","?","?","?","?","Z","Z","Z","Z","Z","Z","Z","Z","Z","Z","Z","Z","Z","Z","Z","Z","Z","Z","Z","Z","Z","Z","Z","Z","Z","Z","Z","Z","Z","Z","Z","Z","Z","Z","Z","Z","Z","Z","Z","Z","Z","Z","Z","Z","Z","Z","Z","Z","Z","Z","Z","Z","Z","Z","Z","Z","Z","Z","Z","Z","Z","Z","Z","Z","Z","Z","?","Y","Y","?","?","O","O","?","N","N","N","?","?","?","?","?","?","?","?","?","?","?","?","C","C","C","C","C","C","C","C","C","C","C","?","?","?","?","?","B","B","B","B","B","B","B","B","B","B","B","B","B","B","B","B","B","B","B","B","B","B","B","B","B","B","B","B","B","B","B","B","B","B","B","B","B","B","B","B","B","B","B","B","B","B","B","B","B","B","B","B","B","B","B","B","B","B","B","B","B","B","B","B","B","B","B","B","B","B","B","B","B","B","B","B","B","B","B","B","B","B","B","B","B","B","B","B","B","B","B","B","B","B","B","B","B","B","B","B","B","B","B","B","B","B","B","B","B","B","B","B","B","B","B","B","B","B","B","B","B","B","B","B","B","B","B","B","B","B","B","B","B","B","B","B","B","B","B","B","B","B","B","B","B","B","B","B","B","B","B","B","B","B","B","B","B","B","B","B","B","B","B","B","B"],"t":[40,46,71,87,104,121,142,157,172,189,204,221,237,254,271,287,305,322,338,354,373,389,404,420,437,453,470,487,503,520,537,555,572,589,605,622,639,655,672,689,705,722,739,755,773,789,806,822,839,854,871,889,905,922,939,955,972,989,1005,1022,1039,1055,1072,1089,1106,1124,1139,1156,1172,1189,1206,1222,1239,1256,1272,1289,1306,1322,1339,1356,1372,1389,1406,1425,1443,1456,1471,1487,1504,1524,1538,1556,1571,1588,1605,1621,1638,1655,1672,1688,1704,1721,1738,1757,1773,1791,1807,1824,1841,1857,1873,1891,1907,1924,1941,1957,1973,1989,2006,2023,2039,2056,2073,2089,2106,2123,2139,2156,2173,2189,2206,2222,2240,2257,2273,2289,2306,2322,2340,2359,2375,2391,2408,2424,2441,2458,2476,2492,2509,2526,2540,2556,2571,2588,2604,2621,2638,2655,2673,2690,2707,2723,2740,2757,2773,2790,2807,2826,2841,2856,2872,2889,2905,2922,2939,2955,2971,2989,3005,3021,3038,3055,3072,3088,3107,3125,3141,3159,3175,3193,3207,3225,3241,3257,3275,3290,3308,3324,3341,3358,3375,3390,3407,3424,3440,3458,3476,3491,3509,3525,3541,3560,3577,3590,3606,3622,3638,3656,3672,3688,3705,3722,3738,3756,3772,3788,3805,3822,3838,3855,3872,3888,3905,3922,3939,3955,3972,3991,4007,4024,4041,4057,4074,4091,4108,4125,4141,4157,4174,4191,4207,4225,4241,4257,4274,4290,4305,4323,4339,4355,4372,4389,4406,4423,4439,4457,4473,4489,4506,4524,4540,4555,4572,4589,4605,4622,4639,4655,4672,4689,4705,4722,4738,4755,4772,4789,4805,4822,4839,4856,4873,4891,4909,4924,4942,4959,4973,4989,5006,5022,5039,5058,5075,5092,5109,5124,5141,5158,5174,5191,5208,5224,5241,5258,5274,5291,5308,5324,5341,5358,5375,5391,5412,5425,5442,5457,5474,5491,5507,5524,5540,5556,5573,5589,5606,5623,5639,5657,5678,5690,5708,5727,5740,5756,5772,5789,5806,5822,5839,5856,5873,5889,5908,5924,5943,5958,5974,5991,6008,6025,6041,6058,6074,6091,6109,6125,6143,6159,6175,6193,6209,6226,6243,6260,6275,6293,6309,6325,6343,6359,6375,6390,6407,6424,6441,6457,6474,6490,6509,6524,6540,6556,6574,6590,6607,6624,6640,6657,6675,6692,6708,6727,6747,6762,6776,6791,6807,6823,6840,6857,6873,6890,6906,6923,6940,6956,6973,6990,7008,7025,7041,7060,7074,7090,7107,7125,7144,7157,7173,7189,7206,7223,7240,7257,7273,7290,7306,7323,7340,7357,7373,7390,7406,7423,7440,7456,7473,7490,7507,7525,7541,7558,7575,7591,7608,7625,7640,7657,7676,7692,7708,7725,7742,7759,7775,7792,7809,7827,7843,7857,7874,7891,7907,7924,7941,7957,7974,7991,8007,8024,8040,8057,8074,8091,8107,8124,8141,8157,8174,8191,8207,8224,8241,8257,8274,8291,8308,8324,8341,8357,8374,8391,8407,8424,8441,8457,8474,8491,8507,8524,8541,8557,8574,8591,8609,8625,8640,8657,8674,8690,8707,8724,8740,8757,8775,8792,8809,8826,8842,8859,8878,8895,8911,8925,8940,8958,8975,8991,9007,9025,9041,9058,9075,9091,9108,9125,9141,9159,9175,9191,9208,9224,9241,9258,9274,9291,9308,9324,9341,9358,9375,9391,9408,9425,9441,9458,9476,9493,9511,9527,9545,9561,9577,9592,9608,9625,9642,9659,9675,9692,9708,9726,9743,9758,9775,9792,9809,9825,9842,9859,9876,9893,9908,9926,9942,9959,9978,9992,10008,10026,10041,10058,10075,10091,10108,10126,10142,10158,10175,10192,10208,10225,10241,10258,10276,10293,10309,10326,10343,10360,10379,10393,10408,10426,10443,10460,10476,10493,10512,10527,10543,10558,10575,10591,10608,10624,10642,10658,10675,10691,10708,10725,10742,10758,10775,10794,10810,10827,10843,10860,10877,10894,10910,10926,10944,10960,10977,10994,11011,11028,11045,11058,11075,11091,11108,11125,11141,11158,11176,11193,11210,11227,11243,11260,11277,11294,11310,11327,11343,11360,11377,11393,11410,11427,11443,11463,11476,11493,11508,11525,11542,11558,11577,11595,11611,11626,11642,11660,11677,11693,11710,11727,11744,11760,11777,11793,11810,11827,11842,11859,11876,11892,11909,11926,11942,11959,11976,11992,12009,12026,12042,12059,12076,12094,12109,12125,12142,12159,12175,12192,12209,12227,12244,12261,12279,12296,12311,12329,12345,12362,12380,12395,12410,12427,12443,12460,12477,12493,12510,12527,12543,12560,12576,12593,12610,12626,12643,12660,12677,12693,12710,12726,12743,12760,12777,12794,12811,12827,12844,12861,12877,12899,12911,12927,12943,12961,12977,12994,13011,13027,13044,13061,13077,13094,13110,13127,13152,13161,13177,13194,13211,13227,13246,13261,13278,13294,13311,13328,13344,13361,13378,13394,13412,13428,13444,13461,13478,13495,13512,13528,13544,13561,13578,13594,13610,13626,13643,13659,13676,13693,13709,13728,13744,13761,13778,13795,13811,13828,13845,13861,13878,13895,13911,13927,13943,13960,13976,13993,14009,14027,14044,14062,14078,14095,14111,14128,14145,14163,14178,14195,14210,14226,14243,14260,14276,14293,14310,14327,14343,14361,14378,14394,14411,14427,14444,14460,14478,14494,14511,14527,14543,14560,14576,14593,14610,14626,14643,14660,14676,14693,14710,14726,14743,14760,14776,14793,14810,14826,14843,14860,14876,14893,14910,14926,14943,14960,14977,14993,15010,15026,15043,15060,15076,15093,15110,15127,15144,15160,15177,15194,15210,15229,15246,15263,15279,15297,15313,15329,15347,15363,15380,15396,15413,15430,15447,15463,15480,15497,15513,15528,15544,15561,15577,15594,15610,15628,15644,15664,15678,15694,15711,15728,15744,15760,15778,15794,15810,15827,15844,15860,15877,15893,15910,15929,15945,15962,15979,15995,16012,16029,16045,16062,16079,16096,16113,16128,16145,16163,16179,16194,16211,16228,16244,16260,16277,16294,16313,16329,16345,16362,16379,16396,16413,16429,16446,16462,16479,16494,16511,16528,16544,16561,16578,16596,16611,16627,16644,16661,16678,16694,16711,16728,16744,16761,16779,16794,16811,16828,16844,16861,16878,16894,16913,16929,16946,16963,16979,16996,17013,17032,17050,17061,17077,17094,17111,17127,17144,17161,17177,17194,17211,17227,17244,17262,17278,17294,17311,17327,17344,17361,17377,17394,17411,17427,17444,17461,17477,17494,17511,17528,17546,17563,17579,17596,17613,17631,17649,17663,17678,17695,17711,17728,17744,17761,17778,17795,17813,17830,17846,17862,17878,17895,17912,17929,17946,17962,17978,17995,18012,18028,18045,18062,18078,18095,18112,18128,18145,18162,18178,18195,18212,18228,18245,18262,18278,18295,18312,18328,18345,18362,18378,18395,18413,18430,18445,18461,18478,18495,18511,18528,18545,18561,18578,18595,18611,18628,18645,18661,18678,18695,18713,18729,18745,18761,18778,18795,18812,18828,18845,18861,18878,18895,18912,18928,18945,18962,18978,18995,19011,19028,19045,19062,19078,19096,19113,19130,19147,19162,19179,19196,19212,19229,19246,19262,19280,19297,19312,19329,19346,19362,19379,19396,19412,19429,19446,19462,19479,19496,19513,19529,19546,19562,19579,19596,19612,19629,19646,19663,19679,19696,19713,19729,19746,19764,19781,19795,19813,19829,19845,19862,19879,19895,19912,19929,19945,19962,19979,19995,20012,20029,20045,20062,20079,20095,20112,20129,20145,20162,20179,20196,20212,20229,20249,20265,20282,20300,20315,20332,20349,20365,20383,20399,20414,20431,20447,20464,20480,20496,20515,20531,20546,20562,20579,20596,20612,20629,20646,20662,20679,20696,20713,20729,20748,20766,20781,20798,20819,20833,20847,20864,20879,20896,20913,20930,20946,20963,20980,20997,21013,21030,21047,21063,21079,21096,21112,21129,21146,21163,21181,21196,21212,21229,21246,21265,21281,21298,21315,21331,21348,21365,21381,21398,21415,21430,21446,21463,21479,21496,21513,21529,21546,21563,21580,21598,21615,21632,21648,21665,21682,21699,21715,21731,21748,21765,21781,21798,21815,21830,21847,21864,21882,21898,21914,21930,21947,21964,21980,21998,22014,22031,22048,22064,22081,22098,22114,22131,22148,22164,22181,22198,22214,22231,22248,22264,22281,22298,22314,22332,22348,22364,22381,22398,22414,22431,22447,22464,22483,22500,22514,22531,22547,22564,22581,22597,22614,22631,22647,22664,22681,22697,22714,22730,22747,22764,22780,22799,22815,22833,22847,22864,22881,22897,22914,22932,22948,22964,22981,22997,23014,23031,23047,23064,23082,23097,23114,23131,23147,23164,23181,23197,23215,23232,23249,23265,23283,23299,23315,23332,23349,23365,23382,23400,23418,23431,23448,23464,23481,23497,23515,23530,23547,23564,23580,23597,23614,23631,23648,23664,23681,23697,23714,23731,23747,23764,23781,23797,23814,23833,23847,23864,23881,23897,23914,23931,23947,23964,23982,23998,24014,24031,24047,24064,24081,24097,24114,24131,24147,24164,24181,24197,24214,24231,24247,24264,24281,24298,24314,24331,24347,24364,24381,24397,24414,24431,24447,24464,24481,24498,24515,24531,24547,24564,24581,24598,24616,24633,24648,24665,24682,24698,24715,24732,24749,24766,24783,24800,24816,24833,24850,24867,24883,24900,24915,24932,24950,24967,24983,25000,25016,25034,25050,25065,25082,25098,25115,25134,25148,25165,25181,25198,25215,25231,25248,25265,25281,25298,25315,25331,25348,25366,25383,25400,25420],"hit":[null],"x":[-1.751700680272109,-1.751700680272109,-1.751700680272109,-1.751700680272109,-1.751700680272109,-1.751700680272109,-1.751700680272109,-1.751700680272109,-1.751700680272109,-1.751700680272109,-1.751700680272109,-1.751700680272109,-1.751700680272109,-1.751700680272109,-1.751700680272109,-1.751700680272109,-1.751700680272109,-1.751700680272109,-1.751700680272109,-1.751700680272109,-1.751700680272109,-1.751700680272109,-1.751700680272109,-1.751700680272109,-1.751700680272109,-1.751700680272109,-1.751700680272109,-1.751700680272109,-1.751700680272109,-1.751700680272109,-1.751700680272109,-1.751700680272109,-1.751700680272109,-1.751700680272109,-1.751700680272109,-1.751700680272109,-1.751700680272109,-1.751700680272109,-1.751700680272109,-1.751700680272109,-1.751700680272109,-1.751700680272109,-1.751700680272109,-1.751700680272109,-1.751700680272109,-1.751700680272109,-1.751700680272109,-1.751700680272109,-1.751700680272109,-1.751700680272109,-1.751700680272109,-1.751700680272109,-1.751700680272109,-1.751700680272109,-1.751700680272109,-1.751700680272109,-1.751700680272109,-1.751700680272109,-1.751700680272109,-1.751700680272109,-1.751700680272109,-1.751700680272109,-1.751700680272109,-1.751700680272109,-1.751700680272109,-1.751700680272109,-1.751700680272109,-1.751700680272109,-1.751700680272109,-1.751700680272109,-1.751700680272109,-1.751700680272109,-1.751700680272109,-1.751700680272109,-1.751700680272109,-1.751700680272109,-1.751700680272109,-1.751700680272109,-1.751700680272109,-1.751700680272109,-1.751700680272109,-1.751700680272109,-1.751700680272109,-1.751700680272109,-1.751700680272109,-1.751700680272109,-1.751700680272109,-1.751700680272109,-1.751700680272109,0.003401360544217687,0.01020408163265306,0.02040816326530612,0.030612244897959183,0.04081632653061224,0.047619047619047616,0.061224489795918366,0.06462585034013606,0.07142857142857142,0.08503401360544217,0.08843537414965986,0.1054421768707483,0.1292517006802721,0.13945578231292516,0.1564625850340136,0.17346938775510204,0.1836734693877551,0.20068027210884354,0.2108843537414966,0.23129251700680273,0.25170068027210885,0.2619047619047619,0.2789115646258503,0.2891156462585034,0.29591836734693877,0.30612244897959184,0.3129251700680272,0.3129251700680272,0.3129251700680272,0.3129251700680272,0.3129251700680272,0.3129251700680272,0.3129251700680272,0.3129251700680272,0.3129251700680272,0.3129251700680272,0.3129251700680272,0.3129251700680272,0.3129251700680272,0.3129251700680272,0.3129251700680272,0.3129251700680272,0.3129251700680272,0.3129251700680272,0.3129251700680272,0.3129251700680272,0.3129251700680272,0.3129251700680272,0.3129251700680272,0.3129251700680272,0.3163265306122449,0.3333333333333333,0.3741496598639456,0.3877551020408163,0.41836734693877553,0.4523809523809524,0.47278911564625853,0.5,0.5170068027210885,0.5374149659863946,0.5476190476190477,0.5544217687074829,0.5578231292517006,0.5612244897959183,0.5612244897959183,0.5612244897959183,0.5612244897959183,0.5612244897959183,0.5612244897959183,0.5612244897959183,0.5612244897959183,0.5612244897959183,0.5612244897959183,0.5612244897959183,0.5612244897959183,0.5612244897959183,0.5612244897959183,0.5612244897959183,0.5612244897959183,0.5578231292517006,0.5204081632653061,0.445578231292517,0.40476190476190477,0.336734693877551,0.2755102040816326,0.2585034013605442,0.22789115646258504,0.20748299319727892,0.20068027210884354,0.19727891156462585,0.19387755102040816,0.19387755102040816,0.1870748299319728,0.1836734693877551,0.17687074829931973,0.17346938775510204,0.16666666666666666,0.1598639455782313,0.14625850340136054,0.14285714285714285,0.1326530612244898,0.12244897959183673,0.11904761904761904,0.11224489795918367,0.1054421768707483,0.10204081632653061,0.09863945578231292,0.09523809523809523,0.09183673469387756,0.08843537414965986,0.08843537414965986,0.08503401360544217,0.08503401360544217,0.08503401360544217,0.08503401360544217,0.08503401360544217,0.09183673469387756,0.11564625850340136,0.14285714285714285,0.14965986394557823,0.17346938775510204,0.20068027210884354,0.2108843537414966,0.23469387755102042,0.25510204081632654,0.2619047619047619,0.2789115646258503,0.2925170068027211,0.30272108843537415,0.3163265306122449,0.3333333333333333,0.3435374149659864,0.3707482993197279,0.391156462585034,0.4013605442176871,0.41836734693877553,0.42517006802721086,0.43197278911564624,0.4387755102040816,0.4421768707482993,0.445578231292517,0.4489795918367347,0.4489795918367347,0.4489795918367347,0.4489795918367347,0.4489795918367347,0.4387755102040816,0.4217687074829932,0.41836734693877553,0.4013605442176871,0.3945578231292517,0.391156462585034,0.3877551020408163,0.3843537414965986,0.3843537414965986,0.3843537414965986,0.38095238095238093,0.37755102040816324,0.3741496598639456,0.3673469387755102,0.35714285714285715,0.3333333333333333,0.3129251700680272,0.2687074829931973,0.21428571428571427,0.19047619047619047,0.1564625850340136,0.1292517006802721,0.11904761904761904,0.10204081632653061,0.09183673469387756,0.08503401360544217,0.08163265306122448,0.07142857142857142,0.06462585034013606,0.05442176870748299,0.047619047619047616,0.04081632653061224,0.034013605442176874,0.030612244897959183,0.023809523809523808,0.017006802721088437,0.013605442176870748,0.01020408163265306,0.006802721088435374,0.006802721088435374,0.003401360544217687,0.003401360544217687,0.003401360544217687,0.003401360544217687,0.003401360544217687,0.003401360544217687,0.003401360544217687,0.003401360544217687,0.003401360544217687,0.003401360544217687,0.003401360544217687,0.003401360544217687,0.003401360544217687,0.003401360544217687,0.003401360544217687,0.003401360544217687,0.003401360544217687,0.003401360544217687,0.003401360544217687,0.003401360544217687,0.003401360544217687,0.003401360544217687,0.003401360544217687,0.003401360544217687,0.003401360544217687,0.003401360544217687,0.003401360544217687,0.003401360544217687,0.003401360544217687,0.003401360544217687,0.003401360544217687,0.003401360544217687,0.003401360544217687,0.003401360544217687,0.003401360544217687,0.003401360544217687,0.003401360544217687,0.003401360544217687,0.003401360544217687,0.003401360544217687,0.003401360544217687,0.003401360544217687,0.003401360544217687,0.003401360544217687,0.003401360544217687,0.003401360544217687,0.003401360544217687,0.003401360544217687,0.003401360544217687,0.003401360544217687,0.003401360544217687,0.003401360544217687,0.003401360544217687,0.003401360544217687,0.003401360544217687,0.003401360544217687,0.003401360544217687,0.003401360544217687,0.003401360544217687,0.003401360544217687,0.003401360544217687,0.003401360544217687,0.003401360544217687,0.003401360544217687,0.003401360544217687,0.003401360544217687,0.003401360544217687,0.003401360544217687,0.003401360544217687,0.003401360544217687,0.003401360544217687,0.003401360544217687,0.003401360544217687,0.003401360544217687,0.003401360544217687,0.003401360544217687,0.003401360544217687,0.003401360544217687,0.003401360544217687,0.003401360544217687,0.003401360544217687,0.003401360544217687,0.003401360544217687,0.003401360544217687,0.003401360544217687,0.003401360544217687,0.003401360544217687,0.003401360544217687,0.003401360544217687,0.003401360544217687,0.01020408163265306,0.017006802721088437,0.030612244897959183,0.05102040816326531,0.05782312925170068,0.07142857142857142,0.08163265306122448,0.08503401360544217,0.09183673469387756,0.09523809523809523,0.09863945578231292,0.10204081632653061,0.1054421768707483,0.11224489795918367,0.11564625850340136,0.11904761904761904,0.12244897959183673,0.12244897959183673,0.12585034013605442,0.12585034013605442,0.12585034013605442,0.12585034013605442,0.12585034013605442,0.12244897959183673,0.12244897959183673,0.11224489795918367,0.1054421768707483,0.09863945578231292,0.09183673469387756,0.08163265306122448,0.0782312925170068,0.07142857142857142,0.06462585034013606,0.061224489795918366,0.05782312925170068,0.05782312925170068,0.05102040816326531,0.047619047619047616,0.047619047619047616,0.04081632653061224,0.03741496598639456,0.030612244897959183,0.030612244897959183,0.030612244897959183,0.030612244897959183,0.030612244897959183,0.030612244897959183,0.030612244897959183,0.030612244897959183,0.030612244897959183,0.030612244897959183,0.030612244897959183,0.030612244897959183,0.030612244897959183,0.030612244897959183,0.030612244897959183,0.030612244897959183,0.030612244897959183,0.030612244897959183,0.030612244897959183,0.030612244897959183,0.030612244897959183,0.030612244897959183,0.030612244897959183,0.030612244897959183,0.030612244897959183,0.030612244897959183,0.030612244897959183,0.030612244897959183,0.030612244897959183,0.030612244897959183,0.030612244897959183,0.030612244897959183,0.030612244897959183,0.030612244897959183,0.030612244897959183,0.030612244897959183,0.030612244897959183,0.030612244897959183,0.030612244897959183,0.030612244897959183,0.030612244897959183,0.030612244897959183,0.030612244897959183,0.030612244897959183,0.030612244897959183,0.030612244897959183,0.030612244897959183,0.030612244897959183,0.030612244897959183,0.030612244897959183,0.030612244897959183,0.030612244897959183,0.030612244897959183,0.030612244897959183,0.030612244897959183,0.030612244897959183,0.030612244897959183,0.030612244897959183,0.030612244897959183,0.030612244897959183,0.030612244897959183,0.030612244897959183,0.030612244897959183,0.030612244897959183,0.030612244897959183,0.030612244897959183,0.030612244897959183,0.030612244897959183,0.030612244897959183,0.030612244897959183,0.030612244897959183,0.030612244897959183,0.030612244897959183,0.030612244897959183,0.030612244897959183,0.030612244897959183,0.030612244897959183,0.030612244897959183,0.030612244897959183,0.030612244897959183,0.030612244897959183,0.030612244897959183,0.030612244897959183,0.030612244897959183,0.030612244897959183,0.030612244897959183,0.030612244897959183,0.030612244897959183,0.030612244897959183,0.030612244897959183,0.030612244897959183,0.030612244897959183,0.030612244897959183,0.030612244897959183,0.030612244897959183,0.030612244897959183,0.030612244897959183,0.030612244897959183,0.030612244897959183,0.030612244897959183,0.030612244897959183,0.030612244897959183,0.030612244897959183,0.030612244897959183,0.030612244897959183,0.030612244897959183,0.030612244897959183,0.030612244897959183,0.030612244897959183,0.030612244897959183,0.030612244897959183,0.030612244897959183,0.030612244897959183,0.030612244897959183,0.030612244897959183,0.030612244897959183,0.030612244897959183,0.030612244897959183,0.030612244897959183,0.030612244897959183,0.030612244897959183,0.030612244897959183,0.030612244897959183,0.030612244897959183,0.030612244897959183,0.030612244897959183,0.030612244897959183,0.030612244897959183,0.030612244897959183,0.03741496598639456,0.047619047619047616,0.0782312925170068,0.1326530612244898,0.17006802721088435,0.23809523809523808,0.2789115646258503,0.3469387755102041,0.40816326530612246,0.43197278911564624,0.47619047619047616,0.5,0.5102040816326531,0.5136054421768708,0.5204081632653061,0.5204081632653061,0.5204081632653061,0.5204081632653061,0.5204081632653061,0.5204081632653061,0.5204081632653061,0.5204081632653061,0.5204081632653061,0.5204081632653061,0.5204081632653061,0.5204081632653061,0.5204081632653061,0.5204081632653061,0.5204081632653061,0.5204081632653061,0.5204081632653061,0.5204081632653061,0.5204081632653061,0.5238095238095238,0.5306122448979592,0.5340136054421769,0.5476190476190477,0.5612244897959183,0.5714285714285714,0.5952380952380952,0.6258503401360545,0.6428571428571429,0.6802721088435374,0.7210884353741497,0.7414965986394558,0.7789115646258503,0.8095238095238095,0.8231292517006803,0.8469387755102041,0.8673469387755102,0.8775510204081632,0.8945578231292517,0.9013605442176871,0.9149659863945578,0.9251700680272109,0.9319727891156463,0.9489795918367347,0.9693877551020408,0.9761904761904762,0.9829931972789115,0.9931972789115646,0.9965986394557823,1.0068027210884354,1.0136054421768708,1.0204081632653061,1.030612244897959,1.0374149659863945,1.0408163265306123,1.0510204081632653,1.0578231292517006,1.0612244897959184,1.0680272108843538,1.0782312925170068,1.0816326530612246,1.0952380952380953,1.098639455782313,1.1122448979591837,1.119047619047619,1.119047619047619,1.1224489795918366,1.1224489795918366,1.1224489795918366,1.1224489795918366,1.1224489795918366,1.1224489795918366,1.1224489795918366,1.1224489795918366,1.1224489795918366,1.1224489795918366,1.1224489795918366,1.1224489795918366,1.1224489795918366,1.1224489795918366,1.1224489795918366,1.1224489795918366,1.1224489795918366,1.1224489795918366,1.1224489795918366,1.1224489795918366,1.1224489795918366,1.1224489795918366,1.1224489795918366,1.1224489795918366,1.1224489795918366,1.1224489795918366,1.1224489795918366,1.1224489795918366,1.1224489795918366,1.1224489795918366,1.1224489795918366,1.1224489795918366,1.1224489795918366,1.1224489795918366,1.1224489795918366,1.1224489795918366,1.1224489795918366,1.1224489795918366,1.1224489795918366,1.1224489795918366,1.1224489795918366,1.1224489795918366,1.1224489795918366,1.1224489795918366,1.1224489795918366,1.1224489795918366,1.1224489795918366,1.1224489795918366,1.1224489795918366,1.1224489795918366,1.1224489795918366,1.1224489795918366,1.1224489795918366,1.1224489795918366,1.1224489795918366,1.1224489795918366,1.1224489795918366,1.1224489795918366,1.1224489795918366,1.1224489795918366,1.1224489795918366,1.1224489795918366,1.1224489795918366,1.1224489795918366,1.1224489795918366,1.1224489795918366,1.1224489795918366,1.1224489795918366,1.1224489795918366,1.1224489795918366,1.1224489795918366,1.1224489795918366,1.1224489795918366,1.1224489795918366,1.1224489795918366,1.1224489795918366,1.1224489795918366,1.1224489795918366,1.1224489795918366,1.1224489795918366,1.1224489795918366,1.1224489795918366,1.1224489795918366,1.1224489795918366,1.1224489795918366,1.1224489795918366,1.1224489795918366,1.1224489795918366,1.1224489795918366,1.1224489795918366,1.1224489795918366,1.1224489795918366,1.1224489795918366,1.1224489795918366,1.1224489795918366,1.1224489795918366,1.1224489795918366,1.1224489795918366,1.1224489795918366,1.1224489795918366,1.1224489795918366,1.1224489795918366,1.1224489795918366,1.1224489795918366,1.1224489795918366,1.1224489795918366,1.1224489795918366,1.1224489795918366,1.1224489795918366,1.1224489795918366,1.1224489795918366,1.1224489795918366,1.1224489795918366,1.1224489795918366,1.1224489795918366,1.1224489795918366,1.1224489795918366,1.1224489795918366,1.1224489795918366,1.1156462585034013,1.1054421768707483,1.0714285714285714,1.0408163265306123,1.0272108843537415,0.9931972789115646,0.9795918367346939,0.95578231292517,0.9387755102040817,0.9217687074829932,0.9149659863945578,0.8945578231292517,0.891156462585034,0.8775510204081632,0.8639455782312925,0.8571428571428571,0.8469387755102041,0.8367346938775511,0.8299319727891157,0.8231292517006803,0.8095238095238095,0.8061224489795918,0.7959183673469388,0.7755102040816326,0.7653061224489796,0.7448979591836735,0.717687074829932,0.7074829931972789,0.6870748299319728,0.6700680272108843,0.6632653061224489,0.6564625850340136,0.6564625850340136,0.6530612244897959,0.6530612244897959,0.6530612244897959,0.6530612244897959,0.6530612244897959,0.6530612244897959,0.6530612244897959,0.6530612244897959,0.6530612244897959,0.6530612244897959,0.6530612244897959,0.6530612244897959,0.6530612244897959,0.6530612244897959,0.6530612244897959,0.6530612244897959,0.6530612244897959,0.6530612244897959,0.6530612244897959,0.6530612244897959,0.6530612244897959,0.6530612244897959,0.6530612244897959,0.6530612244897959,0.6530612244897959,0.6530612244897959,0.6360544217687075,0.6122448979591837,0.5952380952380952,0.5510204081632653,0.5204081632653061,0.5068027210884354,0.48299319727891155,0.47278911564625853,0.46938775510204084,0.4557823129251701,0.445578231292517,0.4421768707482993,0.43197278911564624,0.4217687074829932,0.41836734693877553,0.41496598639455784,0.41156462585034015,0.41156462585034015,0.40816326530612246,0.40816326530612246,0.40816326530612246,0.40816326530612246,0.40816326530612246,0.40816326530612246,0.40816326530612246,0.40816326530612246,0.40816326530612246,0.40816326530612246,0.40816326530612246,0.40816326530612246,0.40816326530612246,0.40816326530612246,0.40816326530612246,0.40816326530612246,0.40816326530612246,0.40816326530612246,0.40816326530612246,0.40816326530612246,0.40816326530612246,0.40816326530612246,0.40816326530612246,0.40816326530612246,0.40816326530612246,0.40816326530612246,0.40816326530612246,0.40816326530612246,0.40816326530612246,0.40816326530612246,0.40816326530612246,0.40816326530612246,0.40816326530612246,0.40816326530612246,0.40816326530612246,0.40816326530612246,0.40816326530612246,0.40816326530612246,0.40816326530612246,0.40816326530612246,0.40816326530612246,0.40816326530612246,0.40816326530612246,0.40816326530612246,0.40816326530612246,0.40816326530612246,0.40816326530612246,0.40816326530612246,0.40816326530612246,0.40816326530612246,0.40816326530612246,0.40816326530612246,0.40816326530612246,0.40816326530612246,0.40816326530612246,0.40816326530612246,0.40816326530612246,0.40816326530612246,0.40816326530612246,0.40816326530612246,0.40816326530612246,0.40816326530612246,0.40816326530612246,0.40816326530612246,0.40816326530612246,0.40816326530612246,0.40816326530612246,0.40816326530612246,0.40816326530612246,0.40816326530612246,0.40816326530612246,0.40816326530612246,0.40816326530612246,0.40816326530612246,0.40816326530612246,0.40816326530612246,0.40816326530612246,0.40816326530612246,0.40816326530612246,0.40816326530612246,0.40816326530612246,0.40816326530612246,0.40816326530612246,0.40816326530612246,0.40816326530612246,0.40816326530612246,0.40816326530612246,0.40816326530612246,0.40816326530612246,0.40816326530612246,0.40816326530612246,0.40816326530612246,0.40816326530612246,0.40816326530612246,0.40816326530612246,0.41156462585034015,0.43197278911564624,0.4421768707482993,0.45918367346938777,0.46938775510204084,0.48299319727891155,0.4965986394557823,0.4965986394557823,0.5034013605442177,0.5102040816326531,0.5136054421768708,0.5204081632653061,0.5306122448979592,0.5340136054421769,0.5408163265306123,0.54421768707483,0.5510204081632653,0.5544217687074829,0.5578231292517006,0.5612244897959183,0.5612244897959183,0.564625850340136,0.5680272108843537,0.5714285714285714,0.5748299319727891,0.5782312925170068,0.5850340136054422,0.5884353741496599,0.5986394557823129,0.6054421768707483,0.6122448979591837,0.6224489795918368,0.6360544217687075,0.6462585034013606,0.6564625850340136,0.6666666666666666,0.6700680272108843,0.6802721088435374,0.6904761904761905,0.6904761904761905,0.6972789115646258,0.6972789115646258,0.6972789115646258,0.7006802721088435,0.7006802721088435,0.7006802721088435,0.7006802721088435,0.7006802721088435,0.7006802721088435,0.7006802721088435,0.7006802721088435,0.7006802721088435,0.7006802721088435,0.7006802721088435,0.7006802721088435,0.7006802721088435,0.7006802721088435,0.7006802721088435,0.7006802721088435,0.7006802721088435,0.7006802721088435,0.7006802721088435,0.7006802721088435,0.7006802721088435,0.7006802721088435,0.7006802721088435,0.7006802721088435,0.7006802721088435,0.7006802721088435,0.7006802721088435,0.7006802721088435,0.7006802721088435,0.7006802721088435,0.7006802721088435,0.7006802721088435,0.7006802721088435,0.7006802721088435,0.7006802721088435,0.7006802721088435,0.7006802721088435,0.7006802721088435,0.7006802721088435,0.7006802721088435,0.7006802721088435,0.7006802721088435,0.7006802721088435,0.7006802721088435,0.7006802721088435,0.7006802721088435,0.7006802721088435,0.7006802721088435,0.7006802721088435,0.7006802721088435,0.6972789115646258,0.6836734693877551,0.6666666666666666,0.6598639455782312,0.6428571428571429,0.6326530612244898,0.6258503401360545,0.6190476190476191,0.608843537414966,0.608843537414966,0.6020408163265306,0.5952380952380952,0.5918367346938775,0.5918367346938775,0.5918367346938775,0.5918367346938775,0.5918367346938775,0.5918367346938775,0.5918367346938775,0.5918367346938775,0.5918367346938775,0.5918367346938775,0.5918367346938775,0.5918367346938775,0.5918367346938775,0.5918367346938775,0.5918367346938775,0.5918367346938775,0.5918367346938775,0.5918367346938775,0.5918367346938775,0.5918367346938775,0.5918367346938775,0.5918367346938775,0.5918367346938775,0.5918367346938775,0.5918367346938775,0.5918367346938775,0.5918367346938775,0.5918367346938775,0.5918367346938775,0.5918367346938775,0.5918367346938775,0.5918367346938775,0.5918367346938775,0.5918367346938775,0.5918367346938775,0.5918367346938775,0.5918367346938775,0.5918367346938775,0.5918367346938775,0.5918367346938775,0.5918367346938775,0.5918367346938775,0.5918367346938775,0.5918367346938775,0.5918367346938775,0.5918367346938775,0.5918367346938775,0.5918367346938775,0.5918367346938775,0.5918367346938775,0.5918367346938775,0.5918367346938775,0.5918367346938775,0.5918367346938775,0.5918367346938775,0.5918367346938775,0.5918367346938775,0.5918367346938775,0.5918367346938775,0.5918367346938775,0.5918367346938775,0.5918367346938775,0.5918367346938775,0.5918367346938775,0.5918367346938775,0.5918367346938775,0.5918367346938775,0.5918367346938775,0.5918367346938775,0.5918367346938775,0.5918367346938775,0.5918367346938775,0.5918367346938775,0.5918367346938775,0.5918367346938775,0.5918367346938775,0.5918367346938775,0.5918367346938775,0.5918367346938775,0.5918367346938775,0.5918367346938775,0.5918367346938775,0.5918367346938775,0.5918367346938775,0.5918367346938775,0.5918367346938775,0.5918367346938775,0.5918367346938775,0.5918367346938775,0.5918367346938775,0.5918367346938775,0.5918367346938775,0.5918367346938775,0.5918367346938775,0.5918367346938775,0.5918367346938775,0.5918367346938775,0.5918367346938775,0.5918367346938775,0.5918367346938775,0.5918367346938775,0.5918367346938775,0.5918367346938775,0.5918367346938775,0.5918367346938775,0.5918367346938775,0.5918367346938775,0.5918367346938775,0.5918367346938775,0.5918367346938775,0.5918367346938775,0.5918367346938775,0.5918367346938775,0.5918367346938775,0.5918367346938775,0.5918367346938775,0.5918367346938775,0.5918367346938775,0.5918367346938775,0.5918367346938775,0.5918367346938775,0.5918367346938775,0.5918367346938775,0.5918367346938775,0.5918367346938775,0.5918367346938775,0.5918367346938775,0.5918367346938775,0.5918367346938775,0.5918367346938775,0.5918367346938775,0.5918367346938775,0.5918367346938775,0.5918367346938775,0.5918367346938775,0.5918367346938775,0.5918367346938775,0.5918367346938775,0.5918367346938775,0.5918367346938775,0.5918367346938775,0.5918367346938775,0.5918367346938775,0.5918367346938775,0.5918367346938775,0.5918367346938775,0.5918367346938775,0.5918367346938775,0.5918367346938775,0.5918367346938775,0.5918367346938775,0.5918367346938775,0.5918367346938775,0.5918367346938775,0.5918367346938775,0.5918367346938775,0.5918367346938775,0.5918367346938775,0.5918367346938775,0.5918367346938775,0.5918367346938775,0.5918367346938775,0.5918367346938775,0.5918367346938775,0.5918367346938775,0.5918367346938775,0.5918367346938775,0.5918367346938775,0.5918367346938775,0.5918367346938775,0.5918367346938775,0.5918367346938775,0.5918367346938775,0.5918367346938775,0.5918367346938775,0.5918367346938775,0.5918367346938775,0.5918367346938775,0.5918367346938775,0.5918367346938775,0.5918367346938775,0.5918367346938775,0.5918367346938775,0.5918367346938775,0.5918367346938775,0.5918367346938775,0.5918367346938775,0.5918367346938775,0.5918367346938775,0.5918367346938775,0.5918367346938775,0.5918367346938775,0.5918367346938775,0.5918367346938775,0.5918367346938775,0.5918367346938775,0.5918367346938775,0.5918367346938775,0.5918367346938775,0.5918367346938775,0.5884353741496599,0.5884353741496599,0.5850340136054422,0.5816326530612245,0.5782312925170068,0.5748299319727891,0.5748299319727891,0.5748299319727891,0.5884353741496599,0.6054421768707483,0.6462585034013606,0.6836734693877551,0.7074829931972789,0.7448979591836735,0.7755102040816326,0.782312925170068,0.782312925170068,0.782312925170068,0.782312925170068,0.782312925170068,0.782312925170068,0.782312925170068,0.782312925170068,0.782312925170068,0.782312925170068,0.782312925170068,0.782312925170068,0.782312925170068,0.7891156462585034,0.8095238095238095,0.8231292517006803,0.8503401360544217,0.8775510204081632,0.8877551020408163,0.9047619047619048,0.9115646258503401,0.9217687074829932,0.9285714285714286,0.9285714285714286,0.9319727891156463,0.9387755102040817,0.9421768707482994,0.9455782312925171,0.9489795918367347,0.9489795918367347,0.9523809523809523,0.9591836734693877,0.9625850340136054,0.9727891156462585,0.9761904761904762,0.9761904761904762,0.9829931972789115,0.9829931972789115,0.9829931972789115,0.9829931972789115,0.9829931972789115,0.9829931972789115,0.9829931972789115,0.9829931972789115,0.9829931972789115,0.9829931972789115,0.9829931972789115,0.9829931972789115,0.9829931972789115,0.9829931972789115,0.9829931972789115,0.9829931972789115,0.9829931972789115,0.9829931972789115,0.9829931972789115,0.9829931972789115,0.9829931972789115,0.9829931972789115,0.9829931972789115,0.9829931972789115,0.9829931972789115,0.9829931972789115,0.9829931972789115,0.9829931972789115,0.9829931972789115,0.9829931972789115,0.9829931972789115,0.9829931972789115,0.9829931972789115,0.9829931972789115,0.9829931972789115,0.9829931972789115,0.9829931972789115,0.9829931972789115,0.9829931972789115,0.9829931972789115,0.9829931972789115,0.9829931972789115,0.9829931972789115,0.9829931972789115,0.9829931972789115,0.9829931972789115,0.9829931972789115,0.9829931972789115,0.9829931972789115,0.9829931972789115,0.9829931972789115,0.9829931972789115,0.9829931972789115,0.9829931972789115,0.9829931972789115,0.9829931972789115,0.9795918367346939,0.9625850340136054,0.9387755102040817,0.9115646258503401,0.8537414965986394,0.8061224489795918,0.782312925170068,0.717687074829932,0.6632653061224489,0.6428571428571429,0.608843537414966,0.5816326530612245,0.5680272108843537,0.5374149659863946,0.5102040816326531,0.5,0.46598639455782315,0.4421768707482993,0.43197278911564624,0.40476190476190477,0.38095238095238093,0.3741496598639456,0.35034013605442177,0.3401360544217687,0.3231292517006803,0.30612244897959184,0.29931972789115646,0.2857142857142857,0.2789115646258503,0.272108843537415,0.2653061224489796,0.2585034013605442,0.25510204081632654,0.24829931972789115,0.24149659863945577,0.24149659863945577,0.22789115646258504,0.22108843537414966,0.21768707482993196,0.20748299319727892,0.20068027210884354,0.19727891156462585,0.19047619047619047,0.1836734693877551,0.1836734693877551,0.18027210884353742,0.17687074829931973,0.17687074829931973,0.17687074829931973,0.17687074829931973,0.17687074829931973,0.17687074829931973,0.17687074829931973,0.17687074829931973,0.17687074829931973,0.17687074829931973,0.17687074829931973,0.17687074829931973,0.17687074829931973,0.17687074829931973,0.17687074829931973,0.17687074829931973,0.17687074829931973,0.17687074829931973,0.17687074829931973,0.17687074829931973,0.17687074829931973,0.17687074829931973,0.17687074829931973,0.17687074829931973,0.17687074829931973,0.17687074829931973,0.17687074829931973,0.17687074829931973,0.17687074829931973,0.17687074829931973,0.17687074829931973,0.17687074829931973,0.17687074829931973,0.17687074829931973,0.17687074829931973,0.17687074829931973,0.17687074829931973,0.17687074829931973,0.17687074829931973,0.17687074829931973,0.17687074829931973,0.17687074829931973,0.17687074829931973,0.17687074829931973,0.17687074829931973,0.17687074829931973,0.17687074829931973,0.17687074829931973,0.17687074829931973,0.17687074829931973,0.17687074829931973,0.17687074829931973,0.17687074829931973,0.17687074829931973,0.17687074829931973,0.17687074829931973,0.17687074829931973,0.17687074829931973,0.17687074829931973,0.17687074829931973,0.17687074829931973,0.17687074829931973,0.17687074829931973,0.17687074829931973,0.17687074829931973,0.17687074829931973,0.17687074829931973,0.17687074829931973,0.17687074829931973,0.17687074829931973,0.17687074829931973,0.17687074829931973,0.17687074829931973,0.17687074829931973,0.17687074829931973,0.17687074829931973,0.17687074829931973,0.17687074829931973,0.17687074829931973,0.17687074829931973,0.17687074829931973,0.17687074829931973,0.17687074829931973,0.17687074829931973,0.17687074829931973,0.17687074829931973,0.17687074829931973,0.17687074829931973,0.17687074829931973,0.17687074829931973,0.17687074829931973,0.17687074829931973,0.17687074829931973,0.17687074829931973,0.17687074829931973,0.17687074829931973,0.17687074829931973,0.17687074829931973,0.17687074829931973,0.17687074829931973,0.17687074829931973,0.17687074829931973,0.17687074829931973,0.17687074829931973,0.17687074829931973,0.17687074829931973,0.17687074829931973,0.17687074829931973,0.17687074829931973,0.17687074829931973,0.17687074829931973,0.17687074829931973,0.17687074829931973,0.17687074829931973,0.17687074829931973,0.17687074829931973,0.17687074829931973,0.17687074829931973,0.17687074829931973,0.17687074829931973,0.17687074829931973,0.17687074829931973,0.17687074829931973,0.17687074829931973,0.17687074829931973,0.17687074829931973,0.17687074829931973,0.17687074829931973,0.17687074829931973,0.17687074829931973,0.17687074829931973,0.17687074829931973,0.17687074829931973,0.17687074829931973,0.17687074829931973,0.17687074829931973,0.17687074829931973,0.17687074829931973,0.17687074829931973,0.17687074829931973,0.17687074829931973,0.17687074829931973,0.17687074829931973,0.17687074829931973,0.17687074829931973,0.17687074829931973,0.17687074829931973,0.17687074829931973,0.17687074829931973,0.17687074829931973,0.17687074829931973,0.17687074829931973,0.17687074829931973,0.17687074829931973,0.17687074829931973,0.17687074829931973,0.17687074829931973,0.17687074829931973,0.17687074829931973,0.17687074829931973],"y":[-3.0476190476190474,-3.0476190476190474,-3.0476190476190474,-3.0476190476190474,-3.0476190476190474,-3.0476190476190474,-3.0476190476190474,-3.0476190476190474,-3.0476190476190474,-3.0476190476190474,-3.0476190476190474,-3.0476190476190474,-3.0476190476190474,-3.0476190476190474,-3.0476190476190474,-3.0476190476190474,-3.0476190476190474,-3.0476190476190474,-3.0476190476190474,-3.0476190476190474,-3.0476190476190474,-3.0476190476190474,-3.0476190476190474,-3.0476190476190474,-3.0476190476190474,-3.0476190476190474,-3.0476190476190474,-3.0476190476190474,-3.0476190476190474,-3.0476190476190474,-3.0476190476190474,-3.0476190476190474,-3.0476190476190474,-3.0476190476190474,-3.0476190476190474,-3.0476190476190474,-3.0476190476190474,-3.0476190476190474,-3.0476190476190474,-3.0476190476190474,-3.0476190476190474,-3.0476190476190474,-3.0476190476190474,-3.0476190476190474,-3.0476190476190474,-3.0476190476190474,-3.0476190476190474,-3.0476190476190474,-3.0476190476190474,-3.0476190476190474,-3.0476190476190474,-3.0476190476190474,-3.0476190476190474,-3.0476190476190474,-3.0476190476190474,-3.0476190476190474,-3.0476190476190474,-3.0476190476190474,-3.0476190476190474,-3.0476190476190474,-3.0476190476190474,-3.0476190476190474,-3.0476190476190474,-3.0476190476190474,-3.0476190476190474,-3.0476190476190474,-3.0476190476190474,-3.0476190476190474,-3.0476190476190474,-3.0476190476190474,-3.0476190476190474,-3.0476190476190474,-3.0476190476190474,-3.0476190476190474,-3.0476190476190474,-3.0476190476190474,-3.0476190476190474,-3.0476190476190474,-3.0476190476190474,-3.0476190476190474,-3.0476190476190474,-3.0476190476190474,-3.0476190476190474,-3.0476190476190474,-3.0476190476190474,-3.0476190476190474,-3.0476190476190474,-3.0476190476190474,-3.0476190476190474,0.48095238095238096,0.4714285714285714,0.44285714285714284,0.4142857142857143,0.3952380952380952,0.36666666666666664,0.3380952380952381,0.3380952380952381,0.319047619047619,0.3,0.2904761904761905,0.2714285714285714,0.24285714285714285,0.23333333333333334,0.21428571428571427,0.20476190476190476,0.19523809523809524,0.18571428571428572,0.1761904761904762,0.15714285714285714,0.15714285714285714,0.15714285714285714,0.15714285714285714,0.15714285714285714,0.15714285714285714,0.15714285714285714,0.15714285714285714,0.15714285714285714,0.15714285714285714,0.15714285714285714,0.15714285714285714,0.15714285714285714,0.15714285714285714,0.15714285714285714,0.15714285714285714,0.15714285714285714,0.15714285714285714,0.15714285714285714,0.15714285714285714,0.15714285714285714,0.15714285714285714,0.15714285714285714,0.15714285714285714,0.15714285714285714,0.15714285714285714,0.15714285714285714,0.15714285714285714,0.15714285714285714,0.15714285714285714,0.15714285714285714,0.15714285714285714,0.1761904761904762,0.19523809523809524,0.20476190476190476,0.23333333333333334,0.2619047619047619,0.2714285714285714,0.28095238095238095,0.2904761904761905,0.30952380952380953,0.319047619047619,0.319047619047619,0.319047619047619,0.319047619047619,0.319047619047619,0.319047619047619,0.319047619047619,0.319047619047619,0.319047619047619,0.319047619047619,0.319047619047619,0.319047619047619,0.319047619047619,0.319047619047619,0.319047619047619,0.319047619047619,0.319047619047619,0.319047619047619,0.319047619047619,0.319047619047619,0.319047619047619,0.319047619047619,0.30952380952380953,0.28095238095238095,0.2523809523809524,0.24285714285714285,0.22380952380952382,0.21428571428571427,0.20476190476190476,0.20476190476190476,0.20476190476190476,0.20476190476190476,0.20476190476190476,0.20476190476190476,0.20476190476190476,0.20476190476190476,0.20476190476190476,0.20476190476190476,0.20476190476190476,0.20476190476190476,0.20476190476190476,0.20476190476190476,0.20476190476190476,0.19523809523809524,0.18571428571428572,0.1761904761904762,0.1761904761904762,0.16666666666666666,0.15714285714285714,0.14761904761904762,0.1380952380952381,0.1380952380952381,0.1380952380952381,0.12857142857142856,0.12857142857142856,0.12857142857142856,0.12857142857142856,0.12857142857142856,0.12857142857142856,0.12857142857142856,0.14761904761904762,0.16666666666666666,0.16666666666666666,0.1761904761904762,0.18571428571428572,0.18571428571428572,0.18571428571428572,0.18571428571428572,0.18571428571428572,0.18571428571428572,0.18571428571428572,0.18571428571428572,0.16666666666666666,0.1380952380952381,0.1380952380952381,0.12857142857142856,0.12857142857142856,0.11904761904761904,0.11904761904761904,0.11904761904761904,0.11904761904761904,0.11904761904761904,0.11904761904761904,0.12857142857142856,0.14761904761904762,0.1761904761904762,0.20476190476190476,0.2714285714285714,0.2904761904761905,0.3476190476190476,0.38571428571428573,0.38571428571428573,0.4142857142857143,0.4238095238095238,0.44285714285714284,0.46190476190476193,0.4714285714285714,0.5,0.5190476190476191,0.5476190476190477,0.5761904761904761,0.6238095238095238,0.6619047619047619,0.7380952380952381,0.7952380952380952,0.8142857142857143,0.861904761904762,0.8904761904761904,0.9,0.9095238095238095,0.919047619047619,0.9285714285714286,0.9285714285714286,0.9285714285714286,0.9285714285714286,0.9285714285714286,0.9380952380952381,0.9380952380952381,0.9476190476190476,0.9476190476190476,0.9476190476190476,0.9571428571428572,0.9571428571428572,0.9571428571428572,0.9666666666666667,0.9666666666666667,0.9666666666666667,0.9666666666666667,0.9666666666666667,0.9666666666666667,0.9666666666666667,0.9666666666666667,0.9666666666666667,0.9666666666666667,0.9666666666666667,0.9666666666666667,0.9666666666666667,0.9666666666666667,0.9666666666666667,0.9666666666666667,0.9666666666666667,0.9666666666666667,0.9666666666666667,0.9666666666666667,0.9666666666666667,0.9666666666666667,0.9666666666666667,0.9666666666666667,0.9666666666666667,0.9666666666666667,0.9666666666666667,0.9666666666666667,0.9666666666666667,0.9666666666666667,0.9666666666666667,0.9666666666666667,0.9666666666666667,0.9666666666666667,0.9666666666666667,0.9666666666666667,0.9666666666666667,0.9666666666666667,0.9666666666666667,0.9666666666666667,0.9666666666666667,0.9666666666666667,0.9666666666666667,0.9666666666666667,0.9666666666666667,0.9666666666666667,0.9666666666666667,0.9666666666666667,0.9666666666666667,0.9666666666666667,0.9666666666666667,0.9666666666666667,0.9666666666666667,0.9666666666666667,0.9666666666666667,0.9666666666666667,0.9666666666666667,0.9666666666666667,0.9666666666666667,0.9666666666666667,0.9666666666666667,0.9666666666666667,0.9666666666666667,0.9666666666666667,0.9666666666666667,0.9666666666666667,0.9666666666666667,0.9666666666666667,0.9666666666666667,0.9666666666666667,0.9666666666666667,0.9666666666666667,0.9666666666666667,0.9666666666666667,0.9666666666666667,0.9666666666666667,0.9666666666666667,0.9666666666666667,0.9666666666666667,0.9666666666666667,0.9666666666666667,0.9666666666666667,0.9666666666666667,0.9666666666666667,0.9666666666666667,0.9666666666666667,0.9666666666666667,0.9666666666666667,0.9666666666666667,0.9666666666666667,0.9666666666666667,0.9666666666666667,0.9476190476190476,0.9380952380952381,0.9,0.861904761904762,0.8523809523809524,0.8238095238095238,0.7952380952380952,0.7952380952380952,0.7857142857142857,0.7666666666666667,0.7666666666666667,0.7380952380952381,0.719047619047619,0.680952380952381,0.6523809523809524,0.6333333333333333,0.5952380952380952,0.5761904761904761,0.5571428571428572,0.5285714285714286,0.49047619047619045,0.48095238095238096,0.44285714285714284,0.3952380952380952,0.38571428571428573,0.35714285714285715,0.32857142857142857,0.32857142857142857,0.30952380952380953,0.2904761904761905,0.2904761904761905,0.2904761904761905,0.2714285714285714,0.2714285714285714,0.2619047619047619,0.2619047619047619,0.2523809523809524,0.23333333333333334,0.22380952380952382,0.18571428571428572,0.15714285714285714,0.12857142857142856,0.12857142857142856,0.11904761904761904,0.10952380952380952,0.10952380952380952,0.1,0.1,0.1,0.1,0.1,0.1,0.1,0.1,0.1,0.1,0.1,0.1,0.1,0.1,0.1,0.1,0.1,0.1,0.1,0.1,0.1,0.1,0.1,0.1,0.1,0.1,0.1,0.1,0.1,0.1,0.1,0.1,0.1,0.1,0.1,0.1,0.1,0.1,0.1,0.1,0.1,0.1,0.1,0.1,0.1,0.1,0.1,0.1,0.1,0.1,0.1,0.1,0.1,0.1,0.1,0.1,0.1,0.1,0.1,0.1,0.1,0.1,0.1,0.1,0.1,0.1,0.1,0.1,0.1,0.1,0.1,0.1,0.1,0.1,0.1,0.1,0.1,0.1,0.1,0.1,0.1,0.1,0.1,0.1,0.1,0.1,0.1,0.1,0.1,0.1,0.1,0.1,0.1,0.1,0.1,0.1,0.1,0.1,0.1,0.1,0.1,0.1,0.1,0.1,0.1,0.1,0.1,0.1,0.1,0.1,0.1,0.1,0.1,0.1,0.1,0.1,0.1,0.1,0.1,0.1,0.1,0.1,0.1,0.1,0.1,0.10952380952380952,0.1380952380952381,0.18571428571428572,0.20476190476190476,0.2714285714285714,0.30952380952380953,0.3761904761904762,0.4238095238095238,0.46190476190476193,0.49047619047619045,0.5190476190476191,0.5190476190476191,0.5285714285714286,0.5285714285714286,0.5285714285714286,0.5285714285714286,0.5285714285714286,0.5285714285714286,0.5285714285714286,0.5285714285714286,0.5285714285714286,0.5285714285714286,0.5285714285714286,0.5285714285714286,0.5285714285714286,0.5285714285714286,0.5285714285714286,0.5285714285714286,0.5285714285714286,0.5285714285714286,0.5285714285714286,0.5285714285714286,0.5285714285714286,0.5285714285714286,0.5285714285714286,0.5285714285714286,0.5285714285714286,0.5285714285714286,0.5285714285714286,0.5380952380952381,0.5380952380952381,0.5380952380952381,0.5380952380952381,0.5285714285714286,0.5285714285714286,0.5285714285714286,0.5285714285714286,0.5190476190476191,0.5095238095238095,0.5095238095238095,0.5,0.5,0.49047619047619045,0.49047619047619045,0.48095238095238096,0.48095238095238096,0.48095238095238096,0.48095238095238096,0.48095238095238096,0.48095238095238096,0.48095238095238096,0.48095238095238096,0.48095238095238096,0.48095238095238096,0.48095238095238096,0.48095238095238096,0.48095238095238096,0.49047619047619045,0.5,0.5,0.5,0.5095238095238095,0.5095238095238095,0.5190476190476191,0.5190476190476191,0.5285714285714286,0.5285714285714286,0.5285714285714286,0.5285714285714286,0.5285714285714286,0.5285714285714286,0.5285714285714286,0.5285714285714286,0.5285714285714286,0.5285714285714286,0.5285714285714286,0.5285714285714286,0.5285714285714286,0.5285714285714286,0.5285714285714286,0.5285714285714286,0.5285714285714286,0.5285714285714286,0.5285714285714286,0.5285714285714286,0.5285714285714286,0.5285714285714286,0.5285714285714286,0.5285714285714286,0.5285714285714286,0.5285714285714286,0.5285714285714286,0.5285714285714286,0.5285714285714286,0.5285714285714286,0.5285714285714286,0.5285714285714286,0.5285714285714286,0.5285714285714286,0.5285714285714286,0.5285714285714286,0.5285714285714286,0.5285714285714286,0.5285714285714286,0.5285714285714286,0.5285714285714286,0.5285714285714286,0.5285714285714286,0.5285714285714286,0.5285714285714286,0.5285714285714286,0.5285714285714286,0.5285714285714286,0.5285714285714286,0.5285714285714286,0.5285714285714286,0.5285714285714286,0.5285714285714286,0.5285714285714286,0.5285714285714286,0.5285714285714286,0.5285714285714286,0.5285714285714286,0.5285714285714286,0.5285714285714286,0.5285714285714286,0.5285714285714286,0.5285714285714286,0.5285714285714286,0.5285714285714286,0.5285714285714286,0.5285714285714286,0.5285714285714286,0.5285714285714286,0.5285714285714286,0.5285714285714286,0.5285714285714286,0.5285714285714286,0.5285714285714286,0.5285714285714286,0.5285714285714286,0.5285714285714286,0.5285714285714286,0.5285714285714286,0.5285714285714286,0.5285714285714286,0.5285714285714286,0.5285714285714286,0.5285714285714286,0.5285714285714286,0.5285714285714286,0.5285714285714286,0.5285714285714286,0.5285714285714286,0.5285714285714286,0.5285714285714286,0.5285714285714286,0.5285714285714286,0.5285714285714286,0.5285714285714286,0.5285714285714286,0.5285714285714286,0.5285714285714286,0.5285714285714286,0.5285714285714286,0.5285714285714286,0.5285714285714286,0.5285714285714286,0.5285714285714286,0.5285714285714286,0.5285714285714286,0.5285714285714286,0.5285714285714286,0.5285714285714286,0.5285714285714286,0.5285714285714286,0.5285714285714286,0.5285714285714286,0.5285714285714286,0.5285714285714286,0.5285714285714286,0.5285714285714286,0.5285714285714286,0.5285714285714286,0.5285714285714286,0.5285714285714286,0.5285714285714286,0.5285714285714286,0.5285714285714286,0.5285714285714286,0.5285714285714286,0.5285714285714286,0.5285714285714286,0.5285714285714286,0.5285714285714286,0.5285714285714286,0.5285714285714286,0.5285714285714286,0.5285714285714286,0.5285714285714286,0.5285714285714286,0.5285714285714286,0.5285714285714286,0.5285714285714286,0.5285714285714286,0.5285714285714286,0.5285714285714286,0.5285714285714286,0.5285714285714286,0.5285714285714286,0.5285714285714286,0.5285714285714286,0.5285714285714286,0.5285714285714286,0.5190476190476191,0.5095238095238095,0.5,0.5,0.5,0.5,0.5,0.5,0.5,0.5,0.5,0.5,0.5,0.5,0.5,0.5,0.5,0.5,0.5,0.5,0.5,0.5,0.5,0.5,0.5,0.5,0.5,0.5,0.5,0.5,0.5,0.5,0.5,0.5,0.5,0.5285714285714286,0.5571428571428572,0.5761904761904761,0.5952380952380952,0.6142857142857143,0.6142857142857143,0.6142857142857143,0.6238095238095238,0.6238095238095238,0.6238095238095238,0.6238095238095238,0.6238095238095238,0.6238095238095238,0.6238095238095238,0.6238095238095238,0.6238095238095238,0.6238095238095238,0.6238095238095238,0.6238095238095238,0.6238095238095238,0.6238095238095238,0.6238095238095238,0.6238095238095238,0.6238095238095238,0.6238095238095238,0.6238095238095238,0.6238095238095238,0.6238095238095238,0.6238095238095238,0.6238095238095238,0.6238095238095238,0.6238095238095238,0.6238095238095238,0.6238095238095238,0.6238095238095238,0.6238095238095238,0.6238095238095238,0.6238095238095238,0.6238095238095238,0.6238095238095238,0.6238095238095238,0.6238095238095238,0.6238095238095238,0.6238095238095238,0.6238095238095238,0.6238095238095238,0.6238095238095238,0.6238095238095238,0.6238095238095238,0.6238095238095238,0.6238095238095238,0.6238095238095238,0.6238095238095238,0.6238095238095238,0.6238095238095238,0.6238095238095238,0.6238095238095238,0.6238095238095238,0.6238095238095238,0.6238095238095238,0.6238095238095238,0.6238095238095238,0.6238095238095238,0.6238095238095238,0.6238095238095238,0.6238095238095238,0.6238095238095238,0.6238095238095238,0.6238095238095238,0.6238095238095238,0.6238095238095238,0.6238095238095238,0.6238095238095238,0.6238095238095238,0.6238095238095238,0.6238095238095238,0.6238095238095238,0.6238095238095238,0.6238095238095238,0.6238095238095238,0.6238095238095238,0.6238095238095238,0.6238095238095238,0.6238095238095238,0.6238095238095238,0.6238095238095238,0.6238095238095238,0.6238095238095238,0.6238095238095238,0.6238095238095238,0.6238095238095238,0.6238095238095238,0.6238095238095238,0.6238095238095238,0.6238095238095238,0.6238095238095238,0.6238095238095238,0.6238095238095238,0.6238095238095238,0.6238095238095238,0.6238095238095238,0.6238095238095238,0.6238095238095238,0.6238095238095238,0.6238095238095238,0.6238095238095238,0.6238095238095238,0.6238095238095238,0.6238095238095238,0.6238095238095238,0.6238095238095238,0.6142857142857143,0.6047619047619047,0.5761904761904761,0.5666666666666667,0.5476190476190477,0.5285714285714286,0.5285714285714286,0.5095238095238095,0.49047619047619045,0.48095238095238096,0.46190476190476193,0.43333333333333335,0.43333333333333335,0.4142857142857143,0.40476190476190477,0.38571428571428573,0.38571428571428573,0.3761904761904762,0.36666666666666664,0.35714285714285715,0.3476190476190476,0.3476190476190476,0.32857142857142857,0.32857142857142857,0.30952380952380953,0.2904761904761905,0.2714285714285714,0.23333333333333334,0.20476190476190476,0.18571428571428572,0.15714285714285714,0.12857142857142856,0.1,0.07142857142857142,0.06190476190476191,0.05238095238095238,0.03333333333333333,0.023809523809523808,0.014285714285714285,0.014285714285714285,0.014285714285714285,0.014285714285714285,0.004761904761904762,0.004761904761904762,0.004761904761904762,0.004761904761904762,0.004761904761904762,0.004761904761904762,0.004761904761904762,0.004761904761904762,0.004761904761904762,0.004761904761904762,0.004761904761904762,0.004761904761904762,0.004761904761904762,0.004761904761904762,0.004761904761904762,0.004761904761904762,0.004761904761904762,0.004761904761904762,0.004761904761904762,0.004761904761904762,0.004761904761904762,0.004761904761904762,0.004761904761904762,0.004761904761904762,0.004761904761904762,0.004761904761904762,0.004761904761904762,0.004761904761904762,0.004761904761904762,0.004761904761904762,0.004761904761904762,0.004761904761904762,0.004761904761904762,0.004761904761904762,0.004761904761904762,0.004761904761904762,0.004761904761904762,0.004761904761904762,0.004761904761904762,0.004761904761904762,0.004761904761904762,0.004761904761904762,0.004761904761904762,0.004761904761904762,0.004761904761904762,0.004761904761904762,0.004761904761904762,0.004761904761904762,0.004761904761904762,0.004761904761904762,0.004761904761904762,0.004761904761904762,0.004761904761904762,0.004761904761904762,0.004761904761904762,0.004761904761904762,0.004761904761904762,0.004761904761904762,0.004761904761904762,0.004761904761904762,0.004761904761904762,0.004761904761904762,0.004761904761904762,0.004761904761904762,0.004761904761904762,0.004761904761904762,0.004761904761904762,0.004761904761904762,0.004761904761904762,0.004761904761904762,0.004761904761904762,0.004761904761904762,0.004761904761904762,0.004761904761904762,0.004761904761904762,0.004761904761904762,0.004761904761904762,0.004761904761904762,0.004761904761904762,0.004761904761904762,0.004761904761904762,0.004761904761904762,0.004761904761904762,0.004761904761904762,0.004761904761904762,0.004761904761904762,0.004761904761904762,0.004761904761904762,0.004761904761904762,0.004761904761904762,0.004761904761904762,0.004761904761904762,0.004761904761904762,0.004761904761904762,0.004761904761904762,0.004761904761904762,0.004761904761904762,0.004761904761904762,0.004761904761904762,0.004761904761904762,0.004761904761904762,0.004761904761904762,0.004761904761904762,0.004761904761904762,0.004761904761904762,0.004761904761904762,0.004761904761904762,0.004761904761904762,0.004761904761904762,0.004761904761904762,0.004761904761904762,0.004761904761904762,0.004761904761904762,0.004761904761904762,0.004761904761904762,0.004761904761904762,0.004761904761904762,0.004761904761904762,0.004761904761904762,0.004761904761904762,0.004761904761904762,0.004761904761904762,0.004761904761904762,0.004761904761904762,0.004761904761904762,0.004761904761904762,0.004761904761904762,0.004761904761904762,0.004761904761904762,0.004761904761904762,0.004761904761904762,0.004761904761904762,0.004761904761904762,0.004761904761904762,0.004761904761904762,0.004761904761904762,0.004761904761904762,0.004761904761904762,0.004761904761904762,0.004761904761904762,0.004761904761904762,0.004761904761904762,0.004761904761904762,0.004761904761904762,0.004761904761904762,0.004761904761904762,0.004761904761904762,0.004761904761904762,0.004761904761904762,0.004761904761904762,0.004761904761904762,0.004761904761904762,0.004761904761904762,0.004761904761904762,0.004761904761904762,0.004761904761904762,0.004761904761904762,0.004761904761904762,0.004761904761904762,0.004761904761904762,0.004761904761904762,0.004761904761904762,0.004761904761904762,0.004761904761904762,0.004761904761904762,0.004761904761904762,0.004761904761904762,0.004761904761904762,0.004761904761904762,0.004761904761904762,0.004761904761904762,0.004761904761904762,0.004761904761904762,0.004761904761904762,0.004761904761904762,0.004761904761904762,0.004761904761904762,0.004761904761904762,0.004761904761904762,0.004761904761904762,0.004761904761904762,0.004761904761904762,0.004761904761904762,0.004761904761904762,0.004761904761904762,0.004761904761904762,0.004761904761904762,0.004761904761904762,0.004761904761904762,0.004761904761904762,0.004761904761904762,0.004761904761904762,0.004761904761904762,0.004761904761904762,0.004761904761904762,0.004761904761904762,0.004761904761904762,0.004761904761904762,0.004761904761904762,0.004761904761904762,0.004761904761904762,0.004761904761904762,0.004761904761904762,0.004761904761904762,0.004761904761904762,0.004761904761904762,0.004761904761904762,0.004761904761904762,0.004761904761904762,0.004761904761904762,0.004761904761904762,0.004761904761904762,0.004761904761904762,0.004761904761904762,0.004761904761904762,0.004761904761904762,0.004761904761904762,0.004761904761904762,0.004761904761904762,0.004761904761904762,0.004761904761904762,0.004761904761904762,0.004761904761904762,0.004761904761904762,0.004761904761904762,0.004761904761904762,0.004761904761904762,0.004761904761904762,0.004761904761904762,0.004761904761904762,0.004761904761904762,0.004761904761904762,0.004761904761904762,0.004761904761904762,0.004761904761904762,0.004761904761904762,0.004761904761904762,0.004761904761904762,0.004761904761904762,0.004761904761904762,0.004761904761904762,0.004761904761904762,0.004761904761904762,0.004761904761904762,0.004761904761904762,0.004761904761904762,0.004761904761904762,0.004761904761904762,0.004761904761904762,0.004761904761904762,0.004761904761904762,0.004761904761904762,0.004761904761904762,0.004761904761904762,0.004761904761904762,0.004761904761904762,0.004761904761904762,0.004761904761904762,0.004761904761904762,0.004761904761904762,0.004761904761904762,0.004761904761904762,0.004761904761904762,0.004761904761904762,0.004761904761904762,0.014285714285714285,0.03333333333333333,0.07142857142857142,0.11904761904761904,0.15714285714285714,0.2619047619047619,0.32857142857142857,0.48095238095238096,0.5857142857142857,0.6333333333333333,0.7095238095238096,0.7285714285714285,0.7285714285714285,0.7285714285714285,0.7285714285714285,0.7285714285714285,0.7285714285714285,0.7285714285714285,0.7285714285714285,0.7285714285714285,0.7285714285714285,0.7285714285714285,0.7285714285714285,0.7285714285714285,0.7285714285714285,0.7380952380952381,0.7476190476190476,0.7571428571428571,0.7857142857142857,0.8238095238095238,0.8428571428571429,0.8714285714285714,0.8809523809523809,0.9,0.9,0.9095238095238095,0.9095238095238095,0.9095238095238095,0.919047619047619,0.919047619047619,0.9285714285714286,0.9285714285714286,0.9380952380952381,0.9476190476190476,0.9571428571428572,0.9761904761904762,0.9952380952380953,0.9952380952380953,0.9952380952380953,0.9952380952380953,0.9952380952380953,0.9952380952380953,0.9952380952380953,0.9952380952380953,0.9952380952380953,0.9952380952380953,0.9952380952380953,0.9952380952380953,0.9952380952380953,0.9952380952380953,0.9952380952380953,0.9952380952380953,0.9952380952380953,0.9952380952380953,0.9952380952380953,0.9952380952380953,0.9952380952380953,0.9952380952380953,0.9952380952380953,0.9952380952380953,0.9952380952380953,0.9952380952380953,0.9952380952380953,0.9952380952380953,0.9952380952380953,0.9952380952380953,0.9952380952380953,0.9952380952380953,0.9952380952380953,0.9952380952380953,0.9952380952380953,0.9952380952380953,0.9952380952380953,0.9952380952380953,0.9952380952380953,0.9952380952380953,0.9952380952380953,0.9952380952380953,0.9952380952380953,0.9952380952380953,0.9952380952380953,0.9952380952380953,0.9952380952380953,0.9952380952380953,0.9952380952380953,0.9952380952380953,0.9952380952380953,0.9952380952380953,0.9952380952380953,0.9952380952380953,0.9952380952380953,0.9952380952380953,0.9952380952380953,0.9952380952380953,0.9952380952380953,0.9952380952380953,0.9666666666666667,0.9380952380952381,0.861904761904762,0.7666666666666667,0.7285714285714285,0.6238095238095238,0.5380952380952381,0.5095238095238095,0.4523809523809524,0.40476190476190477,0.3761904761904762,0.3476190476190476,0.3,0.2904761904761905,0.2523809523809524,0.22380952380952382,0.21428571428571427,0.19523809523809524,0.1761904761904762,0.1761904761904762,0.15714285714285714,0.14761904761904762,0.1380952380952381,0.1380952380952381,0.12857142857142856,0.11904761904761904,0.11904761904761904,0.11904761904761904,0.11904761904761904,0.11904761904761904,0.11904761904761904,0.10952380952380952,0.10952380952380952,0.1,0.1,0.08095238095238096,0.08095238095238096,0.06190476190476191,0.05238095238095238,0.05238095238095238,0.04285714285714286,0.03333333333333333,0.03333333333333333,0.023809523809523808,0.023809523809523808,0.023809523809523808,0.023809523809523808,0.023809523809523808,0.023809523809523808,0.023809523809523808,0.023809523809523808,0.023809523809523808,0.023809523809523808,0.023809523809523808,0.023809523809523808,0.023809523809523808,0.023809523809523808,0.023809523809523808,0.023809523809523808,0.023809523809523808,0.023809523809523808,0.023809523809523808,0.023809523809523808,0.023809523809523808,0.023809523809523808,0.023809523809523808,0.023809523809523808,0.023809523809523808,0.023809523809523808,0.023809523809523808,0.023809523809523808,0.023809523809523808,0.023809523809523808,0.023809523809523808,0.023809523809523808,0.023809523809523808,0.023809523809523808,0.023809523809523808,0.023809523809523808,0.023809523809523808,0.023809523809523808,0.023809523809523808,0.023809523809523808,0.023809523809523808,0.023809523809523808,0.023809523809523808,0.023809523809523808,0.023809523809523808,0.023809523809523808,0.023809523809523808,0.023809523809523808,0.023809523809523808,0.023809523809523808,0.023809523809523808,0.023809523809523808,0.023809523809523808,0.023809523809523808,0.023809523809523808,0.023809523809523808,0.023809523809523808,0.023809523809523808,0.023809523809523808,0.023809523809523808,0.023809523809523808,0.023809523809523808,0.023809523809523808,0.023809523809523808,0.023809523809523808,0.023809523809523808,0.023809523809523808,0.023809523809523808,0.023809523809523808,0.023809523809523808,0.023809523809523808,0.023809523809523808,0.023809523809523808,0.023809523809523808,0.023809523809523808,0.023809523809523808,0.023809523809523808,0.023809523809523808,0.023809523809523808,0.023809523809523808,0.023809523809523808,0.023809523809523808,0.023809523809523808,0.023809523809523808,0.023809523809523808,0.023809523809523808,0.023809523809523808,0.023809523809523808,0.023809523809523808,0.023809523809523808,0.023809523809523808,0.023809523809523808,0.023809523809523808,0.023809523809523808,0.023809523809523808,0.023809523809523808,0.023809523809523808,0.023809523809523808,0.023809523809523808,0.023809523809523808,0.023809523809523808,0.023809523809523808,0.023809523809523808,0.023809523809523808,0.023809523809523808,0.023809523809523808,0.023809523809523808,0.023809523809523808,0.023809523809523808,0.023809523809523808,0.023809523809523808,0.023809523809523808,0.023809523809523808,0.023809523809523808,0.023809523809523808,0.023809523809523808,0.023809523809523808,0.023809523809523808,0.023809523809523808,0.023809523809523808,0.023809523809523808,0.023809523809523808,0.023809523809523808,0.023809523809523808,0.023809523809523808,0.023809523809523808,0.023809523809523808,0.023809523809523808,0.023809523809523808,0.023809523809523808,0.023809523809523808,0.023809523809523808,0.023809523809523808,0.023809523809523808,0.023809523809523808,0.023809523809523808,0.023809523809523808,0.023809523809523808,0.023809523809523808,0.023809523809523808,0.023809523809523808,0.023809523809523808,0.023809523809523808,0.023809523809523808,0.023809523809523808,0.023809523809523808,0.023809523809523808,0.023809523809523808,0.023809523809523808,0.023809523809523808,0.023809523809523808,0.023809523809523808,0.023809523809523808,0.023809523809523808,0.023809523809523808,0.023809523809523808,0.023809523809523808,0.023809523809523808,0.023809523809523808,0.023809523809523808,0.023809523809523808]},"final_keyboard_state":["S","A","R","M","F","E","Z","B"],"num_clicks":8,"points":12,"cheat":false,"trial_type":"Hangman","trial_index":5,"time_elapsed":56881,"internal_node_id":"0.0-4.0","protocol_sum":"","subject_identifier":317,"subject_sum":[126,216,240,243,183,7,149,109,159,177,232,137,225,17,83,224,170,10,133,73,131,8,29,38,47,190,94,237,227,45,167,202],"subject_pair":158,"STUDY_ID":"66a0b3911f23dfc7665bb169","PROLIFIC_PID":"6630fcae418bde6a9e7c3b47","SESSION_ID":"66a13d9c846db3c5c469f296","practice_instructions":1,"leaderboard_instructions":0,"bonus":0,"reveal_word":true,"self_rating":"3","confidence":"82"},{"view_history":"[{\"page_index\":0,\"viewing_time\":3185.7999999821186},{\"page_index\":1,\"viewing_time\":12983.800000011921}]","rt":16170.5,"trial_type":"instructions","trial_index":6,"time_elapsed":73054,"internal_node_id":"0.0-5.0","protocol_sum":"","subject_identifier":317,"subject_sum":[126,216,240,243,183,7,149,109,159,177,232,137,225,17,83,224,170,10,133,73,131,8,29,38,47,190,94,237,227,45,167,202],"subject_pair":158,"STUDY_ID":"66a0b3911f23dfc7665bb169","PROLIFIC_PID":"6630fcae418bde6a9e7c3b47","SESSION_ID":"66a13d9c846db3c5c469f296","practice_instructions":1,"leaderboard_instructions":0,"bonus":0,"reveal_word":true,"self_rating":"3","confidence":"82"},{"rt":10584.90000000596,"responses":"{\"Q0\":\"...from <b>a previous session</b> that is not part of the upcoming tournament.\"}","question_order":"[0]","trial_type":"survey-multi-choice","trial_index":7,"time_elapsed":83640,"internal_node_id":"0.0-6.0","protocol_sum":"","subject_identifier":317,"subject_sum":[126,216,240,243,183,7,149,109,159,177,232,137,225,17,83,224,170,10,133,73,131,8,29,38,47,190,94,237,227,45,167,202],"subject_pair":158,"correct":true,"test_part":"multichoice_leaderboard","STUDY_ID":"66a0b3911f23dfc7665bb169","PROLIFIC_PID":"6630fcae418bde6a9e7c3b47","SESSION_ID":"66a13d9c846db3c5c469f296","practice_instructions":1,"leaderboard_instructions":0,"bonus":0,"reveal_word":true,"self_rating":"3","confidence":"82"},{"view_history":"[{\"page_index\":0,\"viewing_time\":10765.90000000596}]","rt":10766.199999988079,"trial_type":"instructions","trial_index":8,"time_elapsed":94407,"internal_node_id":"0.0-8.0","protocol_sum":"","subject_identifier":317,"subject_sum":[126,216,240,243,183,7,149,109,159,177,232,137,225,17,83,224,170,10,133,73,131,8,29,38,47,190,94,237,227,45,167,202],"subject_pair":158,"STUDY_ID":"66a0b3911f23dfc7665bb169","PROLIFIC_PID":"6630fcae418bde6a9e7c3b47","SESSION_ID":"66a13d9c846db3c5c469f296","practice_instructions":1,"leaderboard_instructions":0,"bonus":0,"reveal_word":true,"self_rating":"3","confidence":"82"},{"rt":7012.699999988079,"responses":"{\"Q0\":\"...players' leaderboard position (in terms of <b>points</b>) in an <b>upcoming tournament.</b>\"}","question_order":"[0]","trial_type":"survey-multi-choice","trial_index":9,"time_elapsed":101421,"internal_node_id":"0.0-9.0","protocol_sum":"","subject_identifier":317,"subject_sum":[126,216,240,243,183,7,149,109,159,177,232,137,225,17,83,224,170,10,133,73,131,8,29,38,47,190,94,237,227,45,167,202],"subject_pair":158,"correct":true,"test_part":"multichoice_tournament","STUDY_ID":"66a0b3911f23dfc7665bb169","PROLIFIC_PID":"6630fcae418bde6a9e7c3b47","SESSION_ID":"66a13d9c846db3c5c469f296","practice_instructions":1,"leaderboard_instructions":0,"bonus":0,"reveal_word":true,"self_rating":"3","confidence":"82"},{"view_history":"[{\"page_index\":0,\"viewing_time\":6739.4000000059605}]","rt":6739.5999999940395,"trial_type":"instructions","trial_index":10,"time_elapsed":108161,"internal_node_id":"0.0-11.0","protocol_sum":"","subject_identifier":317,"subject_sum":[126,216,240,243,183,7,149,109,159,177,232,137,225,17,83,224,170,10,133,73,131,8,29,38,47,190,94,237,227,45,167,202],"subject_pair":158,"STUDY_ID":"66a0b3911f23dfc7665bb169","PROLIFIC_PID":"6630fcae418bde6a9e7c3b47","SESSION_ID":"66a13d9c846db3c5c469f296","practice_instructions":1,"leaderboard_instructions":0,"bonus":0,"reveal_word":true,"self_rating":"3","confidence":"82"},{"view_history":"[{\"page_index\":0,\"viewing_time\":13546.09999999404}]","rt":13546.399999976158,"trial_type":"instructions","trial_index":11,"time_elapsed":121708,"internal_node_id":"0.0-12.0-0.0","protocol_sum":"","subject_identifier":317,"subject_sum":[126,216,240,243,183,7,149,109,159,177,232,137,225,17,83,224,170,10,133,73,131,8,29,38,47,190,94,237,227,45,167,202],"subject_pair":158,"STUDY_ID":"66a0b3911f23dfc7665bb169","PROLIFIC_PID":"6630fcae418bde6a9e7c3b47","SESSION_ID":"66a13d9c846db3c5c469f296","practice_instructions":1,"leaderboard_instructions":0,"bonus":0,"reveal_word":true,"self_rating":"3","confidence":"82"},{"rt":9543.90000000596,"response":"THIRTY FOUR","responses":["THIRTY FOUR"],"trial_type":"type-this","trial_index":12,"time_elapsed":131756,"internal_node_id":"0.0-12.0-1.0","protocol_sum":"","subject_identifier":317,"subject_sum":[126,216,240,243,183,7,149,109,159,177,232,137,225,17,83,224,170,10,133,73,131,8,29,38,47,190,94,237,227,45,167,202],"subject_pair":158,"STUDY_ID":"66a0b3911f23dfc7665bb169","PROLIFIC_PID":"6630fcae418bde6a9e7c3b47","SESSION_ID":"66a13d9c846db3c5c469f296","practice_instructions":1,"leaderboard_instructions":0,"bonus":0,"reveal_word":true,"self_rating":"3","confidence":"82"},{"word":"THIRTY FOUR","click_log":{"letter":["","E","I","O","M","N","T","H","R","Y","F","U"],"t":[0,3427.5999999940395,5594.9000000059605,8212.699999988079,11214.09999999404,12631.40000000596,14399,19101.5,21151.90000000596,23953.09999999404,25487.69999998808,27137.90000000596],"hit":[null,0,1,1,0,0,2,1,2,1,1,1],"asked":["","E","EI","EIO","EIOM","EIOMN","EIOMNT","EIOMNTH","EIOMNTHR","EIOMNTHRY","EIOMNTHRYF","EIOMNTHRYFU"],"word_state":["______ ____","______ ____","__I___ ____","__I___ _O__","__I___ _O__","__I___ _O__","T_I_T_ _O__","THI_T_ _O__","THIRT_ _O_R","THIRTY _O_R","THIRTY FO_R","THIRTY FOUR"]},"hover_log":{"letter":["?","?","?","?","?","?","?","?","?","?","?","?","?","?","?","?","?","?","?","?","?","?","?","?","?","?","?","?","?","?","?","?","?","?","?","?","?","?","?","?","?","?","?","?","?","?","?","?","?","?","?","?","?","?","?","?","?","?","?","?","?","?","?","?","?","?","?","?","?","?","?","?","?","?","?","?","?","?","?","?","?","?","?","?","?","?","?","?","?","?","?","?","?","?","?","?","?","?","?","?","?","?","?","?","?","?","?","?","?","?","?","?","?","?","?","?","?","?","?","?","?","?","?","?","?","?","?","?","?","?","?","?","?","?","?","?","?","?","?","?","?","?","?","?","?","?","?","?","?","?","?","?","?","?","?","?","?","?","?","?","?","?","?","?","?","?","?","?","?","?","?","?","?","?","?","?","?","?","?","?","?","?","?","?","?","?","?","?","?","?","?","?","?","?","?","?","?","?","?","?","?","?","?","?","?","?","?","?","?","?","?","?","?","?","?","?","?","?","?","?","?","?","?","?","?","?","?","?","?","?","?","?","?","?","?","?","?","?","?","?","?","?","?","?","?","?","?","?","?","?","?","?","?","?","?","?","?","?","?","?","?","?","?","?","?","?","?","?","?","?","?","?","?","?","?","?","?","?","?","?","?","?","?","?","?","?","?","?","?","?","?","?","?","?","?","?","?","?","?","?","?","?","?","?","?","?","?","?","?","?","?","?","?","?","?","?","?","?","?","?","?","?","?","?","?","?","?","?","?","?","?","?","?","?","?","?","?","?","?","?","?","?","?","?","?","?","?","?","?","?","?","?","?","?","?","?","?","?","?","?","?","?","?","?","?","?","?","?","?","?","?","?","?","?","?","?","?","?","?","?","?","?","?","?","?","?","?","?","?","?","?","?","?","?","?","?","?","?","?","?","?","?","?","?","?","?","?","?","?","?","?","?","?","?","?","?","?","?","?","?","?","?","?","?","?","?","?","?","?","?","?","?","?","?","?","?","?","?","?","?","?","?","?","?","?","?","?","?","?","?","?","?","?","?","?","?","?","?","?","?","?","?","?","?","?","?","?","?","?","?","?","?","?","?","?","?","?","?","?","?","?","?","?","?","?","?","?","?","?","?","?","?","?","?","?","?","?","?","?","?","?","?","?","?","?","?","?","?","?","?","?","?","?","?","?","?","?","?","?","?","?","?","?","?","?","?","?","?","?","?","?","?","?","?","?","?","?","?","?","?","?","?","?","?","?","?","?","?","?","?","?","?","?","?","?","?","?","?","?","?","?","?","?","?","?","?","?","?","?","?","?","?","?","?","?","?","?","?","?","?","?","?","?","?","?","?","?","?","?","?","?","?","?","?","?","?","?","?","?","?","?","?","?","?","?","?","?","?","?","?","?","?","?","?","?","?","?","?","?","?","?","?","?","?","?","?","?","?","?","?","?","?","?","?","?","?","?","?","?","?","?","?","?","?","?","?","?","?","?","?","?","?","?","?","?","?","?","?","?","?","?","?","?","?","?","?","?","?","?","?","?","?","?","?","?","?","?","?","?","?","?","?","?","?","?","?","?","?","?","?","?","?","?","?","?","?","?","?","?","?","?","?","?","?","?","?","?","?","?","?","?","?","?","?","?","?","?","?","?","?","?","?","?","?","?","?","?","?","?","?","?","?","?","?","?","?","?","?","?","?","?","?","?","?","?","?","?","?","?","?","?","?","?","?","?","?","?","?","?","?","?","?","?","?","?","?","?","?","?","?","?","?","?","?","?","?","?","?","?","?","?","?","?","?","?","?","?","?","?","?","?","?","?","?","?","?","?","?","?","?","?","?","?","?","?","?","?","?","?","?","?","?","?","?","?","?","?","?","?","?","?","?","?","?","?","?","?","?","?","?","?","?","?","?","?","?","?","?","?","?","?","?","?","?","?","?","?","?","?","?","?","?","?","?","?","?","?","?","?","?","?","?","?","?","?","?","?","?","?","?","?","?","?","?","?","?","?","?","?","?","?","?","?","?","?","?","?","?","?","?","?","?","?","?","?","?","?","?","?","?","?","?","?","?","?","?","?","?","?","?","?","?","?","?","?","?","?","?","?","?","?","?","?","?","?","?","?","?","?","?","?","?","?","?","?","?","?","?","?","?","?","?","?","?","?","?","?","?","?","?","?","?","?","?","?","?","?","?","?","?","?","?","?","?","?","?","?","?","?","?","?","?","?","?","?","?","?","?","?","?","?","?","?","?","?","?","?","?","?","?","?","?","?","?","?","?","?","?","?","?","?","?","?","?","?","?","?","?","?","?","?","?","?","?","?","?","?","?","?","?","?","?","?","?","?","?","?","?","?","?","?","?","?","?","?","?","?","?","?","?","?","?","?","?","?","?","?","?","?","?","?","?","?","?","?","?","?","?","?","?","?","?","?","?","?","?","?","?","?","?","?","?","?","?","?","?","?","?","?","?","?","?","?","?","?","?","?","?","?","?","?","?","?","?","?","?","?","?","?","?","?","?","?","?","?","?","?","?","?","?","?","?","?","?","?","?","?","?","?","?","?","?","?","?","?","?","?","?","?","?","?","?","?","?","?","?","?","?","?","?","?","?","?","?","?","?","?","?","?","?","?","?","?","?","?","?","?","?","?","?","?","?","?","?","?","?","?","?","?","?","?","?","?","?","?","?","?","?","?","?","?","?","?","?","?","?","?","?","?","?","?","?","?","?","?","?","?","?","?","?","?","?","?","?","?","?","?","?","?","?","?","?","?","?","?","?","?","?","?","?","?","?","?","?","?","?","?","?","?","?","?","?","?","?","?","?","?","?","?","?","?","?","?","?","?","?","?","?","?","?","?","?","?","?","?","?","?","?","?","?","?","?","?","?","?","?","?","?","?","?","?","?","?","?","?","?","?","?","?","?","?","?","?","?","?","?","?","?","?","?","?","?","?","?","?","?","?","?","?","?","?","?","?","?","?","?","?","?","?","?","?","?","?","?","?","?","?","?","?","?","?","?","?","?","?","?","?","?","?","?","?","?","?","?","?","?","?","?","?","?","?","?","?","?","?","?","?","?","?","?","?","?","?","?","?","?","?","?","?","?","?","?","?","?","?","?","?","?","?","?","?","?","?","?","?","?","?","?","?","?","?","?","?","?","?","?","?","?","?","?","?","?","?","?","?","?","?","?","?","?","?","?","?","?","?","?","?","?","?","?","?","?","?","?","?","?","?","?","?","?","?","?","?","?","?","?","?","?","?","?","?","?","?","?","?","?","?","?","?","?","?","?","?","?","?","?","?","?","?","?","?","?","?","?","?","?","?","?","?","?","?","?","?","?","?","?","?","?","?","?","?","?","?","?","?","?","?","?","?","?","?","?","?","?","?","?","?","?","?","?","?","?","?","?","?","?","?","?","?","?","?","?","?","?","?","?","?","?","?","?","?","?","?","?","?","?","?","?","?","?","?","?","?","?","?","?","?","?","?","?","?","?","?","?","?","?","?","?","?","?","?","?","?","?","?","?","?","?","?","?","?","?","?","?","?","?","?","?","?","?","?","?","?","?","?","?","?","?","?","?","?","?","?","?","?","?","?","?","?","?","?","?","?","?","?","?","?","?","?","?","?","?","?","?","?","?","?","?","?","?","?","?","?","?","?","?","?","?","?","?","?","?","?","?","?","?","?","?","?","?","?","?","?","?","?","?","?","?","?","?","?","?","?","?","?","?","?","?","?","?","?","?","?","?","?","?","?","?","?","?","?","?","?","?","?","?","?","?","?","?","?","?","?","?","?","?","?","?","?","?","?","?","?","?","?","?","?","?","?","?","?","?","?","?","?","?","?","?","?","?","?","?","?","?","?","?","?","?","?","?","?","?","?","?","?","?","?","?","?","?","?","?","?","?","?","?","?","?","?","?","?","?","?","?","?","?","?","?","?","?","?","?","?","?","?","?","?","?","?","?","?","?","?","?","?","?","?","?","?","?","?","?","?","?","?","?","?","?","?","?","?","?","?","?","?","?","?","?","?","?","?","?","?","?","?","?","?","?","?","?","?","?","?","?","?","?","?","?","?","?","?","?","?","?","?","?","?","?","?","?","?","?","?","?","?","?","?","?","?","?","?","?","?","?","?","?","?","?","?","?","?","?","?","?","?","?","?","?","?","?","?","?","?","?","?","?","?","?","?","?","?","?","?","?","?","?","?","?","?","?","?","?","?","?","?","?","?","?","?","?","?","?","?","?","?","?","?","?","?","?","?","?","?","?","?","?","?","?","?","?","?","?","?","?","?","?","?","?","?","?","?","?","?","?","?","?","?","?","?","?","?","?","?","?","?","?","?","?","?","?","?","?","?","?","?","?","?","?","?","?","?","?","?","?","?","?","?","?","?","?","?","?","?","?","?","?","?","?","?","?","?","?","?","?","?","?","?","?","?","?","?","?","?","?","?","?","?","?","?","?","?","?","?","?","?","?","?","?","?","?","?","?","?","?","?","?","?","?","?","?","?","?","?","?","?","?","?","?","?","?","?","?","?","?","?","?","?","?","?","?","?","?","?","?","?","?","?","?","?","?","?","?","?","?","?","?","?","?","?","?","?","?","?","?","?","?","?","?","?","?","?","?","?","?","?","?","?","?","?","?","?","?","?","?","?","?","?","?","?","?","?","?","?","?","?","?","?","?","?","?","?","?","?","?","?","?","?","?","?","?","?","?","?","?","?","?","?","?","?","?","?","?","?","?","?","?","?","?","?","?","?","?","?","?","?","?","?","?","?","?","?","?","?","?","?","?","?","?","?","?","?","?","?","?","?","?","?","?","?","?","?","?","?","?","?","?","?","?","?","?","?","?","?","?","?","?","?","?","?","?","?","?","?","?","?","?","?","?","?","?","?","?","?","?","?","?","?","?","?","?","?","?","?","?","?","?","?","?","?","?","?","?","?","?","?","?","?","?","?","?","?","?","?","?","?","?","?","?","?","?","?","?","?","?","?","?","?","?","?","?","?","?","?","?","?","?","?","?","?","?","?","?","?","?","?","?","?","?","?","?","?","?","?","?","?","?","?","?","?","?","?","?","?","?","?","?","?","?","?","?","?","?","?","?","?","?","?","?","?","?","?","?","?","?","?","?","?","?","?","?","?","?","?","?","?","?","?","?","?","?","?","?","?","?","?","?","?","?","?","?","?","?","?","?","?","?","?","?","?","?","?","?","?","?","?","?","?","?","?","?","?","?","?","?","?","?","?","?","?","?","?","?","?","?","?","?","?","?","?","?","?","?","?","?","?","?","?","?","?","?","?","?","?","?","?","?","?","?","?","?","?","?","?","?","?","?","?","?","?","?","?","?","?","?","?","?","?","?","?","?","?","?","?","?","?","?","?","?","?","?","?","?","?","?","?","?","?","?","?","?","?","?","?","?","?","?","?","?","?","?","?","?","?","?","?","?","?","?","?","?","?","?","?","?","?","?","?","?","?","?","?","?","?","?","?","?","?","?","?","?","?","?","?","?","?","?","?","?","?","?","?","?","?","?","?","?","?","?","?","?","?","?","?","?","?","?","?","?","?","?","?","?","?","?","?","?","?","?","?","?","?","?","?","?","?","?","?","?","?","?","?","?","?","?","?","?","?","?","?","?","?","?","?","?","?","?","?","?","?","?","?","?","?","?","?","?","?","?","?","?","?","?","?","?","?","?","?","?","?","?","?","?","?","?","?","?","?","?","?","?","?","?","?","?","?","?","?","?","?","?","?","?","?","?","?","?","?","?","?","?","?","?","?","?","?","?","?","?","?","?","?","?","?","?","?","?","?","?","?","?","?","?","?","?","?","?","?","?","?","?","?","?","?","?","?","?","?","?","?","?","?","?","?","?","?","?","?","?","?","?","?","?","?","?","?","?","?","?","?","?","?","?","?","?","?","?","?","?","?","?","?","?","?","?","?","?","?","?","?","?","?","?","?","?","?","?","?","?","?","?","?","?","?","?","?","?","?","?","?","?","?","?","?","?","?","?","?","?","?","?","?","?","?","?","?","?","?","?","?","?","?","?","?","?","?","?","?","?","?","?","?","?","?","?","?","?","?","?","?","?","?","?","?","?","?","?","?","?","?","?","?","?","?","?","?","?","?","?","?","?","?","?","?","?","?","?","?","?","?","?","?","?","?","?","?","?","?","?","?","?","?","?","?","?","?","?","?","?","?","?","?","?","?","?","?","?","?","?","?","?","?","?","?","?","?","?","?","?","?","?","?","?","?","?","?","?","?","?","?","?","?","?","?","?","?","?","?","?","?","?","?","?","?","?","?","?","?","?","?","?","?","?","?","?","?","?","?","?","?","?","?","?","?","?","?","?","?","?","?","?","?","?","?","?","?","?","?","?","?","?","?","?","?","?","?","?","?","?","?","?","?","?","?","?","?","?","?","?","?","?","?","?","?","?","?","?","?","?","?","?","?","?","?","?","?","?","?","?","?","?","?","?","?","?","?","?","?","?","?","?","?","?","?","?","?","?","?","?","?","?","?","?","?","?","?","?","?","?","?","?","?","?","?","?","?","?","?","?","?","?","?","?","?","?","?","?","?","?","?","?","?","?","?","?","?","?","?","?","?","?","?","?","?","?","?","?","?","?","?","?","?","?","?","?","?","?","?","?","?","?","?","?","?","?","?","?","?","?","?","?","?","?","?","?","?","?","?","?","?","?","?","?","?","?","?","?","?","?","?","?","?","?","?","?","?","?","?","?","?","?","?","?","?","?","?","?","?","?","?","?","?","?","?","?","?","?","?","?","?","?","?","?","?","?","?","?","?","?","?","?","?","?","?","?","?","?","?","?","?","?","?","?","?","?","?","?","?","?","?","?","?","?","?","?","?","?","?","?","?","?","?","?","?","?","?","?","?","?","?","?","?","?","?","?","?","?","?","?","?","?","?","?","?","?","?","?","?","?","?","?","?","?","?","?","?","?","?","?","?","?","?","?","?","?","?","?","?","?","?","?","?","?","?","?","?","?","?","?","?","?","?","?","?","?","?","?","?","?","?","?","?","?","?","?","?","?","?","?","?","?","?","?","?","?","?","?","?","?","?","?","?","?","?","?","?","?","?","?","?","?","?","?","?","?","?","?","?","?","?","?","?","?","?","?","?","?","?","?","?","?","?","?","?","?","?","?","?","?","?","?","?","?","?","?","?","?","?","?","?","?","?","?","?","?","?","?","?","?","?","?","?","?","?","?","?","?","?","?","?","?","?","?","?","?","?","?","?","?","?","?","?","?","?","?","?","?","?","?","?","?","?","?","?","?","?","?","?","?","?","?","?","?","?","?","?","?","?","?","?","?","?","?","?","?","?","?","?","?","?","?","?","?","?","?","?","?","?","?","?","?","?","?","?","?","?","?","?","?","?","?","?","?","?","?","?","?","?","?","?","?","?","?","?","?","?","?","?","?","?","?","?","?","?","?","?","?","?","?","?","?","?","?","?","?","?","?","?","?","?","?","?","?","?","?","?","?","?","?","?","?","?","?","?","?","?","?","?","?","?","?","?","?","?","?","?","?","?","?","?","?","?","?","?","?","?","?","?","?","?","?","?","?","?","?","?","?","?","?","?","?","?","?","?","?","?","?","?","?","?","?","?","?","?","?","?","?","?","?","?","?","?","?","?","?","?","?","?","?","?","?","?","?","?","?","?","?","?","?","?","?","?","?","?","?","?","?","?","?","?","?","?","?","?","?","?","?","?","?","?","?","?","?","?","?","?","?","?","?","?","?","?","?","?","?","?","?","?","?","?","?","?","?","?","?","?","?","?","?","?","?","?","?","?","?","?","?","?","?","?","?","?","?","?","?","?","?","?","?","?","?","?","?","?","?","?","?","?","?","?","?","?","?","?","?","?","?","?","?","?","?","?","?","?","?","?","?","?","?","?","?","?","?","?","?","?","?","?","?","?","?","?","?","?","?","?","?","?","?","?","?","?","?","?","?","?","?","?","?","?","?","?","?","?","?","?","?","?","?","?","?","?","?","?","?","?","?","?","?","?","?","?","?","?","?","?","?","?","?","?","?","?","?","?","?","?","?","?","?","?","?","?","?","?","?","?","?","?","?","?","?","?","?","?","?","?","?","?","?","?","?","?","?","?","?","?","?","?","?","?","?","?","?","?","?","?","?","?","?","?","?","?","?","?","?","?","?","?","?","?","?","?","?","?","?","?","?","?","?","?","?","?","?","?","?","?","?","?","?","?","?","?","?","?","?","?","?","?","?","?","?","?","?","?","?","?","?","?","?","?","?","?","?","?","?","?","?","?","?","?","?","?","?","?","?","?","?","?","?","?","?","?","?","?","?","?","?","?","?","?","?","?","?","?","?","?","?","?","?","?","?","?","?","?","?","?","?","?","?","?","?","?","?","?","?","?","?","?","?","?","?","?","?","?","?","?","?","?","?","?","?","?","?","?","?","?","?","?","?","?","?","?","?","?","?","?","?","?","?","?","?","?","?","?","?","?","?","?","?","?","?","?","?","?","?","?","?","?","?","?","?","?","?","?","?","?","?","?","?","?","?","?","?","?","?","?","?","?","?","?","?","?","?","?","?","?","?","?","?","?","?","?","?","?","?","?","?","?","?","?","?","?","?","?","?","?","?","?","?","?","?","?","?","?","?","?","?","?","?","?","?","?","?","?","?","?","?","?","?","?","?","?","?","?","?","?","?","?","?","?","?","?","?","?","?","?","?","?","?","?","?","?","?","?","?","?","?","?","?","?","?","?","?","?","?","?","?","?","?","?","?","?","?","?","?","?","?","?","?","?","?","?","?","?","?","?","?","?","?","?","?","?","?","?","?","?","?","?","?","?","?","?","?","?","?","?","?","?","?","?","?","?","?","?","?","?","?","?","?","?","?","?","?","?","?","?","?","?","?","?","?","?","?","?","?","?","?","?","?","?","?","?","?","?","?","?","?","?","?","?","?","?","?","?","?","?","?","?","?","?","?","?","?","?","?","?","?","?","?","?","?","?","?","?","?","?","?","?","?","?","?","?","?","?","?","?","?","?","?","?","?","?","?","?","?","?","?","?","?","?","?","?","?","?","?","?","?","?","?","?","?","?","?","?","?","?","?","?","?","?","?","?","?","?","?","?","?","?","?","?","?","?","?","?","?","?","?","?","?","?","?","?","?","?","?","?","?","?","?","?","?","?","?","?","?","?","?","?","?","?","?","?","?","?","?","?","?","?","?","?","?","?","?","?","?","?","?","?","?","?","?","?","?","?","?","?","?","?","?","?","?","?","?","?","?","?","?","?","?","?","?","?","?","?","?","?","?","?","?","?","?","?","?","?","?","?","?","?","?","?","?","?","?","?","?","?","?","?","?","?","?","?","?","?","?","?","?","?","?","?","?","?","?","?","?","?","?","?","?","?","?","?","?","?","?","?","?","?","?","?","?","?","?","?","?","?","?","?","?","?","?","?","?","?","?","?","?","?","?","?","?","?","?","?","?","?","?","?","?","?","?","?","?","?","?","?","?","?","?","?","?","?","?","?","?","?","?","?","?","?","?","?","?","?","?","?","?","?","?","?","?","?","?","?","?","?","?","?","?","?","?","?","?","?","?","?","?","?","?","?","?","?","?","?","?","?","?","?","?","?","?","?","?","?","?","?","?","?","?","?","?","?","?","?","?","?","?","?","?","?","?","?","?","?","?","?","?","?","?","?","?","?","?","?","?","?","?","?","?","?","?","?","?","?","?","?","?","?","?","?","?","?","?","?","?","?","?","?","?","?","?","?","?","?","?","?","?","?","?","?","?","?","?","?","?","?","?","?","?","?","?","?","?","?","?","?","?","?","?","?","?","?","?","?","?","?","?","?","?","?","?","?","?","?","?","?","?","?","?","?","?","?","?","?","?","?","?","?","?","?","?","?","?","?","?","?","?","?","?","?","?","?","?","?","?","?","?","?","?","?","?","?","?","?","?","?","?","?","?","?","?","?","?","?","?","?","?","?","?","?","?","?","?","?","?","?","?","?","?","?","?","?","?","?","?","?","?","?","?","?","?","?","?","?","?","?","?","?","?","?","?","?","?","?","?","?","?","?","?","?","?","?","?","?","?","?","?","?","?","?","?","?","?","?","?","?","?","?","?","?","?","?","?","?","?","?","?","?","?","?","?","?","?","?","?","?","?","?","?","?","?","?","?","?","?","?","?","?","?","?","?","?","?","?","?","?","?","?","?","?","?","?","?","?","?","?","?","?","?","?","?","?","?","?","?","?","?","?","?","?","?","?","?","?","?","?","?","?","?","?","?","?","?","?","?","?","?","?","?","?","?","?","?","?","?","?","?","?","?","?","?","?","?","?","?","?","?","?","?","?","?","?","?","?","?","?","?","?","?","?","?","?","?","?","?","?","?","?","?","?","?","?","?","?","?","?","?","?","?","?","?","?","?","?","?","?","?","?","?","?","?","?","?","?","?","?","?","?","?","?","?","?","?","?","?","?","?","?","?","?","?","?","?","?","?","?","?","?","?","?","?","?","?","?","?","?","?","?","?","?","?","?","?","?","?","?","?","?","?","?","?","?","?","?","?","?","?","?","?","?","?","?","?","?","?","?","?","?","?","?","?","?"