[{"success":true,"trial_type":"fullscreen","trial_index":0,"time_elapsed":3497,"internal_node_id":"0.0-0.0","protocol_sum":"","subject_identifier":504,"subject_sum":[214,229,162,11,48,248,114,22,178,199,88,245,231,162,60,67,125,188,61,250,28,203,23,124,71,77,225,82,187,14,247,49],"subject_pair":252,"STUDY_ID":"66a3ed3c5d10d0e7d8a6b9da","PROLIFIC_PID":"6690315bfff7b15d27055428","SESSION_ID":"66a4140f59ac61947b9edd65","practice_instructions":1,"leaderboard_instructions":0,"bonus":0,"reveal_word":false,"self_rating":"2","confidence":"100"},{"view_history":"[{\"page_index\":0,\"viewing_time\":3118.9000000059605}]","rt":3119.1000000089407,"trial_type":"instructions","trial_index":1,"time_elapsed":6616,"internal_node_id":"0.0-1.0","protocol_sum":"","subject_identifier":504,"subject_sum":[214,229,162,11,48,248,114,22,178,199,88,245,231,162,60,67,125,188,61,250,28,203,23,124,71,77,225,82,187,14,247,49],"subject_pair":252,"STUDY_ID":"66a3ed3c5d10d0e7d8a6b9da","PROLIFIC_PID":"6690315bfff7b15d27055428","SESSION_ID":"66a4140f59ac61947b9edd65","practice_instructions":1,"leaderboard_instructions":0,"bonus":0,"reveal_word":false,"self_rating":"2","confidence":"100"},{"view_history":"[{\"page_index\":0,\"viewing_time\":19527.70000000298}]","rt":19527.79999999702,"trial_type":"instructions","trial_index":2,"time_elapsed":26144,"internal_node_id":"0.0-2.0-0.0","protocol_sum":"","subject_identifier":504,"subject_sum":[214,229,162,11,48,248,114,22,178,199,88,245,231,162,60,67,125,188,61,250,28,203,23,124,71,77,225,82,187,14,247,49],"subject_pair":252,"STUDY_ID":"66a3ed3c5d10d0e7d8a6b9da","PROLIFIC_PID":"6690315bfff7b15d27055428","SESSION_ID":"66a4140f59ac61947b9edd65","practice_instructions":1,"leaderboard_instructions":0,"bonus":0,"reveal_word":false,"self_rating":"2","confidence":"100"},{"rt":7902.29999999702,"responses":"{\"Q0\":\"... reveal the word with as <b>few letter guesses</b> as possible\"}","question_order":"[0]","trial_type":"survey-multi-choice","trial_index":3,"time_elapsed":34047,"internal_node_id":"0.0-2.0-1.0","protocol_sum":"","subject_identifier":504,"subject_sum":[214,229,162,11,48,248,114,22,178,199,88,245,231,162,60,67,125,188,61,250,28,203,23,124,71,77,225,82,187,14,247,49],"subject_pair":252,"correct":true,"test_part":"multichoice_nonpretend","STUDY_ID":"66a3ed3c5d10d0e7d8a6b9da","PROLIFIC_PID":"6690315bfff7b15d27055428","SESSION_ID":"66a4140f59ac61947b9edd65","practice_instructions":1,"leaderboard_instructions":0,"bonus":0,"reveal_word":false,"self_rating":"2","confidence":"100"},{"view_history":"[{\"page_index\":0,\"viewing_time\":1305.2000000029802}]","rt":1305.2999999970198,"trial_type":"instructions","trial_index":4,"time_elapsed":35353,"internal_node_id":"0.0-3.0","protocol_sum":"","subject_identifier":504,"subject_sum":[214,229,162,11,48,248,114,22,178,199,88,245,231,162,60,67,125,188,61,250,28,203,23,124,71,77,225,82,187,14,247,49],"subject_pair":252,"STUDY_ID":"66a3ed3c5d10d0e7d8a6b9da","PROLIFIC_PID":"6690315bfff7b15d27055428","SESSION_ID":"66a4140f59ac61947b9edd65","practice_instructions":1,"leaderboard_instructions":0,"bonus":0,"reveal_word":false,"self_rating":"2","confidence":"100"},{"word":"ZEBRA","click_log":{"letter":["","B","C","S","D","E","R","Z","A"],"t":[0,3432.0999999940395,6826.899999991059,10196.09999999404,12507,14144,16228,18678.89999999106,19982],"hit":[null,1,0,0,0,1,1,1,1],"asked":["","B","BC","BCS","BCSD","BCSDE","BCSDER","BCSDERZ","BCSDERZA"],"word_state":["_____","__B__","__B__","__B__","__B__","_EB__","_EBR_","ZEBR_","ZEBRA"]},"hover_log":{"letter":["?","?","?","?","?","?","?","?","?","?","?","?","?","?","?","?","?","?","?","?","?","?","?","?","?","?","?","?","?","?","?","?","?","?","?","?","?","?","?","?","?","?","?","?","?","?","?","?","?","J","K","?","?","?","D","D","D","D","D","D","D","D","D","D","D","D","D","D","D","?","?","C","C","C","C","C","C","C","C","C","C","C","C","C","C","C","C","C","C","C","C","C","C","C","C","C","C","C","C","C","C","C","C","C","C","C","C","C","C","C","C","C","C","C","C","C","C","C","C","C","C","C","C","C","C","?","?","B","B","B","B","B","B","B","B","B","?","?","?","?","?","?","?","?","?","A","A","A","A","A","A","A","A","A","A","A","A","A","A","A","A","A","A","A","A","A","A","A","A","A","A","A","A","A","A","A","A","A","A","?","?","B","B","B","B","B","B","B","B","B","B","B","B","B","B","B","B","B","B","B","B","B","B","B","B","B","B","B","B","B","B","B","B","B","B","B","B","B","B","B","B","B","B","B","B","B","B","B","B","B","B","B","B","B","B","B","B","B","B","B","B","B","B","B","B","B","B","B","B","B","B","B","B","B","B","B","B","B","B","B","B","B","B","B","B","B","B","B","B","B","B","B","B","B","B","B","B","B","B","B","B","B","B","B","B","B","B","B","B","B","B","B","B","B","B","B","B","B","B","B","B","B","B","B","B","B","B","B","B","B","B","B","B","B","B","B","B","B","B","B","B","B","?","?","?","?","C","C","C","C","C","C","C","C","C","C","C","C","C","C","C","?","?","?","?","?","?","?","?","?","?","?","?","?","C","C","C","C","C","C","C","C","C","C","C","C","C","C","C","C","C","C","C","C","C","C","C","C","C","C","C","C","C","C","C","C","C","C","C","C","C","C","C","C","C","C","C","C","C","C","C","C","C","C","C","C","C","C","C","C","C","C","C","C","C","C","C","C","C","C","C","C","C","C","C","C","C","C","C","C","C","C","C","C","C","C","C","C","C","C","C","C","C","C","C","C","C","C","C","C","C","C","C","C","C","C","C","C","C","C","C","C","C","C","C","C","C","C","C","C","C","C","C","C","C","C","C","C","?","D","D","D","D","D","D","D","D","D","D","D","D","D","D","D","D","D","D","D","D","D","D","D","D","D","D","D","D","D","D","D","D","D","D","D","D","D","D","D","D","D","D","D","D","D","D","D","D","D","D","D","D","D","D","D","D","D","D","D","D","D","D","D","D","D","D","D","D","D","D","D","D","D","?","?","?","?","?","?","?","L","L","?","?","?","?","?","?","?","?","?","?","?","?","?","T","T","T","T","T","T","T","?","?","S","S","S","S","S","S","S","S","S","S","S","S","S","S","S","S","S","S","S","S","S","S","S","S","S","S","S","S","S","S","S","S","S","S","S","S","S","S","S","S","S","S","S","S","S","S","S","S","S","S","S","S","S","S","S","S","S","S","S","S","S","S","S","S","S","S","S","S","S","S","S","S","S","S","S","S","S","?","?","J","J","J","J","J","J","J","J","J","J","J","J","J","J","J","J","J","J","J","J","J","J","J","J","J","J","J","J","J","J","J","K","?","?","?","?","?","?","?","?","?","?","?","?","?","?","?","?","?","?","D","D","D","D","D","D","?","?","?","?","?","?","?","?","?","?","?","?","?","?","?","?","?","?","D","D","D","D","D","D","D","D","D","D","D","D","D","D","D","D","D","D","D","D","D","D","D","D","D","D","D","D","D","D","D","D","D","D","D","D","D","D","D","D","D","D","D","D","D","D","D","D","D","D","D","D","D","D","D","D","?","E","E","E","F","F","G","G","G","G","G","G","G","G","G","?","F","F","?","E","E","E","E","E","E","E","E","E","E","E","E","E","E","E","E","E","E","E","E","E","E","E","E","E","E","E","E","E","E","E","E","E","E","E","E","E","E","E","E","E","E","E","E","E","?","F","G","H","I","?","?","?","?","?","?","?","?","?","?","?","?","?","?","?","?","?","?","?","?","?","?","?","?","?","?","?","?","?","?","?","?","?","?","?","?","?","?","?","?","?","?","?","?","?","?","?","?","?","?","?","?","?","?","?","?","?","?","?","?","?","?","?","?","?","?","?","?","?","?","?","?","?","?","?","?","?","?","?","H","H","H","?","?","?","?","?","?","?","?","?","R","R","R","R","R","R","R","R","R","R","R","R","R","R","R","R","R","R","R","R","R","R","R","R","R","R","R","R","R","R","R","R","R","R","R","R","R","R","R","R","R","R","R","R","R","R","R","R","R","R","R","R","R","R","R","R","R","R","R","R","R","R","R","R","R","R","R","R","R","R","R","R","R","R","R","R","R","R","R","R","R","R","R","R","R","R","R","R","R","R","R","R","R","?","?","?","?","?","?","?","?","?","?","?","R","R","?","Q","?","P","O","N","M","?","?","?","?","?","?","?","?","?","?","?","?","?","?","?","T","T","T","T","?","U","?","V","?","?","?","?","W","W","W","?","X","Y","?","?","?","?","?","?","?","?","Z","Z","Z","Z","Z","Z","Z","Z","Z","Z","Z","Z","Z","Z","Z","Z","Z","Z","Z","Z","Z","Z","Z","Z","Z","Z","Z","Z","Z","Z","Z","Z","Z","Z","Z","Z","Z","Z","Z","Z","Z","Z","Z","Z","Z","Z","Z","Z","Z","Z","Z","Z","Z","Z","?","Y","Y","?","X","W","?","?","?","?","?","L","?","?","K","K","K","K","K","?","?","?","?","?","?","A","A","A","A","A","A","A","A","A","A","A","A","A","A","A","A","A","A","A","A","A","A","A","A","A","A","A","A","A","?","B","D","G","?","?","?","?","?","?","?","?","?","?","?","?","?","?","?","?","?","?","?","?","?","?","?","?","?","?","?","?","?","?","?","?","?","?","?","?","?","?","?","?","?","?","?","?","?","?","?","?","?","?","?","?","?","?","?","?","?","?","?","?","?","?","?","?","?","?","?","?","?","?","?","?","?","?","?","?","?","?","?","?","?","?","?","?","?","?","?","?","?","?","?","?","?","?","?","?","?","?","?","?","?","?","?","?","?","?","?","?","?","?"],"t":[22,26,38,51,63,76,88,101,113,126,138,151,167,184,201,217,234,251,268,284,301,317,334,351,367,384,401,417,434,451,467,484,501,517,534,551,567,584,601,617,634,650,667,684,701,717,734,751,767,785,801,817,834,851,867,884,901,917,934,951,967,984,1001,1017,1034,1051,1067,1084,1101,1117,1134,1151,1167,1184,1201,1217,1234,1251,1267,1284,1301,1317,1334,1351,1367,1384,1401,1417,1434,1451,1467,1484,1501,1517,1534,1551,1567,1584,1601,1617,1634,1651,1667,1684,1701,1717,1734,1751,1767,1784,1801,1817,1834,1851,1867,1884,1901,1917,1934,1951,1967,1984,2001,2017,2034,2051,2067,2084,2101,2117,2134,2151,2167,2184,2201,2217,2234,2251,2267,2284,2301,2317,2334,2351,2367,2384,2401,2417,2434,2451,2467,2484,2501,2517,2534,2551,2567,2584,2601,2617,2634,2651,2667,2684,2701,2718,2734,2751,2767,2784,2801,2817,2834,2851,2867,2884,2901,2917,2934,2951,2967,2984,3001,3017,3034,3051,3067,3084,3101,3117,3134,3151,3167,3184,3201,3217,3234,3251,3267,3284,3301,3317,3334,3351,3367,3384,3401,3417,3434,3451,3467,3484,3501,3517,3534,3551,3567,3584,3601,3617,3634,3651,3667,3684,3701,3717,3734,3751,3767,3784,3801,3817,3834,3851,3867,3884,3901,3917,3934,3951,3967,3984,4001,4017,4034,4051,4067,4084,4101,4118,4134,4151,4167,4184,4201,4217,4234,4251,4267,4284,4300,4334,4351,4368,4384,4401,4417,4434,4451,4468,4484,4501,4517,4534,4551,4568,4584,4601,4617,4634,4651,4668,4684,4701,4717,4734,4751,4768,4784,4801,4817,4834,4846,4859,4871,4884,4901,4917,4934,4951,4967,4984,5001,5017,5034,5051,5067,5084,5101,5117,5134,5151,5167,5184,5201,5217,5234,5251,5267,5284,5301,5317,5334,5351,5367,5384,5401,5417,5434,5451,5467,5484,5501,5518,5534,5551,5567,5584,5601,5617,5634,5651,5667,5684,5701,5717,5734,5751,5767,5784,5801,5817,5834,5851,5867,5884,5901,5917,5934,5951,5967,5984,6001,6017,6034,6051,6067,6084,6101,6117,6134,6151,6167,6184,6201,6217,6234,6251,6267,6284,6301,6317,6334,6351,6367,6384,6401,6417,6434,6451,6467,6484,6501,6517,6534,6551,6567,6584,6601,6617,6634,6651,6667,6684,6701,6717,6734,6751,6767,6784,6801,6817,6834,6851,6867,6884,6901,6918,6934,6951,6967,6984,7001,7017,7034,7051,7067,7084,7101,7117,7134,7151,7167,7184,7201,7217,7234,7251,7267,7284,7301,7317,7334,7351,7367,7384,7401,7417,7434,7451,7467,7484,7501,7517,7534,7551,7567,7584,7601,7617,7634,7651,7667,7684,7701,7717,7734,7751,7767,7784,7801,7817,7834,7851,7867,7884,7901,7917,7934,7951,7967,7984,8001,8017,8034,8051,8067,8084,8101,8117,8134,8151,8167,8184,8201,8217,8234,8251,8267,8284,8301,8317,8334,8351,8367,8384,8401,8417,8434,8451,8467,8484,8501,8517,8534,8551,8567,8584,8601,8617,8634,8651,8667,8684,8701,8717,8734,8751,8767,8784,8801,8817,8834,8851,8867,8884,8901,8917,8934,8951,8967,8984,9001,9017,9034,9051,9067,9084,9101,9117,9134,9151,9167,9184,9201,9217,9234,9251,9267,9284,9301,9317,9334,9351,9367,9384,9401,9417,9434,9451,9467,9484,9501,9517,9534,9551,9567,9584,9601,9617,9634,9651,9667,9684,9701,9717,9734,9751,9767,9784,9801,9817,9834,9851,9867,9884,9901,9917,9934,9951,9967,9984,10001,10017,10034,10051,10067,10084,10101,10117,10134,10151,10167,10184,10201,10217,10234,10251,10267,10284,10301,10317,10351,10367,10384,10401,10418,10434,10451,10467,10484,10501,10518,10534,10551,10567,10584,10601,10618,10634,10651,10667,10684,10701,10718,10734,10751,10767,10784,10801,10818,10834,10851,10863,10875,10888,10901,10917,10934,10951,10967,10984,11001,11017,11034,11051,11067,11084,11101,11117,11134,11151,11167,11184,11201,11217,11234,11251,11267,11284,11301,11317,11334,11351,11367,11384,11401,11417,11434,11451,11467,11484,11501,11517,11534,11551,11567,11584,11601,11617,11634,11651,11667,11684,11701,11717,11734,11751,11767,11784,11801,11817,11834,11851,11867,11884,11901,11917,11934,11951,11967,11984,12001,12017,12034,12050,12067,12084,12101,12117,12134,12151,12167,12184,12201,12217,12234,12251,12267,12284,12301,12317,12334,12351,12368,12384,12401,12417,12434,12450,12467,12484,12501,12517,12534,12551,12567,12584,12601,12617,12634,12651,12667,12684,12701,12717,12734,12751,12767,12784,12801,12817,12834,12851,12867,12884,12901,12917,12934,12951,12967,12984,13001,13017,13034,13051,13067,13084,13101,13117,13134,13151,13167,13184,13201,13217,13234,13251,13267,13284,13301,13317,13334,13351,13367,13384,13401,13417,13434,13451,13467,13484,13501,13517,13534,13551,13567,13584,13601,13617,13634,13651,13667,13684,13701,13718,13734,13751,13767,13784,13801,13817,13834,13851,13867,13884,13901,13917,13934,13951,13967,13984,14001,14017,14034,14051,14067,14084,14101,14117,14134,14151,14167,14184,14201,14217,14234,14251,14267,14284,14301,14317,14334,14351,14367,14384,14401,14417,14434,14451,14467,14484,14501,14517,14534,14551,14567,14584,14601,14617,14634,14651,14667,14684,14701,14717,14734,14751,14767,14784,14801,14817,14834,14851,14867,14884,14901,14917,14934,14951,14967,14984,15001,15017,15034,15051,15067,15084,15101,15117,15134,15151,15167,15184,15201,15217,15234,15251,15267,15284,15301,15317,15334,15351,15367,15384,15401,15417,15434,15451,15467,15484,15501,15517,15534,15551,15584,15596,15609,15621,15634,15651,15667,15684,15701,15717,15734,15751,15767,15784,15801,15817,15834,15851,15867,15884,15901,15917,15934,15951,15967,15984,16001,16017,16034,16051,16067,16084,16101,16117,16134,16151,16167,16184,16201,16218,16234,16251,16267,16284,16301,16317,16334,16367,16384,16401,16417,16434,16451,16468,16484,16501,16517,16534,16551,16568,16584,16601,16617,16634,16651,16668,16684,16701,16717,16734,16751,16768,16784,16801,16817,16834,16851,16867,16880,16892,16905,16917,16934,16951,16967,16984,17001,17017,17034,17051,17067,17084,17101,17117,17134,17151,17167,17184,17201,17217,17234,17251,17267,17284,17301,17317,17334,17351,17367,17384,17401,17417,17434,17451,17467,17484,17501,17517,17534,17551,17567,17584,17601,17618,17634,17651,17667,17684,17701,17717,17734,17751,17767,17784,17801,17817,17834,17851,17867,17884,17901,17917,17934,17951,17967,17984,18001,18017,18034,18051,18067,18084,18101,18117,18134,18151,18167,18184,18201,18217,18234,18251,18267,18284,18301,18317,18334,18351,18367,18384,18401,18417,18434,18451,18467,18484,18501,18517,18534,18551,18567,18584,18605,18617,18634,18651,18667,18684,18701,18717,18734,18751,18767,18784,18801,18817,18834,18851,18867,18884,18901,18917,18934,18951,18968,18984,19001,19017,19034,19051,19067,19084,19101,19117,19134,19151,19167,19184,19201,19217,19234,19251,19267,19284,19301,19317,19334,19351,19367,19384,19401,19417,19434,19451,19467,19484,19501,19517,19534,19551,19567,19584,19601,19617,19634,19651,19667,19684,19701,19717,19734,19751,19767,19784,19801,19817,19834,19851,19867,19884,19901,19917,19934,19951,19967,19986,20001,20018,20034,20051,20067,20084,20101,20118,20134,20151,20168,20184,20201,20217,20234,20251,20267,20284,20301,20317,20351,20367,20384,20401,20417,20434,20451,20468,20484,20501,20517,20534,20551,20567,20584,20601,20617,20634,20651,20667,20684,20701,20717,20734,20751,20767,20784,20801,20817,20834,20851,20867,20884,20901,20917,20934,20951,20967,20984,21001,21017,21034,21051,21067,21084,21101,21134,21151,21167,21185,21201,21218,21234,21251,21267,21280,21292,21305,21317,21334,21351,21367,21385,21401,21417,21434,21451,21484,21497,21509,21522,21534,21551,21569,21601,21613,21626,21638,21651,21664,21676,21688,21702,21713,21726,21738,21751,21763,21776,21788,21801,21813,21826,21839,21851,21864,21876,21888,21901,21913,21929,21940,21956,21967,21980,21993],"hit":[null],"x":[-2.693877551020408,-2.693877551020408,-2.693877551020408,-2.693877551020408,-2.693877551020408,-2.693877551020408,-2.693877551020408,-2.693877551020408,-2.693877551020408,-2.693877551020408,-2.693877551020408,-2.693877551020408,-2.693877551020408,-2.693877551020408,-2.693877551020408,-2.693877551020408,-2.693877551020408,-2.693877551020408,-2.693877551020408,-2.693877551020408,-2.693877551020408,-2.693877551020408,-2.693877551020408,-2.693877551020408,-2.693877551020408,-2.693877551020408,-2.693877551020408,-2.693877551020408,-2.693877551020408,-2.693877551020408,-2.693877551020408,-2.693877551020408,-2.693877551020408,-2.693877551020408,-2.693877551020408,-2.693877551020408,-2.693877551020408,-2.693877551020408,-2.693877551020408,-2.693877551020408,-2.693877551020408,-2.693877551020408,-2.693877551020408,-2.693877551020408,-2.693877551020408,-2.693877551020408,-2.693877551020408,-0.11394557823129252,-0.07993197278911565,0.008503401360544218,0.13435374149659865,0.2534013605442177,0.33503401360544216,0.38945578231292516,0.4200680272108844,0.44047619047619047,0.45068027210884354,0.45408163265306123,0.45408163265306123,0.45408163265306123,0.45408163265306123,0.45408163265306123,0.45068027210884354,0.44387755102040816,0.4336734693877551,0.42346938775510207,0.4098639455782313,0.39625850340136054,0.3792517006802721,0.3656462585034014,0.3486394557823129,0.33503401360544216,0.3282312925170068,0.32482993197278914,0.32482993197278914,0.32142857142857145,0.32142857142857145,0.32142857142857145,0.32142857142857145,0.32142857142857145,0.32142857142857145,0.32142857142857145,0.32142857142857145,0.32142857142857145,0.32142857142857145,0.32142857142857145,0.32142857142857145,0.32142857142857145,0.31802721088435376,0.31802721088435376,0.31802721088435376,0.31462585034013607,0.31462585034013607,0.3112244897959184,0.3112244897959184,0.3112244897959184,0.3112244897959184,0.3112244897959184,0.3112244897959184,0.3112244897959184,0.3112244897959184,0.3078231292517007,0.3078231292517007,0.3078231292517007,0.304421768707483,0.304421768707483,0.304421768707483,0.304421768707483,0.304421768707483,0.304421768707483,0.304421768707483,0.304421768707483,0.304421768707483,0.304421768707483,0.2976190476190476,0.2942176870748299,0.29081632653061223,0.28741496598639454,0.28401360544217685,0.28061224489795916,0.28061224489795916,0.27721088435374147,0.27380952380952384,0.26700680272108845,0.2534013605442177,0.23299319727891157,0.20578231292517007,0.17857142857142858,0.15136054421768708,0.13435374149659865,0.12074829931972789,0.11054421768707483,0.10374149659863946,0.10034013605442177,0.09693877551020408,0.0935374149659864,0.08673469387755102,0.08333333333333333,0.07993197278911565,0.07993197278911565,0.07993197278911565,0.07653061224489796,0.06972789115646258,0.06292517006802721,0.05612244897959184,0.05272108843537415,0.04931972789115646,0.04931972789115646,0.04591836734693878,0.0391156462585034,0.02891156462585034,0.022108843537414966,0.015306122448979591,0.015306122448979591,0.015306122448979591,0.015306122448979591,0.015306122448979591,0.015306122448979591,0.015306122448979591,0.015306122448979591,0.015306122448979591,0.015306122448979591,0.015306122448979591,0.015306122448979591,0.015306122448979591,0.015306122448979591,0.015306122448979591,0.015306122448979591,0.015306122448979591,0.015306122448979591,0.015306122448979591,0.015306122448979591,0.015306122448979591,0.015306122448979591,0.015306122448979591,0.015306122448979591,0.015306122448979591,0.01870748299319728,0.03571428571428571,0.05952380952380952,0.07653061224489796,0.0935374149659864,0.11394557823129252,0.12755102040816327,0.1377551020408163,0.1445578231292517,0.14795918367346939,0.14795918367346939,0.14795918367346939,0.14795918367346939,0.15136054421768708,0.15136054421768708,0.15136054421768708,0.15136054421768708,0.15136054421768708,0.15136054421768708,0.15136054421768708,0.15136054421768708,0.15136054421768708,0.15136054421768708,0.15136054421768708,0.15136054421768708,0.15136054421768708,0.15476190476190477,0.15476190476190477,0.15476190476190477,0.15476190476190477,0.15476190476190477,0.15476190476190477,0.15476190476190477,0.15476190476190477,0.15476190476190477,0.15476190476190477,0.15476190476190477,0.15476190476190477,0.15476190476190477,0.15476190476190477,0.15476190476190477,0.15476190476190477,0.15476190476190477,0.15476190476190477,0.15476190476190477,0.15476190476190477,0.15476190476190477,0.15476190476190477,0.15476190476190477,0.15476190476190477,0.15476190476190477,0.15476190476190477,0.15476190476190477,0.15476190476190477,0.15476190476190477,0.15476190476190477,0.15476190476190477,0.15476190476190477,0.15476190476190477,0.15476190476190477,0.15476190476190477,0.15476190476190477,0.15476190476190477,0.15476190476190477,0.15476190476190477,0.15476190476190477,0.15476190476190477,0.15476190476190477,0.15476190476190477,0.15476190476190477,0.15476190476190477,0.15476190476190477,0.15476190476190477,0.15476190476190477,0.15476190476190477,0.15476190476190477,0.15476190476190477,0.15476190476190477,0.15476190476190477,0.15476190476190477,0.15476190476190477,0.15476190476190477,0.15476190476190477,0.15476190476190477,0.15476190476190477,0.15476190476190477,0.15476190476190477,0.15476190476190477,0.15476190476190477,0.15476190476190477,0.15476190476190477,0.15476190476190477,0.15476190476190477,0.15476190476190477,0.15476190476190477,0.15476190476190477,0.15476190476190477,0.15476190476190477,0.15476190476190477,0.15476190476190477,0.15476190476190477,0.15476190476190477,0.15476190476190477,0.15476190476190477,0.15476190476190477,0.15476190476190477,0.15476190476190477,0.15476190476190477,0.15476190476190477,0.15476190476190477,0.15476190476190477,0.15476190476190477,0.15476190476190477,0.15476190476190477,0.15476190476190477,0.15476190476190477,0.15476190476190477,0.15476190476190477,0.15476190476190477,0.15476190476190477,0.15476190476190477,0.15476190476190477,0.15476190476190477,0.15476190476190477,0.15476190476190477,0.15476190476190477,0.15476190476190477,0.15476190476190477,0.15476190476190477,0.15476190476190477,0.15476190476190477,0.15476190476190477,0.15476190476190477,0.15476190476190477,0.15476190476190477,0.15476190476190477,0.15476190476190477,0.15476190476190477,0.15476190476190477,0.15476190476190477,0.15476190476190477,0.16156462585034015,0.17517006802721088,0.18877551020408162,0.195578231292517,0.20238095238095238,0.21258503401360543,0.2193877551020408,0.2261904761904762,0.22959183673469388,0.23299319727891157,0.23299319727891157,0.23299319727891157,0.23299319727891157,0.23299319727891157,0.24319727891156462,0.25,0.26360544217687076,0.27380952380952384,0.28061224489795916,0.28741496598639454,0.304421768707483,0.31802721088435376,0.33503401360544216,0.3486394557823129,0.3486394557823129,0.3486394557823129,0.3486394557823129,0.3486394557823129,0.3486394557823129,0.3486394557823129,0.3486394557823129,0.3486394557823129,0.3486394557823129,0.3486394557823129,0.3486394557823129,0.34523809523809523,0.34183673469387754,0.33503401360544216,0.33163265306122447,0.32482993197278914,0.32142857142857145,0.32142857142857145,0.31802721088435376,0.31802721088435376,0.31462585034013607,0.3112244897959184,0.3112244897959184,0.3112244897959184,0.3112244897959184,0.3112244897959184,0.3112244897959184,0.3112244897959184,0.3112244897959184,0.3112244897959184,0.3112244897959184,0.3112244897959184,0.3112244897959184,0.3112244897959184,0.3112244897959184,0.3112244897959184,0.3112244897959184,0.3112244897959184,0.3112244897959184,0.3112244897959184,0.3112244897959184,0.3112244897959184,0.3112244897959184,0.3112244897959184,0.3112244897959184,0.3112244897959184,0.3112244897959184,0.3112244897959184,0.3112244897959184,0.3112244897959184,0.3112244897959184,0.3112244897959184,0.3112244897959184,0.3112244897959184,0.3112244897959184,0.3112244897959184,0.3112244897959184,0.3112244897959184,0.3112244897959184,0.3112244897959184,0.3112244897959184,0.3112244897959184,0.3112244897959184,0.3112244897959184,0.3112244897959184,0.3112244897959184,0.3112244897959184,0.3112244897959184,0.3112244897959184,0.3112244897959184,0.3112244897959184,0.3112244897959184,0.3112244897959184,0.3112244897959184,0.3112244897959184,0.3112244897959184,0.3112244897959184,0.3112244897959184,0.3112244897959184,0.3112244897959184,0.3112244897959184,0.3112244897959184,0.3112244897959184,0.3112244897959184,0.3112244897959184,0.3112244897959184,0.3112244897959184,0.3112244897959184,0.3112244897959184,0.3112244897959184,0.3112244897959184,0.3112244897959184,0.3112244897959184,0.3112244897959184,0.3112244897959184,0.3112244897959184,0.3112244897959184,0.3112244897959184,0.3112244897959184,0.3112244897959184,0.3112244897959184,0.3112244897959184,0.3112244897959184,0.3112244897959184,0.3112244897959184,0.3112244897959184,0.3112244897959184,0.3112244897959184,0.3112244897959184,0.3112244897959184,0.3112244897959184,0.3112244897959184,0.3112244897959184,0.3112244897959184,0.3112244897959184,0.3112244897959184,0.3112244897959184,0.3112244897959184,0.3112244897959184,0.3112244897959184,0.3112244897959184,0.3112244897959184,0.3112244897959184,0.3112244897959184,0.3112244897959184,0.3112244897959184,0.3112244897959184,0.3112244897959184,0.3112244897959184,0.3112244897959184,0.3112244897959184,0.3112244897959184,0.3112244897959184,0.3112244897959184,0.31802721088435376,0.33163265306122447,0.3520408163265306,0.37244897959183676,0.38945578231292516,0.39625850340136054,0.39965986394557823,0.39965986394557823,0.39965986394557823,0.39965986394557823,0.39965986394557823,0.39965986394557823,0.39965986394557823,0.39965986394557823,0.39965986394557823,0.39965986394557823,0.39965986394557823,0.39965986394557823,0.39965986394557823,0.39965986394557823,0.39965986394557823,0.4030612244897959,0.4030612244897959,0.4030612244897959,0.4030612244897959,0.4030612244897959,0.4030612244897959,0.4030612244897959,0.4030612244897959,0.4030612244897959,0.4030612244897959,0.4030612244897959,0.4030612244897959,0.4030612244897959,0.4030612244897959,0.4030612244897959,0.4030612244897959,0.4030612244897959,0.4030612244897959,0.4030612244897959,0.4030612244897959,0.4030612244897959,0.4030612244897959,0.4030612244897959,0.4030612244897959,0.4030612244897959,0.4030612244897959,0.4030612244897959,0.4030612244897959,0.4030612244897959,0.4030612244897959,0.4030612244897959,0.4030612244897959,0.4030612244897959,0.4030612244897959,0.4030612244897959,0.4030612244897959,0.4030612244897959,0.4030612244897959,0.4030612244897959,0.4030612244897959,0.4030612244897959,0.4030612244897959,0.4030612244897959,0.4030612244897959,0.4030612244897959,0.4030612244897959,0.4030612244897959,0.4030612244897959,0.4030612244897959,0.4030612244897959,0.4030612244897959,0.4030612244897959,0.4030612244897959,0.39625850340136054,0.38605442176870747,0.3792517006802721,0.37244897959183676,0.36904761904761907,0.3656462585034014,0.358843537414966,0.3520408163265306,0.34523809523809523,0.33503401360544216,0.33163265306122447,0.32482993197278914,0.32142857142857145,0.31802721088435376,0.31802721088435376,0.3112244897959184,0.3078231292517007,0.2942176870748299,0.28061224489795916,0.2602040816326531,0.24319727891156462,0.2227891156462585,0.20238095238095238,0.1921768707482993,0.18197278911564627,0.17857142857142858,0.1717687074829932,0.15816326530612246,0.1377551020408163,0.11734693877551021,0.09693877551020408,0.07993197278911565,0.0663265306122449,0.05272108843537415,0.0391156462585034,0.022108843537414966,0.0017006802721088435,-0.008503401360544218,-0.011904761904761904,-0.011904761904761904,-0.011904761904761904,-0.011904761904761904,-0.011904761904761904,-0.011904761904761904,-0.011904761904761904,-0.011904761904761904,-0.011904761904761904,-0.011904761904761904,-0.011904761904761904,-0.011904761904761904,-0.011904761904761904,-0.011904761904761904,-0.011904761904761904,-0.011904761904761904,-0.011904761904761904,-0.011904761904761904,-0.011904761904761904,-0.011904761904761904,-0.011904761904761904,-0.011904761904761904,-0.011904761904761904,-0.011904761904761904,-0.011904761904761904,-0.011904761904761904,-0.011904761904761904,-0.011904761904761904,-0.011904761904761904,-0.011904761904761904,-0.011904761904761904,-0.011904761904761904,-0.011904761904761904,-0.011904761904761904,-0.011904761904761904,-0.011904761904761904,-0.011904761904761904,-0.011904761904761904,-0.011904761904761904,-0.011904761904761904,-0.011904761904761904,-0.011904761904761904,-0.011904761904761904,-0.011904761904761904,-0.011904761904761904,-0.011904761904761904,-0.011904761904761904,-0.011904761904761904,-0.008503401360544218,-0.008503401360544218,-0.008503401360544218,-0.008503401360544218,-0.008503401360544218,-0.008503401360544218,-0.008503401360544218,-0.008503401360544218,-0.008503401360544218,-0.008503401360544218,-0.008503401360544218,-0.008503401360544218,-0.00510204081632653,-0.00510204081632653,-0.0017006802721088435,-0.0017006802721088435,-0.0017006802721088435,-0.0017006802721088435,-0.0017006802721088435,-0.0017006802721088435,-0.0017006802721088435,-0.0017006802721088435,0.0017006802721088435,0.00510204081632653,0.008503401360544218,0.011904761904761904,0.022108843537414966,0.025510204081632654,0.02891156462585034,0.03231292517006803,0.03231292517006803,0.03231292517006803,0.03231292517006803,0.03231292517006803,0.03231292517006803,0.03231292517006803,0.03231292517006803,0.03231292517006803,0.03231292517006803,0.03231292517006803,0.03231292517006803,0.03231292517006803,0.03231292517006803,0.03231292517006803,0.03231292517006803,0.03231292517006803,0.03231292517006803,0.03231292517006803,0.03231292517006803,0.03231292517006803,0.03231292517006803,0.03231292517006803,0.03231292517006803,0.03231292517006803,0.03231292517006803,0.03231292517006803,0.05272108843537415,0.11054421768707483,0.18877551020408162,0.2568027210884354,0.304421768707483,0.33163265306122447,0.34523809523809523,0.3486394557823129,0.3486394557823129,0.3486394557823129,0.3486394557823129,0.3486394557823129,0.3486394557823129,0.3486394557823129,0.3486394557823129,0.3520408163265306,0.3554421768707483,0.3656462585034014,0.37244897959183676,0.3826530612244898,0.38945578231292516,0.39965986394557823,0.4268707482993197,0.45408163265306123,0.4710884353741497,0.4812925170068027,0.4880952380952381,0.4880952380952381,0.4880952380952381,0.4880952380952381,0.4880952380952381,0.4880952380952381,0.4880952380952381,0.4880952380952381,0.4880952380952381,0.4880952380952381,0.4880952380952381,0.4880952380952381,0.4880952380952381,0.4880952380952381,0.4880952380952381,0.4880952380952381,0.4880952380952381,0.4880952380952381,0.4846938775510204,0.477891156462585,0.467687074829932,0.4642857142857143,0.4642857142857143,0.4642857142857143,0.4608843537414966,0.45408163265306123,0.44727891156462585,0.44727891156462585,0.44727891156462585,0.44727891156462585,0.44727891156462585,0.44727891156462585,0.44727891156462585,0.44727891156462585,0.44727891156462585,0.44727891156462585,0.44727891156462585,0.44727891156462585,0.44727891156462585,0.44727891156462585,0.44727891156462585,0.44727891156462585,0.44727891156462585,0.44727891156462585,0.44727891156462585,0.44727891156462585,0.44727891156462585,0.44727891156462585,0.44727891156462585,0.44727891156462585,0.44387755102040816,0.44387755102040816,0.44387755102040816,0.44387755102040816,0.44387755102040816,0.44387755102040816,0.44387755102040816,0.44387755102040816,0.44387755102040816,0.44387755102040816,0.44387755102040816,0.44387755102040816,0.44387755102040816,0.44387755102040816,0.44387755102040816,0.44387755102040816,0.44387755102040816,0.44387755102040816,0.44387755102040816,0.44387755102040816,0.44387755102040816,0.44387755102040816,0.44387755102040816,0.4608843537414966,0.4880952380952381,0.5153061224489796,0.5527210884353742,0.6003401360544217,0.6581632653061225,0.75,0.8112244897959183,0.8316326530612245,0.8316326530612245,0.8316326530612245,0.8316326530612245,0.8316326530612245,0.8316326530612245,0.8282312925170068,0.814625850340136,0.7874149659863946,0.7431972789115646,0.6921768707482994,0.6547619047619048,0.6207482993197279,0.6071428571428571,0.6037414965986394,0.6003401360544217,0.6003401360544217,0.5935374149659864,0.5867346938775511,0.5833333333333334,0.5833333333333334,0.5833333333333334,0.5833333333333334,0.5833333333333334,0.5833333333333334,0.5833333333333334,0.5833333333333334,0.5833333333333334,0.5833333333333334,0.5833333333333334,0.5833333333333334,0.5833333333333334,0.5833333333333334,0.5833333333333334,0.5833333333333334,0.5833333333333334,0.5833333333333334,0.5833333333333334,0.5833333333333334,0.5833333333333334,0.5833333333333334,0.5833333333333334,0.5833333333333334,0.5833333333333334,0.5833333333333334,0.5833333333333334,0.5833333333333334,0.5833333333333334,0.5833333333333334,0.5833333333333334,0.5833333333333334,0.5833333333333334,0.5833333333333334,0.5833333333333334,0.5833333333333334,0.5833333333333334,0.5935374149659864,0.6513605442176871,0.7295918367346939,0.8418367346938775,1.0051020408163265,1.1785714285714286,1.314625850340136,1.403061224489796,1.4370748299319729,1.4404761904761905,1.4404761904761905,1.4404761904761905,1.4404761904761905,1.4404761904761905,1.4404761904761905,1.4404761904761905,1.4404761904761905,1.4404761904761905,1.4404761904761905,1.4404761904761905,1.4404761904761905,1.4404761904761905,1.4404761904761905,1.4404761904761905,1.4404761904761905,1.4404761904761905,1.4404761904761905,1.4404761904761905,1.4404761904761905,1.4404761904761905,1.4404761904761905,1.4404761904761905,1.4404761904761905,1.4404761904761905,1.4404761904761905,1.4404761904761905,1.4370748299319729,1.4370748299319729,1.4370748299319729,1.433673469387755,1.4268707482993197,1.3962585034013606,1.3316326530612246,1.2329931972789117,1.1275510204081634,1.0357142857142858,0.9506802721088435,0.8928571428571429,0.858843537414966,0.8486394557823129,0.8486394557823129,0.8486394557823129,0.8452380952380952,0.8452380952380952,0.8452380952380952,0.8452380952380952,0.8452380952380952,0.8452380952380952,0.8452380952380952,0.8452380952380952,0.8452380952380952,0.8452380952380952,0.8452380952380952,0.8452380952380952,0.8452380952380952,0.8452380952380952,0.8452380952380952,0.8452380952380952,0.8452380952380952,0.8452380952380952,0.8452380952380952,0.8452380952380952,0.8452380952380952,0.8452380952380952,0.8452380952380952,0.8486394557823129,0.858843537414966,0.8724489795918368,0.8860544217687075,0.9030612244897959,0.9268707482993197,0.9642857142857143,0.9778911564625851,0.9880952380952381,0.9948979591836735,1.001700680272109,1.0051020408163265,1.0051020408163265,1.0051020408163265,1.0051020408163265,1.0051020408163265,1.0085034013605443,1.0153061224489797,1.0289115646258504,1.0459183673469388,1.0731292517006803,1.1003401360544218,1.1275510204081634,1.1547619047619047,1.1649659863945578,1.1683673469387754,1.1683673469387754,1.1683673469387754,1.1683673469387754,1.1683673469387754,1.1683673469387754,1.1683673469387754,1.1683673469387754,1.1683673469387754,1.1683673469387754,1.1683673469387754,1.1683673469387754,1.1683673469387754,1.1683673469387754,1.1683673469387754,1.1683673469387754,1.1683673469387754,1.1683673469387754,1.1683673469387754,1.1683673469387754,1.1683673469387754,1.1683673469387754,1.1683673469387754,1.1683673469387754,1.1683673469387754,1.1683673469387754,1.1683673469387754,1.1683673469387754,1.1717687074829932,1.1717687074829932,1.1717687074829932,1.1717687074829932,1.1717687074829932,1.1717687074829932,1.1717687074829932,1.1717687074829932,1.1717687074829932,1.1717687074829932,1.1717687074829932,1.1717687074829932,1.1717687074829932,1.1717687074829932,1.1717687074829932,1.1717687074829932,1.1717687074829932,1.1717687074829932,1.1717687074829932,1.1717687074829932,1.1717687074829932,1.1717687074829932,1.1717687074829932,1.1717687074829932,1.1717687074829932,1.1717687074829932,1.1717687074829932,1.1717687074829932,1.1717687074829932,1.1717687074829932,1.1717687074829932,1.1717687074829932,1.1717687074829932,1.1717687074829932,1.1717687074829932,1.1717687074829932,1.1717687074829932,1.1717687074829932,1.1717687074829932,1.1717687074829932,1.1717687074829932,1.1717687074829932,1.1717687074829932,1.1717687074829932,1.1717687074829932,1.1717687074829932,1.1717687074829932,1.1717687074829932,1.1717687074829932,1.1717687074829932,1.1717687074829932,1.1717687074829932,1.1717687074829932,1.1717687074829932,1.1717687074829932,1.1717687074829932,1.1717687074829932,1.1717687074829932,1.1717687074829932,1.1717687074829932,1.1717687074829932,1.1717687074829932,1.1683673469387754,1.1683673469387754,1.1683673469387754,1.1683673469387754,1.1683673469387754,1.1683673469387754,1.1683673469387754,1.1683673469387754,1.1683673469387754,1.1683673469387754,1.1683673469387754,1.1581632653061225,1.1411564625850341,1.096938775510204,1.0255102040816326,0.9302721088435374,0.8214285714285714,0.6921768707482994,0.5493197278911565,0.4064625850340136,0.304421768707483,0.23979591836734693,0.2261904761904762,0.2227891156462585,0.21598639455782312,0.20918367346938777,0.1989795918367347,0.18877551020408162,0.18537414965986396,0.18537414965986396,0.18537414965986396,0.18537414965986396,0.18537414965986396,0.17517006802721088,0.1683673469387755,0.1683673469387755,0.1683673469387755,0.1717687074829932,0.17857142857142858,0.20238095238095238,0.27380952380952384,0.3622448979591837,0.44727891156462585,0.4914965986394558,0.49829931972789115,0.49829931972789115,0.5085034013605442,0.5357142857142857,0.5663265306122449,0.5969387755102041,0.6343537414965986,0.6989795918367347,0.8078231292517006,0.9064625850340136,0.967687074829932,0.9812925170068028,0.9846938775510204,0.9880952380952381,0.9914965986394558,0.9948979591836735,1.001700680272109,1.0051020408163265,1.0051020408163265,1.0085034013605443,1.0085034013605443,1.0085034013605443,1.0085034013605443,1.0085034013605443,1.0085034013605443,1.0085034013605443,1.0085034013605443,1.0085034013605443,1.0085034013605443,1.0085034013605443,1.0085034013605443,1.0085034013605443,1.0085034013605443,1.0085034013605443,1.0085034013605443,1.0085034013605443,1.0085034013605443,1.0085034013605443,1.0085034013605443,1.0085034013605443,1.0051020408163265,1.0051020408163265,1.001700680272109,1.001700680272109,1.001700680272109,1.001700680272109,1.001700680272109,1.001700680272109,1.001700680272109,1.001700680272109,1.001700680272109,1.001700680272109,1.001700680272109,1.001700680272109,1.001700680272109,1.001700680272109,1.001700680272109,1.001700680272109,1.001700680272109,1.001700680272109,1.001700680272109,1.001700680272109,1.001700680272109,1.001700680272109,1.001700680272109,1.001700680272109,1.001700680272109,0.9982993197278912,0.9948979591836735,0.9812925170068028,0.9574829931972789,0.9302721088435374,0.8928571428571429,0.8452380952380952,0.7738095238095238,0.685374149659864,0.5969387755102041,0.5187074829931972,0.4642857142857143,0.42346938775510207,0.3826530612244898,0.33163265306122447,0.28061224489795916,0.23639455782312926,0.20918367346938777,0.18197278911564627,0.15476190476190477,0.13095238095238096,0.11394557823129252,0.09013605442176871,0.07312925170068027,0.05952380952380952,0.05612244897959184,0.04931972789115646,0.04251700680272109,0.03571428571428571,0.02891156462585034,0.02891156462585034,0.025510204081632654,0.025510204081632654,0.025510204081632654,0.025510204081632654,0.025510204081632654,0.025510204081632654,0.025510204081632654,0.025510204081632654,0.025510204081632654,0.025510204081632654,0.025510204081632654,0.025510204081632654,0.025510204081632654,0.025510204081632654,0.025510204081632654,0.025510204081632654,0.025510204081632654,0.025510204081632654,0.025510204081632654,0.025510204081632654,0.025510204081632654,0.025510204081632654,0.025510204081632654,0.025510204081632654,0.025510204081632654,0.02891156462585034,0.03571428571428571,0.0663265306122449,0.15816326530612246,0.3826530612244898,0.8078231292517006,1.4268707482993197,2.1683673469387754,3.1615646258503403,3.746598639455782,3.746598639455782,3.746598639455782,3.746598639455782,3.746598639455782,3.746598639455782,3.746598639455782,3.746598639455782,3.746598639455782,3.746598639455782,3.746598639455782,3.746598639455782,3.746598639455782,3.746598639455782,3.746598639455782,3.746598639455782,3.746598639455782,3.746598639455782,3.746598639455782,3.746598639455782,3.746598639455782,3.746598639455782,3.746598639455782,3.746598639455782,3.746598639455782,3.746598639455782,3.746598639455782,3.746598639455782,3.746598639455782,3.746598639455782,3.746598639455782,3.746598639455782,3.746598639455782,3.746598639455782,3.746598639455782,3.746598639455782,3.746598639455782,3.746598639455782,3.746598639455782,3.746598639455782,3.746598639455782,3.746598639455782,3.746598639455782,3.746598639455782,3.746598639455782,3.746598639455782,3.746598639455782,3.746598639455782,3.746598639455782,3.746598639455782,3.746598639455782,3.746598639455782,3.746598639455782,3.746598639455782,3.746598639455782,3.746598639455782,3.746598639455782,3.746598639455782,3.746598639455782,3.746598639455782,3.746598639455782,3.746598639455782,3.746598639455782,3.746598639455782,3.746598639455782,3.746598639455782,3.746598639455782,3.746598639455782,3.746598639455782,3.746598639455782,3.746598639455782,3.746598639455782,3.746598639455782,3.746598639455782,3.746598639455782,3.746598639455782,3.746598639455782,3.746598639455782,3.746598639455782,3.746598639455782,3.746598639455782,3.746598639455782,3.746598639455782,3.746598639455782,3.746598639455782,3.746598639455782,3.746598639455782,3.746598639455782,3.746598639455782,3.746598639455782,3.746598639455782,3.746598639455782,3.746598639455782,3.746598639455782,3.746598639455782,3.746598639455782,3.746598639455782,3.746598639455782,3.746598639455782,3.746598639455782,3.746598639455782,3.746598639455782,3.746598639455782,3.746598639455782,3.746598639455782,3.746598639455782,3.746598639455782],"y":[-4.285714285714286,-4.285714285714286,-4.285714285714286,-4.285714285714286,-4.285714285714286,-4.285714285714286,-4.285714285714286,-4.285714285714286,-4.285714285714286,-4.285714285714286,-4.285714285714286,-4.285714285714286,-4.285714285714286,-4.285714285714286,-4.285714285714286,-4.285714285714286,-4.285714285714286,-4.285714285714286,-4.285714285714286,-4.285714285714286,-4.285714285714286,-4.285714285714286,-4.285714285714286,-4.285714285714286,-4.285714285714286,-4.285714285714286,-4.285714285714286,-4.285714285714286,-4.285714285714286,-4.285714285714286,-4.285714285714286,-4.285714285714286,-4.285714285714286,-4.285714285714286,-4.285714285714286,-4.285714285714286,-4.285714285714286,-4.285714285714286,-4.285714285714286,-4.285714285714286,-4.285714285714286,-4.285714285714286,-4.285714285714286,-4.285714285714286,-4.285714285714286,-4.285714285714286,-4.285714285714286,0.7952380952380952,0.7666666666666667,0.6428571428571429,0.4523809523809524,0.2904761904761905,0.18571428571428572,0.12857142857142856,0.10952380952380952,0.10952380952380952,0.10952380952380952,0.10952380952380952,0.10952380952380952,0.10952380952380952,0.10952380952380952,0.10952380952380952,0.10952380952380952,0.10952380952380952,0.10952380952380952,0.10952380952380952,0.10952380952380952,0.1,0.08095238095238096,0.07142857142857142,0.05238095238095238,0.04285714285714286,0.03333333333333333,0.03333333333333333,0.03333333333333333,0.023809523809523808,0.023809523809523808,0.023809523809523808,0.023809523809523808,0.023809523809523808,0.023809523809523808,0.023809523809523808,0.023809523809523808,0.023809523809523808,0.023809523809523808,0.023809523809523808,0.023809523809523808,0.023809523809523808,0.023809523809523808,0.023809523809523808,0.023809523809523808,0.023809523809523808,0.023809523809523808,0.023809523809523808,0.023809523809523808,0.023809523809523808,0.023809523809523808,0.023809523809523808,0.023809523809523808,0.023809523809523808,0.023809523809523808,0.023809523809523808,0.023809523809523808,0.023809523809523808,0.014285714285714285,0.014285714285714285,0.014285714285714285,0.014285714285714285,0.014285714285714285,0.014285714285714285,0.014285714285714285,0.014285714285714285,0.014285714285714285,0.004761904761904762,-0.004761904761904762,-0.014285714285714285,-0.023809523809523808,-0.04285714285714286,-0.04285714285714286,-0.05238095238095238,-0.05238095238095238,-0.05238095238095238,-0.06190476190476191,-0.06190476190476191,-0.07142857142857142,-0.08095238095238096,-0.08095238095238096,-0.08095238095238096,-0.08095238095238096,-0.08095238095238096,-0.08095238095238096,-0.08095238095238096,-0.08095238095238096,-0.08095238095238096,-0.08095238095238096,-0.08095238095238096,-0.08095238095238096,-0.08095238095238096,-0.08095238095238096,-0.08095238095238096,-0.08095238095238096,-0.08095238095238096,-0.08095238095238096,-0.07142857142857142,-0.07142857142857142,-0.07142857142857142,-0.07142857142857142,-0.07142857142857142,-0.06190476190476191,-0.06190476190476191,-0.06190476190476191,-0.06190476190476191,-0.06190476190476191,-0.06190476190476191,-0.06190476190476191,-0.06190476190476191,-0.06190476190476191,-0.06190476190476191,-0.06190476190476191,-0.06190476190476191,-0.06190476190476191,-0.06190476190476191,-0.06190476190476191,-0.06190476190476191,-0.06190476190476191,-0.06190476190476191,-0.06190476190476191,-0.06190476190476191,-0.06190476190476191,-0.06190476190476191,-0.06190476190476191,-0.06190476190476191,-0.06190476190476191,-0.06190476190476191,-0.06190476190476191,-0.06190476190476191,-0.06190476190476191,-0.05238095238095238,-0.04285714285714286,-0.023809523809523808,-0.004761904761904762,-0.004761904761904762,0.004761904761904762,0.014285714285714285,0.014285714285714285,0.014285714285714285,0.014285714285714285,0.014285714285714285,0.014285714285714285,0.014285714285714285,0.014285714285714285,0.014285714285714285,0.014285714285714285,0.004761904761904762,0.004761904761904762,0.004761904761904762,0.004761904761904762,0.004761904761904762,0.004761904761904762,0.004761904761904762,0.004761904761904762,0.004761904761904762,0.004761904761904762,0.004761904761904762,0.004761904761904762,0.004761904761904762,0.004761904761904762,0.004761904761904762,0.004761904761904762,0.004761904761904762,0.004761904761904762,0.004761904761904762,0.004761904761904762,0.004761904761904762,0.004761904761904762,0.004761904761904762,0.004761904761904762,0.004761904761904762,0.004761904761904762,0.004761904761904762,0.004761904761904762,0.004761904761904762,0.004761904761904762,0.004761904761904762,0.004761904761904762,0.004761904761904762,0.004761904761904762,0.004761904761904762,0.004761904761904762,0.004761904761904762,0.004761904761904762,0.004761904761904762,0.004761904761904762,0.004761904761904762,0.004761904761904762,0.004761904761904762,0.004761904761904762,0.004761904761904762,0.004761904761904762,0.004761904761904762,0.004761904761904762,0.004761904761904762,0.004761904761904762,0.004761904761904762,0.004761904761904762,0.004761904761904762,0.004761904761904762,0.004761904761904762,0.004761904761904762,0.004761904761904762,0.004761904761904762,0.004761904761904762,0.004761904761904762,0.004761904761904762,0.004761904761904762,0.004761904761904762,0.004761904761904762,0.004761904761904762,0.004761904761904762,0.004761904761904762,0.004761904761904762,0.004761904761904762,0.004761904761904762,0.004761904761904762,0.004761904761904762,0.004761904761904762,0.004761904761904762,0.004761904761904762,0.004761904761904762,0.004761904761904762,0.004761904761904762,0.004761904761904762,0.004761904761904762,0.004761904761904762,0.004761904761904762,0.004761904761904762,0.004761904761904762,0.004761904761904762,0.004761904761904762,0.004761904761904762,0.004761904761904762,0.004761904761904762,0.004761904761904762,0.004761904761904762,0.004761904761904762,0.004761904761904762,0.004761904761904762,0.004761904761904762,0.004761904761904762,0.004761904761904762,0.004761904761904762,0.004761904761904762,0.004761904761904762,0.004761904761904762,0.004761904761904762,0.004761904761904762,0.004761904761904762,0.004761904761904762,0.004761904761904762,0.004761904761904762,0.004761904761904762,0.004761904761904762,0.004761904761904762,0.004761904761904762,0.004761904761904762,0.004761904761904762,0.004761904761904762,0.004761904761904762,0.004761904761904762,0.004761904761904762,0.004761904761904762,0.004761904761904762,0.004761904761904762,0.004761904761904762,0.004761904761904762,0.004761904761904762,0.004761904761904762,0.004761904761904762,0.004761904761904762,0.004761904761904762,0.004761904761904762,0.014285714285714285,0.014285714285714285,0.023809523809523808,0.03333333333333333,0.03333333333333333,0.04285714285714286,0.04285714285714286,0.04285714285714286,0.04285714285714286,0.04285714285714286,0.04285714285714286,0.04285714285714286,0.04285714285714286,0.04285714285714286,0.04285714285714286,0.04285714285714286,0.03333333333333333,0.023809523809523808,0.004761904761904762,-0.014285714285714285,-0.023809523809523808,-0.03333333333333333,-0.03333333333333333,-0.03333333333333333,-0.03333333333333333,-0.03333333333333333,-0.03333333333333333,-0.03333333333333333,-0.03333333333333333,-0.03333333333333333,-0.03333333333333333,-0.03333333333333333,-0.023809523809523808,-0.023809523809523808,-0.014285714285714285,-0.014285714285714285,-0.014285714285714285,-0.014285714285714285,-0.014285714285714285,-0.014285714285714285,-0.004761904761904762,-0.004761904761904762,-0.004761904761904762,-0.004761904761904762,-0.004761904761904762,-0.004761904761904762,-0.004761904761904762,-0.004761904761904762,-0.004761904761904762,-0.004761904761904762,-0.004761904761904762,-0.004761904761904762,-0.004761904761904762,-0.004761904761904762,-0.004761904761904762,-0.004761904761904762,-0.004761904761904762,-0.004761904761904762,-0.004761904761904762,-0.004761904761904762,-0.004761904761904762,-0.004761904761904762,-0.004761904761904762,-0.004761904761904762,-0.004761904761904762,-0.004761904761904762,-0.004761904761904762,-0.004761904761904762,-0.004761904761904762,-0.004761904761904762,-0.004761904761904762,-0.004761904761904762,-0.004761904761904762,-0.004761904761904762,-0.004761904761904762,-0.004761904761904762,-0.004761904761904762,-0.004761904761904762,-0.004761904761904762,-0.004761904761904762,-0.004761904761904762,-0.004761904761904762,-0.004761904761904762,-0.004761904761904762,-0.004761904761904762,-0.004761904761904762,-0.004761904761904762,-0.004761904761904762,-0.004761904761904762,-0.004761904761904762,-0.004761904761904762,-0.004761904761904762,-0.004761904761904762,-0.004761904761904762,-0.004761904761904762,-0.004761904761904762,-0.004761904761904762,-0.004761904761904762,-0.004761904761904762,-0.004761904761904762,-0.004761904761904762,-0.004761904761904762,-0.004761904761904762,-0.004761904761904762,-0.004761904761904762,-0.004761904761904762,-0.004761904761904762,-0.004761904761904762,-0.004761904761904762,-0.004761904761904762,-0.004761904761904762,-0.004761904761904762,-0.004761904761904762,-0.004761904761904762,-0.004761904761904762,-0.004761904761904762,-0.004761904761904762,-0.004761904761904762,-0.004761904761904762,-0.004761904761904762,-0.004761904761904762,-0.004761904761904762,-0.004761904761904762,-0.004761904761904762,-0.004761904761904762,-0.004761904761904762,-0.004761904761904762,-0.004761904761904762,-0.004761904761904762,-0.004761904761904762,-0.004761904761904762,-0.004761904761904762,-0.004761904761904762,-0.004761904761904762,-0.004761904761904762,-0.004761904761904762,-0.004761904761904762,-0.004761904761904762,-0.004761904761904762,-0.004761904761904762,-0.004761904761904762,-0.004761904761904762,-0.004761904761904762,-0.004761904761904762,-0.004761904761904762,-0.004761904761904762,-0.004761904761904762,-0.004761904761904762,-0.004761904761904762,-0.004761904761904762,-0.004761904761904762,-0.004761904761904762,-0.004761904761904762,-0.004761904761904762,-0.004761904761904762,-0.004761904761904762,-0.014285714285714285,-0.023809523809523808,-0.03333333333333333,-0.04285714285714286,-0.04285714285714286,-0.04285714285714286,-0.04285714285714286,-0.04285714285714286,-0.04285714285714286,-0.04285714285714286,-0.04285714285714286,-0.04285714285714286,-0.04285714285714286,-0.04285714285714286,-0.04285714285714286,-0.04285714285714286,-0.04285714285714286,-0.04285714285714286,-0.04285714285714286,-0.04285714285714286,-0.04285714285714286,-0.05238095238095238,-0.05238095238095238,-0.05238095238095238,-0.05238095238095238,-0.05238095238095238,-0.05238095238095238,-0.05238095238095238,-0.05238095238095238,-0.05238095238095238,-0.05238095238095238,-0.05238095238095238,-0.05238095238095238,-0.05238095238095238,-0.05238095238095238,-0.05238095238095238,-0.05238095238095238,-0.05238095238095238,-0.05238095238095238,-0.05238095238095238,-0.05238095238095238,-0.05238095238095238,-0.05238095238095238,-0.05238095238095238,-0.05238095238095238,-0.05238095238095238,-0.05238095238095238,-0.05238095238095238,-0.05238095238095238,-0.05238095238095238,-0.05238095238095238,-0.05238095238095238,-0.05238095238095238,-0.05238095238095238,-0.05238095238095238,-0.05238095238095238,-0.05238095238095238,-0.05238095238095238,-0.05238095238095238,-0.05238095238095238,-0.05238095238095238,-0.05238095238095238,-0.05238095238095238,-0.05238095238095238,-0.05238095238095238,-0.05238095238095238,-0.05238095238095238,-0.05238095238095238,-0.05238095238095238,-0.05238095238095238,-0.05238095238095238,-0.05238095238095238,-0.05238095238095238,-0.023809523809523808,0.04285714285714286,0.10952380952380952,0.19523809523809524,0.2619047619047619,0.32857142857142857,0.3952380952380952,0.44285714285714284,0.5,0.5476190476190477,0.5952380952380952,0.6333333333333333,0.6523809523809524,0.6714285714285714,0.680952380952381,0.680952380952381,0.7,0.7285714285714285,0.7571428571428571,0.7952380952380952,0.8238095238095238,0.8523809523809524,0.8809523809523809,0.8904761904761904,0.9,0.9095238095238095,0.9095238095238095,0.919047619047619,0.9285714285714286,0.9380952380952381,0.9476190476190476,0.9571428571428572,0.9666666666666667,0.9666666666666667,0.9666666666666667,0.9761904761904762,0.9761904761904762,0.9761904761904762,0.9761904761904762,0.9761904761904762,0.9761904761904762,0.9857142857142858,0.9857142857142858,0.9857142857142858,0.9857142857142858,0.9857142857142858,0.9857142857142858,0.9857142857142858,0.9857142857142858,0.9857142857142858,0.9857142857142858,0.9857142857142858,0.9857142857142858,0.9857142857142858,0.9857142857142858,0.9857142857142858,0.9857142857142858,0.9857142857142858,0.9857142857142858,0.9857142857142858,0.9857142857142858,0.9857142857142858,0.9857142857142858,0.9857142857142858,0.9857142857142858,0.9857142857142858,0.9857142857142858,0.9857142857142858,0.9857142857142858,0.9857142857142858,0.9857142857142858,0.9857142857142858,0.9857142857142858,0.9857142857142858,0.9857142857142858,0.9857142857142858,0.9857142857142858,0.9857142857142858,0.9857142857142858,0.9857142857142858,0.9857142857142858,0.9857142857142858,0.9857142857142858,0.9857142857142858,0.9857142857142858,0.9857142857142858,0.9857142857142858,0.9857142857142858,0.9857142857142858,0.9761904761904762,0.9761904761904762,0.9761904761904762,0.9761904761904762,0.9761904761904762,0.9761904761904762,0.9761904761904762,0.9761904761904762,0.9761904761904762,0.9761904761904762,0.9761904761904762,0.9666666666666667,0.9666666666666667,0.9666666666666667,0.9666666666666667,0.9666666666666667,0.9666666666666667,0.9666666666666667,0.9571428571428572,0.919047619047619,0.8714285714285714,0.8142857142857143,0.7285714285714285,0.6523809523809524,0.5857142857142857,0.5380952380952381,0.5190476190476191,0.5095238095238095,0.5095238095238095,0.5095238095238095,0.5095238095238095,0.5095238095238095,0.5095238095238095,0.5095238095238095,0.5095238095238095,0.5095238095238095,0.5095238095238095,0.5095238095238095,0.5095238095238095,0.5095238095238095,0.5095238095238095,0.5095238095238095,0.5095238095238095,0.5095238095238095,0.5095238095238095,0.5095238095238095,0.5095238095238095,0.5095238095238095,0.5095238095238095,0.5095238095238095,0.5095238095238095,0.5095238095238095,0.5095238095238095,0.48095238095238096,0.4238095238095238,0.3380952380952381,0.2619047619047619,0.21428571428571427,0.19523809523809524,0.1761904761904762,0.1761904761904762,0.1761904761904762,0.1761904761904762,0.1761904761904762,0.1761904761904762,0.1761904761904762,0.1761904761904762,0.1761904761904762,0.1761904761904762,0.16666666666666666,0.14761904761904762,0.12857142857142856,0.10952380952380952,0.09047619047619047,0.08095238095238096,0.04285714285714286,0.004761904761904762,-0.014285714285714285,-0.03333333333333333,-0.04285714285714286,-0.04285714285714286,-0.04285714285714286,-0.04285714285714286,-0.04285714285714286,-0.04285714285714286,-0.04285714285714286,-0.04285714285714286,-0.04285714285714286,-0.04285714285714286,-0.04285714285714286,-0.04285714285714286,-0.04285714285714286,-0.04285714285714286,-0.04285714285714286,-0.04285714285714286,-0.04285714285714286,-0.04285714285714286,-0.04285714285714286,-0.04285714285714286,-0.04285714285714286,-0.04285714285714286,-0.04285714285714286,-0.04285714285714286,-0.04285714285714286,-0.03333333333333333,-0.03333333333333333,-0.03333333333333333,-0.03333333333333333,-0.03333333333333333,-0.03333333333333333,-0.03333333333333333,-0.03333333333333333,-0.03333333333333333,-0.03333333333333333,-0.03333333333333333,-0.03333333333333333,-0.03333333333333333,-0.03333333333333333,-0.03333333333333333,-0.03333333333333333,-0.03333333333333333,-0.03333333333333333,-0.03333333333333333,-0.03333333333333333,-0.03333333333333333,-0.03333333333333333,-0.03333333333333333,-0.03333333333333333,-0.03333333333333333,-0.03333333333333333,-0.03333333333333333,-0.03333333333333333,-0.03333333333333333,-0.03333333333333333,-0.03333333333333333,-0.03333333333333333,-0.03333333333333333,-0.03333333333333333,-0.03333333333333333,-0.03333333333333333,-0.03333333333333333,-0.03333333333333333,-0.03333333333333333,-0.03333333333333333,-0.03333333333333333,-0.03333333333333333,-0.03333333333333333,-0.03333333333333333,-0.03333333333333333,-0.03333333333333333,-0.03333333333333333,-0.03333333333333333,-0.023809523809523808,-0.004761904761904762,-0.004761904761904762,-0.004761904761904762,-0.004761904761904762,-0.023809523809523808,-0.04285714285714286,-0.07142857142857142,-0.07142857142857142,-0.07142857142857142,-0.07142857142857142,-0.07142857142857142,-0.07142857142857142,-0.07142857142857142,-0.07142857142857142,-0.06190476190476191,-0.05238095238095238,-0.03333333333333333,-0.023809523809523808,-0.014285714285714285,0.004761904761904762,0.004761904761904762,0.004761904761904762,0.004761904761904762,0.004761904761904762,0.004761904761904762,0.004761904761904762,0.004761904761904762,0.004761904761904762,0.004761904761904762,0.004761904761904762,0.004761904761904762,0.004761904761904762,0.004761904761904762,0.004761904761904762,0.004761904761904762,0.004761904761904762,0.004761904761904762,0.004761904761904762,0.004761904761904762,0.004761904761904762,0.004761904761904762,0.004761904761904762,0.004761904761904762,0.004761904761904762,0.004761904761904762,0.004761904761904762,0.004761904761904762,0.004761904761904762,0.004761904761904762,0.004761904761904762,0.004761904761904762,0.004761904761904762,0.004761904761904762,0.004761904761904762,0.004761904761904762,0.004761904761904762,0.004761904761904762,0.004761904761904762,0.004761904761904762,0.004761904761904762,0.004761904761904762,0.004761904761904762,0.004761904761904762,0.004761904761904762,0.004761904761904762,-0.004761904761904762,-0.014285714285714285,-0.04285714285714286,-0.09047619047619047,-0.12857142857142856,-0.16666666666666666,-0.19523809523809524,-0.19523809523809524,-0.19523809523809524,-0.19523809523809524,-0.19523809523809524,-0.19523809523809524,-0.19523809523809524,-0.19523809523809524,-0.20476190476190476,-0.20476190476190476,-0.20476190476190476,-0.20476190476190476,-0.20476190476190476,-0.20476190476190476,-0.20476190476190476,-0.20476190476190476,-0.20476190476190476,-0.20476190476190476,-0.20476190476190476,-0.20476190476190476,-0.20476190476190476,-0.20476190476190476,-0.20476190476190476,-0.21428571428571427,-0.21428571428571427,-0.22380952380952382,-0.22380952380952382,-0.22380952380952382,-0.22380952380952382,-0.22380952380952382,-0.23333333333333334,-0.23333333333333334,-0.24285714285714285,-0.2714285714285714,-0.36666666666666664,-0.5,-0.6714285714285714,-0.8047619047619048,-0.9095238095238095,-0.9666666666666667,-0.9952380952380953,-1.0142857142857142,-1.0142857142857142,-1.0142857142857142,-1.0142857142857142,-1.0142857142857142,-1.0142857142857142,-1.0142857142857142,-1.0142857142857142,-1.0142857142857142,-1.0142857142857142,-1.0142857142857142,-1.0142857142857142,-1.0142857142857142,-1.0142857142857142,-1.0142857142857142,-1.0142857142857142,-1.0142857142857142,-1.0142857142857142,-1.0142857142857142,-1.0142857142857142,-1.0142857142857142,-1.0142857142857142,-1.0142857142857142,-1.0142857142857142,-1.0142857142857142,-1.0142857142857142,-0.9857142857142858,-0.9476190476190476,-0.9095238095238095,-0.861904761904762,-0.7952380952380952,-0.7,-0.48095238095238096,-0.3952380952380952,-0.3,-0.20476190476190476,-0.11904761904761904,-0.014285714285714285,0.08095238095238096,0.16666666666666666,0.20476190476190476,0.23333333333333334,0.2523809523809524,0.2714285714285714,0.2904761904761905,0.3,0.32857142857142857,0.3476190476190476,0.36666666666666664,0.3761904761904762,0.38571428571428573,0.38571428571428573,0.38571428571428573,0.38571428571428573,0.38571428571428573,0.38571428571428573,0.38571428571428573,0.38571428571428573,0.38571428571428573,0.38571428571428573,0.38571428571428573,0.38571428571428573,0.38571428571428573,0.38571428571428573,0.38571428571428573,0.38571428571428573,0.38571428571428573,0.38571428571428573,0.38571428571428573,0.38571428571428573,0.38571428571428573,0.38571428571428573,0.38571428571428573,0.38571428571428573,0.38571428571428573,0.38571428571428573,0.38571428571428573,0.38571428571428573,0.38571428571428573,0.38571428571428573,0.38571428571428573,0.38571428571428573,0.38571428571428573,0.38571428571428573,0.38571428571428573,0.38571428571428573,0.38571428571428573,0.38571428571428573,0.38571428571428573,0.38571428571428573,0.38571428571428573,0.38571428571428573,0.38571428571428573,0.38571428571428573,0.38571428571428573,0.38571428571428573,0.38571428571428573,0.38571428571428573,0.38571428571428573,0.38571428571428573,0.38571428571428573,0.38571428571428573,0.38571428571428573,0.38571428571428573,0.38571428571428573,0.38571428571428573,0.38571428571428573,0.38571428571428573,0.38571428571428573,0.38571428571428573,0.38571428571428573,0.38571428571428573,0.38571428571428573,0.38571428571428573,0.38571428571428573,0.38571428571428573,0.38571428571428573,0.38571428571428573,0.38571428571428573,0.38571428571428573,0.38571428571428573,0.38571428571428573,0.38571428571428573,0.38571428571428573,0.38571428571428573,0.38571428571428573,0.38571428571428573,0.38571428571428573,0.3761904761904762,0.3761904761904762,0.3761904761904762,0.3761904761904762,0.3761904761904762,0.36666666666666664,0.35714285714285715,0.35714285714285715,0.35714285714285715,0.35714285714285715,0.35714285714285715,0.35714285714285715,0.35714285714285715,0.3476190476190476,0.3476190476190476,0.3476190476190476,0.3476190476190476,0.3476190476190476,0.3476190476190476,0.3476190476190476,0.3476190476190476,0.3476190476190476,0.3476190476190476,0.3476190476190476,0.3476190476190476,0.3476190476190476,0.36666666666666664,0.40476190476190477,0.46190476190476193,0.5095238095238095,0.5476190476190477,0.5761904761904761,0.6333333333333333,0.6714285714285714,0.7,0.7,0.7,0.7,0.7,0.7,0.7,0.7,0.7,0.7,0.7,0.7,0.7285714285714285,0.8142857142857143,0.8904761904761904,0.9285714285714286,0.9380952380952381,0.9380952380952381,0.9666666666666667,0.9857142857142858,0.9952380952380953,0.9952380952380953,0.9952380952380953,0.9952380952380953,0.9952380952380953,0.9952380952380953,1.0047619047619047,1.0047619047619047,1.0047619047619047,1.0047619047619047,1.0047619047619047,1.0904761904761904,1.1476190476190475,1.1857142857142857,1.1952380952380952,1.1952380952380952,1.1952380952380952,1.1952380952380952,1.1761904761904762,1.1666666666666667,1.1571428571428573,1.1476190476190475,1.138095238095238,1.119047619047619,1.1095238095238096,1.0904761904761904,1.0809523809523809,1.0809523809523809,1.0714285714285714,1.0523809523809524,1.0523809523809524,1.0523809523809524,1.0523809523809524,1.0523809523809524,1.0523809523809524,1.0523809523809524,1.0523809523809524,1.0523809523809524,1.0523809523809524,1.0523809523809524,1.0523809523809524,1.0523809523809524,1.042857142857143,1.042857142857143,1.042857142857143,1.0333333333333334,1.0333333333333334,1.0333333333333334,1.0333333333333334,1.0333333333333334,1.0333333333333334,1.0333333333333334,1.0333333333333334,1.0333333333333334,1.0333333333333334,1.0333333333333334,1.0333333333333334,1.0333333333333334,1.0333333333333334,1.0333333333333334,1.0333333333333334,1.0333333333333334,1.0333333333333334,1.0333333333333334,1.0333333333333334,1.0333333333333334,1.0333333333333334,1.0333333333333334,1.0333333333333334,1.0333333333333334,1.0333333333333334,1.0333333333333334,1.0333333333333334,1.0333333333333334,1.0333333333333334,1.0333333333333334,1.0333333333333334,1.0142857142857142,0.9857142857142858,0.9380952380952381,0.8904761904761904,0.8523809523809524,0.8142857142857143,0.7571428571428571,0.7,0.6523809523809524,0.6142857142857143,0.5952380952380952,0.5666666666666667,0.5571428571428572,0.5285714285714286,0.5095238095238095,0.4714285714285714,0.43333333333333335,0.38571428571428573,0.32857142857142857,0.2714285714285714,0.20476190476190476,0.14761904761904762,0.10952380952380952,0.09047619047619047,0.06190476190476191,0.05238095238095238,0.023809523809523808,0.014285714285714285,-0.004761904761904762,-0.014285714285714285,-0.014285714285714285,-0.014285714285714285,-0.014285714285714285,-0.014285714285714285,-0.014285714285714285,-0.014285714285714285,-0.014285714285714285,-0.014285714285714285,-0.014285714285714285,-0.014285714285714285,-0.014285714285714285,-0.014285714285714285,-0.014285714285714285,-0.014285714285714285,-0.014285714285714285,-0.014285714285714285,-0.014285714285714285,-0.014285714285714285,-0.014285714285714285,-0.014285714285714285,-0.014285714285714285,0.004761904761904762,0.04285714285714286,0.07142857142857142,0.07142857142857142,-0.07142857142857142,-0.2523809523809524,-0.5,-0.6523809523809524,-0.6523809523809524,-0.6523809523809524,-0.6523809523809524,-0.6523809523809524,-0.6523809523809524,-0.6523809523809524,-0.6523809523809524,-0.6523809523809524,-0.6523809523809524,-0.6523809523809524,-0.6523809523809524,-0.6523809523809524,-0.6523809523809524,-0.6523809523809524,-0.6523809523809524,-0.6523809523809524,-0.6523809523809524,-0.6523809523809524,-0.6523809523809524,-0.6523809523809524,-0.6523809523809524,-0.6523809523809524,-0.6523809523809524,-0.6523809523809524,-0.6523809523809524,-0.6523809523809524,-0.6523809523809524,-0.6523809523809524,-0.6523809523809524,-0.6523809523809524,-0.6523809523809524,-0.6523809523809524,-0.6523809523809524,-0.6523809523809524,-0.6523809523809524,-0.6523809523809524,-0.6523809523809524,-0.6523809523809524,-0.6523809523809524,-0.6523809523809524,-0.6523809523809524,-0.6523809523809524,-0.6523809523809524,-0.6523809523809524,-0.6523809523809524,-0.6523809523809524,-0.6523809523809524,-0.6523809523809524,-0.6523809523809524,-0.6523809523809524,-0.6523809523809524,-0.6523809523809524,-0.6523809523809524,-0.6523809523809524,-0.6523809523809524,-0.6523809523809524,-0.6523809523809524,-0.6523809523809524,-0.6523809523809524,-0.6523809523809524,-0.6523809523809524,-0.6523809523809524,-0.6523809523809524,-0.6523809523809524,-0.6523809523809524,-0.6523809523809524,-0.6523809523809524,-0.6523809523809524,-0.6523809523809524,-0.6523809523809524,-0.6523809523809524,-0.6523809523809524,-0.6523809523809524,-0.6523809523809524,-0.6523809523809524,-0.6523809523809524,-0.6523809523809524,-0.6523809523809524,-0.6523809523809524,-0.6523809523809524,-0.6523809523809524,-0.6523809523809524,-0.6523809523809524,-0.6523809523809524,-0.6523809523809524,-0.6523809523809524,-0.6523809523809524,-0.6523809523809524,-0.6523809523809524,-0.6523809523809524,-0.6523809523809524,-0.6523809523809524,-0.6523809523809524,-0.6523809523809524,-0.6523809523809524,-0.6523809523809524,-0.6523809523809524,-0.6523809523809524,-0.6523809523809524,-0.6523809523809524,-0.6523809523809524,-0.6523809523809524,-0.6523809523809524,-0.6523809523809524,-0.6523809523809524,-0.6523809523809524]},"final_keyboard_state":["B","C","S","D","E","R","Z","A"],"num_clicks":8,"points":12,"cheat":false,"trial_type":"Hangman","trial_index":5,"time_elapsed":57347,"internal_node_id":"0.0-4.0","protocol_sum":"","subject_identifier":504,"subject_sum":[214,229,162,11,48,248,114,22,178,199,88,245,231,162,60,67,125,188,61,250,28,203,23,124,71,77,225,82,187,14,247,49],"subject_pair":252,"STUDY_ID":"66a3ed3c5d10d0e7d8a6b9da","PROLIFIC_PID":"6690315bfff7b15d27055428","SESSION_ID":"66a4140f59ac61947b9edd65","practice_instructions":1,"leaderboard_instructions":0,"bonus":0,"reveal_word":false,"self_rating":"2","confidence":"100"},{"view_history":"[{\"page_index\":0,\"viewing_time\":8629.5},{\"page_index\":1,\"viewing_time\":14569}]","rt":23198.80000001192,"trial_type":"instructions","trial_index":6,"time_elapsed":80546,"internal_node_id":"0.0-5.0","protocol_sum":"","subject_identifier":504,"subject_sum":[214,229,162,11,48,248,114,22,178,199,88,245,231,162,60,67,125,188,61,250,28,203,23,124,71,77,225,82,187,14,247,49],"subject_pair":252,"STUDY_ID":"66a3ed3c5d10d0e7d8a6b9da","PROLIFIC_PID":"6690315bfff7b15d27055428","SESSION_ID":"66a4140f59ac61947b9edd65","practice_instructions":1,"leaderboard_instructions":0,"bonus":0,"reveal_word":false,"self_rating":"2","confidence":"100"},{"rt":8675.29999999702,"responses":"{\"Q0\":\"...from <b>a previous session</b> that is not part of the upcoming tournament.\"}","question_order":"[0]","trial_type":"survey-multi-choice","trial_index":7,"time_elapsed":89223,"internal_node_id":"0.0-6.0","protocol_sum":"","subject_identifier":504,"subject_sum":[214,229,162,11,48,248,114,22,178,199,88,245,231,162,60,67,125,188,61,250,28,203,23,124,71,77,225,82,187,14,247,49],"subject_pair":252,"correct":true,"test_part":"multichoice_leaderboard","STUDY_ID":"66a3ed3c5d10d0e7d8a6b9da","PROLIFIC_PID":"6690315bfff7b15d27055428","SESSION_ID":"66a4140f59ac61947b9edd65","practice_instructions":1,"leaderboard_instructions":0,"bonus":0,"reveal_word":false,"self_rating":"2","confidence":"100"},{"view_history":"[{\"page_index\":0,\"viewing_time\":3776.199999988079}]","rt":3776.2999999970198,"trial_type":"instructions","trial_index":8,"time_elapsed":93000,"internal_node_id":"0.0-8.0","protocol_sum":"","subject_identifier":504,"subject_sum":[214,229,162,11,48,248,114,22,178,199,88,245,231,162,60,67,125,188,61,250,28,203,23,124,71,77,225,82,187,14,247,49],"subject_pair":252,"STUDY_ID":"66a3ed3c5d10d0e7d8a6b9da","PROLIFIC_PID":"6690315bfff7b15d27055428","SESSION_ID":"66a4140f59ac61947b9edd65","practice_instructions":1,"leaderboard_instructions":0,"bonus":0,"reveal_word":false,"self_rating":"2","confidence":"100"},{"rt":8981.800000011921,"responses":"{\"Q0\":\"...players' leaderboard position (in terms of <b>points</b>) in an <b>upcoming tournament.</b>\"}","question_order":"[0]","trial_type":"survey-multi-choice","trial_index":9,"time_elapsed":101982,"internal_node_id":"0.0-9.0","protocol_sum":"","subject_identifier":504,"subject_sum":[214,229,162,11,48,248,114,22,178,199,88,245,231,162,60,67,125,188,61,250,28,203,23,124,71,77,225,82,187,14,247,49],"subject_pair":252,"correct":true,"test_part":"multichoice_tournament","STUDY_ID":"66a3ed3c5d10d0e7d8a6b9da","PROLIFIC_PID":"6690315bfff7b15d27055428","SESSION_ID":"66a4140f59ac61947b9edd65","practice_instructions":1,"leaderboard_instructions":0,"bonus":0,"reveal_word":false,"self_rating":"2","confidence":"100"},{"view_history":"[{\"page_index\":0,\"viewing_time\":10161.09999999404}]","rt":10161.29999999702,"trial_type":"instructions","trial_index":10,"time_elapsed":112143,"internal_node_id":"0.0-11.0","protocol_sum":"","subject_identifier":504,"subject_sum":[214,229,162,11,48,248,114,22,178,199,88,245,231,162,60,67,125,188,61,250,28,203,23,124,71,77,225,82,187,14,247,49],"subject_pair":252,"STUDY_ID":"66a3ed3c5d10d0e7d8a6b9da","PROLIFIC_PID":"6690315bfff7b15d27055428","SESSION_ID":"66a4140f59ac61947b9edd65","practice_instructions":1,"leaderboard_instructions":0,"bonus":0,"reveal_word":false,"self_rating":"2","confidence":"100"},{"view_history":"[{\"page_index\":0,\"viewing_time\":6199.4000000059605}]","rt":6199.70000000298,"trial_type":"instructions","trial_index":11,"time_elapsed":118344,"internal_node_id":"0.0-12.0-0.0","protocol_sum":"","subject_identifier":504,"subject_sum":[214,229,162,11,48,248,114,22,178,199,88,245,231,162,60,67,125,188,61,250,28,203,23,124,71,77,225,82,187,14,247,49],"subject_pair":252,"STUDY_ID":"66a3ed3c5d10d0e7d8a6b9da","PROLIFIC_PID":"6690315bfff7b15d27055428","SESSION_ID":"66a4140f59ac61947b9edd65","practice_instructions":1,"leaderboard_instructions":0,"bonus":0,"reveal_word":false,"self_rating":"2","confidence":"100"},{"word":"SHAKIRA","click_log":{"letter":["","A","J","S","T","K","B","C","L","U","V","M","D","E","N","W","X","O","F","G","P","Y","Z","Q","H","I","R"],"t":[0,2893.4000000059605,3676.5999999940395,4059.9000000059605,4526.5999999940395,4859.9000000059605,5226.5999999940395,5659.9000000059605,6026.70000000298,6426.5999999940395,6860.0999999940395,7210,7593.29999999702,8109.9000000059605,8493.5,8860.09999999404,9743.5,10126.70000000298,10493.40000000596,11193.40000000596,11626.70000000298,12043.29999999702,12493.29999999702,12860.09999999404,13276.70000000298,13860.20000000298,15143.40000000596],"hit":[null,2,0,1,0,1,0,0,0,0,0,0,0,0,0,0,0,0,0,0,0,0,0,0,1,1,1],"asked":["","A","AJ","AJS","AJST","AJSTK","AJSTKB","AJSTKBC","AJSTKBCL","AJSTKBCLU","AJSTKBCLUV","AJSTKBCLUVM","AJSTKBCLUVMD","AJSTKBCLUVMDE","AJSTKBCLUVMDEN","AJSTKBCLUVMDENW","AJSTKBCLUVMDENWX","AJSTKBCLUVMDENWXO","AJSTKBCLUVMDENWXOF","AJSTKBCLUVMDENWXOFG","AJSTKBCLUVMDENWXOFGP","AJSTKBCLUVMDENWXOFGPY","AJSTKBCLUVMDENWXOFGPYZ","AJSTKBCLUVMDENWXOFGPYZQ","AJSTKBCLUVMDENWXOFGPYZQH","AJSTKBCLUVMDENWXOFGPYZQHI","AJSTKBCLUVMDENWXOFGPYZQHIR"],"word_state":["_______","__A___A","__A___A","S_A___A","S_A___A","S_AK__A","S_AK__A","S_AK__A","S_AK__A","S_AK__A","S_AK__A","S_AK__A","S_AK__A","S_AK__A","S_AK__A","S_AK__A","S_AK__A","S_AK__A","S_AK__A","S_AK__A","S_AK__A","S_AK__A","S_AK__A","S_AK__A","SHAK__A","SHAKI_A","SHAKIRA"]},"hover_log":{"letter":["?","?","?","?","?","?","?","?","?","?","?","?","?","?","?","?","?","?","?","?","?","?","?","?","?","?","?","?","?","?","?","?","?","?","?","?","?","?","?","?","?","?","?","?","?","?","?","?","?","?","?","?","?","?","?","?","?","?","?","?","?","?","?","?","?","?","?","?","?","?","?","?","?","?","?","?","?","?","?","?","?","?","?","?","?","?","?","?","?","?","?","?","?","?","?","?","?","?","?","?","?","?","?","?","?","?","?","?","?","?","?","?","?","?","?","?","?","?","?","?","?","?","?","?","?","?","?","?","?","?","?","?","?","?","?","?","?","?","?","?","?","?","?","?","?","?","?","?","?","?","?","?","?","?","?","?","?","?","?","?","?","?","?","?","?","?","?","?","?","?","?","?","?","?","?","?","?","?","?","?","?","?","?","?","?","?","?","?","?","?","?","?","?","?","?","?","?","?","?","?","?","?","?","?","?","?","?","?","?","?","?","?","?","?","?","?","?","?","?","?","?","?","?","?","?","?","?","?","?","?","?","?","?","?","?","?","?","?","?","?","?","?","?","?","?","?","?","?","?","?","?","?","?","?","?","?","?","?","?","?","?","?","?","?","?","?","?","?","?","?","?","?","?","?","?","?","?","?","?","?","?","?","?","?","?","?","?","?","?","?","?","?","?","?","?","?","?","?","?","?","?","?","?","?","?","?","?","?","?","?","?","?","?","?","?","?","?","?","?","?","?","?","?","?","?","?","?","?","?","?","?","?","?","?","?","?","?","?","?","?","?","?","?","?","?","?","?","?","?","?","?","?","?","?","?","?","?","?","?","?","?","?","?","?","?","?","?","?","?","?","?","?","?","?","?","?","?","?","?","?","?","?","?","?","?","?","?","?","?","?","?","?","?","?","?","?","?","?","?","?","?","?","?","?","?","?","?","?","?","?","?","?","?","?","?","?","?","?","?","?","?","?","?","?","?","?","?","?","?","?","?","?","?","?","?","?","?","?","?","?","?","?","?","?","?","?","?","?","?","?","?","?","?","?","?","?","?","?","?","?","?","?","?","?","?","?","?","?","?","?","?","?","?","?","?","?","?","?","?","?","?","?","?","?","?","?","?","?","?","?","?","?","?","?","?","?","?","?","?","?","?","?","?","?","?","?","?","?","?","?","?","?","?","?","?","?","?","?","?","?","?","?","?","?","?","?","?","?","?","?","?","?","?","?","?","?","?","?","?","?","?","?","?","?","?","?","?","?","?","?","?","?","?","?","?","?","?","?","?","?","?","?","?","?","?","?","?","?","?","?","?","?","?","?","?","?","?","?","?","?","?","?","?","?","?","?","?","?","?","?","?","?","?","?","?","?","?","?","?","?","?","?","?","?","?","?","?","?","?","?","?","?","?","?","?","?","?","?","?","?","?","?","?","?","?","?","?","?","?","?","?","?","?","?","?","?","?","?","?","?","?","?","?","?","?","?","?","?","?","?","?","?","?","?","?","?","?","?","?","?","?","?","?","?","?","?","?","?","?","?","?","?","?","?","?","?","?","?","?","?","?","?","?","?","?","?","?","?","?","?","?","?","?","?","?","?","?","?","?","?","?","?","?","?","?","?","?","?","?","?","?","?","?","?","?","?","?","?","?","?","?","?","?","?","?","?","?","?","?","?","?","?","?","?","?","?","?","?","?","?","?","?","?","?","?","?","?","?","?","?","?","?","?","?","?","?","?","?","?","?","?","?","?","?","?","?","?","?","?","?","?","?","?","?","?","?","?","?","?","?","?","?","?","?","?","?","?","?","?","?","?","?","?","?","?","?","?","?","?","?","?","?","?","?","?","?","?","?","?","?","?","?","?","?","?","?","?","?","?","?","?","?","?","?","?","?","?","?","?","?","?","?","?","?","?","?","?","?","?","?","?","?","?","?","?","?","?","?","?","?","?","?","?","?","?","?","?","?","?","?","?","?","?","?","?","?","?","?","?","?","?","?","?","?","?","?","?","?","?","?","?","?","?","?","?","?","?","?","?","?","?","?","?","?","?","?","?","?","?","?","?","?","?","?","?","?","?","?","?","?","?","?","?","?","?","?","?","?","?","?","?","?","?","?","?","?","?","?","?","?","?","?","?","?","?","?","?","?","?","?","?","?","?","?","?","?","?","?","?","?","?","?","?","?","?","?","?","?","?","?","?","?","?","?","?","?","?","?","?","?","?","?","?","?","?","?","?","?","?","?","?","?","?","?","?","?","?","?","?","?","?","?","?","?","?","?","?","?","?","?","?","?","?","?","?","?","?","?","?","?","?","?","?","?","?","?","?","?","?","?","?","?","?","?","?","?","?","?","?","?","?","?","?","?","?","?","?","?","?","?","?","?","?","?","?","?","?","?","?","?","?","?","?","?","?","?","?","?","?","?","?","?","?","?","?","?","?","?","?","?","?","?","?","?","?","?","?","?","?","?","?","?","?","?","?","?","?","?","?","?","?","?","?","?","?","?","?","?","?","?","?","?","?","?","?","?","?","?","?","?","?","?","?","?","?","?","?","?","?","?","?","?","?","?","?","?","?","?","?","?","?","?","?","?","?","?","?","?","?","?","?","?","?","?","?","?","?","?","?","?","?","?","?","?","?","?","?","?","?","?","?","?","?","?","?","?","?","?","?","?","?","?","?","?","?","?","?","?","?","?","?","?","?","?","?","?","?","?","?","?","?","?","?","?","?","?","?","?","?","?","?","?","?","?","?","?","?","?","?","?","?","?","?","?","?","?","?","?","?","?","?","?","?","?","?","?","?","?","?","?","?","?","?","?","?","?","?","?","?","?","?","?","?","?","?","?","?","?","?","?","?","?","?","?","?","?","?","?","?","?","?","?","?","?","?","?","?","?","?","?","?","?","?","?","?","?","?","?","?","?","?","?","?","?","?","?","?","?","?","?","?","?","?","?","?","?","?","?","?","?","?","?","?","?","?","?","?","?","?","?","?","?","?","?","?","?","?","?","?","?","?","?","?","?","?","?","?","?","?","?","?","?","?","?","?","?","?","?","?","?","?","?","?","?","?","?","?","?","?","?","?","?","?","?","?","?","?","?","?","?","?","?","?","?","?","?","?","?","?","?","?","?","?","?","?","?","?","?","?","?","?","?","?","?","?","?","?","?","?","?","?","?","?","?","?","?","?","?","?","?","?","?","?","?","?","?","?","?","?","?","?","?","?","?","?","?","?","?","?","?","?","?","?","?","?","?","?","?","?","?","?","?","?","?","?","?","?","?","?","?","?","?","?","?","?","?","?","?","?","?","?","?","?","?","?","?","?","?","?","?","?","?","?","?","?","?","?","?","?","?","?","?","?","?","?","?","?","?","?","?","?","?","?","?","?","?","?","?","?","?","?","?","?","?","?","?","?","?","?","?","?","?","?","?","?","?","?","?","?","?","?","?","?","?","?","?","?","?","?","?","?","?","?","?","?","?","?","?","?","?","?","?","?","?","?","?","?","?","?","?","?","?","?","?","?","?","?","?","?","?","?","?","?","?","?","?","?","?","?","?","?","?","?","?","?","?","?","?","?","?","?","?","?","?","?","?","?","?","?","?","?","?","?","?","?","?","?","?","?","?","?","?","?","?","?","?","?","?","?","?","?","?","?","?","?","?","?","?","?","?","?","?","?","?","?","?","?","?","?","?","?","?","?","?","?","?","?","?","?","?","?","?","?","?","?","?","?","?","?","?","?","?","?","?","?","?","?","?","?","?","?","?","?","?","?","?","?","?","?","?","?","?","?","?","?","?","?","?","?","?","?","?","?","?","?","?","?","?","?","?","?","?","?","?","?","?","?","?","?","?","?","?","?","?","?","?","?","?","?","?","?","?","?","?","?","?","?","?","?","?","?","?","?","?","?","?","?","?","?","?","?","?","?","?","?","?","?","?","?","?","?","?","?","?","?","?","?","?","?","?","?","?","?","?","?","?","?","?","?","?","?","?","?","?","?","?","?","?","?","?","?","?","?","?","?","?","?","?","?","?","?","?","?","?","?","?","?","?","?","?","?","?","?","?","?","?","?","?","?","?","?","?","?","?","?","?","?","?","?","?","?","?","?","?","?","?","?","?","?","?","?","?","?","?","?","?","?","?","?","?","?","?","?","?","?","?","?","?","?","?","?","?","?","?","?","?","?","?","?","?","?","?","?","?","?","?","?","?","?","?","?","?","?","?","?","?","?","?","?","?","?","?","?","?","?","?","?","?","?","?","?","?","?","?","?","?","?","?","?","?","?","?","?","?","?","?","?","?","?","?","?","?","?","?","?","?","?","?","?","?","?","?","?","?","?","?","?","?","?","?","?","?","?","?","?","?","?","?","?","?","?","?","?","?","?","?","?","?","?","?","?","?","?","?","?","?","?","?","?","?","?","?","?","?","?","?","?","?","?","?","?","?","?","?","?","?","?","?","?","?","?","?","?","?","?","?","?","?","?","?","?","?","?","?","?","?","?","?","?","?","?","?","?","?","?","?","?","?","?","?","?","?","?","?","?","?","?","?","?","?","?","?","?","?","?","?","?","?","?","?","?","?","?","?","?","?","?","?","?","?","?","?","?","?","?","?","?","?","?","?","?","?","?","?","?","?","?","?","?","?","?","?","?","?","?","?","?","?","?","?","?","?","?","?","?","?","?","?","?","?","?","?","?","?","?","?","?","?","?","?","?","?","?","?","?","?","?","?","?","?","?","?","?","?","?","?","?","?","?","?","?","?","?","?","?","?","?","?","?","?","?","?","?","?","?","?","?","?","?","?","?","?","?","?","?","?","?","?","?","?","?","?","?","?","?","?","?","?","?","?","?","?","?","?","?","?","?","?","?","?","?","?","?","?","?","?","?","?","?","?","?","?","?","?","?","?","?","?","?","?","?","?","?","?","?","?","?","?","?","?","?","?","?","?","?","?","?","?","?","?","?","?","?","?","?","?","?","?","?","?","?","?","?","?","?","?","?","?","?","?","?","?","?","?","?","?","?","?","?","?","?","?","?","?","?","?","?","?","?","?","?","?","?","?","?","?","?","?","?","?","?","?","?","?","?","?","?","?","?","?","?","?","?","?","?","?","?","?","?","?","?","?","?","?","?","?","?","?","?","?","?","?","?","?","?","?","?","?","?","?","?","?","?","?","?","?","?","?","?","?","?","?","?","?","?","?","?","?","?","?","?","?","?","?","?","?","?","?","?","?","?","?","?","?","?","?","?","?","?","?","?","?","?","?","?","?","?","?","?","?","?","?","?","?","?","?","?","?","?","?","?","?","?","?","?","?","?","?","?","?","?","?","?","?","?","?","?","?","?","?","?","?","?","?","?","?","?","?","?","?","?","?","?","?","?","?","?","?","?","?","?","?","?","?","?","?","?","?","?","?","?","?","?","?","?","?","?","?","?","?","?","?","?","?","?","?","?","?","?","?","?","?","?","?","?","?","?","?","?","?","?","?","?","?","?","?","?","?","?","?","?","?","?","?","?","?","?","?","?","?","?","?","?","?","?","?","?","?","?","?","?","?","?","?","?","?","?","?","?","?","?","?","?","?","?","?","?","?","?","?","?","?","?","?","?","?","?","?","?","?","?","?","?","?","?","?","?","?","?","?","?","?","?","?","?","?","?","?","?","?","?","?","?","?","?","?","?","?","?","?","?","?","?","?","?","?","?","?","?","?","?","?","?","?","?","?","?","?","?","?","?","?","?","?","?","?","?","?","?","?","?","?","?","?","?","?","?","?","?","?","?","?","?","?","?","?","?","?","?","?","?","?","?","?","?","?","?","?","?","?","?","?","?","?","?","?","?","?","?","?","?","?","?","?","?","?","?","?","?","?","?","?","?","?","?","?","?","?","?","?","?","?","?","?","?","?","?","?","?","?","?","?","?","?","?","?","?","?","?","?","?","?","?","?","?","?","?","?","?","?","?","?","?","?","?","?","?","?","?","?","?","?","?","?","?","?","?","?","?","?","?","?","?","?","?","?","?","?","?","?","?","?","?","?","?","?","?","?","?","?","?","?","?","?","?","?","?","?","?","?","?","?","?","?","?","?","?","?","?","?","?","?","?","?","?","?","?","?","?","?","?","?","?","?","?","?","?","?","?","?","?","?","?","?","?","?","?","?","?","?","?","?","?","?","?","?","?","?","?","?","?","?","?","?","?","?","?","?","?","?","?","?","?","?","?","?","?","?","?","?","?","?","?","?","?","?","?","?","?","?","?","?","?","?","?","?","?","?","?","?","?","?","?","?","?","?","?","?","?","?","?","?","?","?","?","?","?","?","?","?","?","?","?","?","?","?","?","?","?","?","?","?","?","?","?","?","?","?","?","?","?","?","?","?","?","?","?","?","?","?","?","?","?","?","?","?","?","?","?","?","?","?","?","?","?","?","?","?","?","?","?","?","?","?","?","?","?","?","?","?","?","?","?","?","?","?","?","?","?","?","?","?","?","?","?","?","?","?","?","?","?","?","?","?","?","?","?","?","?","?","?","?","?","?","?","?","?","?","?","?","?","?","?","?","?","?","?","?","?","?","?","?","?","?","?","?","?","?","?","?","?","?","?","?","?","?","?","?","?","?","?","?","?","?","?","?","?","?","?","?","?","?","?","?","?","?","?","?","?","?","?","?","?","?","?","?","?","?","?","?","?","?","?","?","?","?","?","?","?","?","?","?","?","?","?","?","?","?","?","?","?","?","?","?","?","?","?","?","?","?","?","?","?","?","?","?","?","?","?","?","?","?","?","?","?","?","?","?","?","?","?","?","?","?","?","?","?","?","?","?","?","?","?","?","?","?","?","?","?","?","?","?","?","?","?","?","?","?","?","?","?","?","?","?","?","?","?","?","?","?","?","?","?","?","?","?","?","?","?","?","?","?","?","?","?","?","?","?","?","?","?","?","?","?","?","?","?","?","?","?","?","?","?","?","?","?","?","?","?","?","?","?","?","?","?","?","?","?","?","?","?","?","?","?","?","?","?","?","?","?","?","?","?","?","?","?","?","?","?","?","?","?","?","?","?","?","?","?","?","?","?","?","?","?","?","?","?","?","?","?","?","?","?","?","?","?","?","?","?","?","?","?","?","?","?","?","?","?","?","?","?","?","?","?","?","?","?","?","?","?","?","?","?","?","?","?","?","?","?","?","?","?","?","?","?","?","?","?","?","?","?","?","?","?","?","?","?","?","?","?","?","?","?","?","?","?","?","?","?","?","?","?","?","?","?","?","?","?","?","?","?","?","?","?","?","?","?","?","?","?","?","?","?","?","?","?","?","?","?","?","?","?","?","?","?","?","?","?","?","?","?","?","?","?","?","?","?","?","?","?","?","?","?","?","?","?","?","?","?","?","?","?","?","?","?","?","?","?","?","?","?","?","?","?","?","?","?","?","?","?","?","?","?","?","?","?","?","?","?","?","?","?","?","?","?","?","?","?","?","?","?","?","?","?","?","?","?","?","?","?","?","?","?","?","?","?","?","?","?","?","?","?","?","?","?","?","?","?","?","?","?","?","?","?","?","?","?","?","?","?","?","?","?","?","?","?","?","?","?","?","?","?","?","?","?","?","?","?","?","?","?","?","?","?","?","?","?","?","?","?","?","?","?","?","?","?","?","?","?","?","?","?","?","?","?","?","?","?","?","?","?","?","?","?","?","?","?","?","?","?","?","?","?","?","?","?","?","?","?","?","?","?","?","?","?","?","?","?","?","?","?","?","?","?","?","?","?","?","?","?","?","?","?","?","?","?","?","?","?","?","?","?","?","?","?","?","?","?","?","?","?","?","?","?","?","?","?","?","?","?","?","?","?","?","?","?","?","?","?","?","?","?","?","?","?","?","?","?","?","?","?","?","?","?","?","?","?","?","?","?","?","?","?","?","?","?","?","?","?","?","?","?","?","?","?","?","?","?","?","?","?","?","?","?","?","?","?","?","?","?","?","?","?","?","?","?","?","?","?","?","?","?","?","?","?","?","?","?","?","?","?","?","?","?","?","?","?","?","?","?","?","?","?","?","?","?","?","?","?","?","?","?","?","?","?","?","?","?","?","?","?","?","?","?","?","?","?","?","?","?","?","?","?","?","?","?","?","?","?","?","?","?","?","?","?","?","?","?","?","?","?","?","?","?","?","?","?","?","?","?","?","?","?","?","?","?","?","?","?","?","?","?","?","?","?","?","?","?","?","?","?","?","?","?","?","?","?","?","?","?","?","?","?","?","?","?","?","?","?","?","?","?","?","?","?","?","?","?","?","?","?","?","?","?","?","?","?","?","?","?","?","?","?","?","?","?","?","?","?","?","?","?","?","?","?","?","?","?","?","?","?","?","?","?","?","?","?","?","?","?","?","?","?","?","?","?","?","?","?","?","?","?","?","?","?","?","?","?","?","?","?","?","?","?","?","?","?","?","?","?","?","?","?","?","?","?","?","?","?","?","?","?","?","?","?","?","?","?","?","?","?","?","?","?","?","?","?","?","?","?","?","?","?","?","?","?","?","?","?","?","?","?","?","?","?","?","?","?","?","?","?","?","?","?","?","?","?","?","?","?","?","?","?","?","?","?","?","?","?","?","?","?","?","?","?","?","?","?","?","?","?","?","?","?","?","?","?","?","?","?","?","?","?","?","?","?","?","?","?","?","?","?","?","?","?","?","?","?","?","?","?","?","?","?","?","?","?","?","?","?","?","?","?","?","?","?","?","?","?","?","?","?","?","?","?","?","?","?","?","?","?","?","?","?","?","?","?","?","?","?","?","?","?","?","?","?","?","?","?","?","?","?","?","?","?","?","?","?","?","?","?","?","?","?","?","?","?","?","?","?","?","?","?","?","?","?","?","?","?","?","?","?","?","?","?","?","?","?","?","?","?","?","?","?","?","?","?","?","?","?","?","?","?","?","?","?","?","?","?","?","?","?","?","?","?","?","?","?","?","?","?","?","?","?","?","?","?","?","?","?","?","?","?","?","?","?","?","?","?","?","?","?","?","?","?","?","?","?","?","?","?","?","?","?","?","?","?","?","?","?","?","?","?","?","?","?","?","?","?","?","?","?","?","?","?","?","?","?","?","?","?","?","?","?","?","?","?","?","?","?","?","?","?","?","?","?","?","?","?","?","?","?","?","?","?","?","?","?","?","?","?","?","?","?","?","?","?","?","?","?","?","?","?","?","?","?","?","?","?","?","?","?","?","?","?","?","?","?","?","?","?","?","?","?","?","?","?","?","?","?","?","?","?","?","?","?","?","?","?","?","?","?","?","?","?","?","?","?","?","?","?","?","?","?","?","?","?","?","?","?","?","?","?","?","?","?","?","?","?","?","?","?","?","?","?","?","?","?","?","?","?","?","?","?","?","?","?","?","?","?","?","?","?","?","?","?","?","?","?","?","?","?","?","?","?","?","?","?","?","?","?","?","?","?","?","?","?","?","?","?","?","?","?","?","?","?","?","?","?","?","?","?","?","?","?","?","?","?","?","?","?","?","?","?","?","?","?","?","?","?","?","?","?","?","?","?","?","?","?","?","?","?","?","?","?","?","?","?","?","?","?","?","?","?","?","?","?","?","?","?","?","?","?","?","?","?","?","?","?","?","?","?","?","?","?","?","?","?","?","?","?","?","?","?","?","?","?","?","?","?","?","?","?","?","?","?","?","?","?","?","?","?","?","?","?","?","?","?","?","?","?","?","?","?","?","?","?","?","?","?","?","?","?","?","?","?","?","?","?","?","?","?","?","?","?","?","?","?","?","?","?","?","?","?","?","?","?","?","?","?","?","?","?","?","?","?","?","?","?","?","?","?","?","?","?","?","?","?","?","?","?","?","?","?","?","?","?","?","?","?","?","?","?","?","?","?","?","?","?","?","?","?","?","?","?","?","?","?","?","?","?","?","?","?","?","?","?","?","?","?","?","?","?","?","?","?","?","?","?","?","?","?","?","?","?","?","?","?","?","?","?","?","?","?","?","?","?","?","?","?","?","?","?","?","?","?","?","?","?","?","?","?","?","?","?","?","?","?","?","?","?","?","?","?","?","?","?","?","?","?","?","?","?","?","?","?","?","?","?","?","?","?","?","?","?","?","?","?","?","?","?","?","?","?","?","?","?","?","?","?","?","?","?","?","?","?","?","?","?","?","?","?","?","?","?","?","?","?","?","?","?","?","?","?","?","?","?","?","?","?","?","?","?","?","?","?","?","?","?","?","?","?","?","?","?","?","?","?","?","?","?","?","?","?","?","?","?","?","?","?","?","?","?","?","?","?","?","?","?","?","?","?","?","?","?","?","?","?","?","?","?","?","?","?","?","?","?","?","?","?","?","?","?","?","?","?","?","?","?","?","?","?","?","?","?","?","?","?","?","?","?","?","?","?","?","?","?","?","?","?","?","?","?","?","?","?","?","?","?","?","?","?","?","?","?","?","?","?","?","?","?","?","?","?","?","?","?","?","?","?","?","?","?","?","?","?","?","?","?","?","?","?","?","?","?","?","?","?","?","?","?","?","?","?","?","?","?","?","?","?","?","?","?","?","?","?","?","?","?","?","?","?","?","?","?","?","?","?","?","?","?","?","?","?","?","?","?","?","?","?","?","?","?","?","?","?","?","?","?","?","?","?","?","?","?","?","?","?","?","?","?","?","?","?","?","?","?","?","?","?","?","?","?","?","?","?","?","?","?","?","?","?","?","?","?","?","?","?","?","?","?","?","?","?","?","?","?","?","?","?","?","?","?","?","?","?","?","?","?","?","?","?","?","?","?","?","?","?","?","?","?","?","?","?","?","?","?","?","?","?","?","?","?","?","?","?","?","?","?","?","?","?","?","?","?","?","?","?","?","?","?","?","?","?","?","?","?","?","?","?","?","?","?","?","?","?","?","?","?","?","?","?","?","?","?","?","?","?","?","?","?","?","?","?","?","?","?","?","?","?","?","?","?","?","?","?","?","?","?","?","?","?","?","?","?","?","?","?","?","?","?","?","?","?","?","?","?","?","?","?","?","?","?","?","?","?","?","?","?","?","?","?","?","?","?","?","?","?","?","?","?","?","?","?","?","?","?","?","?","?","?","?","?","?","?","?","?","?","?","?","?","?","?","?","?","?","?","?","?","?","?","?","?","?","?","?","?","?","?","?","?","?","?","?","?","?","?","?","?","?","?","?","?","?","?","?","?","?","?","?","?","?","?","?","?","?","?","?","?","?","?","?","?","?","?","?","?","?","?","?","?","?","?","?","?","?","?","?","?","?","?","?","?","?","?","?","?","?","?","?","?","?","?","?","?","?","?","?","?","?","?","?","?","?","?","?","?","?","?","?","?","?","?","?","?","?","?","?","?","?","?","?","?","?","?","?","?","?","?","?","?","?","?","?","?","?","?","?","?","?","?","?","?","?","?","?","?","?","?","?","?","?","?","?","?","?","?","?","?","?","?","?","?","?","?","?","?","?","?","?","?","?","?","?","?","?","?","?","?","?","?","?","?","?","?","?","?","?","?","?","?","?","?","?","?","?","?","?","?","?","?","?","?","?","?","?","?","?","?","?","?","?","?","?","?","?","?","?","?","?","?","?","?","?","?","?","?","?","?","?","?","?","?","?","?","?","?","?","?","?","?","?","?","?","?","?","?","?","?","?","?","?","?","?","?","?","?","?","?","?","?","?","?","?","?","?","?","?","?","?","?","?","?","?","?","?","?","?","?","?","?","?","?","?","?","?","?","?","?","?","?","?","?","?","?","?","?","?","?","?","?","?","?","?","?","?","?","?","?","?","?","?","?","?","?","?","?","?","?","?","?","?","?","?","?","?","?","?","?","?","?","?","?","?","?","?","?","?","?","?","?","?","?","?","?","?","?","?","?","?","?","?","?","?","?","?","?","?","?","?","?","?","?","?","?","?","?","?","?","?","?","?","?","?","?","?","?","?","?","?","?","?","?","?","?","?","?","?","?","?","?","?","?","?","?","?","?","?","?","?","?","?","?","?","?","?","?","?","?","?","?","?","?","?","?","?","?","?","?","?","?","?","?","?","?","?","?","?","?","?","?","?","?","?","?","?","?","?","?","?","?","?","?","?","?","?","?","?","?","?","?","?","?","?","?","?","?","?","?","?","?","?","?","?","?","?","?","?","?","?","?","?","?","?","?","?","?","?","?","?","?","?","?","?","?","?","?","?","?","?","?","?","?","?","?","?","?","?","?","?","?","?","?","?","?","?","?","?","?","?","?","?","?","?","?","?","?","?","?","?","?","?","?","?","?","?","?","?","?","?","?","?","?","?","?","?","?","?","?","?","?","?","?","?","?","?","?","?","?","?","?","?","?","?","?","?","?","?","?","?","?","?","?","?","?","?","?","?","?","?","?","?","?","?","?","?","?","?","?","?","?","?","?","?","?","?","?","?","?","?","?","?","?","?","?","?","?","?","?","?","?","?","?","?","?","?","?","?","?","?","?","?","?","?","?","?","?","?","?","?","?","?","?","?","?","?","?","?","?","?","?","?","?","?","?","?","?","?","?","?","?","?","?","?","?","?","?","?","?","?","?","?","?","?","?","?","?","?","?","?","?","?","?","?","?","?","?","?","?","?","?","?","?","?","?","?","?","?","?","?","?","?","?","?","?","?","?","?","?","?","?","?","?","?","?","?","?","?","?","?","?","?","?","?","?","?","?","?","?","?","?","?","?","?","?","?","?","?","?","?","?","?","?","?","?","?","?","?","?","?","?","?","?","?","?","?","?","?","?","?","?","?","?","?","?","?","?","?","?","?","?","?","?","?","?","?","?","?","?","?","?","?","?","?","?","?","?","?","?","?","?","?","?","?","?","?","?","?","?","?","?","?","?","?","?","?","?","?","?","?","?","?","?","?","?","?","?","?","?","?","?","?","?","?","?","?","?","?","?","?","?","?","?","?","?","?","?","?","?","?","?","?","?","?","?","?","?","?","?","?","?","?","?","?","?","?","?","?","?","?","?","?","?","?","?","?","?","?","?","?","?","?","?","?","?","?","?","?","?","?","?","?","?","?","?","?","?","?","?","?","?","?","?","?","?","?","?","?","?","?","?","?","?","?","?","?","?","?","?","?","?","?","?","?","?","?","?","?","?","?","?","?","?","?","?","?","?","?","?","?","?","?","?","?","?","?","?","?","?","?","?","?","?","?","?","?","?","?","?","?","?","?","?","?","?","?","?","?","?","?","?","?","?","?","?","?","?","?","?","?","?","?","?","?","?","?","?","?","?","?","?","?","?","?","?","?","?","?","?","?","?","?","?","?","?","?","?","?","?","?","?","?","?","?","?","?","?","?","?","?","?","?","?","?","?","?","?","?","?","?","?","?","?","?","?","?","?","?","?","?","?","?","?","?","?","?","?","?","?","?","?","?","?","?","?","?","?","?","?","?","?","?","?","?","?","?","?","?","?","?","?","?","?","?","?","?","?","?","?","?","?","?","?","?","?","?","?","?","?","?","?","?","?","?","?","?","?","?","?","?","?","?","?","?","?","?","?","?","?","?","?","?","?","?","?","?","?","?","?","?","?","?","?","?","?","?","?","?","?","?","?","?","?","?","?","?","?","?","?","?","?","?","?","?","?","?","?","?","?","?","?","?","?","?","?","?","?","?","?","?","?","?","?","?","?","?","?","?","?","?","?","?","?","?","?","?","?","?","?","?","?","?","?","?","?","?","?","?","?","?","?","?","?","?","?","?","?","?","?","?","?","?","?","?","?","?","?","?","?","?","?","?","?","?","?","?","?","?","?","?","?","?","?","?","?","?","?","?","?","?","?","?","?","?","?","?","?","?","?","?","?","?","?","?","?","?","?","?","?","?","?","?","?","?","?","?","?","?","?","?","?","?","?","?","?","?","?","?","?","?","?","?","?","?","?","?","?","?","?","?","?","?","?","?","?","?","?","?","?","?","?","?","?","?","?","?","?","?","?","?","?","?","?","?","?","?","?","?","?","?","?","?","?","?","?","?","?","?","?","?","?","?","?","?","?","?","?","?","?","?","?","?","?","?","?","?","?","?","?","?","?","?","?","?","?","?","?","?","?","?","?","?","?","?","?","?","?","?","?","?","?","?","?","?","?","?","?","?","?","?","?","?","?","?","?","?","?","?","?","?","?","?","?","?","?","?","?","?","?","?","?","?","?","?","?","?","?","?","?","?","?","?","?","?","?","?","?","?","?","?","?","?","?","?","?","?","?","?","?","?","?","?","?","?","?","?","?","?","?","?","?","?","?","?","?","?","?","?","?","?","?","?","?","?","?","?