[{"success":true,"trial_type":"fullscreen","trial_index":0,"time_elapsed":3055,"internal_node_id":"0.0-0.0","protocol_sum":"","subject_identifier":528,"subject_sum":[187,165,137,89,195,42,190,104,141,156,181,34,43,151,222,151,48,2,166,124,65,45,106,140,141,42,121,172,105,47,50,183],"subject_pair":264,"STUDY_ID":"66a3ed3c5d10d0e7d8a6b9da","PROLIFIC_PID":"667ab64e047d4032dcc8be52","SESSION_ID":"66a46204c2f43a4ae7a76566","practice_instructions":1,"leaderboard_instructions":0,"bonus":1,"reveal_word":false,"self_rating":"2","confidence":"58"},{"view_history":"[{\"page_index\":0,\"viewing_time\":7332}]","rt":7332.100000023842,"trial_type":"instructions","trial_index":1,"time_elapsed":10388,"internal_node_id":"0.0-1.0","protocol_sum":"","subject_identifier":528,"subject_sum":[187,165,137,89,195,42,190,104,141,156,181,34,43,151,222,151,48,2,166,124,65,45,106,140,141,42,121,172,105,47,50,183],"subject_pair":264,"STUDY_ID":"66a3ed3c5d10d0e7d8a6b9da","PROLIFIC_PID":"667ab64e047d4032dcc8be52","SESSION_ID":"66a46204c2f43a4ae7a76566","practice_instructions":1,"leaderboard_instructions":0,"bonus":1,"reveal_word":false,"self_rating":"2","confidence":"58"},{"view_history":"[{\"page_index\":0,\"viewing_time\":14799.5}]","rt":14799.600000023842,"trial_type":"instructions","trial_index":2,"time_elapsed":25187,"internal_node_id":"0.0-2.0-0.0","protocol_sum":"","subject_identifier":528,"subject_sum":[187,165,137,89,195,42,190,104,141,156,181,34,43,151,222,151,48,2,166,124,65,45,106,140,141,42,121,172,105,47,50,183],"subject_pair":264,"STUDY_ID":"66a3ed3c5d10d0e7d8a6b9da","PROLIFIC_PID":"667ab64e047d4032dcc8be52","SESSION_ID":"66a46204c2f43a4ae7a76566","practice_instructions":1,"leaderboard_instructions":0,"bonus":1,"reveal_word":false,"self_rating":"2","confidence":"58"},{"rt":7017,"responses":"{\"Q0\":\"... reveal the word with as <b>few letter guesses</b> as possible\"}","question_order":"[0]","trial_type":"survey-multi-choice","trial_index":3,"time_elapsed":32205,"internal_node_id":"0.0-2.0-1.0","protocol_sum":"","subject_identifier":528,"subject_sum":[187,165,137,89,195,42,190,104,141,156,181,34,43,151,222,151,48,2,166,124,65,45,106,140,141,42,121,172,105,47,50,183],"subject_pair":264,"correct":true,"test_part":"multichoice_nonpretend","STUDY_ID":"66a3ed3c5d10d0e7d8a6b9da","PROLIFIC_PID":"667ab64e047d4032dcc8be52","SESSION_ID":"66a46204c2f43a4ae7a76566","practice_instructions":1,"leaderboard_instructions":0,"bonus":1,"reveal_word":false,"self_rating":"2","confidence":"58"},{"view_history":"[{\"page_index\":0,\"viewing_time\":1783.1000000238419}]","rt":1783.199999988079,"trial_type":"instructions","trial_index":4,"time_elapsed":33988,"internal_node_id":"0.0-3.0","protocol_sum":"","subject_identifier":528,"subject_sum":[187,165,137,89,195,42,190,104,141,156,181,34,43,151,222,151,48,2,166,124,65,45,106,140,141,42,121,172,105,47,50,183],"subject_pair":264,"STUDY_ID":"66a3ed3c5d10d0e7d8a6b9da","PROLIFIC_PID":"667ab64e047d4032dcc8be52","SESSION_ID":"66a46204c2f43a4ae7a76566","practice_instructions":1,"leaderboard_instructions":0,"bonus":1,"reveal_word":false,"self_rating":"2","confidence":"58"},{"word":"ZEBRA","click_log":{"letter":["","H","E","T","S","B","A","R","Z"],"t":[0,5894.800000011921,10776.800000011921,16662.5,25745.100000023842,32861.90000003576,45093.90000003576,51229.40000003576,53793.700000047684],"hit":[null,0,1,0,0,1,1,1,1],"asked":["","H","HE","HET","HETS","HETSB","HETSBA","HETSBAR","HETSBARZ"],"word_state":["_____","_____","_E___","_E___","_E___","_EB__","_EB_A","_EBRA","ZEBRA"]},"hover_log":{"letter":["?","?","?","?","?","?","?","?","?","?","?","?","?","?","?","?","?","?","?","?","?","?","?","?","?","?","?","?","?","?","?","?","?","?","?","?","?","?","?","?","?","?","?","?","?","?","?","?","?","?","?","?","?","?","?","?","?","?","?","?","?","?","?","?","?","?","?","?","?","?","?","?","?","?","?","?","?","?","?","?","?","?","?","?","?","?","?","?","?","?","?","?","?","?","?","?","?","?","?","?","?","?","?","?","?","?","?","?","?","?","?","?","?","?","?","?","?","?","?","?","?","?","?","?","?","J","J","?","?","?","?","?","?","?","?","?","?","?","?","?","?","?","?","?","?","?","?","?","?","?","?","?","?","?","?","?","?","?","?","?","?","?","?","?","?","?","?","?","?","?","?","?","?","?","?","?","?","?","?","?","?","?","?","?","?","?","?","?","?","?","?","?","?","?","?","?","?","?","?","?","?","?","?","?","?","?","?","?","?","?","?","?","?","?","?","?","?","?","?","?","?","?","?","?","?","?","?","?","?","?","?","?","?","?","?","?","?","?","?","?","?","?","?","?","?","?","?","?","?","?","?","?","?","?","?","?","?","?","?","?","?","?","?","?","?","?","?","?","?","?","?","?","?","?","?","?","?","?","?","?","?","?","?","?","?","?","?","?","?","?","?","?","?","?","?","?","?","?","?","?","?","?","?","?","?","?","?","?","?","?","?","?","?","?","?","?","?","?","?","?","?","?","?","?","?","?","?","?","?","?","?","?","?","?","?","H","H","H","H","H","H","H","H","H","H","H","H","H","H","H","H","H","H","H","H","H","H","H","H","H","H","H","H","H","H","H","H","H","H","H","H","H","H","H","H","H","H","H","H","H","H","H","H","H","H","H","H","H","H","H","H","H","H","H","H","H","H","H","H","H","H","H","H","H","H","H","H","H","H","H","H","H","H","H","H","H","H","H","H","H","H","H","H","H","H","H","H","H","H","H","H","H","H","H","H","H","H","H","H","H","H","H","H","H","H","H","H","H","H","H","H","H","H","H","H","H","H","H","H","H","H","H","H","H","H","H","H","H","H","H","H","H","H","H","H","H","H","H","H","H","H","H","H","H","H","H","H","H","H","H","H","H","H","H","H","H","H","H","H","H","H","H","H","H","H","H","H","H","H","H","H","H","H","H","H","H","H","H","H","H","H","H","H","H","H","H","H","H","H","H","H","H","H","H","H","H","H","H","H","H","H","H","H","H","H","H","H","H","H","H","H","H","H","H","H","H","H","H","H","H","H","H","H","H","H","H","H","H","H","H","H","H","H","H","H","H","H","H","H","H","H","H","H","H","H","H","H","H","H","H","H","H","H","H","H","H","H","H","H","H","H","H","H","H","H","H","H","?","G","G","G","G","?","F","F","F","F","F","F","F","F","F","F","F","F","F","F","F","F","F","?","?","E","E","E","E","E","E","E","E","E","E","E","E","E","E","E","E","E","E","E","E","E","E","E","E","E","E","E","E","E","E","E","E","E","E","E","E","E","E","E","E","E","E","E","E","E","E","E","E","E","E","E","E","E","E","E","E","E","E","E","E","E","E","E","E","E","E","E","E","E","E","E","E","E","E","E","E","E","E","E","E","E","E","E","E","E","E","E","E","E","E","E","E","E","E","E","E","E","E","E","E","E","E","E","E","E","E","E","E","E","E","E","E","E","E","E","E","E","E","E","E","E","E","E","E","E","E","E","E","E","E","E","E","E","E","E","E","E","E","E","E","E","E","E","E","E","E","E","E","E","E","E","E","E","E","E","E","E","E","E","E","E","E","E","E","E","E","E","E","E","E","E","E","E","E","E","E","E","E","E","E","E","E","E","E","E","E","E","E","E","E","E","E","E","E","E","E","E","E","E","E","E","E","E","E","E","E","E","E","E","E","E","E","E","E","E","E","E","E","E","E","E","E","E","E","E","E","E","E","E","E","E","E","E","E","E","E","E","E","E","E","E","E","E","E","E","E","E","E","E","E","E","E","E","E","E","E","E","E","E","E","E","E","E","E","E","E","E","E","E","E","E","E","?","?","?","?","?","?","?","?","?","?","?","?","?","?","?","?","?","?","?","?","?","?","?","?","?","?","O","O","O","O","O","O","?","?","?","?","?","?","?","?","?","?","?","?","?","?","?","?","?","?","?","?","?","?","?","?","?","?","?","U","U","U","?","?","?","?","?","?","?","?","T","T","T","T","T","T","T","T","T","T","T","T","T","T","T","T","T","T","T","T","T","T","T","T","T","T","T","T","T","T","T","T","T","T","T","T","T","T","T","T","T","T","T","T","T","T","T","T","T","T","T","T","T","T","T","T","T","T","T","T","T","T","T","T","T","T","T","T","T","T","T","T","T","T","T","T","T","T","T","T","T","T","T","T","T","T","T","T","T","T","T","T","T","T","T","T","T","T","T","T","T","T","T","T","T","T","T","T","T","T","T","T","T","T","T","T","T","T","T","T","T","T","T","T","T","T","T","T","T","T","T","T","T","T","T","T","T","T","T","T","T","T","T","T","T","T","T","T","T","T","T","T","T","T","T","T","T","T","T","T","T","T","T","T","T","T","T","T","T","T","T","T","T","T","T","T","T","T","T","T","T","T","T","T","T","T","T","T","T","T","T","T","T","T","T","T","T","T","T","T","T","T","T","T","T","T","T","T","T","T","T","T","T","T","T","T","T","T","T","T","T","T","T","T","T","T","T","T","T","T","T","T","T","T","T","T","T","T","T","T","T","T","T","T","T","T","T","T","T","T","T","T","T","T","T","T","T","T","T","T","T","T","T","T","T","T","T","T","T","T","T","T","T","T","T","T","T","T","T","T","T","T","T","T","T","T","T","T","T","T","T","T","T","T","T","T","T","T","T","T","T","T","T","T","T","T","T","T","T","T","T","T","T","T","T","T","T","T","T","T","T","T","T","T","T","T","T","T","T","T","T","T","T","T","T","T","T","T","T","T","T","T","T","T","T","T","T","T","T","T","T","T","T","T","T","T","T","T","T","T","T","T","T","T","T","T","T","T","T","T","T","T","T","T","T","T","T","T","T","T","T","T","T","T","T","T","T","T","T","T","T","T","T","T","T","T","T","T","T","T","T","T","T","T","T","T","T","T","T","T","T","T","T","T","T","T","T","T","T","T","T","T","T","T","T","T","T","T","T","T","T","T","T","T","T","T","T","T","T","T","T","T","T","T","T","T","T","?","?","?","M","?","N","N","N","N","N","N","N","N","N","N","N","N","N","N","N","N","N","N","N","N","N","N","O","O","?","?","?","?","?","?","?","?","?","?","?","?","?","?","?","?","?","?","?","?","?","?","?","?","?","?","?","?","?","?","?","?","?","?","?","?","?","?","?","?","?","?","?","?","?","?","?","?","?","?","?","?","?","?","?","N","?","M","?","?","?","?","?","?","?","?","?","?","?","?","?","?","?","T","T","T","T","T","?","?","S","S","S","S","S","S","S","S","S","S","S","S","S","S","S","S","S","S","S","S","S","S","S","S","S","S","S","S","S","S","S","S","S","S","S","S","S","S","S","S","S","S","S","S","S","S","S","S","S","S","S","S","S","S","S","S","S","S","S","S","S","S","S","S","S","S","S","S","S","S","S","S","S","S","S","S","S","S","S","S","S","S","S","S","S","S","?","K","?","?","?","D","D","?","?","?","?","?","?","?","?","?","?","?","?","?","?","?","?","E","?","?","O","?","?","Y","Y","Y","?","?","?","?","?","?","?","?","?","?","?","?","?","?","?","?","?","?","?","?","?","?","?","?","?","?","?","?","?","?","?","?","?","?","?","?","?","?","?","?","?","?","?","?","?","Y","Y","Y","?","?","?","?","?","?","M","M","M","M","M","M","M","M","M","M","M","M","M","M","M","M","M","M","M","M","M","M","M","M","M","M","M","M","M","M","M","M","M","M","M","M","M","M","M","M","M","M","M","M","M","M","M","M","M","M","M","M","M","M","M","M","M","M","M","M","M","M","M","M","M","M","M","M","M","M","M","M","M","M","M","M","M","M","?","N","?","?","?","G","?","?","H","H","H","H","H","H","H","H","H","?","?","?","?","?","P","P","P","?","?","O","O","O","O","O","O","O","O","O","O","O","O","O","O","O","O","O","O","O","O","?","?","?","N","N","N","N","N","N","N","N","N","N","N","N","N","N","N","N","N","N","N","N","N","N","N","N","N","N","N","N","N","N","N","N","N","N","N","N","N","N","N","N","N","N","N","N","N","N","N","N","N","N","N","N","N","N","N","N","N","N","N","N","N","N","N","N","N","N","N","N","N","N","N","N","N","N","N","N","N","N","N","N","N","N","N","N","N","N","N","N","N","N","N","N","N","N","N","N","N","N","N","N","N","N","N","N","N","N","N","N","N","N","?","?","D","?","C","C","C","C","C","C","C","C","C","C","C","C","?","?","B","B","B","B","B","B","B","B","B","B","B","B","B","B","B","B","B","B","B","B","B","B","B","B","B","B","B","B","B","B","B","B","B","B","B","B","B","B","B","B","B","B","B","B","B","B","B","B","B","B","B","B","B","B","B","B","B","B","B","B","B","B","B","B","B","B","B","B","B","B","B","B","B","B","B","B","B","B","B","B","B","B","B","B","B","B","B","B","B","B","B","B","B","B","B","B","B","B","B","B","B","B","B","B","B","B","B","B","B","B","B","B","B","B","B","B","B","B","B","B","B","B","B","B","B","B","B","B","B","B","B","B","B","B","B","B","B","B","B","B","B","B","B","B","B","B","B","B","B","B","B","B","B","B","B","B","B","B","B","B","B","B","B","B","B","B","B","B","B","B","B","B","B","B","B","B","B","B","B","B","B","B","B","B","B","B","B","B","B","B","B","B","B","B","B","B","B","B","B","B","B","B","B","B","B","B","B","B","B","B","B","B","B","B","B","B","B","B","B","B","B","B","B","B","B","B","B","B","B","B","B","B","B","B","B","B","B","B","B","B","B","B","B","B","B","B","B","B","B","B","B","B","B","B","B","B","B","B","B","B","B","B","B","B","B","B","B","B","B","B","B","B","B","B","B","B","B","B","B","B","B","B","B","B","B","B","B","B","B","B","B","B","B","B","B","B","B","B","B","B","B","B","B","B","B","B","B","B","B","B","B","B","B","B","B","B","B","B","B","B","B","B","B","B","B","B","B","B","B","B","B","B","B","B","B","B","B","B","B","B","B","B","B","B","B","B","B","B","B","B","B","B","B","B","B","B","B","B","B","B","B","B","B","B","B","B","B","B","B","B","B","B","B","B","B","B","B","B","B","B","B","B","B","B","B","B","B","B","B","B","B","B","B","B","B","B","B","B","B","B","B","B","B","B","B","B","B","B","B","B","B","B","B","B","B","B","B","B","B","B","B","B","B","B","?","?","?","K","K","K","K","K","K","K","K","K","K","K","K","K","K","K","K","K","K","K","K","K","K","K","?","?","?","?","?","?","?","P","P","P","P","P","P","P","P","P","P","P","P","P","P","P","P","P","P","P","P","?","Q","Q","Q","?","R","R","R","R","R","R","R","R","R","R","R","R","R","R","R","R","R","R","R","R","R","R","R","R","R","R","R","R","R","?","?","?","Z","Z","Z","?","?","?","?","?","?","?","?","?","?","?","?","?","?","?","?","?","?","?","?","?","?","?","?","?","?","?","?","X","X","?","?","W","W","W","W","W","W","W","W","W","W","W","W","W","W","W","W","W","W","W","W","W","W","W","W","W","W","W","W","W","W","W","W","W","W","W","W","W","W","W","W","W","?","?","?","N","N","N","N","N","N","N","N","N","N","N","N","N","N","N","N","N","N","N","N","N","N","N","N","N","N","N","N","N","N","N","N","N","N","N","N","N","N","N","N","N","N","N","N","N","N","N","N","N","N","N","N","N","N","N","N","N","N","N","N","N","N","N","N","N","N","N","N","N","N","N","N","N","N","N","N","M","?","?","?","?","?","?","?","?","?","?","?","?","?","?","?","?","?","?","?","?","?","?","?","?","?","?","?","?","?","?","?","?","?","?","?","?","?","?","?","?","?","?","?","?","?","?","?","?","?","?","?","?","?","?","?","?","?","?","?","?","?","?","A","A","A","A","A","A","A","A","A","A","A","A","A","A","A","A","A","A","A","A","A","A","A","A","A","A","A","A","A","A","A","A","A","A","A","A","A","A","A","A","A","A","A","A","A","A","A","A","A","A","A","A","A","A","A","A","A","A","A","A","A","A","A","A","A","?","?","?","?","?","?","?","?","?","?","?","?","?","?","?","?","?","?","?","?","?","?","?","?","?","?","?","?","?","?","?","?","?","?","?","?","?","?","?","?","?","?","?","?","?","?","?","?","?","?","?","?","?","?","?","?","?","?","?","?","?","?","?","?","?","?","?","?","?","?","?","?","?","?","?","?","?","?","?","?","?","?","?","?","?","?","?","?","?","?","?","?","?","?","?","?","?","?","?","?","?","?","?","?","?","?","?","?","?","?","?","?","?","?","?","?","?","?","?","?","?","?","?","?","?","?","?","?","?","?","?","?","?","?","?","?","?","?","?","?","?","?","?","?","?","?","?","?","?","?","?","?","?","?","?","?","?","?","?","?","?","?","?","?","?","?","?","?","?","?","?","?","?","?","?","?","?","?","?","?","?","?","?","?","?","?","?","?","?","?","?","?","?","?","?","?","?","?","?","?","?","?","?","?","?","?","?","?","?","?","?","?","?","?","?","?","?","?","?","?","?","?","?","?","?","?","?","?","?","?","?","?","?","?","?","?","?","?","?","?","?","?","?","?","?","?","?","?","?","?","?","?","?","?","?","?","?","?","?","?","?","?","?","?","?","?","?","?","?","?","?","?","?","?","?","?","?","?","?","?","?","?","?","?","?","?","?","?","?","?","?","?","?","?","?","?","I","I","I","I","I","I","?","?","?","?","R","R","R","R","R","R","R","R","R","R","R","R","R","R","R","R","R","R","R","R","R","R","R","R","R","R","R","R","R","R","R","R","R","R","R","R","R","R","R","R","R","R","R","R","R","R","R","R","R","R","R","R","R","R","R","R","R","R","R","R","R","R","R","R","R","R","R","R","R","R","R","R","R","R","R","R","R","R","R","R","R","R","R","R","R","R","R","R","R","Q","?","P","?","?","?","?","?","W","W","W","?","X","X","Y","Z","Z","Z","Z","?","?","?","?","?","?","?","?","?","?","?","?","?","?","?","?","?","?","?","?","?","?","?","?","?","?","?","?","?","?","?","?","?","?","?","?","?","?","?","Z","Z","Z","Z","Z","Z","Z","Z","Z","Z","Z","Z","Z","Z","Z","Z","Z","Z","Z","Z","Z","Z","Z","Z","Z","Z","Z","Z","Z","Z","Z","Z","Z","Z","Z","Z","Z","Z","Z","Z","Z","Z","Z","Z","Z","Z","Z","Z","Z","Z","Z","Z","Z","Z","Z","Z","Z","Z","Z","Z","Z","Z","Z","Z","Z","Z","Z","Z","Z","Z","Z","Z","Z","Z","Z","Z","Z","Z","Z","Z","Z","Z","Z","Z","Z","Z","Z","Z","Z","Z","Z","Z","Z","Z","Z","Z","Z","Z","Z","Z","Z","Z","Z","Z","Z","Z","Z","Z","Z","Z","Z","Z","Z","Z","Z","Z","Z","Z","Z","Z","Z","Z","Z","Z","Z","Z","Z","Z","Z","Z","Z","Z","Z","Z","Z","Z","Z","Z","Z","Z"],"t":[21,32,48,65,81,98,119,130,147,165,180,197,214,231,247,264,281,298,316,332,349,366,382,399,416,432,449,466,482,498,516,532,549,565,582,599,616,632,648,665,682,699,716,732,748,766,782,798,815,832,849,865,882,899,916,931,948,965,982,998,1016,1032,1048,1064,1082,1099,1115,1132,1149,1165,1182,1198,1215,1232,1249,1266,1282,1298,1315,1331,1348,1365,1382,1399,1416,1432,1449,1465,1482,1499,1515,1532,1548,1565,1581,1598,1615,1632,1649,1665,1682,1699,1716,1732,1749,1766,1781,1799,1816,1833,1848,1865,1882,1899,1915,1932,1948,1966,1981,1999,2015,2032,2049,2065,2083,2099,2114,2131,2148,2165,2181,2199,2215,2231,2248,2265,2282,2299,2315,2331,2348,2365,2382,2399,2414,2431,2448,2466,2481,2499,2515,2531,2549,2564,2581,2598,2615,2632,2648,2664,2681,2697,2714,2731,2748,2764,2782,2797,2814,2831,2848,2865,2881,2898,2915,2932,2948,2965,2981,2999,3016,3032,3049,3064,3082,3098,3114,3130,3148,3165,3181,3198,3215,3231,3248,3264,3281,3297,3314,3331,3348,3363,3380,3398,3414,3430,3448,3464,3480,3497,3514,3531,3548,3564,3581,3598,3614,3631,3648,3663,3681,3698,3714,3731,3748,3764,3781,3798,3814,3830,3847,3864,3880,3897,3914,3931,3948,3963,3981,3998,4013,4030,4047,4063,4080,4098,4113,4131,4147,4163,4181,4198,4214,4230,4247,4263,4281,4297,4313,4331,4348,4363,4380,4397,4414,4430,4448,4464,4481,4497,4513,4530,4548,4563,4580,4597,4614,4631,4648,4664,4680,4697,4715,4731,4747,4764,4781,4797,4815,4832,4849,4865,4882,4898,4915,4932,4949,4965,4982,4997,5015,5032,5048,5064,5081,5097,5114,5130,5147,5164,5180,5197,5215,5231,5248,5265,5281,5298,5315,5332,5348,5365,5382,5398,5415,5432,5449,5466,5482,5499,5515,5532,5548,5564,5582,5599,5615,5632,5648,5665,5682,5699,5715,5732,5748,5766,5782,5798,5816,5832,5849,5865,5882,5899,5915,5932,5949,5966,5982,5998,6016,6033,6048,6065,6081,6099,6116,6132,6148,6166,6182,6199,6216,6232,6249,6266,6282,6299,6315,6332,6349,6366,6382,6398,6416,6432,6449,6465,6482,6499,6515,6532,6549,6566,6582,6599,6615,6632,6649,6666,6682,6699,6715,6733,6749,6765,6782,6799,6816,6832,6849,6866,6882,6898,6916,6932,6949,6965,6982,6999,7016,7032,7048,7065,7082,7099,7116,7132,7149,7166,7182,7199,7216,7232,7249,7265,7281,7298,7314,7332,7349,7366,7383,7399,7415,7432,7449,7464,7482,7499,7516,7532,7549,7564,7582,7599,7615,7632,7649,7666,7681,7699,7716,7732,7749,7766,7782,7799,7816,7832,7849,7866,7881,7899,7916,7932,7949,7966,7982,7998,8015,8032,8048,8065,8082,8098,8115,8131,8148,8164,8181,8198,8214,8231,8247,8264,8280,8298,8313,8330,8348,8364,8381,8398,8414,8431,8448,8464,8481,8498,8514,8530,8548,8565,8580,8597,8614,8631,8648,8664,8681,8698,8714,8730,8747,8764,8781,8798,8813,8831,8848,8864,8881,8898,8914,8931,8948,8964,8981,8998,9014,9031,9048,9064,9081,9098,9114,9131,9148,9164,9181,9198,9214,9231,9248,9264,9281,9298,9314,9331,9348,9364,9381,9398,9414,9431,9448,9464,9481,9498,9514,9531,9548,9564,9580,9598,9614,9631,9648,9664,9681,9698,9714,9731,9748,9764,9781,9798,9814,9831,9848,9864,9881,9898,9914,9931,9948,9964,9981,9998,10015,10031,10048,10065,10081,10098,10115,10131,10148,10165,10181,10198,10215,10231,10248,10265,10281,10298,10315,10331,10348,10365,10381,10398,10415,10431,10448,10465,10481,10498,10515,10531,10548,10565,10581,10598,10615,10631,10648,10665,10681,10698,10714,10731,10748,10764,10782,10798,10814,10831,10848,10864,10881,10898,10915,10931,10948,10964,10981,10998,11015,11031,11048,11065,11081,11098,11114,11132,11148,11165,11182,11199,11216,11232,11249,11266,11282,11299,11316,11333,11349,11366,11383,11399,11415,11432,11449,11466,11482,11499,11516,11533,11549,11565,11582,11599,11616,11632,11649,11666,11681,11699,11714,11732,11749,11766,11783,11798,11815,11833,11850,11866,11882,11899,11916,11932,11949,11966,11981,11998,12015,12032,12049,12065,12082,12099,12115,12132,12149,12165,12182,12199,12216,12232,12249,12266,12282,12299,12316,12333,12349,12366,12383,12399,12416,12432,12449,12466,12483,12499,12515,12533,12549,12566,12582,12599,12616,12632,12649,12666,12682,12699,12716,12732,12748,12766,12782,12798,12816,12833,12849,12866,12882,12899,12916,12933,12949,12965,12982,12999,13015,13032,13049,13065,13082,13098,13114,13131,13148,13165,13181,13198,13215,13231,13248,13265,13281,13298,13315,13331,13348,13365,13381,13398,13415,13431,13448,13465,13481,13498,13515,13531,13548,13565,13580,13598,13615,13631,13648,13665,13681,13698,13714,13731,13748,13765,13781,13798,13815,13831,13848,13865,13881,13898,13915,13931,13948,13965,13981,13998,14015,14031,14048,14064,14081,14098,14115,14131,14148,14165,14181,14198,14215,14231,14248,14265,14281,14298,14315,14331,14348,14365,14381,14398,14414,14431,14448,14465,14481,14498,14514,14531,14548,14565,14580,14598,14614,14631,14648,14665,14681,14698,14715,14731,14748,14765,14782,14798,14816,14832,14849,14866,14882,14899,14917,14932,14949,14966,14982,14999,15015,15032,15048,15065,15081,15098,15115,15131,15148,15165,15181,15198,15215,15232,15248,15265,15282,15298,15315,15332,15349,15366,15383,15399,15416,15432,15448,15465,15482,15499,15515,15532,15549,15565,15582,15599,15615,15633,15649,15665,15682,15699,15715,15732,15749,15765,15782,15799,15816,15832,15849,15865,15882,15899,15915,15932,15949,15965,15982,15999,16015,16032,16048,16065,16082,16098,16115,16132,16149,16165,16182,16199,16216,16233,16248,16266,16282,16299,16315,16332,16349,16365,16382,16399,16415,16432,16449,16465,16483,16497,16515,16532,16549,16565,16582,16599,16616,16632,16649,16665,16682,16699,16715,16732,16748,16766,16782,16799,16816,16833,16849,16866,16882,16899,16916,16933,16949,16966,16982,16999,17015,17032,17049,17065,17082,17099,17116,17133,17149,17165,17183,17199,17216,17233,17249,17266,17282,17299,17316,17332,17349,17366,17382,17399,17415,17432,17449,17466,17483,17499,17516,17533,17549,17566,17583,17599,17615,17633,17649,17666,17682,17699,17716,17733,17749,17765,17783,17799,17815,17833,17849,17866,17882,17899,17916,17932,17949,17965,17982,17999,18016,18032,18049,18065,18082,18098,18115,18131,18148,18165,18181,18198,18215,18231,18248,18265,18281,18298,18315,18331,18348,18365,18381,18398,18415,18431,18448,18465,18481,18498,18515,18531,18548,18565,18580,18598,18615,18631,18648,18665,18681,18698,18715,18731,18748,18765,18781,18798,18815,18831,18848,18865,18881,18898,18915,18931,18948,18965,18981,18998,19015,19031,19048,19065,19081,19098,19115,19131,19148,19165,19181,19198,19215,19231,19248,19265,19281,19298,19315,19331,19348,19365,19381,19398,19415,19431,19448,19465,19481,19498,19515,19531,19548,19565,19580,19598,19615,19631,19648,19665,19681,19698,19715,19732,19748,19766,19782,19799,19816,19833,19849,19866,19882,19899,19916,19932,19949,19966,19982,19999,20015,20032,20048,20065,20081,20098,20115,20131,20148,20165,20181,20198,20215,20232,20248,20266,20282,20299,20315,20332,20349,20366,20383,20399,20416,20432,20449,20465,20483,20499,20516,20532,20549,20566,20582,20599,20616,20633,20649,20666,20683,20699,20716,20733,20749,20766,20782,20799,20816,20833,20849,20866,20883,20899,20916,20932,20949,20966,20983,20999,21016,21033,21049,21066,21082,21099,21116,21132,21149,21166,21182,21199,21216,21233,21249,21266,21282,21299,21316,21332,21349,21366,21382,21399,21416,21433,21449,21466,21483,21499,21516,21532,21549,21566,21583,21599,21615,21632,21649,21666,21682,21699,21716,21732,21749,21766,21782,21798,21816,21832,21849,21866,21882,21899,21916,21932,21949,21966,21982,21999,22016,22032,22049,22066,22082,22099,22116,22133,22149,22166,22183,22199,22216,22232,22249,22266,22282,22299,22316,22332,22349,22366,22382,22399,22416,22432,22449,22466,22482,22499,22516,22533,22549,22566,22582,22599,22616,22632,22649,22666,22682,22699,22716,22732,22749,22766,22782,22799,22816,22833,22849,22866,22883,22899,22916,22932,22949,22965,22982,22999,23016,23032,23049,23065,23082,23098,23115,23131,23148,23165,23181,23198,23215,23231,23248,23265,23281,23298,23315,23331,23348,23365,23381,23398,23415,23431,23448,23465,23481,23498,23515,23531,23548,23565,23581,23598,23615,23631,23648,23665,23681,23698,23715,23731,23748,23765,23781,23798,23815,23831,23848,23865,23881,23898,23915,23931,23948,23965,23981,23998,24015,24031,24048,24065,24081,24098,24115,24131,24148,24165,24181,24198,24215,24231,24248,24265,24281,24298,24315,24331,24348,24365,24381,24398,24415,24431,24448,24465,24481,24498,24515,24531,24548,24565,24581,24598,24615,24631,24648,24665,24681,24698,24715,24732,24748,24765,24782,24798,24815,24832,24849,24866,24883,24899,24916,24932,24949,24966,24982,24999,25015,25032,25048,25065,25082,25098,25115,25132,25148,25165,25182,25198,25215,25232,25248,25265,25282,25298,25315,25332,25349,25366,25382,25399,25415,25432,25449,25465,25482,25499,25516,25532,25551,25565,25582,25599,25615,25632,25649,25665,25682,25699,25716,25732,25749,25766,25783,25799,25816,25833,25849,25866,25883,25900,25915,25931,25949,25966,25983,25999,26016,26032,26049,26065,26082,26099,26116,26133,26150,26166,26183,26199,26215,26233,26250,26266,26283,26300,26316,26333,26349,26366,26383,26399,26415,26433,26449,26466,26483,26500,26516,26533,26549,26566,26583,26599,26616,26633,26649,26666,26683,26699,26716,26733,26749,26766,26783,26799,26816,26833,26849,26866,26883,26899,26916,26932,26949,26966,26982,26999,27016,27032,27049,27065,27083,27099,27116,27132,27149,27166,27183,27199,27216,27233,27249,27266,27283,27300,27316,27332,27349,27365,27382,27399,27415,27432,27449,27465,27482,27499,27516,27533,27549,27566,27583,27600,27615,27633,27649,27666,27683,27699,27716,27732,27749,27765,27783,27799,27816,27832,27849,27866,27883,27899,27916,27933,27950,27965,27982,27999,28016,28033,28048,28065,28082,28098,28115,28131,28148,28165,28181,28198,28215,28232,28248,28265,28282,28298,28315,28332,28348,28365,28381,28398,28415,28432,28448,28465,28481,28498,28515,28531,28548,28565,28582,28598,28615,28631,28648,28665,28681,28698,28715,28731,28748,28765,28781,28798,28815,28832,28848,28865,28882,28898,28915,28931,28948,28965,28981,28998,29015,29031,29048,29065,29081,29098,29115,29131,29148,29165,29181,29198,29215,29231,29248,29265,29281,29298,29315,29331,29348,29365,29381,29398,29415,29431,29448,29465,29481,29498,29515,29531,29548,29565,29581,29598,29615,29632,29648,29665,29682,29698,29715,29732,29748,29765,29782,29799,29815,29832,29849,29866,29882,29899,29916,29932,29949,29966,29982,29999,30015,30032,30049,30065,30082,30098,30115,30132,30148,30165,30182,30198,30215,30232,30249,30265,30282,30299,30315,30333,30349,30366,30383,30399,30415,30432,30449,30465,30482,30499,30516,30532,30549,30566,30582,30599,30616,30633,30649,30666,30682,30699,30716,30733,30749,30766,30783,30799,30815,30833,30850,30866,30882,30899,30916,30932,30949,30966,30983,30999,31016,31033,31049,31065,31082,31099,31116,31133,31150,31166,31183,31199,31216,31233,31249,31266,31283,31299,31316,31333,31349,31366,31382,31399,31416,31433,31449,31466,31483,31499,31516,31533,31549,31566,31583,31599,31616,31633,31649,31666,31683,31699,31717,31732,31749,31765,31783,31799,31816,31833,31849,31866,31883,31899,31916,31932,31950,31965,31983,31999,32016,32033,32050,32065,32082,32099,32116,32132,32149,32166,32182,32199,32216,32233,32249,32266,32282,32299,32316,32332,32349,32366,32383,32399,32415,32432,32449,32466,32482,32499,32516,32532,32549,32566,32582,32599,32616,32632,32649,32666,32682,32699,32715,32732,32749,32765,32782,32799,32815,32833,32849,32865,32883,32899,32916,32933,32949,32966,32983,33000,33016,33033,33049,33065,33082,33098,33115,33132,33148,33164,33182,33198,33215,33232,33248,33265,33282,33298,33315,33332,33348,33365,33382,33398,33415,33432,33448,33465,33482,33498,33515,33532,33548,33565,33582,33598,33615,33631,33648,33665,33682,33698,33715,33732,33748,33765,33782,33798,33815,33832,33848,33865,33882,33898,33915,33932,33948,33965,33982,33998,34015,34032,34048,34065,34082,34098,34115,34132,34148,34165,34182,34198,34215,34232,34248,34265,34282,34298,34315,34332,34348,34365,34382,34398,34415,34432,34448,34465,34482,34498,34515,34531,34548,34565,34581,34598,34615,34632,34648,34665,34682,34698,34715,34732,34749,34766,34783,34799,34816,34833,34849,34866,34883,34899,34916,34935,34949,34966,34982,34999,35015,35032,35048,35065,35082,35098,35115,35132,35148,35165,35182,35198,35215,35232,35249,35266,35283,35299,35316,35333,35349,35366,35382,35399,35416,35433,35449,35466,35483,35500,35516,35533,35549,35566,35583,35599,35616,35632,35649,35666,35683,35699,35716,35733,35749,35766,35783,35800,35816,35832,35849,35866,35883,35899,35916,35933,35950,35967,35982,35999,36016,36033,36049,36065,36082,36099,36116,36133,36149,36166,36183,36199,36216,36233,36249,36266,36283,36300,36316,36333,36349,36366,36383,36399,36416,36433,36449,36466,36483,36499,36516,36533,36549,36566,36583,36599,36616,36633,36649,36666,36683,36699,36716,36733,36749,36766,36783,36799,36816,36833,36849,36866,36883,36899,36916,36933,36949,36966,36983,36999,37016,37033,37050,37066,37083,37099,37116,37133,37149,37166,37183,37199,37216,37233,37249,37266,37283,37299,37315,37333,37350,37366,37383,37399,37416,37433,37449,37466,37483,37499,37516,37533,37549,37566,37583,37599,37616,37633,37650,37666,37682,37699,37716,37733,37749,37766,37783,37800,37816,37832,37849,37866,37883,37899,37917,37932,37950,37966,37983,38000,38016,38033,38050,38066,38082,38098,38115,38132,38148,38165,38182,38198,38215,38232,38248,38265,38282,38298,38315,38332,38348,38365,38382,38398,38415,38432,38448,38465,38482,38498,38515,38532,38548,38565,38582,38598,38615,38632,38648,38665,38682,38698,38715,38732,38748,38765,38782,38798,38815,38832,38848,38865,38882,38898,38915,38932,38948,38965,38982,38998,39015,39032,39048,39065,39082,39098,39115,39132,39148,39165,39182,39198,39215,39232,39248,39265,39282,39298,39315,39332,39348,39365,39382,39398,39415,39432,39448,39465,39482,39498,39515,39532,39548,39565,39582,39598,39615,39632,39648,39665,39682,39698,39715,39732,39749,39765,39782,39799,39815,39832,39849,39866,39882,39899,39916,39933,39950,39966,39981,39998,40015,40032,40049,40065,40082,40099,40115,40132,40148,40165,40182,40199,40215,40232,40248,40265,40282,40298,40315,40332,40349,40365,40382,40399,40416,40433,40450,40467,40483,40500,40516,40533,40550,40566,40582,40599,40615,40632,40648,40665,40682,40698,40715,40732,40748,40765,40782,40798,40815,40832,40848,40865,40882,40898,40915,40932,40948,40965,40982,40998,41015,41032,41048,41065,41082,41098,41115,41132,41148,41165,41182,41198,41215,41232,41248,41265,41282,41298,41315,41332,41348,41365,41382,41398,41415,41432,41448,41465,41482,41498,41515,41532,41548,41565,41582,41598,41615,41632,41648,41665,41682,41698,41715,41732,41748,41765,41782,41798,41815,41832,41848,41865,41882,41898,41915,41932,41948,41965,41982,41998,42015,42032,42048,42065,42082,42098,42115,42132,42149,42165,42182,42199,42216,42233,42249,42266,42283,42300,42316,42333,42350,42366,42383,42400,42419,42432,42449,42466,42483,42500,42516,42532,42549,42566,42582,42599,42616,42632,42649,42666,42683,42700,42717,42733,42750,42766,42783,42800,42816,42833,42850,42867,42883,42900,42916,42933,42949,42966,42983,43000,43016,43032,43049,43066,43082,43099,43115,43132,43148,43165,43182,43198,43215,43232,43248,43265,43282,43298,43315,43332,43348,43365,43382,43399,43415,43432,43448,43465,43482,43498,43515,43532,43548,43565,43582,43598,43615,43632,43648,43665,43682,43698,43715,43732,43748,43765,43782,43798,43815,43832,43848,43865,43882,43898,43915,43932,43948,43965,43982,43998,44015,44032,44048,44065,44082,44098,44115,44132,44148,44165,44182,44198,44215,44232,44248,44265,44282,44298,44315,44332,44348,44365,44382,44398,44415,44432,44448,44465,44482,44498,44515,44532,44548,44565,44582,44598,44615,44632,44648,44665,44682,44698,44715,44732,44749,44765,44783,44800,44815,44832,44849,44866,44883,44899,44916,44933,44950,44966,44982,44999,45015,45032,45049,45065,45082,45099,45115,45132,45149,45165,45182,45199,45215,45232,45249,45266,45283,45300,45316,45333,45349,45366,45383,45400,45416,45433,45450,45465,45483,45500,45515,45533,45549,45566,45583,45600,45617,45633,45649,45666,45683,45700,45716,45733,45750,45766,45783,45800,45816,45832,45849,45866,45883,45899,45916,45933,45950,45966,45982,45999,46016,46033,46049,46066,46083,46100,46116,46133,46149,46166,46183,46200,46217,46233,46250,46266,46283,46300,46316,46333,46350,46366,46382,46400,46417,46433,46449,46466,46483,46499,46516,46533,46550,46566,46583,46599,46616,46633,46649,46666,46682,46699,46716,46733,46750,46766,46783,46800,46816,46833,46850,46866,46883,46900,46916,46933,46949,46966,46983,47000,47016,47033,47050,47066,47083,47100,47116,47135,47150,47166,47183,47200,47216,47232,47250,47266,47283,47300,47316,47333,47350,47366,47383,47400,47416,47433,47450,47466,47483,47500,47517,47533,47550,47566,47583,47599,47616,47633,47650,47667,47683,47700,47716,47732,47750,47766,47783,47800,47816,47833,47850,47866,47883,47899,47916,47933,47950,47966,47983,48000,48016,48033,48050,48066,48082,48099,48115,48132,48148,48164,48182,48198,48215,48232,48248,48265,48282,48298,48315,48332,48348,48365,48382,48399,48415,48432,48449,48465,48482,48499,48515,48532,48548,48565,48582,48598,48615,48631,48648,48664,48681,48698,48715,48732,48747,48764,48782,48799,48814,48831,48848,48864,48882,48897,48914,48931,48947,48965,48981,48999,49014,49031,49048,49064,49081,49099,49115,49132,49148,49164,49182,49198,49215,49232,49247,49264,49281,49297,49314,49331,49348,49364,49382,49397,49414,49431,49447,49464,49481,49497,49514,49532,49548,49564,49581,49598,49615,49631,49649,49664,49682,49699,49714,49731,49748,49765,49783,49799,49816,49832,49850,49867,49882,49900,49916,49933,49950,49966,49983,49999,50016,50032,50049,50064,50082,50098,50114,50131,50148,50165,50181,50198,50214,50232,50249,50266,50283,50300,50316,50333,50350,50365,50383,50399,50416,50432,50450,50466,50483,50500,50515,50533,50549,50566,50582,50598,50615,50632,50649,50665,50682,50698,50716,50733,50750,50766,50783,50798,50815,50833,50850,50866,50883,50898,50915,50932,50949,50966,50983,50999,51015,51032,51048,51065,51083,51098,51116,51133,51149,51165,51183,51200,51216,51233,51249,51266,51282,51300,51316,51333,51350,51365,51383,51400,51416,51433,51449,51466,51483,51500,51517,51533,51550,51566,51583,51599,51616,51634,51650,51665,51683,51700,51716,51733,51750,51767,51783,51800,51816,51833,51850,51866,51883,51900,51917,51933,51950,51966,51983,52000,52017,52033,52050,52066,52083,52098,52116,52133,52150,52167,52182,52200,52216,52233,52250,52266,52283,52300,52317,52333,52349,52367,52383,52399,52416,52433,52449,52466,52483,52498,52515,52532,52549,52565,52582,52599,52617,52633,52648,52666,52683,52699,52716,52732,52749,52766,52783,52799,52816,52833,52849,52866,52882,52898,52916,52933,52950,52966,52983,52999,53015,53032,53049,53066,53082,53099,53115,53132,53149,53165,53182,53199,53215,53232,53249,53265,53282,53299,53315,53332,53349,53365,53382,53399,53415,53432,53449,53464,53482,53499,53516,53532,53549,53565,53582,53599,53615,53632,53649,53665,53682,53699,53715,53732,53749,53765,53782,53800,53815,53832,53849,53865,53882,53899,53915,53932,53949,53965,53982,53999,54015,54032,54049,54065,54082,54099,54115,54132,54149,54165,54182,54199,54215,54232,54249,54265,54282,54299,54315,54332,54349,54365,54382,54399,54415,54432,54449,54465,54482,54499,54515,54532,54549,54565,54582,54599,54615,54632,54649,54665,54681,54699,54716,54733,54748,54765,54783,54800,54817,54832,54850,54867,54883,54900,54916,54933,54952,54966,54982,54999,55016,55032,55049,55066,55082,55099,55115,55132,55149,55165,55182,55199,55215,55232,55249,55266,55281,55299,55315,55331,55349,55365,55383,55400,55417,55432,55450,55467,55483,55500,55516,55533,55550,55567,55582,55599,55617,55632,55650,55666,55683,55700,55717,55733,55750,55766,55783,55803],"hit":[null],"x":[-1.469387755102041,-1.469387755102041,-1.469387755102041,-1.469387755102041,-1.469387755102041,-1.469387755102041,-1.469387755102041,-1.469387755102041,-1.469387755102041,-1.469387755102041,-1.469387755102041,-1.469387755102041,-1.469387755102041,-1.469387755102041,-1.469387755102041,-1.469387755102041,-1.469387755102041,-1.469387755102041,-1.469387755102041,-1.469387755102041,-1.469387755102041,-1.469387755102041,-1.469387755102041,-1.469387755102041,-1.469387755102041,-1.469387755102041,-1.469387755102041,-1.469387755102041,-1.469387755102041,-1.469387755102041,-1.469387755102041,-1.469387755102041,-1.469387755102041,-1.469387755102041,-1.469387755102041,-1.469387755102041,-1.469387755102041,-1.469387755102041,-1.469387755102041,-1.469387755102041,-1.469387755102041,-1.469387755102041,-1.469387755102041,-1.469387755102041,-1.469387755102041,-1.469387755102041,-1.469387755102041,-1.469387755102041,-1.469387755102041,-1.469387755102041,-1.469387755102041,-1.469387755102041,-1.469387755102041,-1.469387755102041,-1.469387755102041,-1.469387755102041,-1.469387755102041,-1.469387755102041,-1.469387755102041,-1.469387755102041,-1.469387755102041,-1.469387755102041,-1.469387755102041,-1.469387755102041,-1.469387755102041,-1.469387755102041,-1.469387755102041,-1.469387755102041,-1.469387755102041,-1.469387755102041,-1.469387755102041,-1.469387755102041,-1.469387755102041,-1.469387755102041,-1.469387755102041,-1.469387755102041,-1.469387755102041,-1.469387755102041,-1.469387755102041,-1.469387755102041,-1.469387755102041,-1.469387755102041,-1.469387755102041,-1.469387755102041,-1.469387755102041,-1.469387755102041,-1.469387755102041,-1.469387755102041,-1.469387755102041,-1.469387755102041,-1.469387755102041,-1.469387755102041,-1.469387755102041,-1.469387755102041,-1.469387755102041,-1.469387755102041,-1.469387755102041,-1.469387755102041,-1.469387755102041,-1.469387755102041,-1.469387755102041,-1.469387755102041,-1.469387755102041,-1.469387755102041,-1.469387755102041,-1.469387755102041,-1.469387755102041,-1.469387755102041,-1.469387755102041,-1.469387755102041,-1.469387755102041,-1.469387755102041,-1.469387755102041,-1.469387755102041,-1.469387755102041,-1.469387755102041,-1.469387755102041,-1.469387755102041,-1.469387755102041,-1.469387755102041,-1.469387755102041,-1.469387755102041,-1.469387755102041,-1.469387755102041,-0.006802721088435374,-0.003401360544217687,0.01020408163265306,0.04081632653061224,0.07482993197278912,0.11904761904761904,0.14965986394557823,0.17006802721088435,0.19047619047619047,0.20408163265306123,0.20748299319727892,0.2108843537414966,0.2108843537414966,0.2108843537414966,0.2108843537414966,0.21428571428571427,0.21428571428571427,0.21428571428571427,0.21428571428571427,0.21768707482993196,0.21768707482993196,0.21768707482993196,0.21768707482993196,0.21768707482993196,0.21768707482993196,0.21768707482993196,0.22108843537414966,0.22108843537414966,0.22448979591836735,0.23129251700680273,0.24489795918367346,0.25510204081632654,0.272108843537415,0.2857142857142857,0.2925170068027211,0.29931972789115646,0.30272108843537415,0.30612244897959184,0.30952380952380953,0.3129251700680272,0.3163265306122449,0.3163265306122449,0.3231292517006803,0.3231292517006803,0.3299319727891156,0.3401360544217687,0.3469387755102041,0.35374149659863946,0.36054421768707484,0.3741496598639456,0.3741496598639456,0.3741496598639456,0.3741496598639456,0.3741496598639456,0.3741496598639456,0.3741496598639456,0.3741496598639456,0.3741496598639456,0.3741496598639456,0.3741496598639456,0.3741496598639456,0.3741496598639456,0.3741496598639456,0.37755102040816324,0.391156462585034,0.41836734693877553,0.43537414965986393,0.46938775510204084,0.4931972789115646,0.5136054421768708,0.5272108843537415,0.5374149659863946,0.5408163265306123,0.5408163265306123,0.54421768707483,0.54421768707483,0.54421768707483,0.54421768707483,0.54421768707483,0.54421768707483,0.54421768707483,0.54421768707483,0.54421768707483,0.54421768707483,0.54421768707483,0.54421768707483,0.54421768707483,0.54421768707483,0.54421768707483,0.54421768707483,0.54421768707483,0.54421768707483,0.54421768707483,0.54421768707483,0.54421768707483,0.54421768707483,0.54421768707483,0.54421768707483,0.54421768707483,0.5476190476190477,0.5680272108843537,0.5884353741496599,0.6122448979591837,0.6496598639455783,0.6904761904761905,0.7244897959183674,0.7414965986394558,0.7585034013605442,0.7687074829931972,0.7721088435374149,0.7755102040816326,0.7755102040816326,0.7755102040816326,0.7755102040816326,0.7755102040816326,0.7755102040816326,0.7755102040816326,0.7755102040816326,0.7755102040816326,0.7755102040816326,0.7755102040816326,0.7755102040816326,0.7755102040816326,0.7755102040816326,0.7755102040816326,0.7755102040816326,0.7755102040816326,0.7755102040816326,0.7755102040816326,0.7755102040816326,0.7755102040816326,0.7755102040816326,0.7755102040816326,0.7755102040816326,0.7755102040816326,0.7755102040816326,0.7755102040816326,0.7755102040816326,0.7755102040816326,0.7755102040816326,0.7755102040816326,0.7755102040816326,0.7755102040816326,0.7755102040816326,0.7755102040816326,0.7755102040816326,0.7755102040816326,0.7755102040816326,0.7755102040816326,0.7755102040816326,0.7755102040816326,0.7755102040816326,0.7755102040816326,0.7755102040816326,0.7755102040816326,0.7755102040816326,0.7755102040816326,0.7755102040816326,0.7755102040816326,0.7755102040816326,0.7755102040816326,0.7755102040816326,0.7755102040816326,0.7789115646258503,0.782312925170068,0.7857142857142857,0.7925170068027211,0.7959183673469388,0.7993197278911565,0.8061224489795918,0.8095238095238095,0.8163265306122449,0.8197278911564626,0.8231292517006803,0.826530612244898,0.8367346938775511,0.8435374149659864,0.8503401360544217,0.8537414965986394,0.8605442176870748,0.8707482993197279,0.8843537414965986,0.8945578231292517,0.9081632653061225,0.9149659863945578,0.9217687074829932,0.9251700680272109,0.9285714285714286,0.9319727891156463,0.9319727891156463,0.935374149659864,0.935374149659864,0.935374149659864,0.935374149659864,0.935374149659864,0.935374149659864,0.935374149659864,0.935374149659864,0.935374149659864,0.935374149659864,0.935374149659864,0.935374149659864,0.935374149659864,0.935374149659864,0.935374149659864,0.935374149659864,0.935374149659864,0.935374149659864,0.935374149659864,0.935374149659864,0.935374149659864,0.9455782312925171,0.9523809523809523,0.9625850340136054,0.9693877551020408,0.9727891156462585,0.9761904761904762,0.9761904761904762,0.9761904761904762,0.9761904761904762,0.9761904761904762,0.9761904761904762,0.9761904761904762,0.9761904761904762,0.9761904761904762,0.9761904761904762,0.9761904761904762,0.9761904761904762,0.9761904761904762,0.9761904761904762,0.9761904761904762,0.9761904761904762,0.9761904761904762,0.9761904761904762,0.9761904761904762,0.9761904761904762,0.9761904761904762,0.9761904761904762,0.9761904761904762,0.9761904761904762,0.9761904761904762,0.9761904761904762,0.9761904761904762,0.9761904761904762,0.9761904761904762,0.9761904761904762,0.9761904761904762,0.9761904761904762,0.9761904761904762,0.9761904761904762,0.9761904761904762,0.9761904761904762,0.9761904761904762,0.9761904761904762,0.9761904761904762,0.9761904761904762,0.9761904761904762,0.9761904761904762,0.9761904761904762,0.9761904761904762,0.9761904761904762,0.9761904761904762,0.9761904761904762,0.9761904761904762,0.9761904761904762,0.9761904761904762,0.9761904761904762,0.9761904761904762,0.9761904761904762,0.9761904761904762,0.9761904761904762,0.9761904761904762,0.9761904761904762,0.9761904761904762,0.9761904761904762,0.9761904761904762,0.9761904761904762,0.9761904761904762,0.9761904761904762,0.9761904761904762,0.9761904761904762,0.9761904761904762,0.9761904761904762,0.9761904761904762,0.9761904761904762,0.9761904761904762,0.9761904761904762,0.9761904761904762,0.9761904761904762,0.9761904761904762,0.9761904761904762,0.9761904761904762,0.9761904761904762,0.9761904761904762,0.9761904761904762,0.9761904761904762,0.9761904761904762,0.9761904761904762,0.9761904761904762,0.9761904761904762,0.9761904761904762,0.9761904761904762,0.9761904761904762,0.9761904761904762,0.9761904761904762,0.9761904761904762,0.9761904761904762,0.9761904761904762,0.9761904761904762,0.9761904761904762,0.9761904761904762,0.9761904761904762,0.9761904761904762,0.9761904761904762,0.9761904761904762,0.9761904761904762,0.9761904761904762,0.9761904761904762,0.9761904761904762,0.9761904761904762,0.9761904761904762,0.9761904761904762,0.9761904761904762,0.9761904761904762,0.9761904761904762,0.9761904761904762,0.9761904761904762,0.9761904761904762,0.9761904761904762,0.9761904761904762,0.9761904761904762,0.9761904761904762,0.9761904761904762,0.9761904761904762,0.9761904761904762,0.9761904761904762,0.9761904761904762,0.9761904761904762,0.9761904761904762,0.9761904761904762,0.9761904761904762,0.9761904761904762,0.9761904761904762,0.9761904761904762,0.9761904761904762,0.9761904761904762,0.9761904761904762,0.9761904761904762,0.9761904761904762,0.9761904761904762,0.9761904761904762,0.9761904761904762,0.9761904761904762,0.9761904761904762,0.9761904761904762,0.9761904761904762,0.9761904761904762,0.9761904761904762,0.9761904761904762,0.9761904761904762,0.9761904761904762,0.9761904761904762,0.9761904761904762,0.9761904761904762,0.9761904761904762,0.9761904761904762,0.9761904761904762,0.9761904761904762,0.9761904761904762,0.9761904761904762,0.9761904761904762,0.9761904761904762,0.9761904761904762,0.9761904761904762,0.9761904761904762,0.9761904761904762,0.9761904761904762,0.9761904761904762,0.9761904761904762,0.9761904761904762,0.9761904761904762,0.9761904761904762,0.9761904761904762,0.9761904761904762,0.9761904761904762,0.9761904761904762,0.9761904761904762,0.9761904761904762,0.9761904761904762,0.9761904761904762,0.9761904761904762,0.9761904761904762,0.9761904761904762,0.9761904761904762,0.9761904761904762,0.9761904761904762,0.9761904761904762,0.9761904761904762,0.9761904761904762,0.9761904761904762,0.9761904761904762,0.9761904761904762,0.9761904761904762,0.9761904761904762,0.9761904761904762,0.9761904761904762,0.9761904761904762,0.9761904761904762,0.9761904761904762,0.9761904761904762,0.9761904761904762,0.9761904761904762,0.9761904761904762,0.9761904761904762,0.9761904761904762,0.9761904761904762,0.9761904761904762,0.9761904761904762,0.9761904761904762,0.9761904761904762,0.9761904761904762,0.9761904761904762,0.9761904761904762,0.9761904761904762,0.9761904761904762,0.9761904761904762,0.9761904761904762,0.9761904761904762,0.9761904761904762,0.9761904761904762,0.9761904761904762,0.9761904761904762,0.9761904761904762,0.9761904761904762,0.9761904761904762,0.9761904761904762,0.9761904761904762,0.9761904761904762,0.9761904761904762,0.9761904761904762,0.9761904761904762,0.9761904761904762,0.9761904761904762,0.9761904761904762,0.9761904761904762,0.9761904761904762,0.9761904761904762,0.9761904761904762,0.9761904761904762,0.9761904761904762,0.9761904761904762,0.9761904761904762,0.9761904761904762,0.9761904761904762,0.9761904761904762,0.9761904761904762,0.9761904761904762,0.9761904761904762,0.9761904761904762,0.9761904761904762,0.9761904761904762,0.9761904761904762,0.9761904761904762,0.9761904761904762,0.9761904761904762,0.9761904761904762,0.9761904761904762,0.9761904761904762,0.9761904761904762,0.9761904761904762,0.9761904761904762,0.9761904761904762,0.9761904761904762,0.9761904761904762,0.9761904761904762,0.9761904761904762,0.9761904761904762,0.9761904761904762,0.9761904761904762,0.9761904761904762,0.9761904761904762,0.9659863945578231,0.9455782312925171,0.9183673469387755,0.8843537414965986,0.8469387755102041,0.8231292517006803,0.7993197278911565,0.782312925170068,0.7687074829931972,0.7585034013605442,0.7517006802721088,0.7448979591836735,0.7380952380952381,0.7346938775510204,0.7312925170068028,0.7278911564625851,0.7278911564625851,0.7244897959183674,0.7210884353741497,0.717687074829932,0.7108843537414966,0.7040816326530612,0.6938775510204082,0.6802721088435374,0.6666666666666666,0.6530612244897959,0.6360544217687075,0.6190476190476191,0.608843537414966,0.6020408163265306,0.5952380952380952,0.5884353741496599,0.5816326530612245,0.5782312925170068,0.5782312925170068,0.5782312925170068,0.5782312925170068,0.5782312925170068,0.5782312925170068,0.5782312925170068,0.5782312925170068,0.5782312925170068,0.5782312925170068,0.5782312925170068,0.5782312925170068,0.5782312925170068,0.5782312925170068,0.5782312925170068,0.5782312925170068,0.5782312925170068,0.5782312925170068,0.5782312925170068,0.5782312925170068,0.5782312925170068,0.5782312925170068,0.5782312925170068,0.5782312925170068,0.5782312925170068,0.5782312925170068,0.5782312925170068,0.5782312925170068,0.5782312925170068,0.5782312925170068,0.5782312925170068,0.5782312925170068,0.5782312925170068,0.5782312925170068,0.5782312925170068,0.5782312925170068,0.5782312925170068,0.5782312925170068,0.5782312925170068,0.5782312925170068,0.5782312925170068,0.5782312925170068,0.5782312925170068,0.5782312925170068,0.5782312925170068,0.5782312925170068,0.5782312925170068,0.5782312925170068,0.5782312925170068,0.5782312925170068,0.5782312925170068,0.5782312925170068,0.5782312925170068,0.5782312925170068,0.5782312925170068,0.5782312925170068,0.5782312925170068,0.5782312925170068,0.5782312925170068,0.5782312925170068,0.5782312925170068,0.5782312925170068,0.5782312925170068,0.5782312925170068,0.5782312925170068,0.5782312925170068,0.5782312925170068,0.5782312925170068,0.5782312925170068,0.5782312925170068,0.5782312925170068,0.5782312925170068,0.5782312925170068,0.5782312925170068,0.5782312925170068,0.5782312925170068,0.5782312925170068,0.5782312925170068,0.5782312925170068,0.5782312925170068,0.5782312925170068,0.5782312925170068,0.5782312925170068,0.5782312925170068,0.5782312925170068,0.5782312925170068,0.5782312925170068,0.5782312925170068,0.5782312925170068,0.5782312925170068,0.5782312925170068,0.5782312925170068,0.5782312925170068,0.5782312925170068,0.5782312925170068,0.5782312925170068,0.5782312925170068,0.5782312925170068,0.5782312925170068,0.5782312925170068,0.5782312925170068,0.5782312925170068,0.5782312925170068,0.5782312925170068,0.5782312925170068,0.5782312925170068,0.5782312925170068,0.5782312925170068,0.5782312925170068,0.5782312925170068,0.5782312925170068,0.5782312925170068,0.5782312925170068,0.5782312925170068,0.5782312925170068,0.5782312925170068,0.5782312925170068,0.5782312925170068,0.5782312925170068,0.5782312925170068,0.5782312925170068,0.5782312925170068,0.5782312925170068,0.5782312925170068,0.5782312925170068,0.5782312925170068,0.5782312925170068,0.5782312925170068,0.5782312925170068,0.5782312925170068,0.5782312925170068,0.5782312925170068,0.5782312925170068,0.5782312925170068,0.5782312925170068,0.5782312925170068,0.5782312925170068,0.5782312925170068,0.5782312925170068,0.5782312925170068,0.5782312925170068,0.5782312925170068,0.5782312925170068,0.5782312925170068,0.5782312925170068,0.5782312925170068,0.5782312925170068,0.5782312925170068,0.5782312925170068,0.5782312925170068,0.5782312925170068,0.5782312925170068,0.5782312925170068,0.5782312925170068,0.5782312925170068,0.5782312925170068,0.5782312925170068,0.5782312925170068,0.5782312925170068,0.5782312925170068,0.5782312925170068,0.5782312925170068,0.5782312925170068,0.5782312925170068,0.5782312925170068,0.5782312925170068,0.5782312925170068,0.5782312925170068,0.5782312925170068,0.5782312925170068,0.5782312925170068,0.5782312925170068,0.5782312925170068,0.5782312925170068,0.5782312925170068,0.5782312925170068,0.5782312925170068,0.5782312925170068,0.5782312925170068,0.5782312925170068,0.5782312925170068,0.5782312925170068,0.5782312925170068,0.5782312925170068,0.5782312925170068,0.5782312925170068,0.5782312925170068,0.5782312925170068,0.5782312925170068,0.5782312925170068,0.5782312925170068,0.5782312925170068,0.5782312925170068,0.5782312925170068,0.5782312925170068,0.5782312925170068,0.5782312925170068,0.5782312925170068,0.5782312925170068,0.5782312925170068,0.5782312925170068,0.5782312925170068,0.5782312925170068,0.5782312925170068,0.5782312925170068,0.5782312925170068,0.5782312925170068,0.5782312925170068,0.5782312925170068,0.5782312925170068,0.5782312925170068,0.5782312925170068,0.5782312925170068,0.5782312925170068,0.5782312925170068,0.5782312925170068,0.5782312925170068,0.5782312925170068,0.5782312925170068,0.5782312925170068,0.5782312925170068,0.5782312925170068,0.5782312925170068,0.5782312925170068,0.5782312925170068,0.5782312925170068,0.5782312925170068,0.5782312925170068,0.5782312925170068,0.5782312925170068,0.5782312925170068,0.5782312925170068,0.5782312925170068,0.5782312925170068,0.5782312925170068,0.5782312925170068,0.5782312925170068,0.5782312925170068,0.5782312925170068,0.5782312925170068,0.5782312925170068,0.5782312925170068,0.5782312925170068,0.5782312925170068,0.5782312925170068,0.5782312925170068,0.5782312925170068,0.5782312925170068,0.5782312925170068,0.5782312925170068,0.5782312925170068,0.5782312925170068,0.5782312925170068,0.5782312925170068,0.5782312925170068,0.5782312925170068,0.5782312925170068,0.5782312925170068,0.5782312925170068,0.5782312925170068,0.5782312925170068,0.5714285714285714,0.5612244897959183,0.5510204081632653,0.54421768707483,0.5272108843537415,0.5170068027210885,0.5068027210884354,0.4965986394557823,0.48639455782312924,0.48299319727891155,0.47959183673469385,0.47959183673469385,0.47619047619047616,0.47619047619047616,0.47619047619047616,0.47619047619047616,0.47619047619047616,0.48299319727891155,0.4965986394557823,0.5136054421768708,0.5374149659863946,0.5680272108843537,0.6054421768707483,0.6292517006802721,0.6598639455782312,0.6870748299319728,0.7006802721088435,0.7244897959183674,0.7346938775510204,0.7414965986394558,0.7482993197278912,0.7517006802721088,0.7517006802721088,0.7517006802721088,0.7448979591836735,0.7312925170068028,0.717687074829932,0.6972789115646258,0.6666666666666666,0.6258503401360545,0.5816326530612245,0.5408163265306123,0.5204081632653061,0.4931972789115646,0.47959183673469385,0.46598639455782315,0.4557823129251701,0.4489795918367347,0.4421768707482993,0.4387755102040816,0.43537414965986393,0.43197278911564624,0.43197278911564624,0.42857142857142855,0.42517006802721086,0.4217687074829932,0.41496598639455784,0.40476190476190477,0.3945578231292517,0.38095238095238093,0.36394557823129253,0.3401360544217687,0.3231292517006803,0.30612244897959184,0.2891156462585034,0.2755102040816326,0.2619047619047619,0.24829931972789115,0.24149659863945577,0.23129251700680273,0.22448979591836735,0.21428571428571427,0.20748299319727892,0.20408163265306123,0.20068027210884354,0.19727891156462585,0.19387755102040816,0.19047619047619047,0.19047619047619047,0.1870748299319728,0.1870748299319728,0.1870748299319728,0.1836734693877551,0.1836734693877551,0.18027210884353742,0.18027210884353742,0.17687074829931973,0.17346938775510204,0.16666666666666666,0.16666666666666666,0.1598639455782313,0.1598639455782313,0.1564625850340136,0.15306122448979592,0.15306122448979592,0.15306122448979592,0.15306122448979592,0.15306122448979592,0.15306122448979592,0.15306122448979592,0.15306122448979592,0.15306122448979592,0.15306122448979592,0.15306122448979592,0.15306122448979592,0.15306122448979592,0.15306122448979592,0.15306122448979592,0.15306122448979592,0.15306122448979592,0.15306122448979592,0.15306122448979592,0.15306122448979592,0.15306122448979592,0.15306122448979592,0.15306122448979592,0.15306122448979592,0.15306122448979592,0.15306122448979592,0.15306122448979592,0.15306122448979592,0.15306122448979592,0.15306122448979592,0.15306122448979592,0.15306122448979592,0.15306122448979592,0.15306122448979592,0.15306122448979592,0.15306122448979592,0.15306122448979592,0.15306122448979592,0.15306122448979592,0.15306122448979592,0.15306122448979592,0.15306122448979592,0.15306122448979592,0.15306122448979592,0.15306122448979592,0.15306122448979592,0.15306122448979592,0.15306122448979592,0.15306122448979592,0.15306122448979592,0.15306122448979592,0.15306122448979592,0.15306122448979592,0.15306122448979592,0.15306122448979592,0.15306122448979592,0.15306122448979592,0.15306122448979592,0.15306122448979592,0.15306122448979592,0.15306122448979592,0.15306122448979592,0.15306122448979592,0.15306122448979592,0.15306122448979592,0.15306122448979592,0.15306122448979592,0.15306122448979592,0.15306122448979592,0.15306122448979592,0.15306122448979592,0.15306122448979592,0.15306122448979592,0.15306122448979592,0.15306122448979592,0.15306122448979592,0.15306122448979592,0.15306122448979592,0.15306122448979592,0.15306122448979592,0.15306122448979592,0.15306122448979592,0.15306122448979592,0.15306122448979592,0.15306122448979592,0.15306122448979592,0.15306122448979592,0.15306122448979592,0.15306122448979592,0.15306122448979592,0.15306122448979592,0.15306122448979592,0.15306122448979592,0.15306122448979592,0.15306122448979592,0.15306122448979592,0.15306122448979592,0.15306122448979592,0.15306122448979592,0.15306122448979592,0.15306122448979592,0.15306122448979592,0.15306122448979592,0.15306122448979592,0.15306122448979592,0.15306122448979592,0.15306122448979592,0.15306122448979592,0.15306122448979592,0.15306122448979592,0.15306122448979592,0.15306122448979592,0.15306122448979592,0.15306122448979592,0.15306122448979592,0.15306122448979592,0.15306122448979592,0.15306122448979592,0.15306122448979592,0.15306122448979592,0.15306122448979592,0.15306122448979592,0.15306122448979592,0.15306122448979592,0.15306122448979592,0.15306122448979592,0.15306122448979592,0.15306122448979592,0.15306122448979592,0.15306122448979592,0.15306122448979592,0.15306122448979592,0.15306122448979592,0.15306122448979592,0.15306122448979592,0.15306122448979592,0.15306122448979592,0.15306122448979592,0.15306122448979592,0.15306122448979592,0.15306122448979592,0.15306122448979592,0.15306122448979592,0.15306122448979592,0.15306122448979592,0.15306122448979592,0.15306122448979592,0.15306122448979592,0.15306122448979592,0.15306122448979592,0.15306122448979592,0.15306122448979592,0.15306122448979592,0.15306122448979592,0.15306122448979592,0.15306122448979592,0.15306122448979592,0.15306122448979592,0.15306122448979592,0.15306122448979592,0.15306122448979592,0.15306122448979592,0.15306122448979592,0.15306122448979592,0.15306122448979592,0.15306122448979592,0.15306122448979592,0.15306122448979592,0.15306122448979592,0.15306122448979592,0.15306122448979592,0.15306122448979592,0.15306122448979592,0.15306122448979592,0.15306122448979592,0.15306122448979592,0.15306122448979592,0.15306122448979592,0.15306122448979592,0.15306122448979592,0.15306122448979592,0.15306122448979592,0.15306122448979592,0.15306122448979592,0.15306122448979592,0.15306122448979592,0.15306122448979592,0.15306122448979592,0.15306122448979592,0.15306122448979592,0.15306122448979592,0.15306122448979592,0.15306122448979592,0.15306122448979592,0.15306122448979592,0.15306122448979592,0.15306122448979592,0.15306122448979592,0.15306122448979592,0.15306122448979592,0.15306122448979592,0.15306122448979592,0.15306122448979592,0.15306122448979592,0.15306122448979592,0.15306122448979592,0.15306122448979592,0.15306122448979592,0.15306122448979592,0.15306122448979592,0.15306122448979592,0.15306122448979592,0.15306122448979592,0.15306122448979592,0.15306122448979592,0.15306122448979592,0.15306122448979592,0.15306122448979592,0.15306122448979592,0.15306122448979592,0.15306122448979592,0.15306122448979592,0.15306122448979592,0.15306122448979592,0.15306122448979592,0.15306122448979592,0.15306122448979592,0.15306122448979592,0.15306122448979592,0.15306122448979592,0.15306122448979592,0.15306122448979592,0.15306122448979592,0.15306122448979592,0.15306122448979592,0.15306122448979592,0.15306122448979592,0.15306122448979592,0.15306122448979592,0.15306122448979592,0.15306122448979592,0.15306122448979592,0.15306122448979592,0.15306122448979592,0.15306122448979592,0.15306122448979592,0.15306122448979592,0.15306122448979592,0.15306122448979592,0.15306122448979592,0.15306122448979592,0.15306122448979592,0.15306122448979592,0.15306122448979592,0.15306122448979592,0.15306122448979592,0.15306122448979592,0.15306122448979592,0.15306122448979592,0.15306122448979592,0.15306122448979592,0.15306122448979592,0.15306122448979592,0.15306122448979592,0.15306122448979592,0.15306122448979592,0.15306122448979592,0.15306122448979592,0.15306122448979592,0.15306122448979592,0.15306122448979592,0.15306122448979592,0.15306122448979592,0.15306122448979592,0.15306122448979592,0.15306122448979592,0.15306122448979592,0.15306122448979592,0.15306122448979592,0.15306122448979592,0.15306122448979592,0.15306122448979592,0.15306122448979592,0.15306122448979592,0.15306122448979592,0.15306122448979592,0.15306122448979592,0.15306122448979592,0.15306122448979592,0.15306122448979592,0.15306122448979592,0.15306122448979592,0.15306122448979592,0.15306122448979592,0.15306122448979592,0.15306122448979592,0.15306122448979592,0.15306122448979592,0.15306122448979592,0.15306122448979592,0.15306122448979592,0.15306122448979592,0.15306122448979592,0.15306122448979592,0.15306122448979592,0.15306122448979592,0.15306122448979592,0.15306122448979592,0.15306122448979592,0.15306122448979592,0.15306122448979592,0.15306122448979592,0.15306122448979592,0.15306122448979592,0.15306122448979592,0.15306122448979592,0.15306122448979592,0.15306122448979592,0.15306122448979592,0.15306122448979592,0.15306122448979592,0.15306122448979592,0.15306122448979592,0.15306122448979592,0.15306122448979592,0.15306122448979592,0.15306122448979592,0.15306122448979592,0.15306122448979592,0.15306122448979592,0.15306122448979592,0.15306122448979592,0.15306122448979592,0.15306122448979592,0.15306122448979592,0.15306122448979592,0.15306122448979592,0.15306122448979592,0.15306122448979592,0.15306122448979592,0.15306122448979592,0.15306122448979592,0.15306122448979592,0.15306122448979592,0.15306122448979592,0.15306122448979592,0.15306122448979592,0.15306122448979592,0.15306122448979592,0.15306122448979592,0.15306122448979592,0.15306122448979592,0.15306122448979592,0.15306122448979592,0.15306122448979592,0.15306122448979592,0.15306122448979592,0.15306122448979592,0.15306122448979592,0.15306122448979592,0.15306122448979592,0.15306122448979592,0.15306122448979592,0.15306122448979592,0.15306122448979592,0.15306122448979592,0.15306122448979592,0.15306122448979592,0.15306122448979592,0.15306122448979592,0.15306122448979592,0.15306122448979592,0.15306122448979592,0.15306122448979592,0.15306122448979592,0.15306122448979592,0.15306122448979592,0.15306122448979592,0.15306122448979592,0.15306122448979592,0.15306122448979592,0.15306122448979592,0.15306122448979592,0.15306122448979592,0.15306122448979592,0.15306122448979592,0.15306122448979592,0.15306122448979592,0.15306122448979592,0.15306122448979592,0.15306122448979592,0.15306122448979592,0.15306122448979592,0.15306122448979592,0.15306122448979592,0.15306122448979592,0.15306122448979592,0.15306122448979592,0.15306122448979592,0.15306122448979592,0.15306122448979592,0.15306122448979592,0.15306122448979592,0.15306122448979592,0.15306122448979592,0.15306122448979592,0.15306122448979592,0.15306122448979592,0.15306122448979592,0.15306122448979592,0.15306122448979592,0.15306122448979592,0.15306122448979592,0.15306122448979592,0.15306122448979592,0.15306122448979592,0.15306122448979592,0.15306122448979592,0.15306122448979592,0.15306122448979592,0.15306122448979592,0.15306122448979592,0.15306122448979592,0.15306122448979592,0.15306122448979592,0.15306122448979592,0.15306122448979592,0.16666666666666666,0.19387755102040816,0.22789115646258504,0.282312925170068,0.36394557823129253,0.4217687074829932,0.48299319727891155,0.5340136054421769,0.5340136054421769,0.5340136054421769,0.5340136054421769,0.5340136054421769,0.5340136054421769,0.5340136054421769,0.5340136054421769,0.5340136054421769,0.5340136054421769,0.5340136054421769,0.5340136054421769,0.5340136054421769,0.5340136054421769,0.5340136054421769,0.5340136054421769,0.5340136054421769,0.5340136054421769,0.5340136054421769,0.54421768707483,0.5816326530612245,0.6190476190476191,0.6870748299319728,0.7414965986394558,0.8027210884353742,0.826530612244898,0.8503401360544217,0.8605442176870748,0.8605442176870748,0.8639455782312925,0.8639455782312925,0.8639455782312925,0.8639455782312925,0.8639455782312925,0.8639455782312925,0.8639455782312925,0.8639455782312925,0.8639455782312925,0.8639455782312925,0.8605442176870748,0.8605442176870748,0.8605442176870748,0.8605442176870748,0.8605442176870748,0.8571428571428571,0.8571428571428571,0.8537414965986394,0.8503401360544217,0.8469387755102041,0.8469387755102041,0.8401360544217688,0.8401360544217688,0.8367346938775511,0.8333333333333334,0.8333333333333334,0.8299319727891157,0.8299319727891157,0.8299319727891157,0.826530612244898,0.826530612244898,0.826530612244898,0.826530612244898,0.826530612244898,0.826530612244898,0.826530612244898,0.826530612244898,0.826530612244898,0.826530612244898,0.826530612244898,0.826530612244898,0.826530612244898,0.826530612244898,0.826530612244898,0.826530612244898,0.826530612244898,0.826530612244898,0.8095238095238095,0.7619047619047619,0.6836734693877551,0.5816326530612245,0.47278911564625853,0.4013605442176871,0.32653061224489793,0.272108843537415,0.23469387755102042,0.22108843537414966,0.21428571428571427,0.2108843537414966,0.2108843537414966,0.2108843537414966,0.2108843537414966,0.2108843537414966,0.2108843537414966,0.2108843537414966,0.20408163265306123,0.19387755102040816,0.1836734693877551,0.1564625850340136,0.1360544217687075,0.11564625850340136,0.09863945578231292,0.08503401360544217,0.06802721088435375,0.061224489795918366,0.05442176870748299,0.04421768707482993,0.04081632653061224,0.034013605442176874,0.027210884353741496,0.023809523809523808,0.02040816326530612,0.02040816326530612,0.02040816326530612,0.02040816326530612,0.02040816326530612,0.02040816326530612,0.02040816326530612,0.02040816326530612,0.02040816326530612,0.02040816326530612,0.02040816326530612,0.02040816326530612,0.02040816326530612,0.02040816326530612,0.02040816326530612,0.02040816326530612,0.02040816326530612,0.02040816326530612,0.02040816326530612,0.02040816326530612,0.02040816326530612,0.02040816326530612,0.02040816326530612,0.02040816326530612,0.02040816326530612,0.02040816326530612,0.02040816326530612,0.02040816326530612,0.02040816326530612,0.02040816326530612,0.02040816326530612,0.02040816326530612,0.02040816326530612,0.02040816326530612,0.02040816326530612,0.02040816326530612,0.02040816326530612,0.02040816326530612,0.02040816326530612,0.02040816326530612,0.02040816326530612,0.02040816326530612,0.02040816326530612,0.02040816326530612,0.02040816326530612,0.02040816326530612,0.02040816326530612,0.02040816326530612,0.02040816326530612,0.02040816326530612,0.02040816326530612,0.02040816326530612,0.02040816326530612,0.02040816326530612,0.02040816326530612,0.02040816326530612,0.02040816326530612,0.02040816326530612,0.02040816326530612,0.02040816326530612,0.02040816326530612,0.02040816326530612,0.02040816326530612,0.02040816326530612,0.02040816326530612,0.02040816326530612,0.02040816326530612,0.02040816326530612,0.02040816326530612,0.02040816326530612,0.02040816326530612,0.02040816326530612,0.02040816326530612,0.02040816326530612,0.02040816326530612,0.02040816326530612,0.02040816326530612,0.02040816326530612,0.02040816326530612,0.030612244897959183,0.06462585034013606,0.12585034013605442,0.20408163265306123,0.2857142857142857,0.336734693877551,0.3945578231292517,0.46258503401360546,0.4965986394557823,0.4965986394557823,0.4965986394557823,0.4965986394557823,0.4965986394557823,0.4965986394557823,0.4965986394557823,0.4965986394557823,0.4965986394557823,0.4965986394557823,0.4965986394557823,0.4965986394557823,0.4965986394557823,0.4965986394557823,0.4965986394557823,0.5068027210884354,0.5272108843537415,0.5714285714285714,0.6360544217687075,0.7142857142857143,0.7653061224489796,0.8231292517006803,0.8639455782312925,0.8843537414965986,0.9047619047619048,0.9115646258503401,0.9149659863945578,0.9183673469387755,0.9183673469387755,0.9183673469387755,0.9183673469387755,0.9183673469387755,0.9183673469387755,0.9183673469387755,0.9183673469387755,0.9183673469387755,0.9183673469387755,0.9183673469387755,0.9183673469387755,0.9183673469387755,0.9183673469387755,0.9183673469387755,0.9183673469387755,0.9183673469387755,0.9183673469387755,0.9183673469387755,0.9183673469387755,0.9183673469387755,0.9183673469387755,0.9183673469387755,0.9183673469387755,0.9183673469387755,0.9183673469387755,0.9183673469387755,0.9183673469387755,0.9183673469387755,0.9183673469387755,0.9183673469387755,0.9183673469387755,0.9183673469387755,0.9183673469387755,0.9183673469387755,0.9183673469387755,0.9183673469387755,0.9183673469387755,0.9183673469387755,0.9183673469387755,0.9183673469387755,0.9183673469387755,0.9149659863945578,0.9047619047619048,0.8843537414965986,0.8299319727891157,0.7653061224489796,0.6836734693877551,0.6190476190476191,0.5544217687074829,0.5034013605442177,0.46938775510204084,0.4523809523809524,0.445578231292517,0.4421768707482993,0.4387755102040816,0.4387755102040816,0.4387755102040816,0.4387755102040816,0.4387755102040816,0.4387755102040816,0.4387755102040816,0.4387755102040816,0.4387755102040816,0.4387755102040816,0.4387755102040816,0.4387755102040816,0.4387755102040816,0.4387755102040816,0.4387755102040816,0.4387755102040816,0.4387755102040816,0.4387755102040816,0.4387755102040816,0.4387755102040816,0.4387755102040816,0.4387755102040816,0.4387755102040816,0.4387755102040816,0.4387755102040816,0.4387755102040816,0.4387755102040816,0.4387755102040816,0.4387755102040816,0.4387755102040816,0.4387755102040816,0.4387755102040816,0.4387755102040816,0.4387755102040816,0.4387755102040816,0.4387755102040816,0.4387755102040816,0.4387755102040816,0.4387755102040816,0.4387755102040816,0.4387755102040816,0.4387755102040816,0.4387755102040816,0.4387755102040816,0.4387755102040816,0.4387755102040816,0.4387755102040816,0.4387755102040816,0.4387755102040816,0.4387755102040816,0.4387755102040816,0.4387755102040816,0.4387755102040816,0.4387755102040816,0.4387755102040816,0.4387755102040816,0.4387755102040816,0.4387755102040816,0.4387755102040816,0.4387755102040816,0.4387755102040816,0.4387755102040816,0.4387755102040816,0.4387755102040816,0.4387755102040816,0.4387755102040816,0.4387755102040816,0.4387755102040816,0.4387755102040816,0.4387755102040816,0.4387755102040816,0.4387755102040816,0.4387755102040816,0.4421768707482993,0.4557823129251701,0.4931972789115646,0.5476190476190477,0.6224489795918368,0.7210884353741497,0.7891156462585034,0.8605442176870748,0.9115646258503401,0.9387755102040817,0.9591836734693877,0.9727891156462585,0.9761904761904762,0.9795918367346939,0.9795918367346939,0.9795918367346939,0.9795918367346939,0.9761904761904762,0.9727891156462585,0.9659863945578231,0.9489795918367347,0.9387755102040817,0.9251700680272109,0.891156462585034,0.8673469387755102,0.8435374149659864,0.8163265306122449,0.7959183673469388,0.7755102040816326,0.7619047619047619,0.7482993197278912,0.7414965986394558,0.7380952380952381,0.7346938775510204,0.7312925170068028,0.7312925170068028,0.7312925170068028,0.7312925170068028,0.7312925170068028,0.7278911564625851,0.7278911564625851,0.7278911564625851,0.7278911564625851,0.7278911564625851,0.7244897959183674,0.7210884353741497,0.7108843537414966,0.6870748299319728,0.6632653061224489,0.6496598639455783,0.6326530612244898,0.6190476190476191,0.608843537414966,0.6054421768707483,0.6020408163265306,0.6020408163265306,0.6020408163265306,0.6020408163265306,0.6020408163265306,0.6020408163265306,0.6020408163265306,0.6020408163265306,0.6020408163265306,0.6020408163265306,0.6020408163265306,0.6020408163265306,0.6020408163265306,0.6020408163265306,0.6020408163265306,0.6020408163265306,0.6020408163265306,0.6020408163265306,0.6020408163265306,0.6020408163265306,0.6020408163265306,0.6020408163265306,0.6020408163265306,0.6020408163265306,0.6020408163265306,0.6020408163265306,0.6020408163265306,0.6020408163265306,0.6020408163265306,0.6020408163265306,0.6020408163265306,0.6020408163265306,0.6020408163265306,0.6020408163265306,0.6020408163265306,0.6020408163265306,0.6020408163265306,0.6020408163265306,0.6020408163265306,0.6020408163265306,0.6020408163265306,0.6020408163265306,0.6020408163265306,0.6020408163265306,0.6020408163265306,0.6020408163265306,0.6020408163265306,0.6020408163265306,0.6020408163265306,0.6020408163265306,0.6020408163265306,0.6020408163265306,0.6020408163265306,0.6020408163265306,0.6020408163265306,0.6020408163265306,0.6020408163265306,0.6020408163265306,0.6020408163265306,0.6020408163265306,0.6020408163265306,0.6020408163265306,0.6020408163265306,0.6020408163265306,0.6020408163265306,0.6020408163265306,0.6020408163265306,0.6020408163265306,0.6020408163265306,0.6020408163265306,0.6020408163265306,0.6020408163265306,0.6020408163265306,0.6020408163265306,0.6020408163265306,0.6020408163265306,0.6020408163265306,0.6020408163265306,0.6020408163265306,0.6020408163265306,0.6020408163265306,0.6020408163265306,0.6020408163265306,0.6020408163265306,0.6020408163265306,0.6020408163265306,0.6020408163265306,0.6020408163265306,0.6020408163265306,0.6020408163265306,0.6020408163265306,0.6020408163265306,0.6020408163265306,0.6020408163265306,0.6020408163265306,0.6020408163265306,0.6020408163265306,0.6020408163265306,0.6020408163265306,0.6020408163265306,0.6020408163265306,0.6020408163265306,0.6020408163265306,0.6020408163265306,0.6020408163265306,0.6020408163265306,0.5986394557823129,0.5748299319727891,0.5204081632653061,0.46598639455782315,0.3979591836734694,0.3435374149659864,0.3163265306122449,0.282312925170068,0.272108843537415,0.2653061224489796,0.2619047619047619,0.2585034013605442,0.2585034013605442,0.25510204081632654,0.25170068027210885,0.25170068027210885,0.24489795918367346,0.23809523809523808,0.22448979591836735,0.20748299319727892,0.19047619047619047,0.17006802721088435,0.1564625850340136,0.14285714285714285,0.1326530612244898,0.12244897959183673,0.12244897959183673,0.12244897959183673,0.12244897959183673,0.12244897959183673,0.12244897959183673,0.12244897959183673,0.12244897959183673,0.12244897959183673,0.12244897959183673,0.12244897959183673,0.12244897959183673,0.12244897959183673,0.12244897959183673,0.12244897959183673,0.12244897959183673,0.12244897959183673,0.12244897959183673,0.12244897959183673,0.12244897959183673,0.12244897959183673,0.12244897959183673,0.12244897959183673,0.12244897959183673,0.12244897959183673,0.12244897959183673,0.12244897959183673,0.12244897959183673,0.12244897959183673,0.12244897959183673,0.12244897959183673,0.12244897959183673,0.12244897959183673,0.12244897959183673,0.12244897959183673,0.12244897959183673,0.12244897959183673,0.12244897959183673,0.12244897959183673,0.12244897959183673,0.12244897959183673,0.12244897959183673,0.12244897959183673,0.12244897959183673,0.12244897959183673,0.12244897959183673,0.12244897959183673,0.12244897959183673,0.12244897959183673,0.12244897959183673,0.12244897959183673,0.12244897959183673,0.12244897959183673,0.12244897959183673,0.12244897959183673,0.12244897959183673,0.12244897959183673,0.12244897959183673,0.12244897959183673,0.12244897959183673,0.12244897959183673,0.12244897959183673,0.12244897959183673,0.12244897959183673,0.12244897959183673,0.12244897959183673,0.12244897959183673,0.12244897959183673,0.12244897959183673,0.12244897959183673,0.12244897959183673,0.12244897959183673,0.12244897959183673,0.12244897959183673,0.12244897959183673,0.12244897959183673,0.12244897959183673,0.12244897959183673,0.12244897959183673,0.12244897959183673,0.12244897959183673,0.12244897959183673,0.12244897959183673,0.12244897959183673,0.12244897959183673,0.12244897959183673,0.12244897959183673,0.12244897959183673,0.12244897959183673,0.12244897959183673,0.12244897959183673,0.12244897959183673,0.12244897959183673,0.12244897959183673,0.12244897959183673,0.12244897959183673,0.12244897959183673,0.12244897959183673,0.12244897959183673,0.12244897959183673,0.12244897959183673,0.12244897959183673,0.12244897959183673,0.12244897959183673,0.12244897959183673,0.12244897959183673,0.12244897959183673,0.12244897959183673,0.12244897959183673,0.12244897959183673,0.12244897959183673,0.12244897959183673,0.12244897959183673,0.12244897959183673,0.12244897959183673,0.12244897959183673,0.12244897959183673,0.12244897959183673,0.12244897959183673,0.12244897959183673,0.12244897959183673,0.12244897959183673,0.12244897959183673,0.12244897959183673,0.12244897959183673,0.12244897959183673,0.12244897959183673,0.12244897959183673,0.12244897959183673,0.12244897959183673,0.12244897959183673,0.12244897959183673,0.12244897959183673,0.12244897959183673,0.12244897959183673,0.12244897959183673,0.12244897959183673,0.12244897959183673,0.12244897959183673,0.12244897959183673,0.12244897959183673,0.12244897959183673,0.12244897959183673,0.12244897959183673,0.12244897959183673,0.12244897959183673,0.12244897959183673,0.12244897959183673,0.12244897959183673,0.12244897959183673,0.12244897959183673,0.12244897959183673,0.12244897959183673,0.12244897959183673,0.12244897959183673,0.12244897959183673,0.12244897959183673,0.12244897959183673,0.12244897959183673,0.12244897959183673,0.12244897959183673,0.12244897959183673,0.12244897959183673,0.12244897959183673,0.12244897959183673,0.12244897959183673,0.12244897959183673,0.12244897959183673,0.12244897959183673,0.12244897959183673,0.12244897959183673,0.12244897959183673,0.12244897959183673,0.12244897959183673,0.12244897959183673,0.12244897959183673,0.12244897959183673,0.12244897959183673,0.12244897959183673,0.12244897959183673,0.12244897959183673,0.12244897959183673,0.12244897959183673,0.12244897959183673,0.12244897959183673,0.12244897959183673,0.12244897959183673,0.12244897959183673,0.12244897959183673,0.12244897959183673,0.12244897959183673,0.12244897959183673,0.12244897959183673,0.12244897959183673,0.12244897959183673,0.12244897959183673,0.12244897959183673,0.12244897959183673,0.12244897959183673,0.12244897959183673,0.12244897959183673,0.12244897959183673,0.12244897959183673,0.12244897959183673,0.12244897959183673,0.12244897959183673,0.12244897959183673,0.12244897959183673,0.12244897959183673,0.12244897959183673,0.12244897959183673,0.12244897959183673,0.12244897959183673,0.12244897959183673,0.12244897959183673,0.12244897959183673,0.12244897959183673,0.12244897959183673,0.12244897959183673,0.12244897959183673,0.12244897959183673,0.12244897959183673,0.12244897959183673,0.12244897959183673,0.12244897959183673,0.12244897959183673,0.12244897959183673,0.12244897959183673,0.12244897959183673,0.12244897959183673,0.12244897959183673,0.12244897959183673,0.12244897959183673,0.12244897959183673,0.12244897959183673,0.12244897959183673,0.12244897959183673,0.12244897959183673,0.12244897959183673,0.12244897959183673,0.12244897959183673,0.12244897959183673,0.12244897959183673,0.12244897959183673,0.12244897959183673,0.12244897959183673,0.12244897959183673,0.12244897959183673,0.12244897959183673,0.12244897959183673,0.12244897959183673,0.12244897959183673,0.12244897959183673,0.12244897959183673,0.12244897959183673,0.12244897959183673,0.12244897959183673,0.12244897959183673,0.12244897959183673,0.12244897959183673,0.12244897959183673,0.12244897959183673,0.12244897959183673,0.12244897959183673,0.12244897959183673,0.12244897959183673,0.12244897959183673,0.12244897959183673,0.12244897959183673,0.12244897959183673,0.12244897959183673,0.12244897959183673,0.12244897959183673,0.12244897959183673,0.12244897959183673,0.12244897959183673,0.12244897959183673,0.12244897959183673,0.12244897959183673,0.12244897959183673,0.12244897959183673,0.12244897959183673,0.12244897959183673,0.12244897959183673,0.12244897959183673,0.12244897959183673,0.12244897959183673,0.12244897959183673,0.12244897959183673,0.12244897959183673,0.12244897959183673,0.12244897959183673,0.12244897959183673,0.12244897959183673,0.12244897959183673,0.12244897959183673,0.12244897959183673,0.12244897959183673,0.12244897959183673,0.12244897959183673,0.12244897959183673,0.12244897959183673,0.12244897959183673,0.12244897959183673,0.12244897959183673,0.12244897959183673,0.12244897959183673,0.12244897959183673,0.12244897959183673,0.12244897959183673,0.12244897959183673,0.12244897959183673,0.12244897959183673,0.12244897959183673,0.12244897959183673,0.12244897959183673,0.12244897959183673,0.12244897959183673,0.12244897959183673,0.12244897959183673,0.12244897959183673,0.12244897959183673,0.12244897959183673,0.12244897959183673,0.12244897959183673,0.12244897959183673,0.12244897959183673,0.12244897959183673,0.12244897959183673,0.12244897959183673,0.12244897959183673,0.12244897959183673,0.12244897959183673,0.12244897959183673,0.12244897959183673,0.12244897959183673,0.12244897959183673,0.12244897959183673,0.12244897959183673,0.12244897959183673,0.12244897959183673,0.12244897959183673,0.12244897959183673,0.12244897959183673,0.12244897959183673,0.12244897959183673,0.12244897959183673,0.12244897959183673,0.12244897959183673,0.12244897959183673,0.12244897959183673,0.12244897959183673,0.12244897959183673,0.12244897959183673,0.12244897959183673,0.12244897959183673,0.12244897959183673,0.12244897959183673,0.12244897959183673,0.12244897959183673,0.12244897959183673,0.12244897959183673,0.12244897959183673,0.12244897959183673,0.12244897959183673,0.12244897959183673,0.12244897959183673,0.12244897959183673,0.12244897959183673,0.12244897959183673,0.12244897959183673,0.12244897959183673,0.12244897959183673,0.12244897959183673,0.12244897959183673,0.12244897959183673,0.12244897959183673,0.12244897959183673,0.12244897959183673,0.12244897959183673,0.12244897959183673,0.12244897959183673,0.12244897959183673,0.12244897959183673,0.12244897959183673,0.12244897959183673,0.12244897959183673,0.12244897959183673,0.12244897959183673,0.12244897959183673,0.12244897959183673,0.12244897959183673,0.12244897959183673,0.12244897959183673,0.12244897959183673,0.12244897959183673,0.12244897959183673,0.12244897959183673,0.12244897959183673,0.12244897959183673,0.12244897959183673,0.12244897959183673,0.12244897959183673,0.12244897959183673,0.12244897959183673,0.12244897959183673,0.12244897959183673,0.12244897959183673,0.12244897959183673,0.12244897959183673,0.12244897959183673,0.12244897959183673,0.12244897959183673,0.12244897959183673,0.12244897959183673,0.12244897959183673,0.12244897959183673,0.12244897959183673,0.12244897959183673,0.12585034013605442,0.1292517006802721,0.1292517006802721,0.1326530612244898,0.1326530612244898,0.1326530612244898,0.1326530612244898,0.1326530612244898,0.1326530612244898,0.1326530612244898,0.1326530612244898,0.1326530612244898,0.1326530612244898,0.1326530612244898,0.1326530612244898,0.1326530612244898,0.1326530612244898,0.1326530612244898,0.1326530612244898,0.1326530612244898,0.1326530612244898,0.1326530612244898,0.1326530612244898,0.1326530612244898,0.1326530612244898,0.15306122448979592,0.23129251700680273,0.3197278911564626,0.4557823129251701,0.5850340136054422,0.6904761904761905,0.7517006802721088,0.7959183673469388,0.8435374149659864,0.8639455782312925,0.8639455782312925,0.8639455782312925,0.8639455782312925,0.8639455782312925,0.8639455782312925,0.8639455782312925,0.8639455782312925,0.8639455782312925,0.8639455782312925,0.8639455782312925,0.8639455782312925,0.8639455782312925,0.8639455782312925,0.8639455782312925,0.8639455782312925,0.8639455782312925,0.8775510204081632,0.8979591836734694,0.9217687074829932,0.9659863945578231,1.010204081632653,1.0476190476190477,1.064625850340136,1.0850340136054422,1.098639455782313,1.1020408163265305,1.1054421768707483,1.1054421768707483,1.1054421768707483,1.1054421768707483,1.1054421768707483,1.1054421768707483,1.1054421768707483,1.1054421768707483,1.1054421768707483,1.1054421768707483,1.1054421768707483,1.1054421768707483,1.1054421768707483,1.1054421768707483,1.1054421768707483,1.1054421768707483,1.1054421768707483,1.1054421768707483,1.1054421768707483,1.1054421768707483,1.1054421768707483,1.1054421768707483,1.1054421768707483,1.1054421768707483,1.1054421768707483,1.1020408163265305,1.0918367346938775,1.0782312925170068,1.0578231292517006,1.030612244897959,0.9965986394557823,0.9727891156462585,0.9591836734693877,0.9455782312925171,0.9319727891156463,0.9285714285714286,0.9251700680272109,0.9251700680272109,0.9217687074829932,0.9217687074829932,0.9217687074829932,0.9217687074829932,0.9217687074829932,0.9217687074829932,0.9217687074829932,0.9217687074829932,0.9217687074829932,0.9217687074829932,0.9217687074829932,0.9217687074829932,0.9217687074829932,0.9217687074829932,0.9217687074829932,0.9217687074829932,0.9217687074829932,0.9149659863945578,0.9013605442176871,0.8707482993197279,0.826530612244898,0.7755102040816326,0.7006802721088435,0.673469387755102,0.6496598639455783,0.6326530612244898,0.6224489795918368,0.6156462585034014,0.6122448979591837,0.608843537414966,0.608843537414966,0.608843537414966,0.608843537414966,0.608843537414966,0.608843537414966,0.608843537414966,0.608843537414966,0.608843537414966,0.608843537414966,0.608843537414966,0.608843537414966,0.608843537414966,0.608843537414966,0.608843537414966,0.608843537414966,0.608843537414966,0.608843537414966,0.608843537414966,0.608843537414966,0.608843537414966,0.608843537414966,0.608843537414966,0.608843537414966,0.608843537414966,0.608843537414966,0.608843537414966,0.608843537414966,0.608843537414966,0.608843537414966,0.608843537414966,0.608843537414966,0.608843537414966,0.608843537414966,0.608843537414966,0.608843537414966,0.608843537414966,0.6020408163265306,0.5952380952380952,0.5816326530612245,0.5748299319727891,0.564625850340136,0.5612244897959183,0.5578231292517006,0.5544217687074829,0.5544217687074829,0.5544217687074829,0.5544217687074829,0.5544217687074829,0.5544217687074829,0.5544217687074829,0.5544217687074829,0.5544217687074829,0.5544217687074829,0.5544217687074829,0.5544217687074829,0.5544217687074829,0.5544217687074829,0.5544217687074829,0.5544217687074829,0.5544217687074829,0.5544217687074829,0.5544217687074829,0.5544217687074829,0.5544217687074829,0.5544217687074829,0.5544217687074829,0.5544217687074829,0.5544217687074829,0.5544217687074829,0.5544217687074829,0.5544217687074829,0.5544217687074829,0.5544217687074829,0.5544217687074829,0.5544217687074829,0.5544217687074829,0.5544217687074829,0.5544217687074829,0.5544217687074829,0.5544217687074829,0.5544217687074829,0.5544217687074829,0.5544217687074829,0.5544217687074829,0.5544217687074829,0.5544217687074829,0.5544217687074829,0.5544217687074829,0.5544217687074829,0.5544217687074829,0.5544217687074829,0.5544217687074829,0.5544217687074829,0.5544217687074829,0.5544217687074829,0.5544217687074829,0.5544217687074829,0.5544217687074829,0.5544217687074829,0.5544217687074829,0.5544217687074829,0.5544217687074829,0.5544217687074829,0.5544217687074829,0.5544217687074829,0.5544217687074829,0.5544217687074829,0.5544217687074829,0.5544217687074829,0.5544217687074829,0.5544217687074829,0.5544217687074829,0.5544217687074829,0.5544217687074829,0.54421768707483,0.5170068027210885,0.47619047619047616,0.41156462585034015,0.3299319727891156,0.24489795918367346,0.1870748299319728,0.14625850340136054,0.10884353741496598,0.08843537414965986,0.0782312925170068,0.07142857142857142,0.07142857142857142,0.06802721088435375,0.06802721088435375,0.06802721088435375,0.06802721088435375,0.06802721088435375,0.06802721088435375,0.06802721088435375,0.06802721088435375,0.06802721088435375,0.06802721088435375,0.06802721088435375,0.06802721088435375,0.06802721088435375,0.06802721088435375,0.06802721088435375,0.06802721088435375,0.06802721088435375,0.06802721088435375,0.06802721088435375,0.06802721088435375,0.06802721088435375,0.06802721088435375,0.06802721088435375,0.06802721088435375,0.06802721088435375,0.06802721088435375,0.06802721088435375,0.06802721088435375,0.06802721088435375,0.06802721088435375,0.06802721088435375,0.06802721088435375,0.06802721088435375,0.06802721088435375,0.06802721088435375,0.06802721088435375,0.06802721088435375,0.06802721088435375,0.06802721088435375,0.06802721088435375,0.06802721088435375,0.06802721088435375,0.06802721088435375,0.06802721088435375,0.06802721088435375,0.06802721088435375,0.06802721088435375,0.06802721088435375,0.06802721088435375,0.06462585034013606,0.05442176870748299,0.03741496598639456,0.013605442176870748,-0.006802721088435374,-0.027210884353741496,-0.04081632653061224,-0.047619047619047616,-0.05102040816326531,-0.05442176870748299,-0.05442176870748299,-0.05442176870748299,-0.05442176870748299,-0.05442176870748299,-0.05442176870748299,-0.05442176870748299,-0.05442176870748299,-0.05442176870748299,-0.05442176870748299,-0.05442176870748299,-0.05442176870748299,-0.05442176870748299,-0.05442176870748299,-0.05442176870748299,-0.05442176870748299,-0.05442176870748299,-0.05442176870748299,-0.05442176870748299,-0.05442176870748299,-0.05442176870748299,-0.05442176870748299,-0.05442176870748299,-0.05442176870748299,-0.05442176870748299,-0.05442176870748299,-0.05442176870748299,-0.05442176870748299,-0.05442176870748299,-0.05442176870748299,-0.05442176870748299,-0.05442176870748299,-0.05442176870748299,-0.05442176870748299,-0.05442176870748299,-0.05442176870748299,-0.05442176870748299,-0.05442176870748299,-0.05442176870748299,-0.05442176870748299,-0.05442176870748299,-0.05442176870748299,-0.05442176870748299,-0.05442176870748299,-0.05442176870748299,-0.05442176870748299,-0.05442176870748299,-0.05442176870748299,-0.05442176870748299,-0.05442176870748299,-0.05442176870748299,-0.05442176870748299,-0.05442176870748299,-0.05442176870748299,-0.05442176870748299,-0.05442176870748299,-0.05442176870748299,-0.03741496598639456,0.006802721088435374,0.06462585034013606,0.23809523809523808,0.40816326530612246,0.5306122448979592,0.6632653061224489,0.7244897959183674,0.7891156462585034,0.8571428571428571,0.8571428571428571,0.8571428571428571,0.8571428571428571,0.8571428571428571,0.8571428571428571,0.8571428571428571,0.8571428571428571,0.8571428571428571,0.8571428571428571,0.8571428571428571,0.8571428571428571,0.8571428571428571,0.8571428571428571,0.8571428571428571,0.8571428571428571,0.8571428571428571,0.8571428571428571,0.8571428571428571,0.8571428571428571,0.8571428571428571,0.8571428571428571,0.8571428571428571,0.8571428571428571,0.8571428571428571,0.8571428571428571,0.8571428571428571,0.8571428571428571,0.8571428571428571,0.8571428571428571,0.8571428571428571,0.8571428571428571,0.8571428571428571,0.8571428571428571,0.8571428571428571,0.8571428571428571,0.8605442176870748,0.9115646258503401,0.9727891156462585,1.034013605442177,1.1054421768707483,1.1394557823129252,1.1666666666666667,1.1802721088435375,1.1802721088435375,1.1802721088435375,1.1802721088435375,1.1802721088435375,1.1802721088435375,1.1802721088435375,1.1802721088435375,1.1802721088435375,1.1802721088435375,1.1802721088435375,1.1802721088435375,1.1802721088435375,1.1802721088435375,1.1802721088435375,1.1802721088435375,1.1802721088435375,1.1802721088435375,1.1802721088435375,1.1802721088435375,1.1802721088435375,1.1802721088435375,1.1802721088435375,1.1802721088435375,1.1802721088435375,1.1802721088435375,1.1802721088435375,1.1802721088435375,1.1802721088435375,1.1802721088435375,1.1802721088435375,1.1802721088435375,1.1802721088435375,1.1802721088435375,1.1802721088435375,1.1802721088435375,1.1802721088435375,1.1802721088435375,1.1802721088435375,1.1802721088435375,1.1802721088435375,1.1802721088435375,1.1802721088435375,1.1802721088435375,1.1802721088435375,1.1802721088435375,1.1802721088435375,1.1802721088435375,1.1802721088435375,1.1802721088435375,1.1802721088435375,1.1802721088435375,1.1802721088435375,1.1802721088435375,1.1802721088435375,1.1802721088435375,1.1802721088435375,1.1802721088435375,1.1802721088435375,1.1802721088435375,1.1802721088435375,1.1802721088435375,1.1802721088435375,1.1802721088435375,1.1802721088435375,1.1802721088435375,1.1802721088435375,1.1802721088435375,1.1802721088435375,1.1802721088435375,1.1802721088435375,1.1802721088435375,1.1802721088435375,1.1802721088435375,1.1802721088435375,1.1802721088435375,1.1802721088435375,1.1802721088435375,1.1802721088435375,1.1802721088435375,1.1802721088435375,1.1802721088435375,1.1802721088435375,1.1802721088435375,1.1802721088435375,1.1802721088435375,1.1802721088435375,1.1802721088435375,1.1802721088435375,1.1802721088435375,1.1802721088435375,1.1802721088435375,1.1802721088435375,1.1802721088435375,1.1802721088435375,1.1802721088435375,1.1802721088435375,1.1802721088435375,1.1802721088435375,1.1802721088435375,1.1802721088435375,1.1802721088435375,1.1802721088435375,1.1802721088435375,1.1802721088435375,1.1802721088435375,1.1802721088435375,1.1802721088435375,1.1802721088435375,1.1802721088435375,1.1802721088435375,1.1802721088435375,1.1802721088435375,1.1802721088435375,1.1802721088435375,1.1802721088435375,1.1802721088435375,1.1802721088435375,1.1802721088435375,1.1802721088435375,1.1802721088435375,1.1802721088435375,1.1802721088435375,1.1802721088435375,1.1802721088435375,1.1802721088435375,1.1802721088435375,1.1802721088435375,1.1802721088435375,1.1802721088435375,1.1802721088435375,1.1802721088435375,1.1802721088435375,1.1802721088435375,1.1802721088435375,1.1802721088435375,1.1802721088435375,1.1802721088435375,1.1802721088435375,1.1802721088435375,1.1802721088435375,1.1802721088435375,1.1802721088435375,1.1802721088435375,1.1802721088435375,1.1802721088435375,1.1802721088435375,1.1802721088435375,1.1802721088435375,1.1802721088435375,1.1802721088435375,1.1802721088435375,1.1802721088435375,1.1802721088435375,1.1802721088435375,1.1802721088435375,1.1802721088435375,1.1802721088435375,1.1802721088435375,1.1802721088435375,1.1802721088435375,1.1802721088435375,1.1802721088435375,1.1802721088435375,1.1802721088435375,1.1802721088435375,1.1802721088435375,1.1802721088435375,1.1802721088435375,1.1802721088435375,1.1802721088435375,1.1802721088435375,1.1802721088435375,1.1802721088435375,1.1802721088435375,1.1802721088435375,1.1802721088435375,1.1802721088435375,1.1802721088435375,1.1802721088435375,1.1802721088435375,1.1802721088435375,1.1802721088435375,1.1802721088435375,1.1802721088435375,1.1802721088435375,1.1802721088435375,1.1802721088435375,1.1802721088435375,1.1802721088435375,1.1802721088435375,1.1802721088435375,1.1802721088435375,1.1802721088435375,1.1802721088435375,1.1802721088435375,1.1802721088435375,1.1802721088435375,1.1802721088435375,1.1802721088435375,1.1802721088435375,1.1802721088435375,1.1802721088435375,1.1802721088435375,1.1802721088435375,1.1802721088435375,1.1802721088435375,1.1802721088435375,1.1802721088435375,1.1802721088435375,1.1802721088435375,1.1802721088435375,1.1802721088435375,1.1802721088435375,1.1802721088435375,1.1802721088435375,1.1802721088435375,1.1802721088435375,1.1802721088435375,1.1802721088435375,1.1802721088435375,1.1802721088435375,1.1802721088435375,1.1802721088435375,1.1802721088435375,1.1802721088435375,1.1802721088435375,1.1802721088435375,1.1768707482993197,1.1564625850340136,1.1360544217687074,1.0952380952380953,1.0612244897959184,1.0442176870748299,1.0442176870748299,1.0442176870748299,1.0578231292517006,1.0714285714285714,1.0850340136054422,1.1020408163265305,1.1156462585034013,1.129251700680272,1.1326530612244898,1.1428571428571428,1.1496598639455782,1.153061224489796,1.1564625850340136,1.1564625850340136,1.1564625850340136,1.1564625850340136,1.1564625850340136,1.1564625850340136,1.1598639455782314,1.1598639455782314,1.163265306122449,1.1666666666666667,1.1666666666666667,1.1700680272108843,1.1700680272108843,1.1734693877551021,1.1734693877551021,1.1734693877551021,1.1734693877551021,1.1734693877551021,1.1734693877551021,1.1734693877551021,1.1734693877551021,1.1734693877551021,1.1734693877551021,1.1734693877551021,1.1734693877551021,1.1734693877551021,1.1734693877551021,1.1734693877551021,1.1734693877551021,1.1734693877551021,1.1734693877551021,1.1734693877551021,1.1734693877551021,1.1734693877551021,1.1734693877551021,1.1734693877551021,1.1734693877551021,1.1734693877551021,1.1734693877551021,1.1734693877551021,1.1734693877551021,1.1734693877551021,1.1734693877551021,1.1734693877551021,1.1734693877551021,1.1734693877551021,1.1734693877551021,1.1734693877551021,1.1734693877551021,1.1734693877551021,1.1734693877551021,1.1734693877551021,1.1734693877551021,1.1734693877551021,1.1734693877551021,1.1734693877551021,1.1734693877551021,1.1734693877551021,1.1734693877551021,1.1734693877551021,1.1734693877551021,1.1734693877551021,1.1734693877551021,1.1734693877551021,1.1734693877551021,1.1734693877551021,1.1734693877551021,1.1734693877551021,1.1734693877551021,1.1734693877551021,1.1734693877551021,1.1734693877551021,1.1734693877551021,1.1734693877551021,1.1734693877551021,1.1734693877551021,1.1734693877551021,1.1734693877551021,1.1734693877551021,1.1734693877551021,1.1734693877551021,1.1734693877551021,1.1734693877551021,1.1734693877551021,1.1734693877551021,1.1734693877551021,1.1734693877551021,1.1734693877551021,1.1734693877551021,1.1734693877551021,1.1734693877551021,1.1734693877551021,1.1734693877551021,1.1734693877551021,1.1734693877551021,1.1734693877551021,1.1734693877551021,1.1598639455782314,1.1020408163265305,1.0204081632653061,0.9183673469387755,0.8231292517006803,0.7619047619047619,0.7006802721088435,0.6700680272108843,0.6462585034013606,0.6326530612244898,0.6258503401360545,0.6258503401360545,0.6292517006802721,0.6496598639455783,0.6972789115646258,0.7619047619047619,0.8435374149659864,0.9489795918367347,0.9897959183673469,1.0238095238095237,1.0408163265306123,1.0476190476190477,1.0510204081632653,1.054421768707483,1.054421768707483,1.054421768707483,1.054421768707483,1.054421768707483,1.054421768707483,1.054421768707483,1.054421768707483,1.054421768707483,1.054421768707483,1.054421768707483,1.054421768707483,1.054421768707483,1.054421768707483,1.054421768707483,1.054421768707483,1.054421768707483,1.054421768707483,1.054421768707483,1.054421768707483,1.054421768707483,1.054421768707483,1.054421768707483,1.054421768707483,1.054421768707483,1.054421768707483,1.054421768707483,1.054421768707483,1.054421768707483,1.054421768707483,1.054421768707483,1.054421768707483,1.054421768707483,1.054421768707483,1.054421768707483,1.054421768707483,1.054421768707483,1.0476190476190477,1.0408163265306123,1.034013605442177,1.0238095238095237,1.0136054421768708,1.0068027210884354,1,0.9965986394557823,0.9931972789115646,0.9897959183673469,0.9863945578231292,0.9863945578231292,0.9863945578231292,0.9863945578231292,0.9863945578231292,0.9863945578231292,0.9863945578231292,0.9863945578231292,0.9863945578231292,0.9863945578231292,0.9863945578231292,0.9863945578231292,0.9863945578231292,0.9863945578231292,0.9863945578231292,0.9863945578231292,0.9863945578231292,0.9863945578231292,0.9863945578231292,0.9863945578231292,0.9863945578231292,0.9863945578231292,0.9863945578231292,0.9863945578231292,0.9863945578231292,0.9863945578231292,0.9863945578231292,0.9863945578231292,0.9863945578231292,0.9863945578231292,0.9863945578231292,0.9863945578231292,0.9863945578231292,0.9863945578231292,0.9863945578231292,0.9863945578231292,0.9863945578231292,0.9863945578231292,0.9863945578231292,0.9863945578231292,0.9863945578231292,0.9863945578231292,0.9863945578231292,0.9863945578231292,0.9863945578231292,0.9863945578231292,0.9863945578231292,0.9863945578231292,0.9863945578231292,0.9863945578231292,0.9863945578231292,0.9863945578231292,0.9863945578231292,0.9863945578231292,0.9863945578231292,0.9863945578231292,0.9863945578231292,0.9863945578231292,0.9863945578231292,0.9863945578231292,0.9863945578231292,0.9863945578231292,0.9863945578231292,0.9863945578231292,0.9863945578231292,0.9863945578231292,0.9863945578231292,0.9863945578231292,0.9863945578231292,0.9863945578231292,0.9863945578231292,0.9863945578231292,0.9863945578231292,0.9863945578231292,0.98639455782312