[{"success":true,"trial_type":"fullscreen","trial_index":0,"time_elapsed":14718,"internal_node_id":"0.0-0.0","protocol_sum":"","subject_identifier":518,"subject_sum":[124,37,42,179,52,251,143,216,142,130,66,196,151,44,33,219,156,124,224,180,124,154,204,78,191,228,12,20,97,76,183,52],"subject_pair":259,"STUDY_ID":"66a3ed3c5d10d0e7d8a6b9da","PROLIFIC_PID":"66803a896850f7964079120f","SESSION_ID":"66a43c39f2cf006d6e8c7e8b","practice_instructions":1,"leaderboard_instructions":0,"bonus":0,"reveal_word":false,"self_rating":"3","confidence":"64"},{"view_history":"[{\"page_index\":0,\"viewing_time\":22030.40000000596}]","rt":22036,"trial_type":"instructions","trial_index":1,"time_elapsed":36760,"internal_node_id":"0.0-1.0","protocol_sum":"","subject_identifier":518,"subject_sum":[124,37,42,179,52,251,143,216,142,130,66,196,151,44,33,219,156,124,224,180,124,154,204,78,191,228,12,20,97,76,183,52],"subject_pair":259,"STUDY_ID":"66a3ed3c5d10d0e7d8a6b9da","PROLIFIC_PID":"66803a896850f7964079120f","SESSION_ID":"66a43c39f2cf006d6e8c7e8b","practice_instructions":1,"leaderboard_instructions":0,"bonus":0,"reveal_word":false,"self_rating":"3","confidence":"64"},{"view_history":"[{\"page_index\":0,\"viewing_time\":44993.80000001192}]","rt":44995.5,"trial_type":"instructions","trial_index":2,"time_elapsed":81757,"internal_node_id":"0.0-2.0-0.0","protocol_sum":"","subject_identifier":518,"subject_sum":[124,37,42,179,52,251,143,216,142,130,66,196,151,44,33,219,156,124,224,180,124,154,204,78,191,228,12,20,97,76,183,52],"subject_pair":259,"STUDY_ID":"66a3ed3c5d10d0e7d8a6b9da","PROLIFIC_PID":"66803a896850f7964079120f","SESSION_ID":"66a43c39f2cf006d6e8c7e8b","practice_instructions":1,"leaderboard_instructions":0,"bonus":0,"reveal_word":false,"self_rating":"3","confidence":"64"},{"rt":17780.60000000894,"responses":"{\"Q0\":\"... reveal the word with as <b>few letter guesses</b> as possible\"}","question_order":"[0]","trial_type":"survey-multi-choice","trial_index":3,"time_elapsed":99546,"internal_node_id":"0.0-2.0-1.0","protocol_sum":"","subject_identifier":518,"subject_sum":[124,37,42,179,52,251,143,216,142,130,66,196,151,44,33,219,156,124,224,180,124,154,204,78,191,228,12,20,97,76,183,52],"subject_pair":259,"correct":true,"test_part":"multichoice_nonpretend","STUDY_ID":"66a3ed3c5d10d0e7d8a6b9da","PROLIFIC_PID":"66803a896850f7964079120f","SESSION_ID":"66a43c39f2cf006d6e8c7e8b","practice_instructions":1,"leaderboard_instructions":0,"bonus":0,"reveal_word":false,"self_rating":"3","confidence":"64"},{"view_history":"[{\"page_index\":0,\"viewing_time\":19476.09999999404}]","rt":19477.40000000596,"trial_type":"instructions","trial_index":4,"time_elapsed":119031,"internal_node_id":"0.0-3.0","protocol_sum":"","subject_identifier":518,"subject_sum":[124,37,42,179,52,251,143,216,142,130,66,196,151,44,33,219,156,124,224,180,124,154,204,78,191,228,12,20,97,76,183,52],"subject_pair":259,"STUDY_ID":"66a3ed3c5d10d0e7d8a6b9da","PROLIFIC_PID":"66803a896850f7964079120f","SESSION_ID":"66a43c39f2cf006d6e8c7e8b","practice_instructions":1,"leaderboard_instructions":0,"bonus":0,"reveal_word":false,"self_rating":"3","confidence":"64"},{"word":"ZEBRA","click_log":{"letter":["","A","N","E","Z","B","R"],"t":[0,4437.300000011921,32470.60000000894,48713.20000000298,71542.70000000298,73508.90000000596,75640.5],"hit":[null,1,0,1,1,1,1],"asked":["","A","AN","ANE","ANEZ","ANEZB","ANEZBR"],"word_state":["_____","____A","____A","_E__A","ZE__A","ZEB_A","ZEBRA"]},"hover_log":{"letter":["?","?","?","?","J","J","J","J","J","J","J","J","J","J","J","J","J","J","J","J","J","J","?","?","?","?","?","?","?","?","?","?","?","?","?","?","?","?","?","?","?","?","?","?","?","?","?","?","?","?","?","?","?","?","?","?","?","?","?","?","?","?","?","?","?","?","?","?","?","?","?","?","?","?","?","?","?","?","?","?","?","?","?","?","?","?","?","?","?","?","?","?","?","?","?","?","?","?","?","?","?","?","?","?","?","?","?","?","?","?","?","?","?","?","?","?","?","?","?","?","?","?","?","?","A","A","?","?","K","?","L","L","L","L","L","?","?","?","?","?","?","?","?","?","?","?","?","?","?","?","?","?","?","?","?","?","?","?","?","?","?","?","?","?","?","?","?","?","?","?","?","?","?","?","?","?","?","?","?","?","?","?","?","?","?","?","?","?","?","?","?","?","?","?","?","?","?","?","?","?","?","?","?","?","?","?","?","?","?","?","?","?","?","?","?","?","?","?","L","L","L","L","?","?","?","?","?","?","?","?","?","?","?","?","?","?","A","A","A","A","A","A","A","A","A","A","A","A","A","A","A","A","A","A","A","A","A","A","A","A","A","A","A","A","A","A","A","A","A","A","A","A","A","A","A","A","A","A","A","A","A","A","A","A","A","A","A","A","A","A","A","A","A","A","A","A","A","A","A","A","A","A","A","A","A","A","A","A","A","A","A","A","A","A","A","A","A","A","A","A","A","A","A","A","A","A","A","A","A","A","A","A","A","A","A","A","A","A","A","A","A","A","A","A","A","A","A","A","A","A","A","A","A","A","A","A","A","A","A","A","A","A","A","A","A","A","A","A","A","A","A","A","A","A","A","A","A","A","A","A","A","A","A","A","A","A","A","A","A","A","A","A","A","A","A","A","A","A","A","A","A","A","A","A","A","A","A","A","A","A","A","A","A","A","A","A","A","A","A","A","A","A","A","A","A","A","A","A","A","A","A","A","A","A","A","A","A","A","A","A","A","A","A","A","A","A","A","A","A","A","A","A","A","A","A","A","A","A","A","A","A","A","A","A","A","A","A","A","A","A","A","A","A","A","A","A","A","A","A","A","A","A","A","A","A","A","A","A","A","A","A","A","A","A","A","A","A","A","A","A","A","A","A","A","A","A","A","A","A","A","A","A","A","A","A","A","A","A","A","A","A","A","A","A","A","A","A","A","A","A","A","A","A","A","A","A","A","A","A","A","A","A","A","A","A","A","A","A","A","A","A","A","A","A","A","A","A","A","A","A","A","A","A","A","A","A","A","A","A","A","A","A","A","A","A","A","A","A","A","A","A","A","A","A","A","A","A","A","A","A","A","A","A","A","A","A","A","A","A","A","A","A","A","A","A","A","A","A","A","A","A","A","A","A","A","A","A","A","A","A","A","A","A","A","A","A","A","A","A","A","A","A","A","A","A","A","A","A","A","A","A","A","A","A","A","A","A","A","A","A","A","A","A","A","A","A","A","A","A","A","A","A","A","A","A","A","A","A","A","A","A","A","A","A","A","A","A","A","A","A","A","A","A","A","A","A","A","A","A","A","A","A","A","A","A","A","A","A","A","A","A","A","A","A","A","A","A","A","A","A","A","A","A","A","A","A","A","A","A","A","A","A","A","A","A","A","A","A","A","A","A","A","A","A","A","A","A","A","A","A","A","A","A","A","A","A","A","A","A","A","A","A","A","A","A","A","A","A","A","A","A","A","A","A","A","A","A","A","A","A","A","A","A","A","A","A","A","A","A","A","A","A","A","A","A","A","A","A","A","A","A","A","A","A","A","A","A","A","A","A","A","A","A","A","A","A","A","A","A","A","A","A","A","A","A","A","A","A","A","A","A","A","A","A","A","A","A","A","A","A","A","A","A","A","A","A","A","A","A","A","A","A","A","A","A","A","A","A","A","A","A","A","A","A","A","A","A","A","A","A","A","A","A","A","A","A","A","A","A","A","A","A","A","A","A","A","A","A","A","A","A","A","A","A","A","A","A","A","A","A","A","A","A","A","A","A","A","A","A","A","A","A","A","A","A","A","A","A","A","A","A","A","A","A","A","A","A","A","A","A","A","A","A","A","A","A","A","A","A","A","A","A","A","A","A","A","A","A","A","A","A","A","A","A","A","A","A","A","A","A","A","A","A","A","A","A","A","A","A","A","A","A","A","A","A","A","A","A","A","A","A","A","A","A","A","A","A","A","A","A","A","A","A","A","A","A","A","A","A","A","A","A","A","A","A","A","A","A","A","A","A","A","A","A","A","A","A","A","A","A","A","A","A","A","A","A","A","A","A","A","A","A","A","A","A","A","A","A","A","A","A","A","A","A","A","A","A","A","A","A","A","A","A","A","A","A","A","A","A","A","A","A","A","A","A","A","A","A","A","A","A","A","A","A","A","A","A","A","A","A","A","A","A","A","A","A","A","A","A","A","A","A","A","A","A","A","A","A","A","A","A","A","A","A","A","A","A","A","A","A","A","A","A","A","A","A","A","A","A","A","A","A","A","A","A","A","A","A","A","A","A","A","A","A","A","A","A","A","A","A","A","A","A","A","A","A","A","A","A","A","A","A","A","A","A","A","A","A","A","A","A","A","A","A","A","A","A","A","A","A","A","A","A","A","A","A","A","A","A","A","A","A","A","A","A","A","A","A","A","A","A","A","A","A","A","A","A","A","A","A","A","A","A","A","A","A","A","A","A","A","A","A","A","A","A","A","A","A","A","A","A","A","A","A","A","A","A","A","A","A","A","A","A","A","A","A","A","A","A","A","A","A","A","A","A","A","A","A","A","A","A","A","A","A","A","A","A","A","A","A","A","A","A","A","A","A","A","A","A","A","A","A","A","A","A","A","A","A","A","A","A","A","A","A","A","A","A","A","A","A","A","A","A","A","A","A","A","A","A","A","A","A","A","A","A","A","A","A","A","A","A","A","A","A","A","A","A","A","A","A","A","A","A","A","A","A","A","A","A","A","A","A","A","A","A","A","A","A","A","A","A","A","A","A","A","A","A","A","A","A","A","A","A","A","A","A","A","A","A","A","A","A","A","A","A","A","A","A","A","A","A","A","A","A","A","A","A","A","A","A","A","A","A","A","A","A","A","A","A","A","A","A","A","A","A","A","A","A","A","A","A","A","A","A","A","A","A","A","A","A","A","A","A","A","A","A","A","A","A","A","A","A","A","A","A","A","A","A","A","A","A","A","A","A","A","A","A","A","A","A","A","A","A","A","A","A","A","A","A","A","A","A","A","A","A","A","A","A","A","A","A","A","A","A","A","A","A","A","A","A","A","A","A","A","A","A","A","A","A","A","A","A","A","A","A","A","A","A","A","A","A","A","A","A","A","A","A","A","A","A","A","A","A","A","A","A","A","A","A","A","A","A","A","A","A","A","A","A","A","A","A","A","A","A","A","A","A","A","A","A","A","A","A","A","A","A","A","A","A","A","A","A","A","A","A","A","A","A","A","A","A","A","A","A","A","A","A","A","A","A","A","A","A","A","A","A","A","A","A","A","A","A","A","A","A","A","A","A","A","A","A","A","A","A","A","A","A","A","A","A","A","A","A","A","A","A","A","A","A","A","A","A","A","A","A","A","A","A","A","A","A","A","A","A","A","A","A","A","A","A","A","A","A","A","A","A","A","A","A","A","A","A","A","A","A","A","A","A","A","A","A","A","A","A","A","A","A","A","A","A","A","A","A","A","A","A","A","A","A","A","A","A","A","A","A","A","A","A","A","A","A","A","A","A","A","A","A","A","A","A","A","A","A","A","A","A","A","A","A","A","A","A","B","C","?","?","?","E","E","?","F","F","F","F","?","?","?","?","?","?","?","?","?","?","?","?","?","?","?","?","?","?","?","?","?","?","?","?","?","?","?","?","?","?","?","?","?","?","?","?","?","?","?","?","?","?","?","?","?","?","?","?","?","?","?","?","?","?","?","?","?","?","?","?","?","?","?","?","?","?","?","?","?","?","?","?","?","?","?","?","?","?","?","?","?","?","?","?","?","?","?","?","?","?","?","?","?","?","?","?","?","?","?","?","?","?","?","?","?","?","?","?","?","?","?","?","?","?","?","?","?","?","?","?","?","?","?","?","?","?","?","?","?","?","?","?","?","?","?","?","?","?","?","?","?","?","?","?","?","?","?","?","?","?","?","?","?","?","?","?","?","?","?","?","?","?","?","?","?","?","?","?","?","?","?","?","?","?","?","?","?","?","?","?","?","?","?","?","O","O","O","O","O","O","O","O","O","O","O","O","O","?","?","N","N","N","N","N","N","N","N","N","N","N","N","N","N","N","N","N","N","N","N","N","N","N","N","N","N","N","N","N","N","N","N","N","N","N","N","N","N","N","N","N","N","N","N","N","N","N","N","N","N","N","N","N","N","N","N","N","N","N","N","N","N","N","N","N","N","N","N","N","N","N","N","N","N","N","N","N","N","N","N","N","N","N","N","N","N","N","N","N","N","N","N","N","N","N","N","N","N","N","N","N","N","N","N","N","N","N","N","N","N","N","N","N","N","N","N","N","N","N","N","N","N","N","N","N","N","N","N","N","N","N","N","N","N","N","N","N","N","N","N","N","N","N","?","W","?","?","?","?","?","?","?","?","?","?","?","?","?","?","?","?","?","?","?","?","?","?","?","?","?","?","?","?","?","?","?","?","?","?","?","?","?","?","?","?","?","?","?","?","?","?","?","?","?","?","?","?","?","?","?","?","?","?","?","?","?","?","?","?","?","?","?","?","?","?","?","?","?","?","?","?","?","?","?","?","?","?","?","?","?","?","?","?","?","?","?","?","?","?","?","?","?","?","?","?","?","?","?","?","?","?","?","?","?","?","?","?","?","?","?","?","?","?","?","?","?","?","?","?","?","?","?","?","?","?","?","?","?","?","?","?","?","?","?","?","?","?","?","?","?","?","?","?","?","?","?","?","?","?","?","?","?","?","?","?","?","?","?","?","?","?","?","?","?","?","?","?","?","?","?","?","?","?","?","?","?","?","?","?","?","?","?","?","?","?","?","?","?","?","?","?","?","?","?","?","?","?","?","?","?","?","?","?","?","?","?","?","?","?","?","?","?","?","?","?","?","?","?","?","?","?","?","?","?","?","?","?","?","?","?","?","?","?","?","?","?","?","?","?","?","?","?","?","?","?","?","?","?","?","?","?","?","?","?","?","?","?","?","?","?","?","?","?","?","?","?","?","?","?","?","?","?","?","?","?","?","?","?","?","?","?","?","?","?","?","?","?","?","?","?","?","?","?","?","?","?","?","?","?","?","?","?","?","?","?","?","?","?","?","?","?","?","?","?","?","?","?","?","?","?","?","?","?","?","?","?","?","?","?","?","?","?","?","?","?","?","?","?","?","?","?","?","?","?","?","?","?","?","?","?","?","?","?","?","?","?","?","?","?","?","?","?","?","?","?","?","?","?","?","?","?","?","?","?","?","?","?","?","?","?","?","?","?","?","?","?","?","?","?","?","?","?","?","?","?","?","?","?","?","?","?","?","?","?","?","?","?","?","?","?","?","?","?","?","?","?","?","?","?","?","?","?","?","?","?","?","?","?","?","?","?","?","?","?","?","?","?","?","?","?","?","?","?","?","?","?","?","?","?","?","?","?","?","?","?","?","?","?","?","?","?","?","?","?","?","?","?","?","?","?","?","?","?","?","?","?","?","?","?","?","?","?","?","?","?","?","?","?","?","?","?","?","?","?","?","?","?","?","?","?","?","?","?","?","?","?","?","?","?","?","?","?","?","?","?","?","?","?","?","?","?","?","?","?","?","?","?","?","?","?","?","?","?","?","?","?","?","?","?","?","?","?","?","?","?","?","?","?","?","?","?","?","?","?","?","?","?","?","?","?","?","?","?","?","?","?","?","?","?","?","?","?","?","?","?","?","?","?","?","?","?","?","?","?","?","?","?","?","?","?","?","?","?","?","?","?","?","?","?","?","?","?","?","?","?","?","?","?","?","?","?","?","?","?","?","?","?","?","?","?","?","?","?","?","?","?","?","?","?","?","?","?","?","?","?","?","?","?","?","?","?","?","?","?","?","?","?","?","?","?","?","?","?","?","?","?","?","?","?","?","?","?","?","?","?","?","?","?","?","?","?","?","?","?","?","?","?","?","?","?","?","?","?","?","?","?","?","?","?","?","?","?","?","?","?","?","?","?","?","?","?","?","?","?","?","?","?","?","?","?","?","?","?","?","?","?","?","?","?","?","?","?","?","?","?","?","?","?","?","?","?","?","?","?","?","?","?","?","?","?","?","?","?","?","?","?","?","?","?","?","?","?","?","?","?","?","?","?","?","?","?","?","?","?","?","?","?","?","?","?","?","?","?","?","?","?","?","?","?","?","?","?","?","?","?","?","?","?","?","?","?","?","?","?","?","?","?","?","?","?","?","?","?","?","W","W","W","?","?","?","?","N","N","N","N","N","N","N","N","?","?","?","?","?","?","?","E","E","E","E","E","E","E","E","E","E","E","E","E","E","E","E","E","E","E","E","E","E","E","E","E","E","E","E","E","E","E","E","E","E","E","E","E","E","E","E","E","E","E","E","E","E","E","E","E","E","E","E","E","E","E","E","E","E","E","E","E","E","E","E","E","E","E","E","E","E","E","E","E","E","E","E","E","E","E","E","E","E","E","E","E","E","E","E","E","E","E","E","E","E","E","E","E","E","E","E","E","E","E","E","E","E","E","E","E","E","E","E","E","E","E","E","E","E","E","E","E","E","E","E","E","E","E","E","E","E","E","E","E","E","E","E","E","E","E","E","E","E","E","E","E","E","E","E","E","E","E","E","E","E","E","E","E","E","E","E","E","E","E","E","E","E","E","E","E","E","E","E","E","E","E","E","E","E","E","E","E","E","E","E","E","E","E","E","E","E","E","E","E","E","E","E","E","E","E","E","E","E","E","E","E","E","E","E","E","E","E","E","E","E","E","E","E","E","E","E","E","E","E","E","E","E","E","E","E","E","E","E","E","E","E","E","E","E","E","E","E","E","E","E","E","E","E","E","E","E","E","E","E","E","E","E","E","E","E","E","E","E","E","E","E","E","E","E","E","E","E","E","E","E","E","E","E","E","E","E","E","E","E","E","E","E","E","E","E","E","E","E","E","E","E","E","E","E","E","E","E","E","E","E","E","E","E","E","E","E","E","E","E","E","E","E","E","E","E","E","E","E","E","E","E","E","E","E","E","E","E","E","E","E","E","E","E","E","E","E","E","E","E","E","E","E","E","E","E","E","E","E","E","E","E","E","E","E","E","E","E","E","E","E","E","E","E","E","E","E","E","E","E","E","E","E","E","E","E","E","E","E","E","E","E","E","E","E","E","E","E","E","E","E","E","E","E","E","E","E","E","E","E","E","E","E","E","E","E","E","E","E","E","E","E","E","E","E","E","E","E","E","E","E","E","E","E","E","E","E","E","E","E","E","E","E","E","E","E","E","E","E","E","E","E","E","E","E","E","E","E","E","E","E","E","E","E","E","E","E","E","E","E","E","E","E","E","E","E","E","E","E","E","E","E","E","E","E","E","E","E","E","E","E","E","E","E","E","E","E","E","E","E","E","E","E","E","E","E","E","E","E","E","E","E","E","E","E","E","E","E","E","E","E","E","E","E","E","E","E","E","E","E","E","E","E","E","E","E","E","E","E","E","E","E","E","E","E","E","E","E","E","E","E","E","E","E","E","E","E","E","E","E","E","E","E","E","E","E","E","E","E","E","E","E","E","E","E","E","E","E","E","E","E","E","E","E","E","E","E","E","E","E","E","E","E","E","E","E","E","E","E","E","E","E","E","E","E","E","E","E","E","E","E","E","E","E","E","E","E","E","E","E","E","E","E","E","E","E","E","E","E","E","E","E","E","E","E","E","E","E","E","E","E","E","E","E","E","E","E","E","E","E","E","E","E","E","E","E","E","E","E","E","E","E","E","E","E","E","E","E","E","E","E","E","E","E","E","E","E","E","E","E","E","E","E","E","E","E","E","E","E","E","E","E","E","E","E","E","E","E","E","E","E","E","E","E","E","E","E","E","E","E","E","E","E","E","E","E","E","E","E","E","E","E","E","E","E","E","E","E","E","E","E","E","E","E","E","E","E","E","E","E","E","E","E","E","E","E","E","E","E","E","E","E","E","E","E","E","E","E","E","E","E","E","E","E","E","E","E","E","E","E","E","E","E","E","E","E","E","E","E","E","E","E","E","E","E","E","E","E","E","E","E","E","E","E","E","E","E","E","E","E","E","E","E","E","E","E","E","E","E","E","E","E","E","E","E","E","E","E","E","E","E","E","E","E","E","E","E","E","E","E","E","E","E","E","E","E","E","E","E","E","E","E","E","E","E","E","E","E","E","E","E","E","E","E","E","E","E","E","E","E","E","E","E","E","E","E","E","E","E","E","E","E","E","E","E","E","E","E","E","E","E","E","E","E","E","E","E","E","E","E","E","E","E","E","E","E","E","E","E","E","E","E","E","E","E","E","E","E","E","E","E","E","E","E","E","E","E","E","E","E","E","E","E","E","E","E","E","E","E","E","E","E","E","E","E","E","E","E","E","E","E","E","E","E","E","E","E","E","E","E","E","E","E","E","E","E","E","E","E","E","E","E","E","E","E","E","E","E","E","E","E","E","E","E","E","E","E","E","E","E","E","E","E","E","E","E","E","E","E","E","E","E","E","E","E","E","E","E","E","E","E","E","E","E","E","E","E","E","E","E","E","E","E","E","E","E","E","E","E","E","E","E","E","E","E","E","E","E","E","E","E","E","E","E","E","E","E","E","E","E","E","E","E","E","E","E","E","E","E","E","E","E","E","E","E","E","E","E","E","E","E","E","E","E","E","E","E","E","E","E","E","E","E","E","E","E","E","E","E","E","E","E","E","E","E","E","E","E","E","E","E","E","E","E","E","E","E","E","E","E","E","E","E","E","E","E","E","E","E","E","E","E","E","E","E","E","E","E","E","E","E","E","E","E","E","E","E","E","E","E","E","E","E","E","E","E","E","E","E","E","E","E","E","E","E","E","E","E","E","E","E","E","E","E","E","E","E","E","E","E","E","E","E","E","E","E","E","E","E","E","E","E","E","E","E","E","E","E","E","E","E","E","E","E","E","E","E","E","E","E","E","E","E","E","E","E","E","E","E","E","E","E","E","E","E","E","E","E","E","E","E","E","E","E","E","E","E","E","E","E","E","E","E","E","E","E","E","E","E","E","E","E","E","E","E","E","E","E","E","E","E","E","E","E","E","E","E","E","E","E","E","E","E","E","E","E","E","E","E","E","E","E","E","E","E","E","E","E","E","E","E","E","E","E","E","E","E","E","E","E","E","E","E","E","E","E","E","E","E","E","E","E","E","E","E","E","E","E","E","E","E","E","E","E","E","E","E","E","E","E","E","E","E","E","E","E","E","E","E","E","E","E","E","E","E","E","E","E","E","E","E","E","E","E","E","E","E","E","E","E","E","E","E","E","E","E","E","E","E","E","E","E","E","E","E","E","E","E","E","?","?","P","P","P","?","?","?","?","?","?","?","?","?","?","?","?","?","?","?","Z","Z","Z","Z","Z","Z","Z","Z","Z","Z","Z","Z","Z","Z","Z","Z","Z","Z","Z","Z","Z","Z","Z","Z","Z","Z","Z","Z","Z","Z","Z","Z","Z","Z","Z","Z","Z","Z","Z","Z","Z","Z","Z","Z","Z","Z","Z","Z","Z","Z","Z","Z","?","O","O","?","?","?","C","C","C","C","?","?","?","?","?","?","?","?","?","?","?","?","?","?","?","?","?","?","?","?","?","?","?","C","C","C","C","C","C","C","C","C","C","C","C","C","C","?","?","?","?","?","?","?","?","C","C","C","C","C","C","?","?","?","?","B","B","B","B","B","B","B","B","B","B","B","B","B","B","B","B","B","B","B","B","B","B","B","B","B","B","B","B","B","B","B","B","B","B","B","B","B","B","B","B","B","B","B","B","B","B","B","B","B","B","B","B","B","B","B","B","B","B","?","?","?","?","?","?","?","?","L","L","L","L","?","?","?","?","?","?","?","?","?","?","?","?","?","?","?","?","?","?","?","?","?","?","?","L","?","M","?","N","?","O","O","P","P","P","P","P","P","P","?","Q","Q","Q","Q","Q","?","?","?","?","?","?","?","?","?","?","?","?","R","R","R","R","R","R","R","R","R","R","R","R","R","R","R","R","R","R","R","R","R","R","R","R","R","R","R","R","R","R","R","R","R","R","R","R","R","R","R","R","R","R","R","R","R","R","R","R","R","R","R","R","R","R","R","R","R","R","R","R","R","R","R","R","R","R","R","R","R","R","R","R","R","?","Q","Q","P","?","?","?","?","?","D","?","C","C","C","C","C","C","C","C","C","C","C","C","C","C","C","C","C","C","C","C","C","C","C","C","C","C","C","C","C","C","C","C","C","C","C","C","C","C","C","C","C","C","C","C","C","C","C","C","?","?","?","?","?","?","?","?","?","?","?","?","?","?","?","?","?","?","?","?","?","?"],"t":[115,141,152,163,247,259,285,302,313,335,349,365,381,400,413,432,449,466,484,498,514,534,549,565,582,598,617,634,649,663,681,699,719,730,747,767,784,795,819,830,849,862,882,896,948,961,983,995,1015,1028,1045,1063,1078,1098,1111,1130,1145,1163,1178,1197,1212,1229,1246,1261,1281,1294,1314,1328,1347,1361,1380,1395,1412,1429,1445,1460,1479,1493,1512,1526,1547,1560,1579,1595,1610,1630,1644,1663,1677,1696,1712,1729,1744,1763,1778,1796,1812,1830,1846,1861,1877,1896,1911,1929,1945,1961,1978,1995,2013,2026,2046,2060,2079,2094,2112,2127,2145,2162,2178,2196,2211,2229,2245,2263,2280,2294,2314,2329,2346,2374,2381,2394,2412,2430,2448,2462,2479,2494,2512,2529,2549,2559,2580,2593,2612,2628,2646,2660,2679,2694,2712,2729,2744,2762,2777,2796,2810,2829,2845,2861,2878,2893,2912,2927,2947,2962,2978,2995,3012,3029,3045,3064,3077,3094,3114,3126,3146,3161,3178,3197,3211,3229,3245,3262,3278,3294,3313,3326,3346,3360,3379,3394,3411,3430,3443,3463,3479,3493,3513,3526,3546,3559,3579,3593,3613,3627,3645,3660,3682,3695,3713,3741,3747,3760,3778,3793,3812,3826,3847,3860,3879,3893,3911,3927,3947,3959,3981,3993,4013,4028,4046,4062,4080,4095,4112,4128,4146,4160,4178,4195,4210,4230,4243,4263,4276,4296,4310,4330,4348,4363,4381,4397,4412,4434,4445,4462,4479,4496,4513,4530,4546,4565,4583,4595,4612,4633,4645,4664,4680,4696,4714,4728,4749,4766,4779,4800,4811,4833,4845,4863,4880,4895,4914,4928,4948,4961,4982,4994,5014,5028,5049,5068,5094,5114,5127,5144,5162,5179,5195,5210,5230,5244,5262,5278,5295,5312,5327,5346,5360,5379,5394,5412,5426,5447,5461,5477,5495,5511,5530,5543,5561,5579,5598,5609,5628,5646,5659,5678,5693,5713,5726,5746,5760,5779,5795,5812,5829,5843,5862,5878,5897,5914,5926,5949,5962,5978,5992,6012,6029,6043,6062,6076,6096,6109,6129,6143,6162,6176,6197,6209,6230,6242,6262,6276,6295,6310,6331,6343,6361,6378,6395,6410,6440,6447,6461,6478,6494,6510,6530,6542,6563,6579,6593,6611,6628,6644,6662,6678,6694,6711,6728,6745,6762,6776,6797,6811,6827,6846,6860,6880,6893,6914,6929,6945,6959,6980,6993,7012,7027,7045,7062,7077,7094,7111,7129,7143,7161,7177,7194,7212,7226,7246,7260,7278,7297,7309,7329,7343,7363,7377,7395,7411,7427,7446,7459,7479,7494,7512,7528,7544,7562,7577,7594,7612,7627,7644,7663,7676,7696,7710,7728,7744,7763,7777,7798,7814,7829,7842,7861,7877,7895,7913,7926,7945,7960,7978,7995,8009,8031,8042,8062,8076,8095,8109,8129,8143,8162,8176,8194,8212,8226,8246,8261,8278,8293,8312,8328,8345,8360,8380,8393,8412,8427,8446,8461,8477,8495,8510,8529,8545,8560,8579,8594,8611,8626,8647,8660,8678,8693,8712,8727,8744,8761,8777,8795,8810,8830,8846,8861,8877,8895,8910,8929,8944,8959,8979,8993,9015,9026,9045,9061,9078,9095,9111,9127,9146,9161,9178,9198,9210,9226,9248,9259,9278,9294,9310,9329,9343,9365,9375,9395,9410,9429,9444,9459,9484,9493,9511,9527,9546,9561,9577,9596,9614,9626,9645,9660,9679,9692,9712,9726,9746,9760,9776,9795,9810,9827,9844,9860,9879,9892,9911,9927,9947,9959,9977,9996,10009,10028,10042,10062,10077,10096,10111,10128,10144,10162,10177,10196,10210,10229,10243,10263,10276,10296,10310,10329,10342,10363,10376,10396,10409,10429,10443,10462,10477,10498,10509,10528,10544,10562,10581,10592,10609,10627,10644,10660,10678,10693,10710,10727,10745,10760,10777,10793,10813,10826,10845,10862,10877,10893,10910,10930,10943,10961,10977,10994,11011,11027,11049,11059,11079,11092,11112,11126,11146,11160,11178,11194,11211,11227,11245,11260,11276,11296,11309,11329,11342,11362,11377,11395,11410,11428,11443,11462,11476,11495,11509,11529,11543,11562,11577,11596,11609,11628,11642,11663,11676,11694,11712,11727,11746,11760,11776,11795,11809,11829,11842,11864,11876,11894,11911,11928,11946,11961,11979,11993,12008,12028,12042,12062,12077,12092,12111,12125,12142,12160,12177,12194,12209,12228,12242,12263,12276,12294,12310,12329,12342,12362,12375,12395,12409,12428,12443,12462,12476,12495,12509,12528,12543,12560,12577,12594,12609,12629,12643,12660,12678,12692,12712,12726,12744,12759,12778,12792,12812,12826,12844,12861,12876,12893,12910,12929,12943,12960,12978,12993,13011,13026,13044,13061,13077,13094,13111,13127,13143,13162,13176,13194,13212,13226,13245,13259,13278,13292,13312,13326,13345,13363,13375,13394,13410,13428,13442,13461,13476,13494,13510,13528,13543,13562,13576,13596,13609,13627,13643,13662,13675,13695,13709,13729,13742,13763,13776,13795,13809,13827,13844,13859,13878,13892,13911,13926,13946,13959,13979,13993,14013,14026,14046,14059,14081,14093,14111,14127,14144,14162,14176,14195,14210,14228,14242,14262,14275,14294,14309,14328,14342,14361,14377,14393,14410,14426,14446,14459,14477,14493,14510,14526,14543,14561,14575,14594,14609,14628,14642,14662,14676,14695,14710,14732,14747,14758,14775,14794,14808,14827,14844,14860,14877,14893,14910,14928,14945,14961,14977,14994,15011,15028,15043,15060,15076,15094,15108,15127,15143,15161,15176,15194,15212,15226,15245,15263,15276,15299,15309,15328,15344,15360,15378,15393,15412,15427,15448,15459,15477,15495,15508,15528,15543,15560,15577,15595,15610,15626,15644,15661,15675,15695,15708,15728,15742,15760,15778,15793,15811,15825,15845,15858,15878,15891,15911,15926,15943,15960,15975,15996,16010,16029,16042,16062,16077,16092,16112,16131,16145,16161,16175,16195,16209,16226,16244,16260,16277,16295,16308,16328,16343,16362,16377,16393,16412,16425,16444,16458,16478,16494,16509,16527,16542,16561,16575,16594,16608,16628,16643,16661,16680,16694,16709,16729,16742,16761,16776,16793,16810,16826,16845,16859,16880,16892,16912,16926,16944,16958,16978,16993,17011,17025,17045,17061,17077,17093,17110,17129,17142,17162,17175,17195,17209,17228,17243,17262,17278,17294,17309,17327,17344,17361,17375,17394,17408,17427,17442,17461,17477,17492,17512,17524,17541,17560,17576,17593,17610,17626,17644,17658,17677,17693,17711,17727,17743,17762,17777,17793,17809,17828,17842,17861,17876,17892,17909,17928,17943,17960,17975,17994,18010,18028,18044,18062,18077,18091,18111,18125,18143,18159,18176,18195,18208,18227,18242,18261,18277,18292,18312,18325,18344,18358,18377,18392,18410,18426,18443,18461,18475,18499,18511,18525,18545,18562,18575,18595,18609,18627,18641,18661,18677,18693,18710,18727,18743,18764,18775,18793,18809,18827,18843,18860,18876,18896,18908,18925,18944,18959,18974,18995,19011,19028,19042,19061,19075,19094,19108,19127,19142,19159,19176,19193,19209,19228,19241,19261,19275,19294,19309,19327,19343,19359,19378,19391,19410,19425,19444,19460,19477,19494,19508,19528,19542,19561,19574,19594,19608,19627,19643,19658,19678,19691,19711,19725,19743,19761,19774,19794,19808,19827,19841,19861,19875,19891,19909,19925,19944,19958,19978,19992,20011,20027,20042,20061,20074,20096,20109,20126,20145,20159,20177,20192,20213,20225,20243,20259,20278,20291,20308,20326,20344,20361,20375,20394,20408,20426,20445,20459,20479,20492,20511,20526,20543,20562,20575,20594,20608,20627,20644,20658,20678,20691,20711,20725,20743,20759,20777,20792,20810,20826,20844,20859,20878,20892,20910,20926,20948,20958,20977,20991,21010,21027,21042,21060,21075,21094,21108,21128,21141,21161,21175,21193,21208,21227,21243,21260,21276,21293,21309,21324,21343,21360,21377,21391,21411,21426,21443,21459,21477,21493,21510,21524,21544,21558,21576,21593,21609,21626,21642,21664,21675,21692,21709,21728,21742,21759,21776,21792,21809,21825,21843,21858,21877,21891,21910,21926,21944,21958,21978,21992,22011,22026,22044,22059,22077,22092,22111,22125,22144,22158,22177,22193,22209,22228,22241,22261,22275,22295,22308,22327,22341,22361,22375,22395,22409,22427,22442,22461,22475,22494,22509,22526,22544,22559,22575,22595,22609,22624,22645,22659,22675,22694,22709,22727,22741,22760,22775,22793,22811,22831,22843,22859,22878,22893,22910,22928,22941,22960,22975,22992,23012,23028,23044,23058,23074,23092,23110,23126,23143,23159,23176,23192,23208,23227,23241,23260,23274,23294,23309,23326,23346,23357,23377,23391,23411,23426,23443,23460,23474,23493,23508,23530,23541,23558,23576,23593,23609,23627,23643,23658,23676,23691,23709,23726,23743,23759,23776,23792,23811,23826,23847,23857,23878,23891,23909,23926,23947,23958,23977,23991,24010,24025,24044,24058,24077,24092,24108,24127,24141,24160,24175,24194,24209,24225,24242,24262,24274,24293,24308,24327,24341,24359,24376,24392,24410,24427,24449,24475,24492,24509,24524,24543,24557,24576,24590,24609,24624,24643,24661,24674,24692,24709,24727,24745,24760,24774,24792,24809,24824,24843,24857,24876,24891,24909,24928,24940,24963,24973,24993,25007,25026,25042,25058,25076,25091,25110,25125,25140,25161,25174,25194,25208,25225,25243,25259,25275,25291,25310,25324,25344,25360,25375,25391,25408,25428,25441,25459,25480,25494,25508,25528,25540,25560,25574,25591,25609,25626,25641,25661,25674,25693,25708,25727,25746,25758,25775,25792,25810,25825,25843,25858,25878,25891,25910,25925,25941,25959,25976,25993,26008,26024,26043,26058,26075,26091,26110,26124,26144,26160,26177,26194,26209,26227,26244,26260,26275,26292,26309,26326,26342,26359,26375,26391,26409,26424,26444,26459,26476,26492,26509,26526,26542,26559,26576,26590,26611,26625,26643,26658,26676,26693,26707,26727,26740,26761,26774,26793,26808,26827,26841,26860,26879,26890,26909,26926,26942,26960,26974,26994,27008,27026,27040,27060,27075,27092,27110,27126,27148,27173,27192,27206,27228,27240,27259,27274,27291,27308,27327,27340,27359,27374,27394,27407,27426,27440,27459,27473,27493,27509,27524,27543,27557,27576,27590,27610,27624,27643,27658,27678,27691,27708,27727,27741,27759,27773,27794,27807,27825,27841,27861,27874,27892,27907,27927,27940,27959,27974,27993,28010,28027,28041,28058,28076,28090,28110,28123,28146,28157,28178,28190,28208,28225,28241,28258,28276,28291,28312,28324,28341,28361,28374,28393,28410,28425,28442,28458,28478,28491,28509,28529,28541,28557,28575,28591,28609,28626,28642,28658,28675,28693,28713,28724,28745,28759,28775,28792,28808,28826,28842,28856,28877,28890,28911,28923,28943,28958,28975,28991,29008,29026,29040,29061,29074,29092,29107,29125,29142,29158,29174,29195,29207,29227,29241,29259,29279,29290,29309,29323,29342,29356,29376,29390,29409,29424,29443,29456,29476,29492,29508,29524,29541,29559,29573,29594,29606,29626,29640,29661,29673,29696,29710,29724,29741,29761,29775,29791,29808,29826,29840,29860,29876,29891,29907,29926,29940,29956,29974,29994,30007,30027,30040,30060,30074,30093,30106,30127,30140,30160,30173,30192,30207,30225,30242,30260,30273,30292,30307,30326,30341,30359,30376,30391,30410,30424,30444,30457,30474,30493,30510,30524,30540,30559,30577,30591,30608,30625,30641,30662,30674,30692,30706,30727,30740,30760,30773,30793,30807,30828,30840,30860,30874,30890,30908,30927,30940,30960,30973,30993,31006,31025,31041,31058,31076,31090,31110,31123,31142,31156,31177,31191,31207,31226,31240,31258,31275,31290,31308,31325,31341,31358,31375,31389,31409,31423,31446,31457,31476,31492,31507,31524,31544,31557,31575,31590,31609,31624,31642,31659,31674,31691,31707,31726,31742,31758,31776,31791,31809,31823,31843,31858,31875,31890,31907,31926,31940,31959,31976,31991,32009,32025,32041,32060,32073,32095,32106,32125,32140,32158,32176,32190,32210,32223,32243,32257,32275,32290,32307,32324,32341,32357,32374,32393,32406,32425,32441,32461,32478,32490,32508,32526,32541,32558,32576,32594,32607,32627,32641,32659,32682,32701,32723,32743,32757,32778,32791,32808,32823,32844,32857,32876,32891,32910,32929,32940,32961,32974,32993,33009,33023,33042,33057,33076,33096,33107,33125,33140,33160,33175,33191,33207,33229,33240,33257,33276,33289,33310,33323,33343,33356,33375,33390,33409,33423,33442,33458,33474,33490,33510,33523,33541,33557,33574,33592,33607,33625,33640,33658,33674,33692,33708,33724,33741,33757,33775,33794,33807,33823,33842,33857,33875,33890,33907,33926,33939,33959,33973,33992,34012,34029,34040,34057,34080,34090,34109,34124,34142,34157,34178,34192,34211,34226,34242,34258,34277,34291,34310,34327,34340,34359,34375,34392,34409,34424,34440,34460,34474,34494,34507,34526,34541,34561,34573,34592,34607,34627,34643,34657,34675,34692,34706,34726,34740,34758,34776,34792,34808,34823,34846,34856,34875,34890,34909,34925,34941,34958,34979,34990,35008,35024,35042,35059,35073,35092,35107,35126,35140,35159,35175,35191,35210,35224,35243,35256,35276,35290,35309,35323,35342,35359,35382,35406,35425,35440,35458,35473,35491,35508,35525,35540,35562,35575,35591,35607,35628,35642,35656,35674,35692,35706,35726,35740,35759,35772,35795,35806,35829,35843,35858,35877,35890,35909,35924,35942,35958,35974,35994,36006,36027,36039,36061,36073,36089,36110,36122,36145,36157,36176,36193,36206,36223,36242,36256,36273,36290,36307,36324,36344,36357,36375,36390,36406,36422,36440,36456,36474,36489,36506,36524,36539,36558,36573,36590,36606,36623,36639,36656,36673,36690,36708,36726,36740,36762,36779,36791,36806,36823,36842,36858,36872,36889,36906,36923,36940,36957,36973,36990,37008,37022,37041,37056,37075,37089,37110,37124,37140,37158,37175,37190,37209,37223,37244,37256,37274,37289,37309,37322,37342,37357,37375,37389,37408,37423,37442,37456,37476,37489,37509,37523,37542,37556,37576,37589,37607,37625,37639,37660,37672,37691,37707,37724,37743,37756,37775,37789,37808,37823,37841,37859,37873,37892,37906,37929,37939,37958,37972,37991,38006,38025,38039,38059,38074,38093,38106,38126,38140,38156,38173,38189,38207,38223,38241,38261,38272,38292,38308,38327,38339,38358,38375,38389,38407,38423,38440,38457,38473,38491,38511,38524,38540,38559,38572,38592,38607,38625,38639,38658,38672,38693,38715,38742,38756,38775,38790,38806,38823,38842,38856,38876,38889,38909,38924,38941,38960,38972,38992,39006,39026,39039,39059,39072,39093,39105,39127,39139,39160,39173,39190,39206,39224,39239,39257,39273,39293,39306,39323,39341,39355,39376,39389,39407,39423,39440,39457,39474,39491,39505,39525,39541,39557,39574,39589,39606,39622,39641,39655,39675,39688,39709,39722,39741,39756,39774,39789,39807,39824,39839,39859,39872,39890,39906,39924,39940,39957,39972,39991,40006,40025,40039,40058,40072,40091,40106,40124,40139,40157,40173,40189,40212,40222,40241,40256,40274,40289,40307,40324,40339,40359,40372,40392,40405,40425,40442,40455,40476,40488,40508,40525,40539,40558,40573,40590,40606,40622,40639,40655,40672,40689,40706,40724,40739,40758,40772,40792,40807,40823,40842,40856,40876,40889,40909,40923,40939,40955,40974,40992,41005,41024,41038,41058,41074,41092,41109,41123,41142,41157,41172,41193,41205,41226,41239,41258,41273,41290,41307,41322,41341,41356,41374,41389,41409,41427,41438,41458,41472,41491,41505,41526,41540,41557,41572,41592,41605,41624,41638,41659,41672,41694,41705,41726,41739,41758,41773,41791,41808,41822,41839,41857,41872,41891,41905,41925,41938,41959,41972,41989,42009,42022,42043,42059,42074,42089,42109,42124,42140,42156,42174,42191,42205,42226,42238,42258,42272,42292,42309,42323,42339,42355,42376,42388,42407,42422,42440,42456,42472,42491,42505,42524,42539,42557,42574,42589,42607,42623,42641,42655,42675,42694,42708,42726,42738,42759,42776,42789,42807,42824,42841,42856,42875,42892,42907,42922,42943,42955,42974,42993,43007,43023,43043,43056,43076,43089,43107,43126,43138,43158,43173,43190,43208,43223,43241,43257,43274,43291,43306,43325,43339,43360,43372,43393,43406,43426,43439,43459,43472,43491,43510,43522,43544,43555,43575,43589,43608,43622,43640,43655,43675,43689,43708,43723,43739,43756,43775,43789,43808,43823,43844,43855,43874,43888,43907,43922,43941,43955,43974,43988,44008,44022,44041,44055,44074,44089,44109,44122,44141,44155,44175,44188,44208,44222,44241,44255,44277,44290,44306,44325,44339,44359,44372,44391,44405,44424,44440,44458,44473,44491,44507,44524,44538,44558,44572,44591,44609,44622,44638,44658,44672,44692,44705,44728,44740,44757,44772,44792,44807,44825,44839,44860,44874,44891,44905,44925,44939,44959,44973,44990,45008,45025,45039,45060,45077,45090,45107,45122,45140,45156,45174,45191,45205,45225,45238,45256,45273,45289,45308,45322,45342,45355,45374,45392,45407,45424,45442,45457,45472,45493,45506,45522,45539,45555,45574,45588,45613,45623,45642,45656,45675,45688,45707,45723,45740,45756,45775,45788,45809,45822,45842,45855,45875,45889,45908,45924,45940,45959,45972,45991,46011,46022,46042,46061,46075,46089,46108,46123,46141,46162,46171,46190,46205,46226,46242,46255,46272,46289,46306,46322,46341,46356,46376,46390,46407,46423,46440,46456,46478,46489,46505,46524,46539,46558,46576,46589,46605,46625,46638,46657,46672,46689,46707,46722,46740,46758,46772,46791,46809,46821,46841,46855,46874,46889,46908,46922,46942,46956,46974,46990,47006,47025,47039,47062,47076,47089,47106,47125,47142,47157,47173,47192,47206,47226,47240,47258,47273,47290,47309,47321,47340,47357,47372,47390,47407,47422,47441,47455,47475,47489,47508,47522,47540,47559,47572,47589,47607,47623,47644,47657,47672,47691,47705,47726,47739,47759,47775,47792,47808,47823,47841,47860,47875,47892,47906,47922,47940,47960,47976,47989,48009,48021,48041,48057,48076,48094,48108,48124,48142,48157,48174,48191,48208,48224,48241,48255,48276,48290,48308,48323,48341,48357,48372,48394,48406,48424,48439,48460,48471,48491,48505,48525,48538,48557,48573,48589,48605,48622,48641,48655,48674,48688,48708,48722,48742,48756,48775,48789,48809,48822,48840,48856,48873,48889,48910,48922,48941,48955,48975,48988,49008,49022,49040,49057,49073,49092,49105,49128,49138,49157,49172,49190,49211,49223,49240,49257,49272,49291,49305,49324,49338,49358,49371,49390,49406,49424,49438,49458,49471,49492,49506,49524,49538,49557,49572,49591,49606,49624,49641,49656,49674,49692,49708,49723,49741,49755,49775,49788,49807,49821,49841,49855,49874,49888,49907,49922,49945,49955,49974,49989,50009,50022,50042,50055,50076,50088,50112,50121,50141,50156,50176,50189,50207,50223,50240,50259,50271,50290,50305,50323,50342,50356,50376,50389,50406,50425,50439,50458,50474,50491,50506,50524,50538,50556,50573,50587,50608,50621,50641,50655,50673,50689,50706,50724,50739,50758,50771,50792,50807,50822,50839,50860,50872,50889,50907,50923,50943,50955,50975,50988,51008,51022,51041,51056,51077,51089,51107,51122,51141,51155,51175,51193,51206,51223,51241,51255,51274,51288,51308,51322,51342,51355,51373,51389,51405,51425,51438,51457,51472,51489,51506,51521,51540,51557,51571,51591,51604,51623,51638,51658,51671,51690,51705,51723,51740,51756,51775,51789,51806,51827,51839,51855,51871,51890,51905,51923,51938,51957,51971,51991,52004,52024,52038,52056,52073,52090,52104,52124,52138,52157,52171,52190,52204,52224,52238,52256,52271,52290,52304,52323,52338,52354,52372,52391,52407,52422,52442,52455,52475,52488,52507,52522,52539,52557,52572,52593,52605,52624,52638,52656,52673,52691,52706,52724,52739,52757,52772,52790,52806,52821,52840,52858,52871,52889,52906,52924,52939,52955,52974,52988,53007,53023,53044,53055,53073,53088,53107,53126,53139,53155,53173,53189,53207,53222,53241,53256,53272,53291,53306,53323,53340,53354,53374,53388,53407,53421,53441,53455,53474,53489,53505,53524,53538,53558,53572,53589,53605,53623,53639,53655,53672,53689,53705,53722,53738,53758,53771,53791,53805,53822,53840,53855,53874,53889,53907,53924,53937,53956,53975,53988,54008,54021,54041,54054,54073,54087,54107,54121,54140,54154,54177,54190,54207,54222,54239,54256,54272,54292,54305,54326,54340,54355,54375,54388,54406,54425,54439,54455,54472,54490,54504,54523,54538,54555,54574,54587,54607,54621,54640,54656,54672,54692,54704,54724,54738,54757,54772,54791,54806,54823,54840,54855,54875,54888,54908,54922,54941,54955,54974,54990,55006,55023,55040,55055,55074,55087,55107,55121,55141,55155,55174,55188,55207,55221,55241,55254,55275,55291,55309,55323,55340,55361,55371,55390,55405,55423,55439,55455,55474,55487,55507,55521,55540,55554,55573,55587,55608,55622,55640,55655,55673,55688,55706,55725,55738,55758,55771,55789,55806,55822,55839,55854,55873,55889,55905,55924,55938,55955,55973,55988,56008,56021,56040,56055,56073,56089,56105,56124,56137,56159,56172,56190,56204,56225,56238,56255,56271,56290,56304,56323,56338,56360,56371,56390,56404,56424,56438,56460,56471,56489,56506,56521,56540,56555,56574,56588,56606,56623,56638,56657,56671,56690,56705,56723,56738,56756,56773,56788,56807,56823,56841,56855,56873,56888,56906,56921,56939,56956,56972,56990,57007,57024,57041,57054,57073,57090,57108,57121,57140,57154,57174,57188,57206,57221,57240,57256,57273,57289,57306,57322,57340,57355,57375,57388,57407,57421,57443,57454,57473,57489,57506,57521,57540,57554,57574,57587,57606,57622,57638,57657,57671,57690,57704,57722,57739,57755,57775,57793,57804,57824,57837,57860,57874,57888,57904,57925,57939,57955,57972,57988,58007,58021,58041,58054,58072,58089,58107,58124,58138,58155,58173,58189,58204,58222,58241,58254,58273,58289,58307,58321,58341,58357,58373,58390,58404,58426,58437,58457,58470,58490,58504,58524,58538,58556,58571,58590,58607,58621,58638,58657,58671,58688,58705,58723,58737,58757,58771,58789,58805,58824,58840,58855,58874,58887,58904,58922,58941,58956,58973,58988,59005,59022,59039,59057,59070,59091,59105,59124,59138,59160,59171,59192,59205,59223,59240,59255,59273,59288,59307,59321,59340,59358,59371,59391,59407,59421,59440,59455,59472,59490,59504,59524,59537,59557,59571,59589,59608,59621,59644,59655,59673,59688,59708,59727,59737,59754,59771,59791,59804,59821,59838,59855,59873,59887,59906,59920,59941,59954,59974,59987,60007,60020,60040,60054,60072,60090,60103,60123,60137,60158,60170,60190,60204,60223,60237,60257,60270,60291,60305,60321,60341,60354,60373,60388,60406,60423,60438,60456,60472,60490,60504,60523,60537,60555,60575,60587,60607,60622,60643,60653,60672,60687,60706,60721,60740,60753,60773,60787,60806,60821,60839,60854,60873,60887,60906,60920,60940,60954,60974,60988,61004,61020,61037,61056,61076,61087,61104,61123,61139,61155,61175,61187,61207,61221,61239,61256,61271,61290,61305,61323,61338,61356,61373,61387,61408,61421,61439,61454,61473,61488,61505,61522,61537,61557,61571,61590,61605,61624,61641,61653,61673,61688,61705,61723,61736,61757,61770,61789,61805,61822,61837,61855,61873,61887,61907,61921,61938,61957,61972,61987,62006,62020,62040,62053,62074,62087,62108,62120,62140,62154,62173,62187,62206,62223,62240,62253,62274,62287,62306,62321,62339,62355,62373,62390,62407,62426,62436,62453,62471,62489,62505,62522,62538,62554,62572,62587,62606,62620,62639,62653,62673,62687,62706,62720,62740,62754,62773,62787,62806,62821,62837,62861,62871,62888,62905,62924,62938,62958,62973,62988,63004,63024,63037,63056,63074,63091,63104,63126,63137,63158,63173,63189,63204,63222,63238,63256,63270,63289,63304,63324,63339,63356,63373,63388,63407,63421,63440,63454,63474,63489,63505,63522,63537,63555,63571,63590,63604,63621,63639,63654,63673,63687,63705,63722,63739,63755,63775,63786,63804,63820,63840,63857,63870,63888,63904,63923,63937,63955,63973,63986,64006,64020,64039,64053,64073,64086,64106,64120,64139,64153,64173,64189,64204,64224,64237,64256,64270,64289,64305,64322,64339,64354,64373,64389,64405,64422,64438,64454,64471,64489,64506,64520,64540,64553,64573,64587,64605,64622,64637,64656,64670,64689,64703,64724,64736,64756,64770,64789,64804,64821,64838,64855,64872,64890,64905,64920,64940,64953,64972,64987,65007,65020,65039,65054,65074,65087,65106,65126,65137,65153,65171,65189,65203,65226,65237,65255,65274,65286,65303,65322,65339,65353,65374,65387,65406,65421,65439,65453,65474,65486,65508,65520,65539,65554,65571,65589,65605,65620,65639,65654,65670,65691,65705,65720,65739,65754,65772,65786,65806,65821,65839,65855,65874,65887,65904,65922,65937,65954,65972,65986,66007,66020,66038,66056,66070,66089,66108,66122,66137,66156,66172,66189,66205,66224,66239,66255,66271,66288,66304,66322,66340,66354,66372,66387,66407,66420,66439,66455,66470,66487,66503,66526,66536,66556,66570,66588,66603,66623,66637,66655,66670,66687,66705,66722,66740,66753,66772,66787,66807,66820,66837,66856,66869,66888,66905,66921,66939,66953,66973,66986,67006,67019,67039,67053,67073,67086,67106,67120,67139,67153,67173,67188,67206,67221,67239,67255,67271,67291,67304,67324,67337,67357,67371,67388,67406,67420,67440,67454,67472,67488,67504,67523,67536,67556,67570,67589,67604,67622,67638,67658,67670,67689,67705,67723,67739,67755,67772,67788,67806,67826,67853,67869,67887,67903,67921,67936,67956,67969,67988,68004,68022,68039,68055,68071,68087,68106,68120,68138,68153,68171,68188,68203,68222,68237,68255,68270,68288,68304,68321,68340,68353,68373,68386,68404,68420,68440,68453,68471,68486,68505,68522,68537,68555,68570,68589,68602,68621,68636,68657,68670,68688,68706,68722,68737,68753,68772,68786,68806,68819,68838,68853,68872,68887,68904,68924,68936,68956,68970,68988,69006,69019,69038,69056,69071,69087,69106,69119,69139,69158,69171,69189,69202,69222,69236,69256,69270,69290,69303,69323,69337,69356,69370,69390,69403,69422,69436,69456,69470,69489,69503,69522,69539,69554,69572,69592,69603,69621,69642,69652,69672,69687,69704,69722,69736,69757,69770,69789,69803,69822,69836,69855,69869,69886,69905,69923,69937,69957,69971,69986,70005,70020,70039,70053,70071,70089,70103,70125,70137,70155,70170,70189,70204,70221,70240,70253,70273,70286,70305,70320,70337,70354,70370,70388,70409,70420,70438,70455,70469,70489,70503,70526,70552,70572,70585,70605,70623,70638,70654,70672,70687,70704,70720,70738,70753,70772,70787,70804,70823,70837,70854,70873,70886,70907,70920,70939,70953,70974,70986,71004,71021,71036,71055,71071,71086,71107,71120,71138,71153,71172,71187,71205,71221,71237,71256,71270,71290,71304,71322,71336,71355,71370,71386,71412,71440,71452,71472,71486,71505,71520,71538,71553,71571,71589,71602,71621,71636,71654,71670,71688,71703,71721,71736,71754,71771,71788,71803,71822,71844,71856,71872,71887,71906,71922,71938,71957,71971,71987,72004,72020,72040,72053,72073,72087,72106,72120,72139,72154,72172,72188,72206,72222,72238,72254,72270,72288,72303,72321,72337,72356,72372,72387,72406,72420,72440,72454,72473,72488,72505,72520,72538,72554,72571,72589,72603,72622,72636,72656,72673,72688,72703,72721,72737,72755,72773,72787,72805,72820,72839,72853,72873,72887,72904,72922,72937,72957,72972,72987,73004,73023,73040,73054,73071,73088,73107,73122,73138,73153,73172,73188,73205,73222,73239,73256,73271,73286,73305,73319,73339,73354,73370,73387,73406,73421,73437,73455,73472,73489,73505,73519,73540,73552,73572,73586,73605,73619,73639,73652,73672,73689,73704,73721,73743,73752,73770,73789,73805,73820,73838,73855,73871,73886,73903,73922,73937,73954,73974,73988,74006,74022,74041,74056,74073,74088,74105,74123,74140,74157,74170,74187,74204,74219,74239,74254,74272,74287,74308,74320,74339,74353,74372,74387,74404,74421,74436,74458,74470,74490,74505,74524,74538,74554,74569,74589,74605,74619,74639,74653,74672,74687,74704,74722,74736,74755,74769,74789,74803,74822,74839,74854,74871,74888,74904,74922,74936,74957,74969,74989,75003,75022,75037,75055,75069,75089,75103,75121,75136,75155,75174,75187,75204,75222,75236,75256,75272,75288,75308,75322,75337,75357,75369,75390,75402,75422,75436,75455,75470,75487,75502,75519,75537,75559,75576,75602,75621,75635,75661,75671,75689,75705,75723,75737,75757,75771,75791,75805,75826,75837,75855,75871,75888,75904,75923,75938,75956,75972,75989,76006,76021,76040,76054,76074,76092,76104,76122,76138,76161,76171,76189,76205,76223,76238,76254,76271,76287,76305,76323,76342,76355,76374,76388,76404,76423,76437,76456,76471,76489,76504,76522,76537,76554,76572,76588,76604,76622,76637,76655,76672,76687,76708,76720,76739,76756,76775,76787,76805,76819,76836,76854,76873,76885,76905,76919,76940,76953,76973,76990,77003,77020,77036,77055,77069,77088,77104,77120,77139,77152,77173,77186,77205,77222,77236,77258,77270,77287,77304,77321,77338,77353,77373,77386,77406,77420,77439,77453,77473,77486,77505,77521,77537,77552,77573,77585,77604,77622,77637,77660],"hit":[null],"x":[-1.751700680272109,-1.751700680272109,-1.751700680272109,-1.751700680272109,-0.013605442176870748,-0.013605442176870748,-0.013605442176870748,-0.013605442176870748,-0.013605442176870748,-0.013605442176870748,-0.013605442176870748,-0.013605442176870748,-0.013605442176870748,-0.013605442176870748,-0.013605442176870748,-0.013605442176870748,-0.017006802721088437,-0.02040816326530612,-0.023809523809523808,-0.03741496598639456,-0.047619047619047616,-0.047619047619047616,-0.1598639455782313,-0.25510204081632654,-0.35034013605442177,-0.40476190476190477,-0.42857142857142855,-0.445578231292517,-0.47278911564625853,-0.47959183673469385,-0.48299319727891155,-0.48299319727891155,-0.48299319727891155,-0.48299319727891155,-0.48299319727891155,-0.48299319727891155,-0.48299319727891155,-0.48299319727891155,-0.48299319727891155,-0.48299319727891155,-0.48299319727891155,-0.48299319727891155,-0.48299319727891155,-0.48299319727891155,-0.48299319727891155,-0.48299319727891155,-0.48299319727891155,-0.48299319727891155,-0.48299319727891155,-0.48299319727891155,-0.48299319727891155,-0.48299319727891155,-0.48299319727891155,-0.48299319727891155,-0.48299319727891155,-0.48299319727891155,-0.48299319727891155,-0.48299319727891155,-0.48299319727891155,-0.48299319727891155,-0.48299319727891155,-0.48299319727891155,-0.48299319727891155,-0.48299319727891155,-0.48299319727891155,-0.48299319727891155,-0.48299319727891155,-0.48299319727891155,-0.48299319727891155,-0.48299319727891155,-0.48299319727891155,-0.48299319727891155,-0.48299319727891155,-0.48299319727891155,-0.48299319727891155,-0.48299319727891155,-0.48299319727891155,-0.48299319727891155,-0.48299319727891155,-0.48299319727891155,-0.48299319727891155,-0.48299319727891155,-0.48299319727891155,-0.48299319727891155,-0.48299319727891155,-0.48299319727891155,-0.48299319727891155,-0.48299319727891155,-0.48299319727891155,-0.48299319727891155,-0.48299319727891155,-0.48299319727891155,-0.48299319727891155,-0.48299319727891155,-0.48299319727891155,-0.48299319727891155,-0.48299319727891155,-0.48299319727891155,-0.48299319727891155,-0.48299319727891155,-0.48299319727891155,-0.48299319727891155,-0.48299319727891155,-0.48299319727891155,-0.48299319727891155,-0.48299319727891155,-0.48299319727891155,-0.48299319727891155,-0.48299319727891155,-0.48299319727891155,-0.48299319727891155,-0.48299319727891155,-0.48299319727891155,-0.48299319727891155,-0.48299319727891155,-0.48299319727891155,-0.48299319727891155,-0.48299319727891155,-0.4557823129251701,-0.3877551020408163,-0.2857142857142857,-0.20408163265306123,-0.1598639455782313,-0.07482993197278912,-0.05102040816326531,0.02040816326530612,0.05102040816326531,0.08503401360544217,0.17687074829931973,0.22789115646258504,0.2687074829931973,0.2687074829931973,0.2857142857142857,0.29931972789115646,0.30952380952380953,0.3231292517006803,0.3469387755102041,0.35374149659863946,0.36054421768707484,0.36394557823129253,0.3673469387755102,0.3673469387755102,0.3673469387755102,0.3673469387755102,0.3673469387755102,0.3673469387755102,0.3673469387755102,0.3673469387755102,0.3673469387755102,0.3673469387755102,0.3673469387755102,0.3673469387755102,0.3673469387755102,0.3673469387755102,0.3673469387755102,0.3673469387755102,0.3673469387755102,0.3673469387755102,0.3673469387755102,0.3673469387755102,0.3673469387755102,0.3673469387755102,0.3673469387755102,0.3673469387755102,0.3673469387755102,0.3673469387755102,0.3673469387755102,0.3673469387755102,0.3673469387755102,0.3673469387755102,0.3673469387755102,0.3673469387755102,0.3673469387755102,0.3673469387755102,0.3673469387755102,0.3673469387755102,0.3673469387755102,0.3673469387755102,0.3673469387755102,0.3673469387755102,0.3673469387755102,0.3673469387755102,0.3673469387755102,0.3673469387755102,0.3673469387755102,0.3673469387755102,0.3673469387755102,0.3673469387755102,0.3673469387755102,0.3673469387755102,0.3673469387755102,0.3673469387755102,0.3673469387755102,0.3673469387755102,0.3673469387755102,0.3673469387755102,0.3673469387755102,0.3673469387755102,0.3673469387755102,0.3673469387755102,0.3673469387755102,0.3673469387755102,0.3673469387755102,0.3673469387755102,0.3673469387755102,0.3673469387755102,0.3673469387755102,0.3673469387755102,0.3673469387755102,0.3673469387755102,0.3673469387755102,0.3673469387755102,0.3673469387755102,0.3673469387755102,0.3673469387755102,0.3673469387755102,0.3673469387755102,0.3401360544217687,0.3197278911564626,0.30272108843537415,0.2755102040816326,0.24829931972789115,0.23469387755102042,0.21768707482993196,0.20068027210884354,0.1836734693877551,0.16666666666666666,0.15306122448979592,0.13945578231292516,0.12585034013605442,0.11224489795918367,0.10204081632653061,0.08843537414965986,0.07482993197278912,0.07482993197278912,0.05442176870748299,0.034013605442176874,0.02040816326530612,0.013605442176870748,0.01020408163265306,0.006802721088435374,0.006802721088435374,0.003401360544217687,0.003401360544217687,0.003401360544217687,0,0,0,0,0,0,0,0,0,0,0,0,0,0,0,0,0,0,0,0,0,0,0,0,0,0,0,0,0,0,0,0,0,0,0,0,0,0,0,0,0,0,0,0,0,0,0,0,0,0,0,0,0,0,0,0,0,0,0,0,0,0,0,0,0,0,0,0,0,0,0,0,0,0,0,0,0,0,0,0,0,0,0,0,0,0,0,0,0,0,0,0,0,0,0,0,0,0,0,0,0,0,0,0,0,0,0,0,0,0,0,0,0,0,0,0,0,0,0,0,0,0,0,0,0,0,0,0,0,0,0,0,0,0,0,0,0,0,0,0,0,0,0,0,0,0,0,0,0,0,0,0,0,0,0,0,0,0,0,0,0,0,0,0,0,0,0,0,0,0,0,0,0,0,0,0,0,0,0,0,0,0,0,0,0,0,0,0,0,0,0,0,0,0,0,0,0,0,0,0,0,0,0,0,0,0,0,0,0,0,0,0,0,0,0,0,0,0,0,0,0,0,0,0,0,0,0,0,0,0,0,0,0,0,0,0,0,0,0,0,0,0,0,0,0,0,0,0,0,0,0,0,0,0,0,0,0,0,0,0,0,0,0,0,0,0,0,0,0,0,0,0,0,0,0,0,0,0,0,0,0,0,0,0,0,0,0,0,0,0,0,0,0,0,0,0,0,0,0,0,0,0,0,0,0,0,0,0,0,0,0,0,0,0,0,0,0,0,0,0,0,0,0,0,0,0,0,0,0,0,0,0,0,0,0,0,0,0,0,0,0,0,0,0,0,0,0,0,0,0,0,0,0,0,0,0,0,0,0,0,0,0,0,0,0,0,0,0,0,0,0,0,0,0,0,0,0,0,0,0,0,0,0,0,0,0,0,0,0,0,0,0,0,0,0,0,0,0,0,0,0,0,0,0,0,0,0,0,0,0,0,0,0,0,0,0,0,0,0,0,0,0,0,0,0,0,0,0,0,0,0,0,0,0,0,0,0,0,0,0,0,0,0,0,0,0,0,0,0,0,0,0,0,0,0,0,0,0,0,0,0,0,0,0,0,0,0,0,0,0,0,0,0,0,0,0,0,0,0,0,0,0,0,0,0,0,0,0,0,0,0,0,0,0,0,0,0,0,0,0,0,0,0,0,0,0,0,0,0,0,0,0,0,0,0,0,0,0,0,0,0,0,0,0,0,0,0,0,0,0,0,0,0,0,0,0,0,0,0,0,0,0,0,0,0,0,0,0,0,0,0,0,0,0,0,0,0,0,0,0,0,0,0,0,0,0,0,0,0,0,0,0,0,0,0,0,0,0,0,0,0,0,0,0,0,0,0,0,0,0,0,0,0,0,0,0,0,0,0,0,0,0,0,0,0,0,0,0,0,0,0,0,0,0,0,0,0,0,0,0,0,0,0,0,0,0,0,0,0,0,0,0,0,0,0,0,0,0,0,0,0,0,0,0,0,0,0,0,0,0,0,0,0,0,0,0,0,0,0,0,0,0,0,0,0,0,0,0,0,0,0,0,0,0,0,0,0,0,0,0,0,0,0,0,0,0,0,0,0,0,0,0,0,0,0,0,0,0,0,0,0,0,0,0,0,0,0,0,0,0,0,0,0,0,0,0,0,0,0,0,0,0,0,0,0,0,0,0,0,0,0,0,0,0,0,0,0,0,0,0,0,0,0,0,0,0,0,0,0,0,0,0,0,0,0,0,0,0,0,0,0,0,0,0,0,0,0,0,0,0,0,0,0,0,0,0,0,0,0,0,0,0,0,0,0,0,0,0,0,0,0,0,0,0,0,0,0,0,0,0,0,0,0,0,0,0,0,0,0,0,0,0,0,0,0,0,0,0,0,0,0,0,0,0,0,0,0,0,0,0,0,0,0,0,0,0,0,0,0,0,0,0,0,0,0,0,0,0,0,0,0,0,0,0,0,0,0,0,0,0,0,0,0,0,0,0,0,0,0,0,0,0,0,0,0,0,0,0,0,0,0,0,0,0,0,0,0,0,0,0,0,0,0,0,0,0,0,0,0,0,0,0,0,0,0,0,0,0,0,0,0,0,0,0,0,0,0,0,0,0,0,0,0,0,0,0,0,0,0,0,0,0,0,0,0,0,0,0,0,0,0,0,0,0,0,0,0,0,0,0,0,0,0,0,0,0,0,0,0,0,0,0,0,0,0,0,0,0,0,0,0,0,0,0,0,0,0,0,0,0,0,0,0,0,0,0,0,0,0,0,0,0,0,0,0,0,0,0,0,0,0,0,0,0,0,0,0,0,0,0,0,0,0,0,0,0,0,0,0,0,0,0,0,0,0,0,0,0,0,0,0,0,0,0,0,0,0,0,0,0,0,0,0,0,0,0,0,0,0,0,0,0,0,0,0,0,0,0,0,0,0,0,0,0,0,0,0,0,0,0,0,0,0,0,0,0,0,0,0,0,0,0,0,0,0,0,0,0,0,0,0,0,0,0,0,0,0,0,0,0,0,0,0,0,0,0,0,0,0,0,0,0,0,0,0,0,0,0,0,0,0,0,0,0,0,0,0,0,0,0,0,0,0,0,0,0,0,0,0,0,0,0,0,0,0,0,0,0,0,0,0,0,0,0,0,0,0,0,0,0,0,0,0,0,0,0,0,0,0,0,0,0,0,0,0,0,0,0,0,0,0,0,0,0,0,0,0,0,0,0,0,0,0,0,0,0,0,0,0,0,0,0,0,0,0,0,0,0,0,0,0,0,0,0,0,0,0,0,0,0,0,0,0,0,0,0,0,0,0,0,0,0,0,0,0,0,0,0,0,0,0,0,0,0,0,0,0,0,0,0,0,0,0,0,0,0,0,0,0,0,0,0,0,0,0,0,0,0,0,0,0,0,0,0,0,0,0,0,0,0,0,0,0,0,0,0,0,0,0,0,0,0,0,0,0,0,0,0,0,0,0,0,0,0,0,0,0,0,0,0,0,0,0,0,0,0,0,0,0,0,0,0,0,0,0,0,0,0,0,0,0,0,0,0,0,0,0,0,0,0,0,0,0,0,0,0,0,0,0,0,0,0,0,0,0,0,0,0,0,0,0,0,0,0,0,0,0,0,0,0,0,0,0,0,0,0,0,0,0,0,0,0,0,0,0,0,0,0,0,0,0,0,0,0,0,0,0,0,0,0,0,0,0,0,0,0,0,0,0,0,0,0,0,0,0,0,0,0,0,0,0,0,0,0,0,0,0,0,0,0,0,0,0,0,0,0,0,0.14625850340136054,0.282312925170068,0.3707482993197279,0.46598639455782315,0.5374149659863946,0.564625850340136,0.5952380952380952,0.6462585034013606,0.6836734693877551,0.7210884353741497,0.7448979591836735,0.7448979591836735,0.7687074829931972,0.7755102040816326,0.7857142857142857,0.7857142857142857,0.7891156462585034,0.7891156462585034,0.7891156462585034,0.7891156462585034,0.7891156462585034,0.7891156462585034,0.7891156462585034,0.7891156462585034,0.7891156462585034,0.7891156462585034,0.7891156462585034,0.7891156462585034,0.7891156462585034,0.7891156462585034,0.7891156462585034,0.7891156462585034,0.7891156462585034,0.7891156462585034,0.7891156462585034,0.7891156462585034,0.7891156462585034,0.7891156462585034,0.7891156462585034,0.7891156462585034,0.7891156462585034,0.7891156462585034,0.7891156462585034,0.7891156462585034,0.7891156462585034,0.7891156462585034,0.7891156462585034,0.7891156462585034,0.7891156462585034,0.7891156462585034,0.7891156462585034,0.7891156462585034,0.7891156462585034,0.7891156462585034,0.7891156462585034,0.7891156462585034,0.7891156462585034,0.7891156462585034,0.7891156462585034,0.7891156462585034,0.7891156462585034,0.7891156462585034,0.7891156462585034,0.7891156462585034,0.7891156462585034,0.7891156462585034,0.7891156462585034,0.7891156462585034,0.7891156462585034,0.7891156462585034,0.7891156462585034,0.7891156462585034,0.7891156462585034,0.7891156462585034,0.7891156462585034,0.7891156462585034,0.7891156462585034,0.7891156462585034,0.7891156462585034,0.7891156462585034,0.7891156462585034,0.7891156462585034,0.7891156462585034,0.7891156462585034,0.7891156462585034,0.7891156462585034,0.7891156462585034,0.7891156462585034,0.7891156462585034,0.7891156462585034,0.7891156462585034,0.7891156462585034,0.7891156462585034,0.7891156462585034,0.7891156462585034,0.7891156462585034,0.7891156462585034,0.7891156462585034,0.7891156462585034,0.7891156462585034,0.7891156462585034,0.7891156462585034,0.7891156462585034,0.7891156462585034,0.7891156462585034,0.7891156462585034,0.7891156462585034,0.7891156462585034,0.7891156462585034,0.7891156462585034,0.7891156462585034,0.7891156462585034,0.7891156462585034,0.7891156462585034,0.7891156462585034,0.7891156462585034,0.7891156462585034,0.7891156462585034,0.7891156462585034,0.7891156462585034,0.7891156462585034,0.7891156462585034,0.7891156462585034,0.7891156462585034,0.7891156462585034,0.7891156462585034,0.7891156462585034,0.7891156462585034,0.7891156462585034,0.7891156462585034,0.7891156462585034,0.7891156462585034,0.7891156462585034,0.7891156462585034,0.7891156462585034,0.7891156462585034,0.7891156462585034,0.7891156462585034,0.7891156462585034,0.7891156462585034,0.7891156462585034,0.7891156462585034,0.7891156462585034,0.7891156462585034,0.7891156462585034,0.7891156462585034,0.7891156462585034,0.7891156462585034,0.7891156462585034,0.7891156462585034,0.7891156462585034,0.7891156462585034,0.7891156462585034,0.7891156462585034,0.7891156462585034,0.7891156462585034,0.7891156462585034,0.7891156462585034,0.7891156462585034,0.7891156462585034,0.7891156462585034,0.7891156462585034,0.7891156462585034,0.7891156462585034,0.7891156462585034,0.7891156462585034,0.7891156462585034,0.7891156462585034,0.7891156462585034,0.7891156462585034,0.7891156462585034,0.7891156462585034,0.7891156462585034,0.7891156462585034,0.7891156462585034,0.7891156462585034,0.7891156462585034,0.7891156462585034,0.7891156462585034,0.7891156462585034,0.7891156462585034,0.7891156462585034,0.7891156462585034,0.7891156462585034,0.7891156462585034,0.7891156462585034,0.7891156462585034,0.7891156462585034,0.7891156462585034,0.7891156462585034,0.782312925170068,0.7755102040816326,0.7653061224489796,0.7585034013605442,0.7482993197278912,0.7414965986394558,0.7278911564625851,0.717687074829932,0.717687074829932,0.7006802721088435,0.6836734693877551,0.6768707482993197,0.673469387755102,0.6700680272108843,0.6666666666666666,0.6666666666666666,0.6632653061224489,0.6598639455782312,0.6564625850340136,0.6530612244897959,0.6428571428571429,0.6292517006802721,0.6258503401360545,0.6224489795918368,0.6190476190476191,0.6156462585034014,0.6122448979591837,0.608843537414966,0.6020408163265306,0.5918367346938775,0.5850340136054422,0.5782312925170068,0.5748299319727891,0.5714285714285714,0.5714285714285714,0.5680272108843537,0.5680272108843537,0.5680272108843537,0.5680272108843537,0.5680272108843537,0.5680272108843537,0.5680272108843537,0.5680272108843537,0.5680272108843537,0.5680272108843537,0.5680272108843537,0.5680272108843537,0.564625850340136,0.564625850340136,0.564625850340136,0.564625850340136,0.564625850340136,0.564625850340136,0.564625850340136,0.564625850340136,0.564625850340136,0.564625850340136,0.564625850340136,0.564625850340136,0.564625850340136,0.564625850340136,0.564625850340136,0.564625850340136,0.564625850340136,0.564625850340136,0.564625850340136,0.564625850340136,0.564625850340136,0.564625850340136,0.564625850340136,0.564625850340136,0.564625850340136,0.564625850340136,0.564625850340136,0.564625850340136,0.564625850340136,0.564625850340136,0.564625850340136,0.564625850340136,0.564625850340136,0.564625850340136,0.564625850340136,0.564625850340136,0.564625850340136,0.564625850340136,0.564625850340136,0.564625850340136,0.564625850340136,0.564625850340136,0.564625850340136,0.564625850340136,0.564625850340136,0.564625850340136,0.564625850340136,0.564625850340136,0.564625850340136,0.564625850340136,0.564625850340136,0.564625850340136,0.564625850340136,0.564625850340136,0.564625850340136,0.564625850340136,0.564625850340136,0.564625850340136,0.564625850340136,0.564625850340136,0.564625850340136,0.564625850340136,0.564625850340136,0.564625850340136,0.564625850340136,0.564625850340136,0.564625850340136,0.564625850340136,0.564625850340136,0.564625850340136,0.564625850340136,0.564625850340136,0.564625850340136,0.564625850340136,0.564625850340136,0.564625850340136,0.564625850340136,0.564625850340136,0.564625850340136,0.564625850340136,0.564625850340136,0.564625850340136,0.564625850340136,0.564625850340136,0.564625850340136,0.564625850340136,0.564625850340136,0.564625850340136,0.564625850340136,0.564625850340136,0.564625850340136,0.564625850340136,0.564625850340136,0.564625850340136,0.564625850340136,0.564625850340136,0.564625850340136,0.564625850340136,0.564625850340136,0.564625850340136,0.564625850340136,0.564625850340136,0.564625850340136,0.564625850340136,0.564625850340136,0.564625850340136,0.564625850340136,0.564625850340136,0.564625850340136,0.564625850340136,0.564625850340136,0.564625850340136,0.564625850340136,0.564625850340136,0.564625850340136,0.564625850340136,0.5510204081632653,0.54421768707483,0.5306122448979592,0.5204081632653061,0.5204081632653061,0.5204081632653061,0.5204081632653061,0.5238095238095238,0.5272108843537415,0.5340136054421769,0.54421768707483,0.5544217687074829,0.564625850340136,0.5782312925170068,0.5850340136054422,0.5918367346938775,0.5986394557823129,0.6054421768707483,0.608843537414966,0.608843537414966,0.608843537414966,0.608843537414966,0.608843537414966,0.608843537414966,0.608843537414966,0.608843537414966,0.608843537414966,0.608843537414966,0.608843537414966,0.608843537414966,0.608843537414966,0.608843537414966,0.608843537414966,0.608843537414966,0.608843537414966,0.608843537414966,0.608843537414966,0.608843537414966,0.608843537414966,0.608843537414966,0.608843537414966,0.608843537414966,0.608843537414966,0.608843537414966,0.608843537414966,0.608843537414966,0.608843537414966,0.608843537414966,0.608843537414966,0.608843537414966,0.608843537414966,0.608843537414966,0.608843537414966,0.608843537414966,0.608843537414966,0.608843537414966,0.608843537414966,0.608843537414966,0.608843537414966,0.608843537414966,0.608843537414966,0.608843537414966,0.608843537414966,0.608843537414966,0.608843537414966,0.608843537414966,0.608843537414966,0.608843537414966,0.608843537414966,0.608843537414966,0.608843537414966,0.608843537414966,0.608843537414966,0.608843537414966,0.608843537414966,0.608843537414966,0.608843537414966,0.608843537414966,0.608843537414966,0.608843537414966,0.608843537414966,0.608843537414966,0.608843537414966,0.608843537414966,0.608843537414966,0.608843537414966,0.608843537414966,0.608843537414966,0.608843537414966,0.608843537414966,0.608843537414966,0.608843537414966,0.608843537414966,0.608843537414966,0.608843537414966,0.608843537414966,0.608843537414966,0.608843537414966,0.608843537414966,0.608843537414966,0.608843537414966,0.608843537414966,0.608843537414966,0.608843537414966,0.608843537414966,0.608843537414966,0.608843537414966,0.608843537414966,0.608843537414966,0.608843537414966,0.608843537414966,0.608843537414966,0.608843537414966,0.608843537414966,0.608843537414966,0.608843537414966,0.608843537414966,0.608843537414966,0.608843537414966,0.608843537414966,0.608843537414966,0.608843537414966,0.608843537414966,0.608843537414966,0.608843537414966,0.608843537414966,0.608843537414966,0.608843537414966,0.608843537414966,0.608843537414966,0.608843537414966,0.608843537414966,0.608843537414966,0.608843537414966,0.608843537414966,0.608843537414966,0.608843537414966,0.608843537414966,0.608843537414966,0.608843537414966,0.608843537414966,0.608843537414966,0.608843537414966,0.608843537414966,0.608843537414966,0.608843537414966,0.608843537414966,0.608843537414966,0.608843537414966,0.608843537414966,0.608843537414966,0.608843537414966,0.608843537414966,0.608843537414966,0.608843537414966,0.608843537414966,0.608843537414966,0.608843537414966,0.608843537414966,0.608843537414966,0.608843537414966,0.608843537414966,0.608843537414966,0.608843537414966,0.608843537414966,0.608843537414966,0.608843537414966,0.608843537414966,0.608843537414966,0.608843537414966,0.608843537414966,0.608843537414966,0.608843537414966,0.608843537414966,0.608843537414966,0.608843537414966,0.608843537414966,0.608843537414966,0.608843537414966,0.608843537414966,0.608843537414966,0.608843537414966,0.608843537414966,0.608843537414966,0.608843537414966,0.608843537414966,0.608843537414966,0.608843537414966,0.608843537414966,0.608843537414966,0.608843537414966,0.608843537414966,0.608843537414966,0.608843537414966,0.608843537414966,0.608843537414966,0.608843537414966,0.608843537414966,0.608843537414966,0.608843537414966,0.608843537414966,0.608843537414966,0.608843537414966,0.608843537414966,0.608843537414966,0.608843537414966,0.608843537414966,0.608843537414966,0.608843537414966,0.608843537414966,0.608843537414966,0.608843537414966,0.608843537414966,0.608843537414966,0.608843537414966,0.608843537414966,0.608843537414966,0.608843537414966,0.608843537414966,0.608843537414966,0.608843537414966,0.608843537414966,0.608843537414966,0.608843537414966,0.608843537414966,0.608843537414966,0.608843537414966,0.608843537414966,0.608843537414966,0.608843537414966,0.608843537414966,0.608843537414966,0.608843537414966,0.608843537414966,0.608843537414966,0.608843537414966,0.608843537414966,0.608843537414966,0.608843537414966,0.608843537414966,0.608843537414966,0.608843537414966,0.608843537414966,0.608843537414966,0.608843537414966,0.608843537414966,0.608843537414966,0.608843537414966,0.608843537414966,0.608843537414966,0.608843537414966,0.608843537414966,0.608843537414966,0.608843537414966,0.608843537414966,0.608843537414966,0.608843537414966,0.608843537414966,0.608843537414966,0.608843537414966,0.608843537414966,0.608843537414966,0.608843537414966,0.608843537414966,0.608843537414966,0.608843537414966,0.608843537414966,0.608843537414966,0.608843537414966,0.608843537414966,0.608843537414966,0.608843537414966,0.608843537414966,0.608843537414966,0.608843537414966,0.608843537414966,0.608843537414966,0.608843537414966,0.608843537414966,0.608843537414966,0.608843537414966,0.608843537414966,0.608843537414966,0.608843537414966,0.608843537414966,0.608843537414966,0.608843537414966,0.608843537414966,0.608843537414966,0.608843537414966,0.608843537414966,0.608843537414966,0.608843537414966,0.608843537414966,0.608843537414966,0.608843537414966,0.608843537414966,0.608843537414966,0.608843537414966,0.608843537414966,0.608843537414966,0.608843537414966,0.608843537414966,0.608843537414966,0.608843537414966,0.608843537414966,0.608843537414966,0.608843537414966,0.608843537414966,0.608843537414966,0.608843537414966,0.608843537414966,0.608843537414966,0.608843537414966,0.608843537414966,0.608843537414966,0.608843537414966,0.608843537414966,0.608843537414966,0.608843537414966,0.608843537414966,0.608843537414966,0.608843537414966,0.608843537414966,0.608843537414966,0.608843537414966,0.608843537414966,0.608843537414966,0.608843537414966,0.608843537414966,0.608843537414966,0.608843537414966,0.608843537414966,0.608843537414966,0.608843537414966,0.608843537414966,0.608843537414966,0.608843537414966,0.608843537414966,0.608843537414966,0.608843537414966,0.608843537414966,0.608843537414966,0.608843537414966,0.608843537414966,0.608843537414966,0.608843537414966,0.608843537414966,0.608843537414966,0.608843537414966,0.608843537414966,0.608843537414966,0.608843537414966,0.608843537414966,0.608843537414966,0.608843537414966,0.608843537414966,0.608843537414966,0.608843537414966,0.608843537414966,0.608843537414966,0.608843537414966,0.608843537414966,0.608843537414966,0.608843537414966,0.608843537414966,0.608843537414966,0.608843537414966,0.608843537414966,0.608843537414966,0.608843537414966,0.608843537414966,0.608843537414966,0.608843537414966,0.608843537414966,0.608843537414966,0.608843537414966,0.608843537414966,0.608843537414966,0.608843537414966,0.608843537414966,0.608843537414966,0.608843537414966,0.608843537414966,0.608843537414966,0.608843537414966,0.608843537414966,0.608843537414966,0.608843537414966,0.608843537414966,0.608843537414966,0.608843537414966,0.608843537414966,0.608843537414966,0.608843537414966,0.608843537414966,0.608843537414966,0.608843537414966,0.608843537414966,0.608843537414966,0.608843537414966,0.608843537414966,0.608843537414966,0.608843537414966,0.608843537414966,0.608843537414966,0.608843537414966,0.608843537414966,0.608843537414966,0.608843537414966,0.608843537414966,0.608843537414966,0.608843537414966,0.608843537414966,0.608843537414966,0.608843537414966,0.608843537414966,0.608843537414966,0.608843537414966,0.608843537414966,0.608843537414966,0.608843537414966,0.608843537414966,0.608843537414966,0.608843537414966,0.608843537414966,0.608843537414966,0.608843537414966,0.608843537414966,0.608843537414966,0.608843537414966,0.608843537414966,0.608843537414966,0.608843537414966,0.608843537414966,0.608843537414966,0.608843537414966,0.608843537414966,0.608843537414966,0.608843537414966,0.608843537414966,0.608843537414966,0.608843537414966,0.608843537414966,0.608843537414966,0.608843537414966,0.608843537414966,0.608843537414966,0.608843537414966,0.608843537414966,0.608843537414966,0.608843537414966,0.608843537414966,0.608843537414966,0.608843537414966,0.608843537414966,0.608843537414966,0.608843537414966,0.608843537414966,0.608843537414966,0.608843537414966,0.608843537414966,0.608843537414966,0.608843537414966,0.608843537414966,0.608843537414966,0.608843537414966,0.608843537414966,0.608843537414966,0.608843537414966,0.608843537414966,0.608843537414966,0.608843537414966,0.608843537414966,0.608843537414966,0.608843537414966,0.608843537414966,0.608843537414966,0.608843537414966,0.608843537414966,0.608843537414966,0.608843537414966,0.608843537414966,0.608843537414966,0.608843537414966,0.608843537414966,0.608843537414966,0.608843537414966,0.608843537414966,0.608843537414966,0.608843537414966,0.608843537414966,0.608843537414966,0.608843537414966,0.608843537414966,0.608843537414966,0.608843537414966,0.608843537414966,0.608843537414966,0.608843537414966,0.608843537414966,0.608843537414966,0.608843537414966,0.608843537414966,0.608843537414966,0.608843537414966,0.608843537414966,0.608843537414966,0.608843537414966,0.608843537414966,0.608843537414966,0.608843537414966,0.608843537414966,0.608843537414966,0.608843537414966,0.608843537414966,0.608843537414966,0.608843537414966,0.608843537414966,0.608843537414966,0.608843537414966,0.608843537414966,0.608843537414966,0.608843537414966,0.608843537414966,0.608843537414966,0.608843537414966,0.608843537414966,0.608843537414966,0.608843537414966,0.608843537414966,0.608843537414966,0.608843537414966,0.608843537414966,0.608843537414966,0.608843537414966,0.608843537414966,0.608843537414966,0.608843537414966,0.608843537414966,0.608843537414966,0.608843537414966,0.608843537414966,0.608843537414966,0.608843537414966,0.608843537414966,0.608843537414966,0.608843537414966,0.608843537414966,0.608843537414966,0.608843537414966,0.608843537414966,0.608843537414966,0.608843537414966,0.608843537414966,0.608843537414966,0.608843537414966,0.608843537414966,0.608843537414966,0.608843537414966,0.608843537414966,0.608843537414966,0.608843537414966,0.608843537414966,0.608843537414966,0.608843537414966,0.608843537414966,0.608843537414966,0.608843537414966,0.608843537414966,0.608843537414966,0.608843537414966,0.608843537414966,0.608843537414966,0.608843537414966,0.608843537414966,0.608843537414966,0.608843537414966,0.608843537414966,0.608843537414966,0.608843537414966,0.608843537414966,0.608843537414966,0.608843537414966,0.608843537414966,0.608843537414966,0.608843537414966,0.608843537414966,0.608843537414966,0.608843537414966,0.608843537414966,0.608843537414966,0.608843537414966,0.608843537414966,0.608843537414966,0.608843537414966,0.608843537414966,0.608843537414966,0.608843537414966,0.608843537414966,0.608843537414966,0.608843537414966,0.608843537414966,0.608843537414966,0.608843537414966,0.608843537414966,0.608843537414966,0.608843537414966,0.608843537414966,0.608843537414966,0.608843537414966,0.608843537414966,0.608843537414966,0.608843537414966,0.608843537414966,0.608843537414966,0.608843537414966,0.608843537414966,0.608843537414966,0.608843537414966,0.608843537414966,0.608843537414966,0.608843537414966,0.608843537414966,0.608843537414966,0.608843537414966,0.608843537414966,0.608843537414966,0.608843537414966,0.608843537414966,0.608843537414966,0.608843537414966,0.608843537414966,0.608843537414966,0.608843537414966,0.608843537414966,0.608843537414966,0.608843537414966,0.608843537414966,0.608843537414966,0.608843537414966,0.608843537414966,0.608843537414966,0.608843537414966,0.608843537414966,0.608843537414966,0.608843537414966,0.608843537414966,0.608843537414966,0.608843537414966,0.608843537414966,0.608843537414966,0.608843537414966,0.608843537414966,0.608843537414966,0.608843537414966,0.608843537414966,0.608843537414966,0.608843537414966,0.608843537414966,0.608843537414966,0.608843537414966,0.608843537414966,0.608843537414966,0.608843537414966,0.608843537414966,0.608843537414966,0.608843537414966,0.608843537414966,0.608843537414966,0.608843537414966,0.608843537414966,0.608843537414966,0.608843537414966,0.608843537414966,0.608843537414966,0.608843537414966,0.608843537414966,0.608843537414966,0.608843537414966,0.608843537414966,0.608843537414966,0.608843537414966,0.608843537414966,0.608843537414966,0.608843537414966,0.608843537414966,0.608843537414966,0.608843537414966,0.608843537414966,0.608843537414966,0.608843537414966,0.608843537414966,0.608843537414966,0.608843537414966,0.608843537414966,0.608843537414966,0.608843537414966,0.608843537414966,0.608843537414966,0.608843537414966,0.608843537414966,0.608843537414966,0.608843537414966,0.608843537414966,0.608843537414966,0.608843537414966,0.608843537414966,0.608843537414966,0.608843537414966,0.608843537414966,0.608843537414966,0.608843537414966,0.608843537414966,0.608843537414966,0.608843537414966,0.608843537414966,0.608843537414966,0.608843537414966,0.608843537414966,0.608843537414966,0.608843537414966,0.608843537414966,0.608843537414966,0.608843537414966,0.608843537414966,0.608843537414966,0.608843537414966,0.608843537414966,0.608843537414966,0.608843537414966,0.608843537414966,0.608843537414966,0.608843537414966,0.608843537414966,0.608843537414966,0.608843537414966,0.608843537414966,0.608843537414966,0.608843537414966,0.608843537414966,0.608843537414966,0.608843537414966,0.608843537414966,0.608843537414966,0.608843537414966,0.608843537414966,0.608843537414966,0.608843537414966,0.608843537414966,0.608843537414966,0.608843537414966,0.608843537414966,0.608843537414966,0.608843537414966,0.608843537414966,0.608843537414966,0.608843537414966,0.608843537414966,0.608843537414966,0.608843537414966,0.608843537414966,0.608843537414966,0.608843537414966,0.608843537414966,0.608843537414966,0.608843537414966,0.608843537414966,0.608843537414966,0.608843537414966,0.608843537414966,0.608843537414966,0.608843537414966,0.608843537414966,0.608843537414966,0.608843537414966,0.608843537414966,0.608843537414966,0.608843537414966,0.608843537414966,0.608843537414966,0.608843537414966,0.608843537414966,0.608843537414966,0.608843537414966,0.608843537414966,0.608843537414966,0.608843537414966,0.608843537414966,0.608843537414966,0.608843537414966,0.608843537414966,0.608843537414966,0.608843537414966,0.608843537414966,0.608843537414966,0.608843537414966,0.608843537414966,0.608843537414966,0.608843537414966,0.608843537414966,0.608843537414966,0.608843537414966,0.608843537414966,0.608843537414966,0.608843537414966,0.5952380952380952,0.5850340136054422,0.5850340136054422,0.5782312925170068,0.5714285714285714,0.5680272108843537,0.5680272108843537,0.5680272108843537,0.5680272108843537,0.5680272108843537,0.5680272108843537,0.564625850340136,0.5510204081632653,0.5476190476190477,0.5408163265306123,0.5340136054421769,0.5306122448979592,0.5272108843537415,0.5272108843537415,0.5272108843537415,0.5272108843537415,0.5272108843537415,0.5272108843537415,0.5272108843537415,0.5340136054421769,0.5408163265306123,0.5476190476190477,0.5510204081632653,0.5544217687074829,0.5578231292517006,0.5578231292517006,0.5578231292517006,0.5578231292517006,0.5578231292517006,0.5578231292517006,0.5578231292517006,0.5578231292517006,0.5578231292517006,0.5578231292517006,0.5578231292517006,0.5578231292517006,0.5578231292517006,0.5578231292517006,0.5578231292517006,0.5578231292517006,0.5578231292517006,0.5578231292517006,0.5578231292517006,0.5578231292517006,0.5578231292517006,0.5578231292517006,0.5578231292517006,0.5578231292517006,0.5578231292517006,0.5578231292517006,0.5578231292517006,0.5578231292517006,0.5578231292517006,0.5578231292517006,0.5578231292517006,0.5578231292517006,0.5578231292517006,0.5578231292517006,0.5578231292517006,0.5578231292517006,0.5578231292517006,0.5578231292517006,0.5578231292517006,0.5578231292517006,0.5578231292517006,0.5578231292517006,0.5578231292517006,0.5578231292517006,0.5578231292517006,0.5578231292517006,0.5578231292517006,0.5578231292517006,0.5578231292517006,0.5578231292517006,0.5578231292517006,0.5578231292517006,0.5578231292517006,0.5578231292517006,0.5578231292517006,0.5578231292517006,0.5578231292517006,0.5578231292517006,0.5578231292517006,0.5578231292517006,0.5578231292517006,0.5578231292517006,0.5578231292517006,0.5578231292517006,0.5578231292517006,0.5578231292517006,0.5578231292517006,0.5578231292517006,0.5578231292517006,0.5578231292517006,0.5578231292517006,0.5578231292517006,0.5578231292517006,0.5578231292517006,0.5578231292517006,0.5578231292517006,0.5578231292517006,0.5578231292517006,0.5578231292517006,0.5578231292517006,0.5578231292517006,0.5578231292517006,0.5578231292517006,0.5578231292517006,0.5578231292517006,0.5578231292517006,0.5578231292517006,0.5578231292517006,0.5578231292517006,0.5578231292517006,0.5578231292517006,0.5578231292517006,0.5578231292517006,0.5578231292517006,0.5578231292517006,0.5578231292517006,0.5578231292517006,0.5578231292517006,0.5578231292517006,0.5578231292517006,0.5578231292517006,0.5578231292517006,0.5578231292517006,0.5578231292517006,0.5578231292517006,0.5578231292517006,0.5578231292517006,0.5578231292517006,0.5578231292517006,0.5578231292517006,0.5578231292517006,0.5578231292517006,0.5578231292517006,0.5578231292517006,0.5578231292517006,0.5578231292517006,0.5578231292517006,0.5578231292517006,0.5578231292517006,0.5578231292517006,0.5578231292517006,0.5578231292517006,0.5578231292517006,0.5578231292517006,0.5578231292517006,0.5578231292517006,0.5578231292517006,0.5578231292517006,0.5578231292517006,0.5578231292517006,0.5578231292517006,0.5578231292517006,0.5578231292517006,0.5578231292517006,0.5578231292517006,0.5578231292517006,0.5578231292517006,0.5578231292517006,0.5578231292517006,0.5578231292517006,0.5578231292517006,0.5578231292517006,0.5578231292517006,0.5578231292517006,0.5578231292517006,0.5578231292517006,0.5578231292517006,0.5578231292517006,0.5578231292517006,0.5578231292517006,0.5578231292517006,0.5578231292517006,0.5578231292517006,0.5578231292517006,0.5578231292517006,0.5578231292517006,0.5578231292517006,0.5578231292517006,0.5578231292517006,0.5578231292517006,0.5578231292517006,0.5578231292517006,0.5578231292517006,0.5578231292517006,0.5578231292517006,0.5578231292517006,0.5578231292517006,0.5578231292517006,0.5578231292517006,0.5578231292517006,0.5578231292517006,0.5578231292517006,0.5578231292517006,0.5578231292517006,0.5578231292517006,0.5578231292517006,0.5578231292517006,0.5578231292517006,0.5578231292517006,0.5578231292517006,0.5578231292517006,0.5578231292517006,0.5578231292517006,0.5578231292517006,0.5578231292517006,0.5578231292517006,0.5578231292517006,0.5578231292517006,0.5578231292517006,0.5578231292517006,0.5578231292517006,0.5578231292517006,0.5578231292517006,0.5578231292517006,0.5578231292517006,0.5578231292517006,0.5578231292517006,0.5578231292517006,0.5578231292517006,0.5578231292517006,0.5578231292517006,0.5578231292517006,0.5578231292517006,0.5578231292517006,0.5578231292517006,0.5578231292517006,0.5578231292517006,0.5578231292517006,0.5578231292517006,0.5578231292517006,0.5578231292517006,0.5578231292517006,0.5578231292517006,0.5578231292517006,0.5578231292517006,0.5578231292517006,0.5578231292517006,0.5578231292517006,0.5578231292517006,0.5578231292517006,0.5578231292517006,0.5578231292517006,0.5578231292517006,0.5578231292517006,0.5578231292517006,0.5578231292517006,0.5578231292517006,0.5578231292517006,0.5578231292517006,0.5578231292517006,0.5578231292517006,0.5578231292517006,0.5578231292517006,0.5578231292517006,0.5578231292517006,0.5578231292517006,0.5578231292517006,0.5578231292517006,0.5578231292517006,0.5578231292517006,0.5578231292517006,0.5578231292517006,0.5578231292517006,0.5578231292517006,0.5578231292517006,0.5578231292517006,0.5578231292517006,0.5578231292517006,0.5578231292517006,0.5578231292517006,0.5578231292517006,0.5578231292517006,0.5578231292517006,0.5578231292517006,0.5578231292517006,0.5578231292517006,0.5578231292517006,0.5578231292517006,0.5578231292517006,0.5578231292517006,0.5578231292517006,0.5578231292517006,0.5578231292517006,0.5578231292517006,0.5578231292517006,0.5578231292517006,0.5578231292517006,0.5578231292517006,0.5578231292517006,0.5578231292517006,0.5578231292517006,0.5578231292517006,0.5578231292517006,0.5578231292517006,0.5578231292517006,0.5578231292517006,0.5578231292517006,0.5578231292517006,0.5578231292517006,0.5578231292517006,0.5578231292517006,0.5578231292517006,0.5578231292517006,0.5578231292517006,0.5578231292517006,0.5578231292517006,0.5578231292517006,0.5578231292517006,0.5578231292517006,0.5578231292517006,0.5578231292517006,0.5578231292517006,0.5578231292517006,0.5578231292517006,0.5578231292517006,0.5578231292517006,0.5578231292517006,0.5578231292517006,0.5578231292517006,0.5578231292517006,0.5578231292517006,0.5578231292517006,0.5578231292517006,0.5578231292517006,0.5578231292517006,0.5578231292517006,0.5578231292517006,0.5578231292517006,0.5578231292517006,0.5578231292517006,0.5578231292517006,0.5578231292517006,0.5578231292517006,0.5578231292517006,0.5578231292517006,0.5578231292517006,0.5578231292517006,0.5578231292517006,0.5578231292517006,0.5578231292517006,0.5578231292517006,0.5578231292517006,0.5578231292517006,0.5578231292517006,0.5578231292517006,0.5578231292517006,0.5578231292517006,0.5578231292517006,0.5578231292517006,0.5578231292517006,0.5578231292517006,0.5578231292517006,0.5578231292517006,0.5578231292517006,0.5578231292517006,0.5578231292517006,0.5578231292517006,0.5578231292517006,0.5578231292517006,0.5578231292517006,0.5578231292517006,0.5578231292517006,0.5578231292517006,0.5578231292517006,0.5578231292517006,0.5578231292517006,0.5578231292517006,0.5578231292517006,0.5578231292517006,0.5578231292517006,0.5578231292517006,0.5578231292517006,0.5578231292517006,0.5578231292517006,0.5578231292517006,0.5578231292517006,0.5578231292517006,0.5578231292517006,0.5578231292517006,0.5578231292517006,0.5578231292517006,0.5578231292517006,0.5578231292517006,0.5578231292517006,0.5578231292517006,0.5578231292517006,0.5578231292517006,0.5578231292517006,0.5578231292517006,0.5578231292517006,0.5578231292517006,0.5578231292517006,0.5578231292517006,0.5578231292517006,0.5578231292517006,0.5578231292517006,0.5578231292517006,0.5578231292517006,0.5578231292517006,0.5578231292517006,0.5578231292517006,0.5578231292517006,0.5578231292517006,0.5578231292517006,0.5578231292517006,0.5578231292517006,0.5578231292517006,0.5578231292517006,0.5578231292517006,0.5578231292517006,0.5578231292517006,0.5578231292517006,0.5578231292517006,0.5578231292517006,0.5578231292517006,0.5578231292517006,0.5578231292517006,0.5578231292517006,0.5578231292517006,0.5578231292517006,0.5578231292517006,0.5578231292517006,0.5578231292517006,0.5578231292517006,0.5578231292517006,0.5578231292517006,0.5578231292517006,0.5578231292517006,0.5578231292517006,0.5578231292517006,0.5578231292517006,0.5578231292517006,0.5578231292517006,0.5578231292517006,0.5578231292517006,0.5578231292517006,0.5578231292517006,0.5578231292517006,0.5578231292517006,0.5578231292517006,0.5578231292517006,0.5578231292517006,0.5578231292517006,0.5578231292517006,0.5578231292517006,0.5578231292517006,0.5578231292517006,0.5578231292517006,0.5578231292517006,0.5578231292517006,0.5578231292517006,0.5578231292517006,0.5578231292517006,0.5578231292517006,0.5578231292517006,0.5578231292517006,0.5578231292517006,0.5578231292517006,0.5578231292517006,0.5578231292517006,0.5578231292517006,0.5578231292517006,0.5578231292517006,0.5578231292517006,0.5578231292517006,0.5578231292517006,0.5578231292517006,0.5578231292517006,0.5578231292517006,0.5578231292517006,0.5578231292517006,0.5578231292517006,0.5578231292517006,0.5578231292517006,0.5578231292517006,0.5578231292517006,0.5578231292517006,0.5578231292517006,0.5578231292517006,0.5578231292517006,0.5578231292517006,0.5578231292517006,0.5578231292517006,0.5578231292517006,0.5578231292517006,0.5578231292517006,0.5578231292517006,0.5578231292517006,0.5578231292517006,0.5578231292517006,0.5578231292517006,0.5578231292517006,0.5578231292517006,0.5578231292517006,0.5578231292517006,0.5578231292517006,0.5578231292517006,0.5578231292517006,0.5578231292517006,0.5578231292517006,0.5578231292517006,0.5578231292517006,0.5578231292517006,0.5578231292517006,0.5578231292517006,0.5578231292517006,0.5578231292517006,0.5578231292517006,0.5578231292517006,0.5578231292517006,0.5578231292517006,0.5578231292517006,0.5578231292517006,0.5578231292517006,0.5578231292517006,0.5578231292517006,0.5578231292517006,0.5578231292517006,0.5578231292517006,0.5578231292517006,0.5578231292517006,0.5578231292517006,0.5578231292517006,0.5578231292517006,0.5578231292517006,0.5578231292517006,0.5578231292517006,0.5578231292517006,0.5578231292517006,0.5578231292517006,0.5578231292517006,0.5578231292517006,0.5578231292517006,0.5578231292517006,0.5578231292517006,0.5578231292517006,0.5578231292517006,0.5578231292517006,0.5578231292517006,0.5578231292517006,0.5578231292517006,0.5578231292517006,0.5578231292517006,0.5578231292517006,0.5578231292517006,0.5578231292517006,0.5578231292517006,0.5578231292517006,0.5578231292517006,0.5578231292517006,0.5578231292517006,0.5578231292517006,0.5578231292517006,0.5578231292517006,0.5578231292517006,0.5578231292517006,0.5578231292517006,0.5578231292517006,0.5578231292517006,0.5578231292517006,0.5578231292517006,0.5578231292517006,0.5578231292517006,0.5578231292517006,0.5578231292517006,0.5578231292517006,0.5578231292517006,0.5578231292517006,0.5578231292517006,0.5578231292517006,0.5578231292517006,0.5578231292517006,0.5578231292517006,0.5578231292517006,0.5578231292517006,0.5578231292517006,0.5578231292517006,0.5578231292517006,0.5578231292517006,0.5578231292517006,0.5578231292517006,0.5578231292517006,0.5578231292517006,0.5578231292517006,0.5578231292517006,0.5578231292517006,0.5578231292517006,0.5578231292517006,0.5578231292517006,0.5578231292517006,0.5578231292517006,0.5578231292517006,0.5578231292517006,0.5578231292517006,0.5578231292517006,0.5578231292517006,0.5578231292517006,0.5578231292517006,0.5578231292517006,0.5578231292517006,0.5578231292517006,0.5578231292517006,0.5578231292517006,0.5578231292517006,0.5578231292517006,0.5578231292517006,0.5578231292517006,0.5578231292517006,0.5578231292517006,0.5578231292517006,0.5578231292517006,0.5578231292517006,0.5578231292517006,0.5578231292517006,0.5578231292517006,0.5578231292517006,0.5578231292517006,0.5578231292517006,0.5578231292517006,0.5578231292517006,0.5578231292517006,0.5578231292517006,0.5578231292517006,0.5578231292517006,0.5578231292517006,0.5578231292517006,0.5578231292517006,0.5578231292517006,0.5578231292517006,0.5578231292517006,0.5578231292517006,0.5578231292517006,0.5578231292517006,0.5578231292517006,0.5578231292517006,0.5578231292517006,0.5578231292517006,0.5578231292517006,0.5578231292517006,0.5578231292517006,0.5578231292517006,0.5578231292517006,0.5578231292517006,0.5578231292517006,0.5578231292517006,0.5578231292517006,0.5578231292517006,0.5578231292517006,0.5578231292517006,0.5578231292517006,0.5578231292517006,0.5578231292517006,0.5578231292517006,0.5578231292517006,0.5578231292517006,0.5578231292517006,0.5578231292517006,0.5578231292517006,0.5578231292517006,0.5578231292517006,0.5578231292517006,0.5578231292517006,0.5578231292517006,0.5578231292517006,0.5578231292517006,0.5578231292517006,0.5578231292517006,0.5578231292517006,0.5578231292517006,0.5578231292517006,0.5578231292517006,0.5578231292517006,0.5578231292517006,0.5578231292517006,0.5578231292517006,0.5578231292517006,0.5578231292517006,0.5578231292517006,0.5578231292517006,0.5578231292517006,0.5578231292517006,0.5578231292517006,0.5578231292517006,0.5578231292517006,0.5578231292517006,0.5578231292517006,0.5578231292517006,0.5578231292517006,0.5578231292517006,0.5578231292517006,0.5578231292517006,0.5578231292517006,0.5578231292517006,0.5578231292517006,0.5578231292517006,0.5578231292517006,0.5578231292517006,0.5578231292517006,0.5578231292517006,0.5578231292517006,0.5578231292517006,0.5578231292517006,0.5578231292517006,0.5578231292517006,0.5578231292517006,0.5578231292517006,0.5578231292517006,0.5578231292517006,0.5578231292517006,0.5578231292517006,0.5578231292517006,0.5578231292517006,0.5578231292517006,0.5578231292517006,0.5578231292517006,0.5578231292517006,0.5578231292517006,0.5578231292517006,0.5578231292517006,0.5578231292517006,0.5578231292517006,0.5578231292517006,0.5578231292517006,0.5578231292517006,0.5578231292517006,0.5578231292517006,0.5578231292517006,0.5578231292517006,0.5578231292517006,0.5578231292517006,0.5578231292517006,0.5578231292517006,0.5578231292517006,0.5578231292517006,0.5578231292517006,0.5578231292517006,0.5578231292517006,0.5578231292517006,0.5578231292517006,0.5578231292517006,0.5578231292517006,0.5578231292517006,0.5578231292517006,0.5578231292517006,0.5578231292517006,0.5578231292517006,0.5578231292517006,0.5578231292517006,0.5578231292517006,0.5578231292517006,0.5578231292517006,0.5578231292517006,0.5578231292517006,0.5578231292517006,0.5578231292517006,0.5578231292517006,0.5578231292517006,0.5578231292517006,0.5578231292517006,0.5578231292517006,0.5578231292517006,0.5578231292517006,0.5578231292517006,0.5578231292517006,0.5578231292517006,0.5578231292517006,0.5578231292517006,0.5578231292517006,0.5578231292517006,0.5578231292517006,0.5578231292517006,0.5578231292517006,0.5578231292517006,0.5578231292517006,0.5578231292517006,0.5578231292517006,0.5578231292517006,0.5578231292517006,0.5578231292517006,0.5578231292517006,0.5578231292517006,0.5578231292517006,0.5578231292517006,0.5578231292517006,0.5578231292517006,0.5578231292517006,0.5578231292517006,0.5578231292517006,0.5578231292517006,0.5578231292517006,0.5578231292517006,0.5578231292517006,0.5578231292517006,0.5578231292517006,0.5578231292517006,0.5578231292517006,0.5578231292517006,0.5578231292517006,0.5578231292517006,0.5578231292517006,0.5578231292517006,0.5578231292517006,0.5578231292517006,0.5578231292517006,0.5578231292517006,0.5578231292517006,0.5578231292517006,0.5578231292517006,0.5578231292517006,0.5578231292517006,0.5578231292517006,0.5578231292517006,0.5578231292517006,0.5578231292517006,0.5578231292517006,0.5578231292517006,0.5578231292517006,0.5578231292517006,0.5578231292517006,0.5578231292517006,0.5578231292517006,0.5578231292517006,0.5578231292517006,0.5578231292517006,0.5578231292517006,0.5578231292517006,0.5578231292517006,0.5578231292517006,0.5578231292517006,0.5578231292517006,0.5578231292517006,0.5578231292517006,0.5578231292517006,0.5578231292517006,0.5578231292517006,0.5578231292517006,0.5578231292517006,0.5578231292517006,0.5578231292517006,0.5578231292517006,0.5578231292517006,0.5578231292517006,0.5578231292517006,0.5578231292517006,0.5578231292517006,0.5578231292517006,0.5578231292517006,0.5578231292517006,0.5578231292517006,0.5578231292517006,0.5578231292517006,0.5578231292517006,0.5578231292517006,0.5578231292517006,0.5578231292517006,0.5578231292517006,0.5578231292517006,0.5578231292517006,0.5578231292517006,0.5578231292517006,0.5578231292517006,0.5578231292517006,0.5578231292517006,0.5578231292517006,0.5578231292517006,0.5578231292517006,0.5578231292517006,0.5578231292517006,0.5578231292517006,0.5578231292517006,0.5578231292517006,0.5578231292517006,0.5578231292517006,0.5578231292517006,0.5578231292517006,0.5578231292517006,0.5578231292517006,0.5578231292517006,0.5578231292517006,0.5578231292517006,0.5578231292517006,0.5578231292517006,0.5578231292517006,0.5578231292517006,0.5578231292517006,0.5578231292517006,0.5578231292517006,0.5578231292517006,0.5578231292517006,0.5578231292517006,0.5578231292517006,0.5578231292517006,0.5578231292517006,0.5578231292517006,0.5578231292517006,0.5578231292517006,0.5578231292517006,0.5578231292517006,0.5578231292517006,0.5578231292517006,0.5578231292517006,0.5578231292517006,0.5578231292517006,0.5578231292517006,0.5578231292517006,0.5578231292517006,0.5578231292517006,0.5578231292517006,0.5578231292517006,0.5578231292517006,0.5578231292517006,0.5578231292517006,0.5578231292517006,0.5578231292517006,0.5578231292517006,0.5578231292517006,0.5578231292517006,0.5578231292517006,0.5578231292517006,0.5578231292517006,0.5578231292517006,0.5578231292517006,0.5578231292517006,0.5578231292517006,0.5578231292517006,0.5578231292517006,0.5578231292517006,0.5578231292517006,0.5578231292517006,0.5578231292517006,0.5578231292517006,0.5578231292517006,0.5578231292517006,0.5578231292517006,0.5578231292517006,0.5578231292517006,0.5578231292517006,0.5578231292517006,0.5578231292517006,0.5578231292517006,0.5578231292517006,0.5578231292517006,0.5578231292517006,0.5578231292517006,0.5578231292517006,0.5578231292517006,0.5578231292517006,0.5578231292517006,0.5578231292517006,0.5578231292517006,0.5578231292517006,0.5578231292517006,0.5578231292517006,0.5578231292517006,0.5578231292517006,0.5578231292517006,0.5578231292517006,0.5578231292517006,0.5578231292517006,0.5578231292517006,0.5578231292517006,0.5578231292517006,0.5578231292517006,0.5578231292517006,0.5578231292517006,0.5578231292517006,0.5578231292517006,0.5578231292517006,0.5578231292517006,0.5578231292517006,0.5578231292517006,0.5578231292517006,0.5578231292517006,0.5578231292517006,0.5578231292517006,0.5578231292517006,0.5578231292517006,0.5578231292517006,0.5578231292517006,0.5578231292517006,0.5578231292517006,0.5578231292517006,0.5578231292517006,0.5578231292517006,0.5578231292517006,0.5578231292517006,0.5578231292517006,0.5578231292517006,0.5578231292517006,0.5578231292517006,0.5578231292517006,0.5578231292517006,0.5578231292517006,0.5578231292517006,0.5578231292517006,0.5578231292517006,0.5578231292517006,0.5578231292517006,0.5578231292517006,0.5578231292517006,0.5578231292517006,0.5578231292517006,0.5578231292517006,0.5578231292517006,0.5578231292517006,0.5578231292517006,0.5578231292517006,0.5578231292517006,0.5578231292517006,0.5578231292517006,0.5578231292517006,0.5578231292517006,0.5578231292517006,0.5578231292517006,0.5578231292517006,0.5578231292517006,0.5578231292517006,0.5578231292517006,0.5578231292517006,0.5578231292517006,0.5578231292517006,0.5578231292517006,0.5578231292517006,0.5578231292517006,0.5578231292517006,0.5578231292517006,0.5578231292517006,0.5578231292517006,0.5578231292517006,0.5578231292517006,0.5578231292517006,0.5578231292517006,0.5578231292517006,0.5578231292517006,0.5578231292517006,0.5578231292517006,0.5578231292517006,0.5578231292517006,0.5578231292517006,0.5578231292517006,0.5578231292517006,0.5578231292517006,0.5578231292517006,0.5578231292517006,0.5578231292517006,0.5578231292517006,0.5578231292517006,0.5578231292517006,0.5578231292517006,0.5578231292517006,0.5578231292517006,0.5578231292517006,0.5578231292517006,0.5578231292517006,0.5578231292517006,0.5578231292517006,0.5578231292517006,0.5578231292517006,0.5578231292517006,0.5578231292517006,0.5578231292517006,0.5578231292517006,0.5578231292517006,0.5578231292517006,0.5578231292517006,0.5578231292517006,0.5578231292517006,0.5578231292517006,0.5578231292517006,0.5578231292517006,0.5578231292517006,0.5578231292517006,0.5578231292517006,0.5578231292517006,0.5578231292517006,0.5578231292517006,0.5578231292517006,0.5578231292517006,0.5578231292517006,0.5578231292517006,0.5578231292517006,0.5578231292517006,0.5578231292517006,0.5578231292517006,0.5578231292517006,0.5578231292517006,0.5578231292517006,0.5578231292517006,0.5578231292517006,0.5578231292517006,0.5578231292517006,0.5578231292517006,0.5578231292517006,0.5578231292517006,0.5578231292517006,0.5578231292517006,0.5578231292517006,0.5578231292517006,0.5578231292517006,0.5578231292517006,0.5578231292517006,0.5578231292517006,0.5578231292517006,0.5578231292517006,0.5578231292517006,0.5578231292517006,0.5578231292517006,0.5578231292517006,0.5578231292517006,0.5578231292517006,0.5578231292517006,0.5578231292517006,0.5578231292517006,0.5578231292517006,0.5578231292517006,0.5578231292517006,0.5578231292517006,0.5578231292517006,0.5578231292517006,0.5578231292517006,0.5578231292517006,0.5578231292517006,0.5578231292517006,0.5578231292517006,0.5578231292517006,0.5578231292517006,0.5578231292517006,0.5578231292517006,0.5578231292517006,0.5578231292517006,0.5578231292517006,0.5578231292517006,0.5578231292517006,0.5578231292517006,0.5578231292517006,0.5578231292517006,0.5578231292517006,0.5578231292517006,0.5578231292517006,0.55