[{"success":true,"trial_type":"fullscreen","trial_index":0,"time_elapsed":2381,"internal_node_id":"0.0-0.0","protocol_sum":"","subject_identifier":102,"subject_sum":[3,27,74,245,25,126,195,10,146,111,72,207,64,225,26,125,188,71,0,72,162,30,64,3,183,163,192,124,93,171,27,170],"subject_pair":51,"STUDY_ID":"669a702db1122fc5150a13ce","PROLIFIC_PID":"66798b60f632d63fe56b20ef","SESSION_ID":"669a84c2bc0b7e0b29c63d31","practice_instructions":1,"leaderboard_instructions":0,"bonus":0,"reveal_word":false,"self_rating":"1","confidence":"83"},{"view_history":"[{\"page_index\":0,\"viewing_time\":4190.800000190735}]","rt":4191.10000038147,"trial_type":"instructions","trial_index":1,"time_elapsed":6573,"internal_node_id":"0.0-1.0","protocol_sum":"","subject_identifier":102,"subject_sum":[3,27,74,245,25,126,195,10,146,111,72,207,64,225,26,125,188,71,0,72,162,30,64,3,183,163,192,124,93,171,27,170],"subject_pair":51,"STUDY_ID":"669a702db1122fc5150a13ce","PROLIFIC_PID":"66798b60f632d63fe56b20ef","SESSION_ID":"669a84c2bc0b7e0b29c63d31","practice_instructions":1,"leaderboard_instructions":0,"bonus":0,"reveal_word":false,"self_rating":"1","confidence":"83"},{"view_history":"[{\"page_index\":0,\"viewing_time\":12693.199999809265}]","rt":12693.300000190735,"trial_type":"instructions","trial_index":2,"time_elapsed":19267,"internal_node_id":"0.0-2.0-0.0","protocol_sum":"","subject_identifier":102,"subject_sum":[3,27,74,245,25,126,195,10,146,111,72,207,64,225,26,125,188,71,0,72,162,30,64,3,183,163,192,124,93,171,27,170],"subject_pair":51,"STUDY_ID":"669a702db1122fc5150a13ce","PROLIFIC_PID":"66798b60f632d63fe56b20ef","SESSION_ID":"669a84c2bc0b7e0b29c63d31","practice_instructions":1,"leaderboard_instructions":0,"bonus":0,"reveal_word":false,"self_rating":"1","confidence":"83"},{"rt":9220.39999961853,"responses":"{\"Q0\":\"... reveal the word with as <b>few letter guesses</b> as possible\"}","question_order":"[0]","trial_type":"survey-multi-choice","trial_index":3,"time_elapsed":28489,"internal_node_id":"0.0-2.0-1.0","protocol_sum":"","subject_identifier":102,"subject_sum":[3,27,74,245,25,126,195,10,146,111,72,207,64,225,26,125,188,71,0,72,162,30,64,3,183,163,192,124,93,171,27,170],"subject_pair":51,"correct":true,"test_part":"multichoice_nonpretend","STUDY_ID":"669a702db1122fc5150a13ce","PROLIFIC_PID":"66798b60f632d63fe56b20ef","SESSION_ID":"669a84c2bc0b7e0b29c63d31","practice_instructions":1,"leaderboard_instructions":0,"bonus":0,"reveal_word":false,"self_rating":"1","confidence":"83"},{"view_history":"[{\"page_index\":0,\"viewing_time\":1405.0999994277954}]","rt":1405.1999998092651,"trial_type":"instructions","trial_index":4,"time_elapsed":29895,"internal_node_id":"0.0-3.0","protocol_sum":"","subject_identifier":102,"subject_sum":[3,27,74,245,25,126,195,10,146,111,72,207,64,225,26,125,188,71,0,72,162,30,64,3,183,163,192,124,93,171,27,170],"subject_pair":51,"STUDY_ID":"669a702db1122fc5150a13ce","PROLIFIC_PID":"66798b60f632d63fe56b20ef","SESSION_ID":"669a84c2bc0b7e0b29c63d31","practice_instructions":1,"leaderboard_instructions":0,"bonus":0,"reveal_word":false,"self_rating":"1","confidence":"83"},{"word":"ZEBRA","click_log":{"letter":["","Z","E","B","R","A"],"t":[0,7785.199999809265,9337,12037.300000190735,13275,14401.5],"hit":[null,1,1,1,1,1],"asked":["","Z","ZE","ZEB","ZEBR","ZEBRA"],"word_state":["_____","Z____","ZE___","ZEB__","ZEBR_","ZEBRA"]},"hover_log":{"letter":["?","?","?","?","?","?","?","?","?","?","?","?","?","?","?","?","?","?","?","?","?","?","?","?","?","?","?","?","?","?","?","?","?","?","?","?","?","?","J","J","?","?","?","B","B","?","?","?","?","?","?","?","?","?","?","?","?","?","?","?","?","?","?","?","?","?","?","?","?","?","?","?","?","?","?","?","?","?","?","?","?","?","?","?","?","?","?","?","?","?","?","?","?","?","?","?","?","?","?","?","?","?","?","?","?","?","?","?","?","?","?","?","?","?","?","?","?","?","?","?","?","?","?","?","?","?","?","?","?","?","?","?","?","?","?","?","?","?","?","?","?","?","?","?","?","?","?","?","?","?","?","?","?","?","?","?","?","?","?","?","?","?","?","?","?","?","?","?","?","?","?","?","?","?","?","?","?","?","?","?","?","?","?","?","?","?","?","?","?","?","?","?","?","?","?","?","?","?","?","?","?","?","?","?","?","?","?","?","?","?","?","?","?","?","?","?","?","?","?","?","?","?","?","?","?","?","?","?","?","?","?","?","?","?","?","?","?","?","?","?","?","?","?","?","?","?","?","?","?","?","?","?","?","?","?","?","?","?","?","?","?","?","?","?","?","?","?","?","?","?","?","?","?","?","?","?","?","?","?","?","?","?","?","?","?","?","?","?","?","?","?","?","?","?","?","?","?","?","?","?","?","?","?","?","?","?","?","?","?","?","?","?","?","?","?","?","?","?","?","?","?","?","?","?","?","?","?","?","?","?","?","?","?","?","?","?","?","?","?","?","?","?","?","?","?","?","?","?","?","?","?","?","?","?","?","?","?","?","?","?","?","?","?","?","?","?","?","?","?","?","?","?","?","?","?","?","?","?","?","?","?","?","?","?","?","?","?","?","?","?","?","?","?","?","?","?","?","?","?","?","?","?","?","?","?","?","?","?","?","?","?","?","?","?","?","?","?","?","?","?","?","?","?","L","L","L","?","?","?","V","W","?","?","?","?","?","?","?","?","Y","Y","Y","Y","Y","Z","Z","Z","Z","Z","Z","Z","Z","Z","Z","Z","Z","Z","Z","Z","Z","Z","Z","Z","Z","Z","Z","Z","Z","Z","Z","Z","Z","Z","Z","Z","Z","Z","Z","Z","Z","Z","Z","Z","Z","Z","Z","Z","Z","Z","Z","Z","?","?","?","?","?","X","X","?","?","N","N","?","?","?","?","?","?","?","?","D","D","D","D","D","?","?","C","C","C","C","C","?","D","D","?","E","?","?","?","?","?","?","?","?","?","?","?","?","?","?","E","E","E","E","E","E","E","E","E","E","E","E","E","E","E","E","E","E","E","E","E","E","E","E","E","E","E","E","E","E","E","E","E","E","E","E","E","E","E","E","E","E","E","E","?","?","?","?","?","?","?","?","?","?","?","?","?","?","?","?","?","?","?","?","?","?","?","?","?","?","?","?","?","?","?","?","O","O","O","O","O","O","O","?","?","?","?","?","?","?","?","?","?","P","P","P","P","P","P","P","P","P","P","?","?","O","O","O","O","O","O","O","O","O","?","?","?","?","?","?","?","?","?","?","?","?","?","?","?","?","?","?","?","?","?","?","?","?","?","?","?","?","?","L","L","L","L","L","L","?","?","?","?","?","C","?","?","?","B","B","B","B","B","B","B","B","B","B","B","B","B","B","B","B","B","B","B","B","B","B","B","B","B","B","B","B","B","B","B","B","B","B","B","B","B","B","B","B","B","B","?","?","?","?","?","?","M","M","M","M","?","?","N","N","?","?","?","?","?","?","?","?","?","?","?","?","?","?","?","?","?","?","R","R","R","R","R","R","R","R","R","R","R","R","R","R","R","R","R","R","R","R","R","R","R","R","R","R","R","R","R","R","R","Q","P","O","N","?","?","?","?","C","C","?","B","B","B","?","A","A","A","A","A","A","A","A","A","A","A","A","A","A","A","A","A","A","A","A","A","A","A","A","A","A","A","A","A","A","A","A","A","A","A","A","A","A","A","A","A","A","A","A","A","A","A","A","A","A","A","A","A","A","A","A","A","A","A","A","?","?","?","?","?","T","T","T","T","T","T","T","T","T","?","?","?","?","?","?","?","?","?","?","?","?","?","?","?","?","?","?","?","?","?","?","?","?","?","?","?","?","?","?","?","?","?","?","?","?","?","?","?","?","?","?","?","?","?","?","?","?","?","?","?","?","?","?","?","?","?","?","?","?","?","?","?","?","?","?","?","?","?","?","?","?","?","?","?","?","?","?","?","?","?","?","?","?","?","?","?","?","?","?","?"],"t":[37,41,57,74,90,107,124,140,157,174,190,207,224,240,257,274,290,307,324,340,357,374,390,407,424,440,457,474,490,507,524,540,557,574,590,607,624,641,658,674,691,707,724,741,758,774,791,808,824,841,858,874,891,908,924,941,958,974,991,1007,1024,1041,1058,1074,1091,1108,1124,1141,1157,1174,1191,1208,1224,1241,1258,1274,1291,1308,1324,1341,1358,1375,1391,1407,1424,1441,1458,1474,1491,1508,1524,1541,1557,1574,1591,1607,1624,1641,1658,1674,1691,1708,1724,1741,1757,1774,1791,1807,1824,1841,1857,1874,1891,1908,1924,1941,1958,1975,1991,2007,2024,2041,2057,2074,2091,2108,2124,2141,2158,2174,2191,2208,2224,2241,2258,2274,2291,2308,2324,2341,2358,2374,2391,2408,2425,2441,2458,2475,2491,2508,2524,2541,2558,2575,2591,2608,2624,2641,2658,2675,2691,2708,2725,2741,2758,2775,2791,2808,2825,2841,2858,2875,2891,2908,2925,2941,2958,2975,2991,3008,3025,3042,3058,3075,3092,3108,3125,3141,3158,3175,3192,3208,3225,3242,3258,3275,3292,3309,3325,3342,3358,3375,3392,3409,3425,3442,3459,3475,3492,3509,3525,3542,3558,3575,3592,3609,3625,3642,3659,3675,3692,3709,3725,3742,3759,3775,3792,3809,3825,3842,3859,3876,3892,3909,3926,3942,3959,3975,3992,4009,4026,4042,4059,4075,4092,4109,4126,4142,4159,4176,4192,4209,4226,4242,4259,4276,4293,4309,4326,4343,4359,4376,4392,4409,4426,4443,4459,4476,4493,4509,4526,4543,4559,4576,4593,4609,4626,4642,4659,4676,4693,4710,4726,4743,4759,4776,4793,4809,4826,4843,4860,4876,4893,4910,4926,4943,4960,4976,4993,5010,5027,5043,5060,5077,5093,5110,5127,5143,5160,5177,5193,5210,5227,5244,5260,5277,5293,5310,5327,5344,5360,5377,5394,5410,5427,5444,5460,5477,5493,5510,5527,5544,5560,5577,5594,5610,5627,5644,5661,5677,5694,5710,5727,5744,5761,5777,5794,5810,5827,5844,5861,5877,5894,5911,5927,5944,5961,5978,5994,6011,6027,6044,6060,6077,6094,6110,6127,6144,6161,6178,6194,6211,6227,6244,6261,6277,6294,6311,6327,6344,6360,6377,6394,6411,6427,6444,6460,6477,6494,6510,6527,6543,6560,6577,6593,6610,6627,6644,6660,6677,6694,6711,6728,6744,6760,6777,6794,6811,6827,6844,6860,6877,6894,6911,6928,6944,6961,6978,6994,7011,7027,7044,7060,7078,7094,7111,7128,7145,7161,7178,7195,7211,7227,7244,7261,7278,7294,7311,7327,7345,7361,7378,7394,7411,7428,7445,7461,7478,7494,7511,7528,7544,7561,7578,7594,7610,7627,7644,7661,7677,7695,7711,7728,7745,7761,7778,7795,7811,7828,7844,7861,7878,7895,7912,7929,7945,7962,7978,7995,8011,8028,8045,8061,8078,8094,8111,8128,8145,8161,8178,8195,8211,8228,8245,8261,8278,8295,8312,8328,8345,8362,8378,8394,8412,8428,8445,8461,8478,8495,8511,8529,8545,8562,8579,8595,8612,8628,8645,8661,8678,8694,8712,8728,8745,8762,8778,8796,8812,8828,8845,8862,8878,8895,8911,8928,8945,8961,8978,8995,9011,9028,9045,9062,9078,9095,9112,9128,9145,9162,9178,9195,9212,9228,9245,9261,9278,9295,9312,9328,9345,9362,9379,9395,9412,9428,9445,9461,9478,9495,9511,9528,9545,9561,9578,9595,9611,9628,9645,9661,9678,9695,9711,9728,9745,9761,9778,9795,9812,9828,9845,9862,9878,9895,9912,9928,9945,9961,9978,9995,10011,10028,10045,10062,10078,10095,10112,10128,10145,10162,10179,10195,10212,10228,10245,10262,10279,10295,10312,10329,10345,10362,10379,10396,10412,10429,10446,10462,10479,10495,10512,10529,10545,10562,10579,10596,10612,10629,10645,10662,10679,10695,10712,10729,10745,10762,10779,10796,10812,10829,10846,10862,10879,10896,10912,10929,10946,10962,10979,10996,11012,11029,11046,11062,11079,11095,11112,11129,11146,11163,11179,11195,11212,11229,11246,11263,11279,11296,11312,11329,11346,11363,11379,11396,11412,11429,11446,11463,11479,11496,11513,11529,11546,11563,11579,11596,11613,11630,11646,11663,11679,11696,11713,11729,11746,11763,11779,11796,11813,11829,11846,11863,11879,11896,11913,11929,11946,11963,11979,11996,12013,12030,12046,12063,12080,12096,12113,12130,12146,12163,12180,12196,12213,12230,12246,12263,12279,12296,12313,12330,12347,12363,12380,12396,12413,12430,12446,12463,12480,12497,12513,12530,12546,12563,12580,12597,12613,12630,12647,12663,12680,12697,12713,12730,12747,12763,12780,12797,12813,12830,12847,12863,12880,12896,12913,12930,12947,12963,12980,12997,13014,13030,13047,13064,13080,13097,13113,13130,13147,13163,13180,13197,13213,13230,13247,13264,13280,13297,13314,13330,13347,13364,13380,13397,13414,13431,13447,13464,13481,13497,13514,13530,13547,13564,13581,13597,13613,13630,13647,13664,13681,13697,13714,13730,13747,13764,13780,13797,13814,13831,13847,13864,13881,13897,13914,13931,13947,13964,13981,13997,14014,14030,14047,14064,14081,14097,14114,14131,14147,14164,14181,14197,14214,14230,14247,14264,14281,14297,14314,14331,14347,14364,14381,14397,14416,14431,14448,14464,14481,14497,14514,14531,14548,14564,14581,14598,14614,14631,14648,14665,14681,14698,14714,14731,14748,14765,14781,14798,14814,14831,14848,14865,14881,14898,14914,14931,14948,14964,14981,14998,15014,15031,15048,15065,15081,15097,15114,15131,15148,15166,15181,15198,15214,15231,15248,15265,15281,15298,15315,15331,15348,15365,15381,15398,15415,15431,15448,15465,15481,15498,15515,15532,15548,15565,15581,15598,15615,15631,15648,15665,15681,15698,15715,15731,15748,15765,15781,15798,15815,15831,15848,15865,15882,15898,15915,15932,15948,15965,15982,15998,16015,16032,16049,16065,16082,16098,16115,16131,16148,16165,16181,16198,16215,16231,16248,16265,16282,16298,16315,16332,16348,16365,16382,16399,16416],"hit":[null],"x":[-2.693877551020408,-2.693877551020408,-2.693877551020408,-2.693877551020408,-2.693877551020408,-2.693877551020408,-2.693877551020408,-2.693877551020408,-2.693877551020408,-2.693877551020408,-2.693877551020408,-2.693877551020408,-2.693877551020408,-2.693877551020408,-2.693877551020408,-2.693877551020408,-2.693877551020408,-2.693877551020408,-2.693877551020408,-2.693877551020408,-2.693877551020408,-2.693877551020408,-2.693877551020408,-2.693877551020408,-2.693877551020408,-2.693877551020408,-2.693877551020408,-2.693877551020408,-2.693877551020408,-2.693877551020408,-2.693877551020408,-2.693877551020408,-2.693877551020408,-2.693877551020408,-2.693877551020408,-2.693877551020408,0.030612244897959183,0.03741496598639456,0.047619047619047616,0.05102040816326531,0.05782312925170068,0.06802721088435375,0.08163265306122448,0.09523809523809523,0.12244897959183673,0.16326530612244897,0.22108843537414966,0.25510204081632654,0.2789115646258503,0.29931972789115646,0.3163265306122449,0.3333333333333333,0.3401360544217687,0.3435374149659864,0.3469387755102041,0.35034013605442177,0.35374149659863946,0.36054421768707484,0.36394557823129253,0.36394557823129253,0.36394557823129253,0.36394557823129253,0.36394557823129253,0.3673469387755102,0.3673469387755102,0.3741496598639456,0.3741496598639456,0.38095238095238093,0.38095238095238093,0.3843537414965986,0.3843537414965986,0.3843537414965986,0.3707482993197279,0.36054421768707484,0.3435374149659864,0.32653061224489793,0.3129251700680272,0.30272108843537415,0.2891156462585034,0.2789115646258503,0.272108843537415,0.272108843537415,0.2687074829931973,0.2687074829931973,0.2653061224489796,0.25510204081632654,0.24489795918367346,0.23809523809523808,0.23129251700680273,0.22789115646258504,0.22789115646258504,0.22789115646258504,0.22789115646258504,0.22789115646258504,0.22789115646258504,0.22789115646258504,0.22789115646258504,0.22789115646258504,0.22789115646258504,0.22789115646258504,0.22789115646258504,0.22789115646258504,0.22789115646258504,0.22789115646258504,0.22789115646258504,0.22789115646258504,0.22789115646258504,0.23129251700680273,0.23129251700680273,0.23129251700680273,0.23129251700680273,0.23129251700680273,0.23129251700680273,0.23129251700680273,0.23129251700680273,0.23129251700680273,0.23129251700680273,0.23129251700680273,0.23129251700680273,0.23129251700680273,0.23129251700680273,0.23129251700680273,0.23129251700680273,0.23129251700680273,0.25170068027210885,0.272108843537415,0.2857142857142857,0.29591836734693877,0.30612244897959184,0.3129251700680272,0.3163265306122449,0.3163265306122449,0.3163265306122449,0.3163265306122449,0.3163265306122449,0.3163265306122449,0.3163265306122449,0.3163265306122449,0.3163265306122449,0.30952380952380953,0.29931972789115646,0.2925170068027211,0.2789115646258503,0.272108843537415,0.2653061224489796,0.2619047619047619,0.2619047619047619,0.2585034013605442,0.2585034013605442,0.25510204081632654,0.25510204081632654,0.25510204081632654,0.25510204081632654,0.25510204081632654,0.25510204081632654,0.25510204081632654,0.25510204081632654,0.25510204081632654,0.25510204081632654,0.25510204081632654,0.2619047619047619,0.2891156462585034,0.30952380952380953,0.3435374149659864,0.36054421768707484,0.3673469387755102,0.37755102040816324,0.3843537414965986,0.3843537414965986,0.3843537414965986,0.3843537414965986,0.3843537414965986,0.3843537414965986,0.3877551020408163,0.3877551020408163,0.3877551020408163,0.3877551020408163,0.3877551020408163,0.3877551020408163,0.3877551020408163,0.391156462585034,0.3945578231292517,0.3979591836734694,0.3979591836734694,0.4013605442176871,0.4013605442176871,0.4013605442176871,0.4013605442176871,0.4013605442176871,0.4013605442176871,0.4013605442176871,0.4013605442176871,0.4013605442176871,0.4013605442176871,0.40816326530612246,0.41836734693877553,0.4387755102040816,0.47278911564625853,0.5170068027210885,0.5408163265306123,0.5510204081632653,0.5612244897959183,0.564625850340136,0.5680272108843537,0.5748299319727891,0.5782312925170068,0.5884353741496599,0.5952380952380952,0.6054421768707483,0.608843537414966,0.608843537414966,0.608843537414966,0.608843537414966,0.608843537414966,0.608843537414966,0.608843537414966,0.608843537414966,0.608843537414966,0.608843537414966,0.608843537414966,0.6122448979591837,0.6190476190476191,0.6224489795918368,0.6258503401360545,0.6292517006802721,0.6360544217687075,0.6428571428571429,0.6496598639455783,0.6564625850340136,0.6700680272108843,0.6836734693877551,0.6972789115646258,0.7108843537414966,0.7278911564625851,0.7312925170068028,0.7346938775510204,0.7380952380952381,0.7414965986394558,0.7482993197278912,0.7551020408163265,0.7585034013605442,0.7653061224489796,0.7653061224489796,0.7653061224489796,0.7653061224489796,0.7653061224489796,0.7653061224489796,0.7653061224489796,0.7653061224489796,0.7653061224489796,0.7653061224489796,0.7653061224489796,0.7687074829931972,0.782312925170068,0.7925170068027211,0.8027210884353742,0.8129251700680272,0.8197278911564626,0.826530612244898,0.8299319727891157,0.8333333333333334,0.8333333333333334,0.8333333333333334,0.8333333333333334,0.8367346938775511,0.8435374149659864,0.8503401360544217,0.8571428571428571,0.8571428571428571,0.8605442176870748,0.8605442176870748,0.8639455782312925,0.8639455782312925,0.8639455782312925,0.8639455782312925,0.8639455782312925,0.8639455782312925,0.8639455782312925,0.8639455782312925,0.8639455782312925,0.8639455782312925,0.8639455782312925,0.8639455782312925,0.8639455782312925,0.8639455782312925,0.8639455782312925,0.8639455782312925,0.8639455782312925,0.8639455782312925,0.8639455782312925,0.8639455782312925,0.8639455782312925,0.8639455782312925,0.8639455782312925,0.8639455782312925,0.8639455782312925,0.8639455782312925,0.8639455782312925,0.8639455782312925,0.8639455782312925,0.8639455782312925,0.8707482993197279,0.8809523809523809,0.8877551020408163,0.891156462585034,0.891156462585034,0.891156462585034,0.8809523809523809,0.8741496598639455,0.8673469387755102,0.8605442176870748,0.8571428571428571,0.8503401360544217,0.8469387755102041,0.8401360544217688,0.8299319727891157,0.8197278911564626,0.8095238095238095,0.7993197278911565,0.7891156462585034,0.7789115646258503,0.7619047619047619,0.7517006802721088,0.7380952380952381,0.7312925170068028,0.7210884353741497,0.7108843537414966,0.6972789115646258,0.6870748299319728,0.6836734693877551,0.6836734693877551,0.6836734693877551,0.6836734693877551,0.6836734693877551,0.6836734693877551,0.6836734693877551,0.6802721088435374,0.6802721088435374,0.6768707482993197,0.6224489795918368,0.5,0.3435374149659864,0.11904761904761904,0.06462585034013606,0.05102040816326531,0.05102040816326531,0.05782312925170068,0.06462585034013606,0.06802721088435375,0.06802721088435375,0.0782312925170068,0.09523809523809523,0.1292517006802721,0.17687074829931973,0.25170068027210885,0.2925170068027211,0.30952380952380953,0.3197278911564626,0.3231292517006803,0.32653061224489793,0.32653061224489793,0.32653061224489793,0.32653061224489793,0.32653061224489793,0.32653061224489793,0.32653061224489793,0.32653061224489793,0.32653061224489793,0.30272108843537415,0.2891156462585034,0.2789115646258503,0.2687074829931973,0.2619047619047619,0.2585034013605442,0.25510204081632654,0.25510204081632654,0.25170068027210885,0.25170068027210885,0.25170068027210885,0.25170068027210885,0.25170068027210885,0.25170068027210885,0.25170068027210885,0.25170068027210885,0.25170068027210885,0.25170068027210885,0.25170068027210885,0.25170068027210885,0.25170068027210885,0.25170068027210885,0.25170068027210885,0.25170068027210885,0.25170068027210885,0.25170068027210885,0.25170068027210885,0.25170068027210885,0.2653061224489796,0.30272108843537415,0.3435374149659864,0.38095238095238093,0.4013605442176871,0.41496598639455784,0.42517006802721086,0.43537414965986393,0.4421768707482993,0.4523809523809524,0.45918367346938777,0.46598639455782315,0.46938775510204084,0.46938775510204084,0.46258503401360546,0.4489795918367347,0.43537414965986393,0.41836734693877553,0.4013605442176871,0.3877551020408163,0.37755102040816324,0.3741496598639456,0.3707482993197279,0.3707482993197279,0.36054421768707484,0.3469387755102041,0.3231292517006803,0.30612244897959184,0.29931972789115646,0.2925170068027211,0.2925170068027211,0.29931972789115646,0.35714285714285715,0.4387755102040816,0.54421768707483,0.6666666666666666,0.7789115646258503,0.8571428571428571,0.891156462585034,0.8979591836734694,0.8979591836734694,0.8979591836734694,0.8979591836734694,0.8877551020408163,0.8809523809523809,0.8775510204081632,0.8843537414965986,0.9081632653061225,0.9489795918367347,0.9795918367346939,1,1.0068027210884354,1.010204081632653,1.010204081632653,1.010204081632653,1.010204081632653,1.010204081632653,1.010204081632653,1.010204081632653,1.010204081632653,1.010204081632653,1.010204081632653,1.010204081632653,1.010204081632653,1.010204081632653,1.010204081632653,1.010204081632653,1.010204081632653,1.010204081632653,1.010204081632653,1.010204081632653,1.010204081632653,1.010204081632653,1.010204081632653,1.010204081632653,1.010204081632653,1.010204081632653,1.010204081632653,1.010204081632653,1.010204081632653,1.010204081632653,1.010204081632653,1.010204081632653,1.010204081632653,1.010204081632653,1.010204081632653,1.010204081632653,1.010204081632653,1.010204081632653,1.010204081632653,1.010204081632653,1.010204081632653,1,0.9931972789115646,0.9727891156462585,0.9455782312925171,0.9115646258503401,0.8707482993197279,0.8299319727891157,0.7925170068027211,0.7380952380952381,0.6870748299319728,0.6360544217687075,0.5952380952380952,0.5612244897959183,0.5340136054421769,0.5170068027210885,0.5068027210884354,0.4965986394557823,0.48639455782312924,0.47619047619047616,0.46938775510204084,0.45918367346938777,0.4489795918367347,0.4387755102040816,0.43197278911564624,0.42517006802721086,0.41496598639455784,0.391156462585034,0.35714285714285715,0.3401360544217687,0.32653061224489793,0.32653061224489793,0.32653061224489793,0.32653061224489793,0.3299319727891156,0.3469387755102041,0.3843537414965986,0.43537414965986393,0.4965986394557823,0.5714285714285714,0.5952380952380952,0.6054421768707483,0.6054421768707483,0.6054421768707483,0.6054421768707483,0.6054421768707483,0.6054421768707483,0.6054421768707483,0.6054421768707483,0.6054421768707483,0.6054421768707483,0.6054421768707483,0.6054421768707483,0.6054421768707483,0.6020408163265306,0.5952380952380952,0.5884353741496599,0.5850340136054422,0.5782312925170068,0.5748299319727891,0.5748299319727891,0.5748299319727891,0.5714285714285714,0.5714285714285714,0.5714285714285714,0.5714285714285714,0.5714285714285714,0.5714285714285714,0.5714285714285714,0.5714285714285714,0.5714285714285714,0.5714285714285714,0.5714285714285714,0.5714285714285714,0.5714285714285714,0.5714285714285714,0.5714285714285714,0.5714285714285714,0.5714285714285714,0.5714285714285714,0.5714285714285714,0.5714285714285714,0.5714285714285714,0.5714285714285714,0.5714285714285714,0.5714285714285714,0.5714285714285714,0.5714285714285714,0.5714285714285714,0.5714285714285714,0.5714285714285714,0.5714285714285714,0.5714285714285714,0.5714285714285714,0.5680272108843537,0.5612244897959183,0.5544217687074829,0.54421768707483,0.5408163265306123,0.5374149659863946,0.5340136054421769,0.5306122448979592,0.5272108843537415,0.5238095238095238,0.5204081632653061,0.5136054421768708,0.5136054421768708,0.5068027210884354,0.5068027210884354,0.5068027210884354,0.5034013605442177,0.5,0.5,0.5,0.5,0.5,0.5,0.5068027210884354,0.5170068027210885,0.5306122448979592,0.54421768707483,0.5680272108843537,0.5986394557823129,0.6258503401360545,0.6496598639455783,0.6564625850340136,0.6666666666666666,0.673469387755102,0.6802721088435374,0.6836734693877551,0.6938775510204082,0.7040816326530612,0.7142857142857143,0.7210884353741497,0.7312925170068028,0.7414965986394558,0.7551020408163265,0.7721088435374149,0.7789115646258503,0.7857142857142857,0.7925170068027211,0.7925170068027211,0.7925170068027211,0.7925170068027211,0.7959183673469388,0.7959183673469388,0.7993197278911565,0.8027210884353742,0.8027210884353742,0.8061224489795918,0.8061224489795918,0.8095238095238095,0.8095238095238095,0.8095238095238095,0.8095238095238095,0.8095238095238095,0.8061224489795918,0.7925170068027211,0.7755102040816326,0.7653061224489796,0.7585034013605442,0.7482993197278912,0.7380952380952381,0.7244897959183674,0.717687074829932,0.7074829931972789,0.6972789115646258,0.6904761904761905,0.6802721088435374,0.6666666666666666,0.6564625850340136,0.6394557823129252,0.6258503401360545,0.6190476190476191,0.608843537414966,0.6020408163265306,0.5918367346938775,0.5850340136054422,0.5714285714285714,0.5612244897959183,0.5544217687074829,0.5510204081632653,0.5476190476190477,0.5476190476190477,0.5408163265306123,0.5408163265306123,0.5374149659863946,0.5340136054421769,0.5306122448979592,0.5272108843537415,0.5136054421768708,0.5034013605442177,0.4897959183673469,0.4523809523809524,0.41496598639455784,0.3741496598639456,0.3435374149659864,0.3299319727891156,0.3129251700680272,0.30612244897959184,0.30272108843537415,0.29591836734693877,0.2857142857142857,0.2755102040816326,0.2585034013605442,0.24829931972789115,0.24149659863945577,0.23469387755102042,0.23129251700680273,0.22448979591836735,0.2108843537414966,0.20408163265306123,0.19387755102040816,0.1836734693877551,0.17687074829931973,0.17346938775510204,0.17346938775510204,0.17346938775510204,0.17346938775510204,0.17346938775510204,0.17346938775510204,0.17346938775510204,0.17006802721088435,0.17006802721088435,0.17006802721088435,0.17006802721088435,0.17006802721088435,0.17006802721088435,0.17006802721088435,0.17006802721088435,0.17006802721088435,0.17006802721088435,0.17006802721088435,0.17006802721088435,0.17006802721088435,0.17006802721088435,0.17006802721088435,0.17006802721088435,0.17006802721088435,0.17006802721088435,0.17006802721088435,0.17006802721088435,0.17006802721088435,0.17006802721088435,0.17006802721088435,0.17006802721088435,0.17006802721088435,0.17006802721088435,0.17006802721088435,0.17006802721088435,0.17006802721088435,0.17687074829931973,0.1836734693877551,0.19387755102040816,0.20408163265306123,0.23129251700680273,0.2619047619047619,0.2891156462585034,0.3197278911564626,0.35374149659863946,0.391156462585034,0.4421768707482993,0.46258503401360546,0.47959183673469385,0.4931972789115646,0.5102040816326531,0.5306122448979592,0.564625850340136,0.6224489795918368,0.6598639455782312,0.6904761904761905,0.7312925170068028,0.7517006802721088,0.7721088435374149,0.7789115646258503,0.7925170068027211,0.8095238095238095,0.8299319727891157,0.8639455782312925,0.9047619047619048,0.95578231292517,1.0204081632653061,1.0510204081632653,1.0714285714285714,1.08843537414966,1.0952380952380953,1.1054421768707483,1.119047619047619,1.1258503401360545,1.1360544217687074,1.1462585034013606,1.1564625850340136,1.1598639455782314,1.1666666666666667,1.1700680272108843,1.1700680272108843,1.1700680272108843,1.1700680272108843,1.1700680272108843,1.1700680272108843,1.1700680272108843,1.1700680272108843,1.1700680272108843,1.1700680272108843,1.1700680272108843,1.1700680272108843,1.1700680272108843,1.1700680272108843,1.1700680272108843,1.1700680272108843,1.1700680272108843,1.1700680272108843,1.1700680272108843,1.1700680272108843,1.1700680272108843,1.1564625850340136,1.1156462585034013,1.0238095238095237,0.8673469387755102,0.7346938775510204,0.6020408163265306,0.5102040816326531,0.41156462585034015,0.35714285714285715,0.3197278911564626,0.2789115646258503,0.24489795918367346,0.21428571428571427,0.19387755102040816,0.1564625850340136,0.11564625850340136,0.0782312925170068,0.03741496598639456,0.023809523809523808,0.017006802721088437,0.017006802721088437,0.013605442176870748,0.013605442176870748,0.013605442176870748,0.013605442176870748,0.013605442176870748,0.01020408163265306,0.006802721088435374,0.006802721088435374,0.003401360544217687,0,0,0,0,0.003401360544217687,0.003401360544217687,0.003401360544217687,0.003401360544217687,0.003401360544217687,0.003401360544217687,0.003401360544217687,0.003401360544217687,0.003401360544217687,0.003401360544217687,0.003401360544217687,0.003401360544217687,0.003401360544217687,0.003401360544217687,0.003401360544217687,0.003401360544217687,0.003401360544217687,0.003401360544217687,0.003401360544217687,0.003401360544217687,0.003401360544217687,0.003401360544217687,0.003401360544217687,0.003401360544217687,0.003401360544217687,0.003401360544217687,0.003401360544217687,0.003401360544217687,0.003401360544217687,0.003401360544217687,0.003401360544217687,0.003401360544217687,0.003401360544217687,0.003401360544217687,0.003401360544217687,0.003401360544217687,0.003401360544217687,0.003401360544217687,0.003401360544217687,0.003401360544217687,0.003401360544217687,0.003401360544217687,0.003401360544217687,0.034013605442176874,0.061224489795918366,0.08163265306122448,0.09863945578231292,0.11904761904761904,0.1326530612244898,0.13945578231292516,0.14285714285714285,0.14625850340136054,0.14625850340136054,0.14625850340136054,0.14625850340136054,0.14625850340136054,0.14625850340136054,0.13945578231292516,0.1326530612244898,0.1292517006802721,0.12244897959183673,0.12244897959183673,0.11904761904761904,0.11564625850340136,0.11564625850340136,0.11564625850340136,0.11224489795918367,0.11224489795918367,0.11224489795918367,0.11224489795918367,0.11224489795918367,0.11224489795918367,0.11224489795918367,0.11224489795918367,0.11224489795918367,0.11224489795918367,0.11224489795918367,0.11224489795918367,0.11224489795918367,0.1054421768707483,0.1054421768707483,0.1054421768707483,0.1054421768707483,0.1054421768707483,0.1054421768707483,0.1054421768707483,0.1054421768707483,0.1054421768707483,0.10204081632653061,0.09863945578231292,0.09863945578231292,0.09863945578231292,0.08503401360544217,0.07482993197278912,0.03741496598639456,0.017006802721088437,0.017006802721088437,0.017006802721088437,0.017006802721088437,0.017006802721088437,0.017006802721088437,0.017006802721088437,0.017006802721088437,0.017006802721088437,0.017006802721088437,0.017006802721088437,0.017006802721088437,0.017006802721088437,0.017006802721088437,0.017006802721088437,0.017006802721088437,0.017006802721088437,0.017006802721088437,0.017006802721088437,0.017006802721088437,0.017006802721088437,0.017006802721088437,0.017006802721088437,0.017006802721088437,0.017006802721088437,0.017006802721088437,0.017006802721088437,0.017006802721088437,0.017006802721088437,0.017006802721088437,0.017006802721088437,0.017006802721088437,0.017006802721088437,0.017006802721088437,0.017006802721088437,0.017006802721088437,0.017006802721088437,0.017006802721088437,0.017006802721088437,0.017006802721088437,0.017006802721088437,0.017006802721088437,0.017006802721088437,0.017006802721088437,0.017006802721088437,0.017006802721088437,0,-0.013605442176870748,-0.023809523809523808,-0.04421768707482993,-0.061224489795918366,-0.07142857142857142,-0.0782312925170068],"y":[-4.285714285714286,-4.285714285714286,-4.285714285714286,-4.285714285714286,-4.285714285714286,-4.285714285714286,-4.285714285714286,-4.285714285714286,-4.285714285714286,-4.285714285714286,-4.285714285714286,-4.285714285714286,-4.285714285714286,-4.285714285714286,-4.285714285714286,-4.285714285714286,-4.285714285714286,-4.285714285714286,-4.285714285714286,-4.285714285714286,-4.285714285714286,-4.285714285714286,-4.285714285714286,-4.285714285714286,-4.285714285714286,-4.285714285714286,-4.285714285714286,-4.285714285714286,-4.285714285714286,-4.285714285714286,-4.285714285714286,-4.285714285714286,-4.285714285714286,-4.285714285714286,-4.285714285714286,-4.285714285714286,0.6619047619047619,0.6333333333333333,0.5666666666666667,0.49047619047619045,0.3952380952380952,0.2904761904761905,0.16666666666666666,0.03333333333333333,-0.10952380952380952,-0.28095238095238095,-0.5285714285714286,-0.6904761904761905,-0.8333333333333334,-0.9571428571428572,-1.0809523809523809,-1.223809523809524,-1.2619047619047619,-1.2904761904761906,-1.319047619047619,-1.338095238095238,-1.3666666666666667,-1.3952380952380952,-1.4333333333333333,-1.4523809523809523,-1.4714285714285715,-1.5,-1.519047619047619,-1.5476190476190477,-1.5761904761904761,-1.6142857142857143,-1.6333333333333333,-1.661904761904762,-1.6904761904761905,-1.7095238095238094,-1.7380952380952381,-1.7571428571428571,-1.8047619047619048,-1.8238095238095238,-1.861904761904762,-1.8904761904761904,-1.9190476190476191,-1.938095238095238,-1.9666666666666666,-1.9857142857142858,-1.9857142857142858,-1.9857142857142858,-1.9857142857142858,-1.9857142857142858,-1.9857142857142858,-1.9666666666666666,-1.9285714285714286,-1.880952380952381,-1.8333333333333333,-1.7952380952380953,-1.776190476190476,-1.7476190476190476,-1.7380952380952381,-1.7190476190476192,-1.7095238095238094,-1.7095238095238094,-1.7,-1.7,-1.7,-1.7,-1.7,-1.7,-1.6904761904761905,-1.6714285714285715,-1.6523809523809523,-1.6047619047619048,-1.5761904761904761,-1.519047619047619,-1.480952380952381,-1.4523809523809523,-1.4238095238095239,-1.4047619047619047,-1.3857142857142857,-1.3761904761904762,-1.3761904761904762,-1.3666666666666667,-1.3666666666666667,-1.3571428571428572,-1.3571428571428572,-1.3571428571428572,-1.3571428571428572,-1.3571428571428572,-1.3571428571428572,-1.3571428571428572,-1.4428571428571428,-1.5285714285714285,-1.5761904761904761,-1.5952380952380953,-1.6238095238095238,-1.6523809523809523,-1.680952380952381,-1.6904761904761905,-1.6904761904761905,-1.6904761904761905,-1.6904761904761905,-1.6904761904761905,-1.6904761904761905,-1.6904761904761905,-1.6904761904761905,-1.680952380952381,-1.661904761904762,-1.6333333333333333,-1.6142857142857143,-1.6047619047619048,-1.5857142857142856,-1.5857142857142856,-1.5857142857142856,-1.5666666666666667,-1.5666666666666667,-1.5666666666666667,-1.5571428571428572,-1.5571428571428572,-1.5571428571428572,-1.5571428571428572,-1.5571428571428572,-1.5571428571428572,-1.5571428571428572,-1.5571428571428572,-1.5571428571428572,-1.5571428571428572,-1.5761904761904761,-1.6047619047619048,-1.6333333333333333,-1.6523809523809523,-1.661904761904762,-1.661904761904762,-1.661904761904762,-1.661904761904762,-1.661904761904762,-1.661904761904762,-1.661904761904762,-1.661904761904762,-1.661904761904762,-1.661904761904762,-1.661904761904762,-1.661904761904762,-1.661904761904762,-1.661904761904762,-1.661904761904762,-1.661904761904762,-1.6428571428571428,-1.6142857142857143,-1.5952380952380953,-1.5761904761904761,-1.5666666666666667,-1.5666666666666667,-1.5666666666666667,-1.5666666666666667,-1.5666666666666667,-1.5666666666666667,-1.5666666666666667,-1.5666666666666667,-1.5666666666666667,-1.5666666666666667,-1.5761904761904761,-1.6142857142857143,-1.6428571428571428,-1.661904761904762,-1.6904761904761905,-1.7095238095238094,-1.7095238095238094,-1.7095238095238094,-1.7095238095238094,-1.7095238095238094,-1.7095238095238094,-1.6904761904761905,-1.6714285714285715,-1.6428571428571428,-1.6142857142857143,-1.5761904761904761,-1.5666666666666667,-1.5571428571428572,-1.5571428571428572,-1.5571428571428572,-1.5571428571428572,-1.5571428571428572,-1.5571428571428572,-1.5571428571428572,-1.5571428571428572,-1.5571428571428572,-1.5761904761904761,-1.6142857142857143,-1.6333333333333333,-1.6523809523809523,-1.661904761904762,-1.680952380952381,-1.6904761904761905,-1.6904761904761905,-1.6904761904761905,-1.6904761904761905,-1.7,-1.7,-1.7,-1.7,-1.7,-1.7,-1.7,-1.6904761904761905,-1.6714285714285715,-1.661904761904762,-1.6428571428571428,-1.6238095238095238,-1.6047619047619048,-1.5952380952380953,-1.5761904761904761,-1.5761904761904761,-1.5761904761904761,-1.5761904761904761,-1.5761904761904761,-1.5761904761904761,-1.5761904761904761,-1.5761904761904761,-1.5761904761904761,-1.6142857142857143,-1.6428571428571428,-1.6714285714285715,-1.7,-1.7190476190476192,-1.7190476190476192,-1.7285714285714286,-1.7285714285714286,-1.7285714285714286,-1.7285714285714286,-1.7285714285714286,-1.7285714285714286,-1.7095238095238094,-1.6904761904761905,-1.661904761904762,-1.6238095238095238,-1.6142857142857143,-1.6047619047619048,-1.5857142857142856,-1.5857142857142856,-1.5857142857142856,-1.5761904761904761,-1.5761904761904761,-1.5761904761904761,-1.5761904761904761,-1.5761904761904761,-1.5761904761904761,-1.5761904761904761,-1.5761904761904761,-1.5761904761904761,-1.5761904761904761,-1.5761904761904761,-1.5761904761904761,-1.5761904761904761,-1.5761904761904761,-1.5761904761904761,-1.5761904761904761,-1.5761904761904761,-1.5761904761904761,-1.5761904761904761,-1.5761904761904761,-1.5761904761904761,-1.5761904761904761,-1.5761904761904761,-1.5761904761904761,-1.5761904761904761,-1.5761904761904761,-1.5666666666666667,-1.5285714285714285,-1.4523809523809523,-1.4142857142857144,-1.3857142857142857,-1.3571428571428572,-1.3285714285714285,-1.2904761904761906,-1.2619047619047619,-1.2428571428571429,-1.223809523809524,-1.2047619047619047,-1.1952380952380952,-1.1857142857142857,-1.1571428571428573,-1.119047619047619,-1.1,-1.0714285714285714,-1.0523809523809524,-1.0333333333333334,-1.0047619047619047,-0.9761904761904762,-0.9571428571428572,-0.9285714285714286,-0.9095238095238095,-0.8809523809523809,-0.861904761904762,-0.8238095238095238,-0.8047619047619048,-0.7952380952380952,-0.7952380952380952,-0.7952380952380952,-0.7952380952380952,-0.7952380952380952,-0.7952380952380952,-0.7952380952380952,-0.7952380952380952,-0.7952380952380952,-0.7952380952380952,-0.8809523809523809,-1.1857142857142857,-1.5761904761904761,-2.1285714285714286,-2.261904761904762,-2.3190476190476192,-2.3380952380952382,-2.3666666666666667,-2.3857142857142857,-2.395238095238095,-2.395238095238095,-2.3666666666666667,-2.2904761904761903,-2.176190476190476,-2.033333333333333,-1.8047619047619048,-1.6523809523809523,-1.5476190476190477,-1.5095238095238095,-1.4904761904761905,-1.480952380952381,-1.480952380952381,-1.480952380952381,-1.480952380952381,-1.480952380952381,-1.480952380952381,-1.480952380952381,-1.480952380952381,-1.480952380952381,-1.519047619047619,-1.5476190476190477,-1.5666666666666667,-1.5952380952380953,-1.6142857142857143,-1.6238095238095238,-1.6238095238095238,-1.6333333333333333,-1.6333333333333333,-1.6428571428571428,-1.6428571428571428,-1.6428571428571428,-1.6428571428571428,-1.6428571428571428,-1.6428571428571428,-1.6428571428571428,-1.6428571428571428,-1.6428571428571428,-1.6428571428571428,-1.6428571428571428,-1.6428571428571428,-1.6428571428571428,-1.6428571428571428,-1.6428571428571428,-1.6428571428571428,-1.6428571428571428,-1.6428571428571428,-1.6428571428571428,-1.661904761904762,-1.680952380952381,-1.7095238095238094,-1.7285714285714286,-1.7285714285714286,-1.7285714285714286,-1.7285714285714286,-1.7095238095238094,-1.6904761904761905,-1.661904761904762,-1.6333333333333333,-1.6047619047619048,-1.5666666666666667,-1.5095238095238095,-1.4428571428571428,-1.338095238095238,-1.2333333333333334,-1.119047619047619,-0.9857142857142858,-0.861904761904762,-0.680952380952381,-0.5666666666666667,-0.43333333333333335,-0.30952380952380953,-0.1380952380952381,0.03333333333333333,0.28095238095238095,0.4142857142857143,0.5285714285714286,0.6047619047619047,0.6714285714285714,0.7571428571428571,0.919047619047619,1.0047619047619047,1.061904761904762,1.1095238095238096,1.1571428571428573,1.1857142857142857,1.1761904761904762,1.1666666666666667,1.1571428571428573,1.1571428571428573,1.1571428571428573,1.119047619047619,1.0904761904761904,1.061904761904762,1.0333333333333334,1.0142857142857142,1.0142857142857142,1.0142857142857142,1.0047619047619047,1.0047619047619047,1.0047619047619047,0.9952380952380953,0.9952380952380953,0.9952380952380953,0.9952380952380953,0.9952380952380953,0.9952380952380953,0.9952380952380953,0.9952380952380953,0.9952380952380953,0.9952380952380953,0.9952380952380953,0.9952380952380953,0.9952380952380953,0.9952380952380953,0.9952380952380953,0.9952380952380953,0.9952380952380953,0.9952380952380953,0.9952380952380953,0.9952380952380953,0.9952380952380953,0.9952380952380953,0.9952380952380953,0.9952380952380953,0.9952380952380953,0.9952380952380953,0.9952380952380953,0.9952380952380953,0.9952380952380953,0.9952380952380953,0.9952380952380953,0.9952380952380953,0.9952380952380953,0.9952380952380953,0.9952380952380953,0.9952380952380953,0.9952380952380953,0.9952380952380953,0.9952380952380953,1.0047619047619047,1.0333333333333334,1.0809523809523809,1.1095238095238096,1.1476190476190475,1.1857142857142857,1.1857142857142857,1.1857142857142857,1.119047619047619,0.9857142857142858,0.8142857142857143,0.6904761904761905,0.5761904761904761,0.48095238095238096,0.3952380952380952,0.35714285714285715,0.30952380952380953,0.2714285714285714,0.2523809523809524,0.22380952380952382,0.19523809523809524,0.15714285714285714,0.1380952380952381,0.12857142857142856,0.11904761904761904,0.10952380952380952,0.09047619047619047,0.09047619047619047,0.08095238095238096,0.08095238095238096,0.08095238095238096,0.08095238095238096,0.08095238095238096,0.06190476190476191,0.04285714285714286,0.04285714285714286,0.06190476190476191,0.09047619047619047,0.14761904761904762,0.15714285714285714,0.15714285714285714,0.15714285714285714,0.15714285714285714,0.15714285714285714,0.15714285714285714,0.15714285714285714,0.15714285714285714,0.15714285714285714,0.15714285714285714,0.15714285714285714,0.15714285714285714,0.15714285714285714,0.15714285714285714,0.1380952380952381,0.12857142857142856,0.10952380952380952,0.08095238095238096,0.07142857142857142,0.05238095238095238,0.05238095238095238,0.04285714285714286,0.04285714285714286,0.04285714285714286,0.04285714285714286,0.04285714285714286,0.04285714285714286,0.04285714285714286,0.04285714285714286,0.03333333333333333,0.03333333333333333,0.03333333333333333,0.03333333333333333,0.03333333333333333,0.03333333333333333,0.03333333333333333,0.03333333333333333,0.03333333333333333,0.03333333333333333,0.03333333333333333,0.03333333333333333,0.03333333333333333,0.03333333333333333,0.03333333333333333,0.03333333333333333,0.03333333333333333,0.03333333333333333,0.03333333333333333,0.03333333333333333,0.03333333333333333,0.03333333333333333,0.03333333333333333,0.03333333333333333,0.03333333333333333,0.03333333333333333,0.07142857142857142,0.1,0.14761904761904762,0.16666666666666666,0.19523809523809524,0.22380952380952382,0.24285714285714285,0.2714285714285714,0.30952380952380953,0.3380952380952381,0.35714285714285715,0.3761904761904762,0.40476190476190477,0.4238095238095238,0.46190476190476193,0.4714285714285714,0.49047619047619045,0.5095238095238095,0.5285714285714286,0.5476190476190477,0.5666666666666667,0.5952380952380952,0.6142857142857143,0.6428571428571429,0.6714285714285714,0.6904761904761905,0.7095238095238096,0.719047619047619,0.719047619047619,0.719047619047619,0.7095238095238096,0.7,0.6904761904761905,0.6714285714285714,0.6523809523809524,0.6238095238095238,0.5952380952380952,0.5666666666666667,0.5380952380952381,0.5095238095238095,0.49047619047619045,0.46190476190476193,0.43333333333333335,0.4238095238095238,0.4238095238095238,0.4238095238095238,0.4238095238095238,0.4238095238095238,0.4238095238095238,0.4238095238095238,0.4238095238095238,0.43333333333333335,0.43333333333333335,0.44285714285714284,0.4523809523809524,0.4523809523809524,0.4523809523809524,0.46190476190476193,0.46190476190476193,0.46190476190476193,0.46190476190476193,0.48095238095238096,0.5095238095238095,0.5285714285714286,0.5380952380952381,0.5476190476190477,0.5571428571428572,0.5666666666666667,0.5761904761904761,0.5857142857142857,0.5952380952380952,0.6142857142857143,0.6238095238095238,0.6428571428571429,0.6523809523809524,0.6619047619047619,0.6714285714285714,0.6714285714285714,0.6714285714285714,0.6714285714285714,0.6714285714285714,0.6714285714285714,0.6714285714285714,0.6714285714285714,0.6714285714285714,0.6714285714285714,0.6714285714285714,0.6714285714285714,0.6714285714285714,0.6714285714285714,0.6714285714285714,0.6714285714285714,0.6714285714285714,0.6714285714285714,0.6714285714285714,0.680952380952381,0.6904761904761905,0.7,0.7,0.680952380952381,0.6523809523809524,0.6142857142857143,0.5761904761904761,0.5095238095238095,0.4714285714285714,0.43333333333333335,0.4142857142857143,0.3761904761904762,0.3,0.19523809523809524,0.15714285714285714,0.11904761904761904,0.09047619047619047,0.06190476190476191,0.04285714285714286,0.014285714285714285,-0.004761904761904762,-0.014285714285714285,-0.023809523809523808,-0.023809523809523808,-0.023809523809523808,-0.023809523809523808,-0.023809523809523808,-0.023809523809523808,-0.023809523809523808,-0.023809523809523808,-0.023809523809523808,-0.023809523809523808,-0.023809523809523808,-0.023809523809523808,-0.023809523809523808,-0.023809523809523808,-0.023809523809523808,-0.023809523809523808,-0.023809523809523808,-0.023809523809523808,-0.023809523809523808,-0.023809523809523808,-0.023809523809523808,-0.023809523809523808,-0.023809523809523808,-0.023809523809523808,-0.023809523809523808,-0.023809523809523808,-0.023809523809523808,-0.023809523809523808,-0.023809523809523808,-0.023809523809523808,-0.023809523809523808,-0.023809523809523808,-0.023809523809523808,-0.023809523809523808,-0.023809523809523808,-0.023809523809523808,-0.023809523809523808,-0.004761904761904762,0.023809523809523808,0.05238095238095238,0.08095238095238096,0.10952380952380952,0.1761904761904762,0.2523809523809524,0.2904761904761905,0.32857142857142857,0.36666666666666664,0.3952380952380952,0.4523809523809524,0.48095238095238096,0.5095238095238095,0.5380952380952381,0.5666666666666667,0.6047619047619047,0.6333333333333333,0.6904761904761905,0.7285714285714285,0.7476190476190476,0.7857142857142857,0.8142857142857143,0.8238095238095238,0.8238095238095238,0.8238095238095238,0.8142857142857143,0.7857142857142857,0.7476190476190476,0.7095238095238096,0.680952380952381,0.6619047619047619,0.6428571428571429,0.6238095238095238,0.6238095238095238,0.6047619047619047,0.6047619047619047,0.5952380952380952,0.5952380952380952,0.5761904761904761,0.5571428571428572,0.5476190476190477,0.5380952380952381,0.5285714285714286,0.5285714285714286,0.5190476190476191,0.5095238095238095,0.5095238095238095,0.5095238095238095,0.5095238095238095,0.5095238095238095,0.5095238095238095,0.5095238095238095,0.5095238095238095,0.5095238095238095,0.5095238095238095,0.5095238095238095,0.5095238095238095,0.5095238095238095,0.5095238095238095,0.5095238095238095,0.5095238095238095,0.5095238095238095,0.5095238095238095,0.5095238095238095,0.5190476190476191,0.5380952380952381,0.5380952380952381,0.48095238095238096,0.43333333333333335,0.36666666666666664,0.319047619047619,0.2523809523809524,0.20476190476190476,0.16666666666666666,0.11904761904761904,0.08095238095238096,0.05238095238095238,0.023809523809523808,-0.004761904761904762,-0.04285714285714286,-0.07142857142857142,-0.10952380952380952,-0.12857142857142856,-0.1380952380952381,-0.1380952380952381,-0.1380952380952381,-0.1380952380952381,-0.1380952380952381,-0.1380952380952381,-0.1380952380952381,-0.12857142857142856,-0.11904761904761904,-0.11904761904761904,-0.1,-0.08095238095238096,-0.04285714285714286,-0.023809523809523808,-0.004761904761904762,0.004761904761904762,0.004761904761904762,0.004761904761904762,0.004761904761904762,0.004761904761904762,0.004761904761904762,0.004761904761904762,0.004761904761904762,0.004761904761904762,0.004761904761904762,0.004761904761904762,0.004761904761904762,0.004761904761904762,0.004761904761904762,0.004761904761904762,0.004761904761904762,0.004761904761904762,0.004761904761904762,0.004761904761904762,0.004761904761904762,0.004761904761904762,0.004761904761904762,0.004761904761904762,0.004761904761904762,0.004761904761904762,0.004761904761904762,0.004761904761904762,0.004761904761904762,0.004761904761904762,0.004761904761904762,0.004761904761904762,0.004761904761904762,0.004761904761904762,0.004761904761904762,0.004761904761904762,0.004761904761904762,0.004761904761904762,0.004761904761904762,0.004761904761904762,0.004761904761904762,0.004761904761904762,0.004761904761904762,0.014285714285714285,0.1761904761904762,0.36666666666666664,0.5,0.6238095238095238,0.7380952380952381,0.8428571428571429,0.9,0.9380952380952381,0.9857142857142858,1.0142857142857142,1.0333333333333334,1.061904761904762,1.0809523809523809,1.1285714285714286,1.1761904761904762,1.223809523809524,1.2523809523809524,1.2809523809523808,1.319047619047619,1.338095238095238,1.3666666666666667,1.3857142857142857,1.3952380952380952,1.3952380952380952,1.4047619047619047,1.4047619047619047,1.4047619047619047,1.4047619047619047,1.4047619047619047,1.4047619047619047,1.4047619047619047,1.4047619047619047,1.4047619047619047,1.4047619047619047,1.4047619047619047,1.4047619047619047,1.4142857142857144,1.4142857142857144,1.4142857142857144,1.4142857142857144,1.4142857142857144,1.4142857142857144,1.4142857142857144,1.4142857142857144,1.4142857142857144,1.4238095238095239,1.4238095238095239,1.4238095238095239,1.4238095238095239,1.4238095238095239,1.4238095238095239,1.4142857142857144,1.4142857142857144,1.4142857142857144,1.4142857142857144,1.4142857142857144,1.4142857142857144,1.4142857142857144,1.4142857142857144,1.4142857142857144,1.4142857142857144,1.4142857142857144,1.4142857142857144,1.4142857142857144,1.4142857142857144,1.4142857142857144,1.4142857142857144,1.4142857142857144,1.4142857142857144,1.4142857142857144,1.4142857142857144,1.4142857142857144,1.4142857142857144,1.4142857142857144,1.4142857142857144,1.4142857142857144,1.4142857142857144,1.4142857142857144,1.4142857142857144,1.4142857142857144,1.4142857142857144,1.4142857142857144,1.4142857142857144,1.4142857142857144,1.4142857142857144,1.4142857142857144,1.4142857142857144,1.4142857142857144,1.4142857142857144,1.4142857142857144,1.4142857142857144,1.4142857142857144,1.4142857142857144,1.4142857142857144,1.4142857142857144,1.4142857142857144,1.4142857142857144,1.4142857142857144,1.4428571428571428,1.480952380952381,1.5,1.5380952380952382,1.5761904761904761,1.6047619047619048,1.6142857142857143]},"final_keyboard_state":["Z","E","B","R","A"],"num_clicks":5,"points":15,"cheat":false,"trial_type":"Hangman","trial_index":5,"time_elapsed":46313,"internal_node_id":"0.0-4.0","protocol_sum":"","subject_identifier":102,"subject_sum":[3,27,74,245,25,126,195,10,146,111,72,207,64,225,26,125,188,71,0,72,162,30,64,3,183,163,192,124,93,171,27,170],"subject_pair":51,"STUDY_ID":"669a702db1122fc5150a13ce","PROLIFIC_PID":"66798b60f632d63fe56b20ef","SESSION_ID":"669a84c2bc0b7e0b29c63d31","practice_instructions":1,"leaderboard_instructions":0,"bonus":0,"reveal_word":false,"self_rating":"1","confidence":"83"},{"view_history":"[{\"page_index\":0,\"viewing_time\":2202.5},{\"page_index\":1,\"viewing_time\":11300.199999809265}]","rt":13503.300000190735,"trial_type":"instructions","trial_index":6,"time_elapsed":59817,"internal_node_id":"0.0-5.0","protocol_sum":"","subject_identifier":102,"subject_sum":[3,27,74,245,25,126,195,10,146,111,72,207,64,225,26,125,188,71,0,72,162,30,64,3,183,163,192,124,93,171,27,170],"subject_pair":51,"STUDY_ID":"669a702db1122fc5150a13ce","PROLIFIC_PID":"66798b60f632d63fe56b20ef","SESSION_ID":"669a84c2bc0b7e0b29c63d31","practice_instructions":1,"leaderboard_instructions":0,"bonus":0,"reveal_word":false,"self_rating":"1","confidence":"83"},{"rt":4393.199999809265,"responses":"{\"Q0\":\"...from <b>a previous session</b> that is part of the upcoming tournament.\"}","question_order":"[0]","trial_type":"survey-multi-choice","trial_index":7,"time_elapsed":64211,"internal_node_id":"0.0-6.0","protocol_sum":"","subject_identifier":102,"subject_sum":[3,27,74,245,25,126,195,10,146,111,72,207,64,225,26,125,188,71,0,72,162,30,64,3,183,163,192,124,93,171,27,170],"subject_pair":51,"correct":false,"test_part":"multichoice_leaderboard","STUDY_ID":"669a702db1122fc5150a13ce","PROLIFIC_PID":"66798b60f632d63fe56b20ef","SESSION_ID":"669a84c2bc0b7e0b29c63d31","practice_instructions":1,"leaderboard_instructions":0,"bonus":0,"reveal_word":false,"self_rating":"1","confidence":"83"},{"view_history":"[{\"page_index\":0,\"viewing_time\":1423.0999994277954}]","rt":1423.3000001907349,"trial_type":"instructions","trial_index":8,"time_elapsed":65634,"internal_node_id":"0.0-7.0-0.0","protocol_sum":"","subject_identifier":102,"subject_sum":[3,27,74,245,25,126,195,10,146,111,72,207,64,225,26,125,188,71,0,72,162,30,64,3,183,163,192,124,93,171,27,170],"subject_pair":51,"STUDY_ID":"669a702db1122fc5150a13ce","PROLIFIC_PID":"66798b60f632d63fe56b20ef","SESSION_ID":"669a84c2bc0b7e0b29c63d31","practice_instructions":1,"leaderboard_instructions":0,"bonus":0,"reveal_word":false,"self_rating":"1","confidence":"83"},{"rt":5727.5,"responses":"{\"Q0\":\"...from <b>a previous session</b> that is not part of the upcoming tournament.\"}","question_order":"[0]","trial_type":"survey-multi-choice","trial_index":9,"time_elapsed":71363,"internal_node_id":"0.0-7.0-1.0","protocol_sum":"","subject_identifier":102,"subject_sum":[3,27,74,245,25,126,195,10,146,111,72,207,64,225,26,125,188,71,0,72,162,30,64,3,183,163,192,124,93,171,27,170],"subject_pair":51,"correct":true,"test_part":"multichoice_leaderboard","STUDY_ID":"669a702db1122fc5150a13ce","PROLIFIC_PID":"66798b60f632d63fe56b20ef","SESSION_ID":"669a84c2bc0b7e0b29c63d31","practice_instructions":1,"leaderboard_instructions":0,"bonus":0,"reveal_word":false,"self_rating":"1","confidence":"83"},{"view_history":"[{\"page_index\":0,\"viewing_time\":7671}]","rt":7671.10000038147,"trial_type":"instructions","trial_index":10,"time_elapsed":79034,"internal_node_id":"0.0-8.0","protocol_sum":"","subject_identifier":102,"subject_sum":[3,27,74,245,25,126,195,10,146,111,72,207,64,225,26,125,188,71,0,72,162,30,64,3,183,163,192,124,93,171,27,170],"subject_pair":51,"STUDY_ID":"669a702db1122fc5150a13ce","PROLIFIC_PID":"66798b60f632d63fe56b20ef","SESSION_ID":"669a84c2bc0b7e0b29c63d31","practice_instructions":1,"leaderboard_instructions":0,"bonus":0,"reveal_word":false,"self_rating":"1","confidence":"83"},{"rt":4831.099999427795,"responses":"{\"Q0\":\"...players' leaderboard position (in terms of <b>points</b>) in an <b>upcoming tournament.</b>\"}","question_order":"[0]","trial_type":"survey-multi-choice","trial_index":11,"time_elapsed":83866,"internal_node_id":"0.0-9.0","protocol_sum":"","subject_identifier":102,"subject_sum":[3,27,74,245,25,126,195,10,146,111,72,207,64,225,26,125,188,71,0,72,162,30,64,3,183,163,192,124,93,171,27,170],"subject_pair":51,"correct":true,"test_part":"multichoice_tournament","STUDY_ID":"669a702db1122fc5150a13ce","PROLIFIC_PID":"66798b60f632d63fe56b20ef","SESSION_ID":"669a84c2bc0b7e0b29c63d31","practice_instructions":1,"leaderboard_instructions":0,"bonus":0,"reveal_word":false,"self_rating":"1","confidence":"83"},{"view_history":"[{\"page_index\":0,\"viewing_time\":10055.5}]","rt":10055.60000038147,"trial_type":"instructions","trial_index":12,"time_elapsed":93922,"internal_node_id":"0.0-11.0","protocol_sum":"","subject_identifier":102,"subject_sum":[3,27,74,245,25,126,195,10,146,111,72,207,64,225,26,125,188,71,0,72,162,30,64,3,183,163,192,124,93,171,27,170],"subject_pair":51,"STUDY_ID":"669a702db1122fc5150a13ce","PROLIFIC_PID":"66798b60f632d63fe56b20ef","SESSION_ID":"669a84c2bc0b7e0b29c63d31","practice_instructions":1,"leaderboard_instructions":0,"bonus":0,"reveal_word":false,"self_rating":"1","confidence":"83"},{"view_history":"[{\"page_index\":0,\"viewing_time\":7935.5}]","rt":7935.599999427795,"trial_type":"instructions","trial_index":13,"time_elapsed":101858,"internal_node_id":"0.0-12.0-0.0","protocol_sum":"","subject_identifier":102,"subject_sum":[3,27,74,245,25,126,195,10,146,111,72,207,64,225,26,125,188,71,0,72,162,30,64,3,183,163,192,124,93,171,27,170],"subject_pair":51,"STUDY_ID":"669a702db1122fc5150a13ce","PROLIFIC_PID":"66798b60f632d63fe56b20ef","SESSION_ID":"669a84c2bc0b7e0b29c63d31","practice_instructions":1,"leaderboard_instructions":0,"bonus":0,"reveal_word":false,"self_rating":"1","confidence":"83"},{"word":"NECTARINE","click_log":{"letter":["","A","N","E","C","T","R","I"],"t":[0,2812.699999809265,5113.89999961853,9265.800000190735,11700.699999809265,13067.599999427795,14668.800000190735,15802.89999961853],"hit":[null,1,2,2,1,1,1,1],"asked":["","A","AN","ANE","ANEC","ANECT","ANECTR","ANECTRI"],"word_state":["_________","____A____","N___A__N_","NE__A__NE","NEC_A__NE","NECTA__NE","NECTAR_NE","NECTARINE"]},"hover_log":{"letter":["?","?","?","?","?","?","?","?","?","?","?","?","?","?","?","?","?","?","?","?","?","?","?","?","?","?","?","?","?","?","?","?","?","?","?","?","?","?","?","?","?","?","?","?","?","?","?","?","?","?","?","?","?","?","?","?","?","?","?","?","?","?","?","?","?","?","?","?","?","?","?","?","?","?","?","?","?","?","?","?","?","?","?","?","?","?","?","?","?","?","?","?","?","?","?","?","?","?","?","?","?","?","?","?","?","?","?","?","?","?","?","?","?","?","?","?","?","?","?","?","?","?","?","?","?","?","?","?","?","?","?","?","?","?","?","?","?","?","?","?","?","?","?","?","?","?","?","?","?","?","?","?","?","?","?","?","?","?","?","?","?","?","?","?","?","?","?","?","?","?","?","?","?","?","?","?","?","?","?","?","?","?","?","?","?","?","?","?","?","?","?","?","?","?","?","?","?","?","?","?","?","?","?","?","?","?","?","?","?","?","?","?","?","?","?","?","?","?","?","?","?","?","?","?","?","?","?","?","?","?","?","?","?","?","?","?","?","?","?","?","?","?","?","?","?","?","?","?","?","?","?","?","?","?","?","?","?","?","?","?","?","?","?","?","?","?","?","?","?","?","?","?","?","?","?","?","?","?","?","?","?","?","?","?","?","?","?","?","?","?","?","?","?","?","?","?","?","?","?","?","?","?","?","?","?","?","?","?","?","?","?","?","?","?","?","?","?","?","?","?","?","?","?","?","?","?","?","?","?","?","S","?","?","?","?","?","?","?","?","?","?","?","?","?","?","?","?","?","?","?","?","?","?","?","?","?","?","?","?","?","?","?","?","?","?","?","?","?","?","?","?","?","?","?","?","?","?","?","?","?","?","?","?","?","?","?","?","?","?","?","?","?","?","?","?","?","?","?","?","?","?","?","?","?","?","?","?","?","?","?","?","?","?","?","?","?","?","?","?","?","?","?","?","?","?","?","?","?","?","?","?","?","?","?","?","?","?","?","?","?","?","?","?","?","?","?","?","?","?","?","?","?","?","?","?","?","?","?","?","?","?","?","?","?","?","?","?","?","?","?","?","?","?","?","?","?","?","?","?","?","?","?","?","?","?","?","?","?","?","?","?","?","?","?","?","?","?","?","?","?","?","?","?","?","?","?","?","?","?","?","?","?","?","?","?","?","?","?","?","?","?","?","?","?","?","?","?","?","?","?","?","?","?","?","?","?","?","?","?","?","?","?","?","?","?","?","?","?","?","?","?","?","?","?","?","?","?","?","?","?","?","?","?","?","?","?","?","?","?","?","?","?","?","?","?","?","?","?","?","?","?","?","?","?","?","?","?","?","?","?","?","?","?","?","?","?","?","?","?","?","?","?","?","?","?","?","?","?","?","?","?","?","?","?","?","?","?","?","?","?","?","?","?","?","?","?","?","?","?","?","?","?","?","?","?","?","?","?","?","?","?","?","?","?","?","?","?","?","?","?","?","?","?","?","?","?","?","?","?","?","?","?","?","?","?","?","?","?","?","?","?","?","?","?","?","?","?","?","?","?","?","?","?","?","?","?","?","?","?","?","?","?","?","?","?","?","?","?","?","?","?","?","?","?","?","?","?","?","?","?","?","?","?","?","?","?","?","?","?","?","?","?","?","?","?","?","?","?","?","?","?","?","?","?","?","?","?","?","?","?","?","?","?","?","?","?","?","?","?","?","?","?","?","?","?","?","?","?","?","?","?","?","?","?","?","?","?","?","?","?","?","?","?","?","?","?","?","?","?","?","?","?","?","?","?","?","?","?","?","?","?","?","?","?","?","?","?","?","?","?","?","?","?","?","?","?","?","?","?","?","?","?","?","?","?","?","?","?","?","?","?","?","?","?","?","?","?","?","?","?","?","?","?","?","?","?","?","?","?","?","?","?","?","?","?","?","?","?","?","?","?","?","?","?","?","?","?","?","?","?","?","?","?","?","?","?","?","?","?","?","?","?","?","?","?","?","?","?","?","?","?","?","?","?","?","?","?","?","?","?","?","?","?","?","?","?","?","?","?","?","?","?","?","?","?","?","?","?","?","?","?","?","?","?","?","?","?","?","?","?","?","?","?","?","?","?","?","?","?","?","?","?","?","?","?","?","?","?","?","?","?","?","?","?","?","?","?","?","?","?","?","?","?","?","?","?","?","?","?","?","?","?","?","?","?","?","?","?","?","?","?","?","?","?","?","?","?","?","?","?","?","?","?","?","?","?","?","?","?","?","?","?","?","?","?","?","?","?","?","?","?","?","?","?","?","?","?","?","?","?","?","?","?","?","?","?","?","?","?","?","?","?","?","?","?","?","?","?","?","?","?","?","?","?","?","?","?","?","?","?","?","?","?","?","?","?","?","?","?","?","?","?","?","?","?","?","?","?","?","?","?","?","?","?","?","?","?","?","?","?","?","?","?","?","?","?","?","?","?","?","?","?","?","?","?","?","?","?","?","?","?","?","?","?","?","?","?","?","?","?","?","?","?","?","?","?","?","?","?","?","?","?","?","?","?","?","?","?","?","?","?","?","?","?","?","?","?","?","?","?","?","?","?","?","?","?","?","?","?","?","?","?","?","?","?","?","?","?","?","?","?","?","?","?","?","?","?","?","?","?","?","?","?","?","?","?","?","?","?","?","?","?","?","?","?","?","?","?","?","?","?","?","?","?","?","?","?","?","?","?","?","?","?","?","?","?","?","?","?","?","?","?","?","?","?","?","?","?","?","?","?","?","?","?","?","?","?","?","?","?","?","?","?","?","?","?","?","?","?","?","?","?","?","?","?","?","?","?","?","?","?","?","?","?","?","?","?","?","?","?","?","?","?","?","?","?","?","?","?","?","?","?","?","?","?","?","?","?","?","?","?","?","?","?","?","?","?","?","?","?","?","?","?","?","?","?","?","?","?","?","?","?","?","?","?","?","?","?","?","?","?","?","?","?","?","?","?","?","?","?","?","?","?","?","?","?","?","?","?","?","?","?","?","?","?","?","?","?","?","?","?","?","?","?","?","?","?","?","?","?","?","?","?","?","?","?","?","?","?","?","?","?","?","?","?","?","?","?","?","?","?","?","?","?","?","?","?","?","?","?","?","?","?","?","?","?","?","?","?","?","?","?","?","?","?","?","?","?","?","?","?","?","?","?","?","?","?","?","?","?","?","?","?","?","?","?","?","?","?","?","?","?","?","?","?","?","?","?","?","?","?","?","?","?","?","?","?","?","?","?","?","?","?","?","?","?","?","?","?","?","?","?","?","?","?","?","?","?","?","?","?","?","?","?","?","?","?","?","?","?","?","?","?","?","?","?","?","?","?","?","?","?","?","?","?","?","?","?","?","?","?","?","?","?","?","?","?","?","?","?","?","?","?","?","?","?","?","?","?","?","?","?","?","?","?","?","?","?","?","?","?","?","?","?","?","?","?","?","?","?","?","?","?","?","?","?","?","?","?","?","?","?","?","?","?","?","?","?","?","?","?","?","?","?","?","?","?","?","?","?","?","?","?","?","?","?","?","?","?","?","?","?","?","?","?","?","?","?","?","?","?","?","?","?","?","?","?","?","?","?","?","?","?","?","?","?","?","?","?","?","?","?","?","?","?","?","?","?","?","?","?","?","?","?","?","?","?","?","?","?","?","?","?","?","?","?","?","?","?","?","?","?","?","?","?","?","?","?","?","?","?","?","?","?","?","?","?","?","?","?","?","?","?","?","?","?","?","?","?","?","?","?","?","?","?","?","?","?","?","?","?","?","?","?","?","?","?","?","?","?","?","?","?","?","?","?","?","?","?","?","?","?","?","?","?","?","?","?","?","?","?","?","?","?","?","?","?","?","?","?","?","?","?","?","?","?","?","?","?","?","?","?","?","?","?","?","?","?","?","?","?","?","?","?","?","?","?","?","?","?","?","?","?","?","?","?","?","?","?","?","?","?","?","?","?","?","?","?","?","?","?","?","?","?","?","?","?","?","?","?","?","?","?","?","?","?","?","?","?","?","?","?","?","?","?","?","?","?","?","?","?","?","?","?","?","?","?","?","?","?","?","?","?","?","?","?","?","?","?","?","?","?","?","?","?","?","?","?","?","?","?","?","?","?","?","?","?","?","?","?","?","?","?","?","?","?","?","?","?","?","?","?","?","?","?","?","?","?","?","?","?","?","?","?","?","?","?","?","?","?","?","?","?","?","?","?","?","?","?","?","?","?","?","?","?","?","?","?","?","?","?","?","?","?","?","?","?","?","?","?","?","?","?","?","?","?","?","?","?","?","?","?","?","?","?","?","?","?","?","?","?","?","?","?","?","?","?","?","?","?","?","?","?","?","?","?","?","?","?","?","?","?","?","?","?","?","?","?","?","?","?","?","?","?","?","?","?","?","?","?","?","?","?","?","?","?","?","?","?","?","?","?","?","?","?","?","?","?","?","?","?","?","?","?","?","?","?","?","?","?","?","?","?","?","?","?","?","?","?","?","?","?","?","?","?","?","?","?","?","?","?","?","?","?","?","?","?","?","?","?","?","?","?","?","?","?","?","?","?","?","?","?","?","?","?","?","?","?","?","?","?","?","?","?","?","?","?","?","?","?","?","?","?","?","?","?","?","?","?","?","?","?","?","?","?","?","?","?","?","?","?","?","?","?","?","?","?","?","?","?","?","?","?","?","?","?","?","?","?","?","?","?","?","?","?","?","?","?","?","?","?","?","?","?","?","?","?","?","?","?","?","?","?","?","?","?","?","?","?","?","?","?","?","?","?","?","?","?","?","?","?","?","?","?","?","?","?","?","?","?","?","?","?","?","?","?","?","?","?","?","?","?","?","?","?","?","?","?","?","?","?","?","?","?","?","?","?","?","?","?","?","?","?","?","?","?","?","?","?","?","?","?","?","?","?","?","?","?","?","?","?","?","?","?","?","?","?","?","?","?","?","?","?","?","?","?","?","?","?","?","?","?","?","?","?","?","?","?","?","?","?","?","?","?","?","?","?","?","?","?","?","?","?","?","?","?","?","?","?","?","?","?","?","?","?","?","?","?","?","?","?","?","?","?","?","?","?","?","?","?","?","?","?","?","?","?","?","?","?","?","?","?","?","?","?","?","?","?","?","?","?","?","?","?","?","?","?","?","?","?","?","?","?","?","?","?","?","?","?","?","?","?","?","?","?","?","?","?","?","?","?","?","?","?","?","?","?","?","?","?","?","?","?","?","?","?","?","?","?","?","?","?","?","?","?","?","?","?","?","?","?","?","?","?","?","?","?","?","?","?","?","?","?","?","?","?","?","?","?","?","?","?","?","?","?","?","?","?","?","?","?","?","?","?","?","?","?","?","?","?","?","?","?","?","?","?","?","?","?","?","?","?","?","?","?","?","?","?","?","?","?","?","?","?","?","?","?","?","?","?","?","?","?","?","?","?","?","?","?","?","?","?","?","?","?","?","?","?","?","?","?","?","?","?","?","?","?","?","?","?","?","?","?","?","?","?","?","?","?","?","?","?","?","?","?","?","?","?","?","?","?","?","?","?","?","?","?","?","?","?","?","?","?","?","?","?","?","?","?","?","?","?","?","?","?","?","?","?","?","?","?","?","?","?","?","?","?","?","?","?","?","?","?","?","?","?","?","?","?","?","?","?","?","?","?","?","?","?","?","?","?","?","?","?","?","?","?","?","?","?","?","?","?","?","?","?","?","?","?","?","?","?","?","?","?","?","?","?","?","?","?","?","?","?","?","?","?","?","?","?","?","?","?","?","?","?","?","?","?","?","?","?","?","?","?","?","?","?","?","?","?","?","?","?","?","?","?","?","?","?","?","?","?","?","?","?","?","?","?","?","?","?","?","?","?","?","?","?","?","?","?","?","?","?","?","?","?","?","?","?","?","?","?","?","?","?","?","?","?","?","?","?","?","?","?","?","?","?","?","?","?","?","?","?","?","?","?","?","?","?","?","?","?","?","?","?","?","?","?","?","?","?","?","?","?","?","?","?","?","?","?","?","?","?","?","?","?","?","?","?","?","?","?","?","?","?","?","?","?","?","?","?","?","?","?","?","?","?","?","?","?","?","?","?","?","?","?","?","?","?","?","?","?","?","?","?","?","?","?","?","?","?","?","?","?","?","?","?","?","?","?","?","?","?","?","?","?","?","?","?","?","?","?","?","?","?","?","?","?","?","?","?","?","?","?","?","?","?","?","?","?","?","?","?","?","?","?","?","?","?","?","?","?","?","?","?","?","?","?","?","?","?","?","?","?","?","?","?","?","?","?","?","?","?","?","?","?","?","?","?","?","?","?","?","?","?","?","?","?","?","?","?","?","?","?","?","?","?","?","?","?","?","?","?","?","?","?","?","?","?","?","?","?","?","?","?","?","?","?","?","?","?","?","?","?","?","?","?","?","?","?","?","?","?","?","?","?","?","?","?","?","?","?","?","?","?","?","?","?","?","?","?","?","?","?","?","?","?","?","?","?","?","?","?","?","?","?","?","?","?","?","?","?","?","?","?","?","?","?","?","?","?","?","?","?","?","?","?","?","?","?","?","?","?","?","?","?","?","?","?","?","?","?","?","?","?","?","?","?","?","?","?","?","?","?","?","?","?","?","?","?","?","?","?","?","?","?","?","?","?","?","?","?","?","?","?","?","?","?","?","?","?","?","?","?","?","?","?","?","?","?","?","?","?","?","?","?","?","?","?","?","?","?","?","?","?","?","?","?","?","?","?","?","?","?","?","?","?","?","?","?","?","?","?","?","?","?","?","?","?","?","?","?","?","?","?","?","?","?","?","?","?","?","?","?","?","?","?","?","?","?","?","?","?","?","?","?","?","?","?","?","?","?","?","?","?","?","?","?","?","?","?","?","?","?","?","?","?","?","?","?","?","?","?","?","?","?","?","?","?","?","?","?","?","?","?","?","?","?","?","?","?","?","?","?","?","?","?","?","?","?","?","?","?","?","?","?","?","?","?","?","?","?","?","?","?","?","?","?","?","?","?","?","?","?","?","?","?","?","?","?","?","?","?","?","?","?","?","?","?","?","?","?","?","?","?","?","?","?","?","?","?","?","?","?","?","?","?","?","?","?","?","?","?","?","?","?","?","?","?","?","?","?","?","?","?","?","?","?","?","?","?","?","?","?","?","?","?","?","?","?","?","?","?","?","?","?","?","?","?","?","?","?","?","?","?","?","?","?","?","?","?","?","?","?","?","?","?","?","?","?","?","?","?","?","?","?","?","?","?","?","?","?","?","?","?","?","?","?","?","?","?","?","?","?","?","?","?","?","?","?","?","?","?","?","?","?","?","?","?","?","?","?","?","?","?","?","?","?","?","?","?","?","?","?","?","?","?","?","?","?","?","?","?","?","?","?","?","?","?","?","?","?","?","?","?","?","?","?","?","?","?","?","?","?","?","?","?","?","?","?","?","?","?","?","?","?","?","?","?","?","?","?","?","?","?","?","?","?","?","?","?","?","?","?","?","?","?","?","?","?","?","?","?","?","?","?","?","?","?","?","?","?","?","?","?","?","?","?","?","?","?","?","?","?","?","?","?","?","?","?","?","?","?","?","?","?","?","?","?","?","?","?","?","?","?","?","?","?","?","?","?","?","?","?","?","?","?","?","?","?","?","?","?","?","?","?","?","?","?","?","?","?","?","?","?","?","?","?","?","?","?","?","?","?","?","?","?","?","?","?","?","?","?","?","?","?","?","?","?","?","?","?","?","?","?","?","?","?","?","?","?","?","?","?","?","?","?","?","?","?","?","?","?","?","?","?","?","?","?","?","?","?","?","?","?","?","?","?","?","?","?","?","?","?","?","?","?","?","?","?","?","?","?","?","?","?","?","?","?","?","?","?","?","?","?","?","?","?","?","?","?","?","?","?","?","?","?","?","?","?","?","?","?","?","?","?","?","?","?","?","?","?","?","?","?","?","?","?","?","?","?","?","?","?","?","?","?","?","?","?","?","?","?","?","?","?","?","?","?","?","?","?","?","?","?","?","?","?","?","?","?","?","?","?","?","?","?","?","?","?","?","?","?","?","?","?","?","?","?","?","?","?","?","?","?","?","?","?","?","?","?","?","?","?","?","?","?","?","?","?","?","?","?","?","?","?","?","?","?","?","?","?","?","?","?","?","?","?","?","?","?","?","?","?","?","?","?","?","?","?","?","?","?","?","?","?","?","?","?","?","?","?","?","?","?","?","?","?","?","?","?","?","?","?","?","?","?","?","?","?","?","?","?","?","?","?","?","?","?","?","?","?","?","?","?","?","?","?","?","?","?","?","?","?","?","?","?","?","?","?","?","?","?","?","?","?","?","?","?","?","?","?","?","?","?","?","?","?","?","?","?","?","?","?","?","?","?","?","?","?","?","?","?","?","?","?","?","?","?","?","?","?","?","?","?","?","?","?","?","?","?","?","?","?","?","?","?","?","?","?","?","?","?","?","?","?","?","?","?","?","?","?","?","?","?","?","?","?","?","?","?","?","?","?","?","?","?","?","?","?","?","?","?","?","?","?","?","?","?","?","?","?","?","?","?","?","?","?","?","?","?","?","?","?","?","?","?","?","?","?","?","?","?","?","?","?","?","?","?","?","?","?","?","?","?","?","?","?","?","?","?","?","?","?","?","?","?","?","?","?","?","?","?","?","?","?","?","?","?","?","?","?","?","?","?","?","?","?","?","?","?","?","?","?","?","?","?","?","?","?","?","?","?","?","?","?","?","?","?","?","?","?","?","?","?","?","?","?","?","?","?","?","?","?","?","?","?","?","?","?","?","?","?","?","?","?","?","?","?","?","?","?","?","?","?","?","?","?","?","?","?","?","?","?","?","?","?","?","?","?","?","?","?","?","?","?","?","?","?","?","?","?","?","?","?","?","?","?","?","?","?","?","?","?","?","?","?","?","?","?","?","?","?","?","?","?","?","?","?","?","?","?","?","?","?","?","?","?","?","?","?","?","?","?","?","?","?","?","?","?","?","?","?","?","?","?","?","?","?","?","?","?","?","?","?","?","?","?","?","?","?","?","?","?","?","?","?","?","?","?","?","?","?","?","?","?","?","?","?","?","?","?","?","?","?","?","?","?","?","?","?","?","?","?","?","?","?","?","?","?","?","?","?","?","?","?","?","?","?","?","?","?","?","?","?","?","?","?","?","?","?","?","?","?","?","?","?","?","?","?","?","?","?","?","?","?","?","?","?","?","?","?","?","?","?","?","?","?","?","?","?","?","?","?","?","?","?","?","?","?","?","?","?","?","?","?","?","?","?","?","?","?","?","?","?","?","?","?","?","?","?","?","?","?","?","?","?","?","?","?","?","?","?","?","?","?","?","?","?","?","?","?","?","?","?","?","?","?","?","?","?","?","?","?","?","?","?","?","?","?","?","?","?","?","?","?","?","?","?","?","?","?","?","?","?","?","?","?","?","?","?","?","?","?","?","?","?","?","?","?","?","?","?","?","?","?","?","?","?","?","?","?","?","?","?","?","?","?","?","?","?","?","?","?","?","?","?","?","?","?","?","?","?","?","?","?","?","?","?","?","?","?","?","?","?","?","?","?","?","?","?","?","?","?","?","?","?","?","?","?","?","?","?","?","?","?","?","?","?","?","?","?","?","?","?","?","?","?","?","?","?","?","?","?","?","?","?","?","?","?","?","?","?","?","?","?","?","?","?","?","?","?","?","?","?","?","?","?","?","?","?","?","?","?","?","?","?","?","?","?","?","?","?","?","?","?","?","?","?","?","?","?","?","?","?","?","?","?","?","?","?","?","?","?","?","?","?","?","?","?","?","?","?","?","?","?","?","?","?","?","?","?","?","?","?","?","?","?","?","?","?","?","?","?","?","?","?","?","?","?","?","?","?","?","?","?","?","?","?","?","?","?","?","?","?","?","?","?","?","?","?","?","?","?","?","?","?","?","?","?","?","?","?","?","?","?","?","?","?","?","?","?","?","?","?","?","?","?","?","?","?","?","?","?","?","?","?","?","?","?","?","?","?","?","?","?","?","?","?","?","?","?","?","?","?","?","?","?","?","?","?","?","?","?","?","?","?","?","?","?","?","?","?","?","?","?","?","?","?","?","?","?","?","?","?","?","?","?","?","?","?","?","?","?","?","?","?","?","?","?","?","?","?","?","?","?","?","?","?","?","?","?","?","?","?","?","?","?","?","?","?","?","?","?","?","?","?","?","?","?","?","?","?","?","?","?","?","?","?","?","?","?","?","?","?","?","?","?","?","?","?","?","?","?","?","?","?","?","?","?","?","?","?","?","?","?","?","?","?","?","?","?","?","?","?","?","?","?","?","?","?","?","?","?","?","?","?","?","?","?","?","?","?","?","?","?","?","?","?","?","?","?","?","?","?","?","?","?","?","?","?","?","?","?","?","?","?","?","?","?","?","?","?","?","?","?","?","?","?","?","?","?","?","?","?","?","?","?","?","?","?","?","?","?","?","?","?","?","?","?","?","?","?","?","?","?","?","?","?","?","?","?","?","?","?","?","?","?","?","?","?","?","?","?","?","?","?","?","?","?","?","?","?","?","?","?","?","?","?","?","?","?","?","?","?","?","?","?","?","?","?","?","?","?","?","?","?","?","?","?","?","?","?","?","?","?","?","?","?","?","?","?","?","?","?","?","?","?","?","?","?","?","?","?","?","?","?","?","?","?","?","?","?","?","?","?","?","?","?","?","?","?","?","?","?","?","?","?","?","?","?","?","?","?","?","?","?","?","?","?","?","?","?","?","?","?","?","?","?","?","?","?","?","?","?","?","?","?","?","?","?","?","?","?","?","?","?","?","?","?","?","?","?","?","?","?","?","?","?","?","?","?","?","?","?","?","?","?","?","?","?","?","?","?","?","?","?","?","?","?","?","?","?","?","?","?","?","?","?","?","?","?","?","?","?","?","?","?","?","?","?","?","?","?","?","?","?","?","?","?","?","?","?","?","?","?","?","?","?","?","?","?","?","?","?","?","?","?","?","?","?","?","?","?","?","?","?","?","?","?","?","?","?","?","?","?","?","?","?","?","?","?","?","?","?","?","?","?","?","?","?","?","?","?","?","?","?","?","?","?","?","?","?","?","?","?","?","?","?","?","?","?","?","?","?","?","?","?","?","?","?","?","?","?","?","?","?","?","?","?","?","?","?","?","?","?","?","?","?","?","?","?","?","?","?","?","?","?","?","?","?","?","?","?","?","?","?","?","?","?","?","?","?","?","?","?","?","?","?","?","?","?","?","?","?","?","?","?","?","?","?","?","?","?","?","?","?","?","?","?","?","?","?","?","?","?","?","?","?","?","?","?","?","?","?","?","?","?","?","?","?","?","?","?","?","?","?","?","?","?","?","?","?","?","?","?","?","?","?","?","?","?","?","?","?","?","?","?","?","?","?","?","?","?","?","?","?","?","?","?","?","?","?","?","?","?","?","?","?","?","?","?","?","?","?","?","?","?","?","?","?","?","?","?","?","?","?","?","?","?","?","?","?","?","?","?","?","?","?","?","?","?","?","?","?","?","?","?","?","?","?","?","?","?","?","?","?","?","?","?","?","?","?","?","?","?","?","?","?","?","?","?","?","?","?","?","?","?","?","?","?","?","?","?","?","?","?","?","?","?","?","?","?","?","?","?","?","?","?","?","?","?","?","?","?","?","?","?","?","?","?","?","?","?","?","?","?","?","?","?","?","?","?","?","?","?","?","?","?","?","?","?","?","?","?","?","?","?","?","?","?","?","?","?","?","?","?","?","?","?","?","?","?","?","?","?","?","?","?","?","?","?","?","?","?","?","?","?","?","?","?","?","?","?","?","?","?","?","?","?","?","?","?","?","?","?","?","?","?","?","?","?","?","?","?","?","?","?","?","?","?","?","?","?","?","?","?","?","?","?","?","?","?","?","?","?","?","?","?","?","?","?","?","?","?","?","?","?","?","?","?","?","?","?","?","?","?","?","?","?","?","?","?","?","?","?","?","?","?","?","?","?","?","?","?","?","?","?","?","?","?","?","?","?","?","?","?","?","?","?","?","?","?","?","?","?","?","?","?","?","?","?","?","?","?","?","?","?","?","?","?","?","?","?","?","?","?","?","?","?","?","?","?","?","?","?","?","?","?","?","?","?","?","?","?","?","?","?","?","?","?","?","?","?","?","?","?","?","?","?","?","?","?","?","?","?","?","?","?","?","?","?","?","?","?","?","?","?","?","?","?","?","?","?","?","?","?","?","?","?","?","?","?","?","?","?","?","?","?","?","?","?","?","?","?","?","?","?","?","?","?","?","?","?","?","?","?","?","?","?","?","?","?","?","?","?","?","?","?","?","?","?","?","?","?","?","?","?","?","?","?","?","?","?","?","?","?","?","?","?","?","?","?","?","?","?","?","?","?","?","?","?","?","?","?","?","?","?","?","?","?","?","?","?","?","?","?","?","?","?","?","?","?","?","?","?","?","?","?","?","?","?","?","?","?","?","?","?","?","?","?","?","?","?","?","?","?","?","?","?","?","?","?","?","?","?","?","?","?","?","?","?","?","?","?","?","?","?","?","?","?","?","?","?","?","?","?","?","?","?","?","?","?","?","?","?","?","?","?","?","?","?","?","?","?","?","?","?","?","?","?","?","?","?","?","?","?","?","?","?","?","?","?","?","?","?","?","?","?","?","?","?","?","?","?","?","?","?","?","?","?","?","?","?","?","?","?","?","?","?","?","?","?","?","?","?","?","?","?","?","?","?","?","?","?","?","?","?","?","?","?","?","?","?","?","?","?","?","?","?","?","?","?","?","?","?","?","?","?","?","?","?","?","?","?","?","?","?","?","?","?","?","?","?","?","?","?","?","?","?","?","?","?","?","?","?","?","?","?","?","?","?","?","?","?","?","?","?","?","?","?","?","?","?","?","?","?","?","?","?","?","?","?","?","?","?","?","?","?","?","?","?","?","?","?","?","?","?","?","?","?","?","?","?","?","?","?","?","?","?","?","?","?","?","?","?","?","?","?","?","?","?","?","?","?","?","?","?","?","?","?","?","?","?","?","?","?","?","?","?","?","?","?","?","?","?","?","?","?","?","?","?","?","?","?","?","?","?","?","?","?","?","?","?","?","?","?","?","?","?","?","?","?","?","?","?","?","?","?","?","?","?","?","?","?","?","?","?","?","?","?","?","?","?","?","?","?","?","?","?","?","?","?","?","?","?","?","?","?","?","?","?","?","?","?","?","?","?","?","?","?","?","?","?","?","?","?","?","?","?","?","?","?","?","?","?","?","?","?","?","?","?","?","?","?","?","?","?","?","?","?","?","?","?","?","?","?","?","?","?","?","?","?","?","?","?","?","?","?","?","?","?","?","?","?","?","?","?","?","?","?","?","?","?","?","?","?","?","?","?","?","?","?","?","?","?","?","?","?","?","?","?","?","?","?","?","?","?","?","?","?","?","?","?","?","?","?","?","?","?","?","?","?","?","?","?","?","?","?","?","?","?","?","?","?","?","?","?","?","?","?","?","?","?","?","?","?","?","?","?","?","?","?","?","?","?","?","?","?","?","?","?","?","?","?","?","?","?","?","?","?","?","?","?","?","?","?","?","?","?","?","?","?","?","?","?","?","?","?","?","?","?","?","?","?","?","?","?","?","?","?","?","?","?","?","?","?","?","?","?","?","?","?","?","?","?","?","?","?","?","?","?","?","?","?","?","?","?","?","?","?","?","?","?","?","?","?","?","?","?","?","?","?","?","?","?","?","?","?","?","?","?","?","?","?","?","?","?","?","?","?","?","?","?","?","?","?","?","?","?","?","?","?","?","?","?","?","?","?","?","?","?","?","?","?","?","?","?","?","?","?","?","?","?","?","?","?","?","?","?","?","?","?","?","?","?","?","?","?","?","?","?","?","?","?","?","?","?","?","?","?","?","?","?","?","?","?","?","?","?","?","?","?","?","?","?","?","?","?","?","?","?","?","?","?","?","?","?","?","?","?","?","?","?","?","?","?","?","?","?","?","?","?","?","?","?","?","?","?","?","?","?","?","?","?","?","?","?","?","?","?","?","?","?","?","?","?","?","?","?","?","?","?","?","?","?","?","?","?","?","?","?","?","?","?","?","?","?","?","?","?","?","?","?","?","?","?","?","?","?","?","?","?","?","?","?","?","?","?","?","?","?","?","?","?","?","?","?","?","?","?","?","?","?","?","?","?","?","?","?","?","?","?","?","?","?","?","?","?","?","?","?","?","?","?","?","?","?","?","?","?","?","?","?","?","?","?","?","?","?","?","?","?","?","?","?","?","?","?","?","?","?","?","?","?","?","?","?","?","?","?","?","?","?","?","?","?","?","?","?","?","?","?","?","?","?","?","?","?","?","?","?","?","?","?","?","?","?","?","?","?","?","?","?","?","?","?","?","?","?","?","?","?","?","?","?","?","?","?","?","?","?","?","?","?","?","?","?","?","?","?","?","?","?","?","?","?","?","?","?","?","?","?","?","?","?","?","?","?","?","?","?","?","?","?","?","?","?","?","?","?","?","?","?","?","?","?","?","?","?","?","?","?","?","?","?","?","?","?","?","?","?","?","?","?","?","?","?","?","?","?","?","?","?","?","?","?","?","?","?","?","?","?","?","?","?","?","?","?","?","?","?","?","?","?","?","?","?","?","?","?","?","?","?","?","?","?","?","?","?","?","?","?","?","?","?","?","?","?","?","?","?","?","?","?","?","?","?","?","?","?","?","?","?","?","?","?","?","?","?","?","?","?","?","?","?","?","?","?","?","?","?","?","?","?","?","?","?","?","?","?","?","?","?","?","?","?","?","?","?","?","?","?","?","?","?","?","?","?","?","?","?","?","?","?","?","?","?","?","?","?","?","?","?","?","?","?","?","?","?","?","?","?","?","?","?","?","?","?","?","?","?","?","?","?","?","?","?","?","?","?","?","?","?","?","?","?","?","?","?","?","?","?","?","?","?","?","?","?","?","?","?","?","?","?","?","?","?","?","?","?","?","?","?","?","?","?","?","?","?","?","?","?","?","?","?","?","?","?","?","?","?","?","?","?","?","?","?","?","?","?","?","?","?","?","?","?","?","?","?","?","?","?","?","?","?","?","?","?","?","?","?","?","?","?","?","?","?","?","?","?","?","?","?","?","?","?","?","?","?","?","?","?","?","?","?","?","?","?","?","?","?","?","?","?","?","?","?","?","?","?","?","?","?","?","?","?","?","?","?","?","?","?","?","?","?","?","?","?","?","?","?","?","?","?","?","?","?","?","?","?","?","?","?","?","?","?","?","?","?","?","?","?","?","?","?","?","?","?","?","?","?","?","?","?","?","?","?","?","?","?","?","?","?","?","?","?","?","?","?","?","?","?","?","?","?","?","?","?","?","?","?","?","?","?","?","?","?","?","?","?","?","?","?","?","?","?","?","?","?","?","?","?","?","?","?","?","?","?","?","?","?","?","?","?","?","?","?","?","?","?","?","?","?","?","?","?","?","?","?","?","?","?","?","?","?","?","?","?","?","?","?","?","?","?","?","?","?","?","?","?","?","?","?","?","?","?","?","?","?","?","?","?","?","?","?","?","?","?","?","?","?","?","?","?","?","?","?","?","?","?","?","?","?","?","?","?","?","?","?","?","?","?","?","?","?","?","?","?","?","?","?","?","?","?","?","?","?","?","?","?","?","?","?","?","?","?","?","?","?","?","?","?","?","?","?","?","?","?","?","?","?","?","?","?","?","?","?","?","?","?","?","?","?","?","?","?","?","?","?","?","?","?","?","?","?","?","?","?","?","?","?","?","?","?","?","?","?","?","?","?","?","?","?","?","?","?","?","?","?","?","?","?","?","?","?","?","?","?","?","?","?","?","?","?","?","?","?","?","?","?","?","?","?","?","?","?","?","?","?","?","?","?","?","?","?","?","?","?","?","?","?","?","?","?","?","?","?","?","?","?","?","?","?","?","?","?","?","?","?","?","?","?","?","?","?","?","?","?","?","?","?","?","?","?","?","?","?","?","?","?","?","?","?","?","?","?","?","?","?","?","?","?","?","?","?","?","?","?","?","?","?","?","?","?","?","?","?","?","?","?","?","?","?","?","?","?","?","?","?","?","?","?","?","?","?","?","?","?","?","?","?","?","?","?","?","?","?","?","?","?","?","?","?","?","?","?","?","?","?","?","?","?","?","?","?","?","?","?","?","?","?","?","?","?","?","?","?","?","?","?","?","?","?","?","?","?","?","?","?","?","?","?","?","?","?","?","?","?","?","?","?","?","?","?","?","?","?","?","?","?","?","?","?","?","?","?","?","?","?","?","?","?","?","?","?","?","?","?","?","?","?","?","?","?","?","?","?","?","?","?","?","?","?","?","?","?","?","?","?","?","?","?","?","?","?","?","?","?","?","?","?","?","?","?","?","?","?","?","?","?","?","?","?","?","?","?","?","?","?","?","?","?","?","?","?","?","?","?","?","?","?","?","?","?","?","?","?","?","?","?","?","?","?","?","?","?","?","?","?","?","?","?","?","?","?","?","?","?","?","?","?","?","?","?","?","?","?","?","?","?","?","?","?","?","?","?","?","?","?","?","?","?","?","?","?","?","?","?","?","?","?","?","?","?","?","?","?","?","?","?","?","?","?","?","?","?","?","?","?","?","?","?","?","?","?","?","?","?","?","?","?","?","?","?","?","?","?","?","?","?","?","?","?","?","?","?","?","?","?","?","?","?","?","?","?","?","?","?","?","?","?","?","?","?","?","?","?","?","?","?","?","?","?","?","?","?","?","?","?","?","?","?","?","?","?","?","?","?","?","?","?","?","?","?","?","?","?","?","?","?","?","?","?","?","?","?","?","?","?","?","?","?","?","?","?","?","?","?","?","?","?","?","?","?","?","?","?","?","?","?","?","?","?","?","?","?","?","?","?","?","?","?","?","?","?","?","?","?","?","?","?","?","?","?","?","?","?","?","?","?","?","?","?","?","?","?","?","?","?","?","?","?","?","?","?","?","?","?","?","?","?","?","?","?","?","?","?","?","?","?","?","?","?","?","?","?","?","?","?","?","?","?","?","?","?","?","?","?","?","?","?","?","?","?","?","?","?","?","?","?","?","?","?","?","?","?","?","?","?","?","?","?","?","?","?","?","?","?","?","?","?","?","?","?","?","?","?","?","?","?","?","?","?","?","?","?","?","?","?","?","?","?","?","?","?","?","?","?","?","?","?","?","?","?","?","?","?","?","?","?","?","?","?","?","?","?","?","?","?","?","?","?","?","?","?","?","?","?","?","?","?","?","?","?","?","?","?","?","?","?","?","?","?","?","?","?","?","?","?","?","?","?","?","?","?","?","?","?","?","?","?","?","?","?","?","?","?","?","?","?","?","?","?","?","?","?","?","?","?","?","?","?","?","?","?","?","?","?","?","?","?","?","?","?","?","?","?","?","?","?","?","?","?","?","?","?","?","?","?","?","?","?","?","?","?","?","?","?","?","?","?","?","?","?","?","?","?","?","?","?","?","?","?","?","?","?","?","?","?","?","?","?","?","?","?","?","?","?","?","?","?","?","?","?","?","?","?","?","?","?","?","?","?","?","?","?","?","?","?","?","?","?","?","?","?","?","?","?","?","?","?","?","?","?","?","?","?","?","?","?","?","?","?","?","?","?","?","?","?","?","?","?","?","?","?","?","?","?","?","?","?","?","?","?","?","?","?","?","?","?","?","?","?","?","?","?","?","?","?","?","?","?","?","?","?","?","?","?","?","?","?","?","?","?","?","?","?","?","?","?","?","?","?","?","?","?","?","?","?","?","?","?","?","?","?","?","?","?","?","?","?","?","?","?","?","?","?","?","?","?","?","?","?","?","?","?","?","?","?","?","?","?","?","?","?","?","?","?","?","?","?","?","?","?","?","?","?","?","?","?","?","?","?","?","?","?","?","?","?","?","?","?","?","?","?","?","?","?","?","?","?","?","?","?","?","?","?","?","?","?","?","?","?","?","?","?","?","?","?","?","?","?","?","?","?","?","?","?","?","?","?","?","?","?","?","?","?","?","?","?","?","?","?","?","?","?","?","?","?","?","?","?","?","?","?","?","?","?","?","?","?","?","?","?","?","?","?","?","?","?","?","?","?","?","?","?","?","?","?","?","?","?","?","?","?","?","?","?","?","?","?","?","?","?","?","?","?","?","?","?","?","?","?","?","?","?","?","?","?","?","?","?","?","?","?","?","?","?","?","?","?","?","?","?","?","?","?","?","?","?","?","?","?","?","?","?","?","?","?","?","?","?","?","?","?","?","?","?","?","?","?","?","?","?","?","?","?","?","?","?","?","?","?","?","?","?","?","?","?","?","?","?","?","?","?","?","?","?","?","?","?","?","?","?","?","?","?","?","?","?","?","?","?","?","?","?","?","?","?","?","?","?","?","?","?","?","?","?","?","?","?","?","?","?","?","?","?","?","?","?","?","?","?","?","?","?","?","?","?","?","?","?","?","?","?","?","?","?","?","?","?","?","?","?","?","?","?","?","?","?","?","?","?","?","?","?","?","?","?","?","?","?","?","?","?","?","?","?","?","?","?","?","?","?","?","?","?","?","?","?","?","?","?","?","?","?","?","?","?","?","?","?","?","?","?","?","?","?","?","?","?","?","?","?","?","?","?","?","?","?","?","?","?","?","?","?","?","?","?","?","?","?","?","?","?","?","?","?","?","?","?","?","?","?","?","?","?","?","?","?","?","?","?","?","?","?","?","?","?","?","?","?","?","?","?","?","?","?","?","?","?","?","?","?","?","?","?","?","?","?","?","?","?","?","?","?","?","?","?","?","?","?","?","?","?","?","?","?","?","?","?","?","?","?","?","?","?","?","?","?","?","?","?","?","?","?","?","?","?","?","?","?","?","?","?","?","?","?","?","?","?","?","?","?","?","?","?","?","?","?","?","?","?","?","?","?","?","?","?","?","?","?","?","?","?","?","?","?","?","?","?","?","?","?","?","?","?","?","?","?","?","?","?","?","?","?","?","?","?","?","?","?","?","?","?","?","?","?","?","?","?","?","?","?","?","?","?","?","?","?","?","?","?","?","?","?","?","?","?","?","?","?","?","?","?","?","?","?","?","?","?","?","?","?","?","?","?","?","?","?","?","?","?","?","?","?","?","?","?","?","?","?","?","?","?","?","?","?","?","?","?","?","?","?","?","?","?","?","?","?","?","?","?","?","?","?","?","?","?","?","?","?","?","?","?","?","?","?","?","?","?","?","?","?","?","?","?","?","?","?","?","?","?","?","?","?","?","?","?","?","?","?","?","?","?","?","?","?","?","?","?","?","?","?","?","?","?","?","?","?","?","?","?","?","?","?","?","?","?","?","?","?","?","?","?","?","?","?","?","?","?","?","?","?","?","?","?","?","?","?","?","?","?","?","?","?","?","?","?","?","?","?","?","?","?","?","?","?","?","?","?","?","?","?","?","?","?","?","?","?","?","?","?","?","?","?","?","?","?","?","?","?","?","?","?","?","?","?","?","?","?","?","?","?","?","?","?","?","?","?","?","?","?","?","?","?","?","?","?","?","?","?","?","?","?","?","?","?","?","?","?","?","?","?","?","?","?","?","?","?","?","?","?","?","?","?","?","?","?","?","?","?","?","?","?","?","?","?","?","?","?","?","?","?","?","?","?","?","?","?","?","?","?","?","?","?","?","?","?","?","?","?","?","?","?","?","?","?","?","?","?","?","?","?","?","?","?","?","?","?","?","?","?","?","?","?","?","?","?","?","?","?","?","?","?","?","?","?","?","?","?","?","?","?","?","?","?","?","?","?","?","?","?","?","?","?","?","?","?","?","?","?","?","?","?","?","?","?","?","?","?","?","?","?","?","?","?","?","?","?","?","?","?","?","?","?","?","?","?","?","?","?","?","?","?","?","?","?","?","?","?","?","?","?","?","?","?","?","?","?","?","?","?","?","?","?","?","?","?","?","?","?","?","?","?","?","?","?","?","?","?","?","?","?","?","?","?","?","?","?","?","?","?","?","?","?","?","?","?","?","?","?","?","?","?","?","?","?","?","?","?","?","?","?","?","?","?","?","?","?","?","?","?","?","?","?","?","?","?","?","?","?","?","?","?","?","?","?","?","?","?","?","?","?","?","?","?","?","?","?","?","?","?","?","?","?","?","?","?","?","?","?","?","?","?","?","?","?","?","?","?","?","?","?","?","?","?","?","?","?","?","?","?","?","?","?","?","?","?","?","?","?","?","?","?","?","?","?","?","?","?","?","?","?","?","?","?","?","?","?","?","?","?","?","?","?","?","?","?","?","?","?","?","?","?","?","?","?","?","?","?","?","?","?","?","?","?","?","?","?","?","?","?","?","?","?","?","?","?","?","?","?","?","?","?","?","?","?","?","?","?","?","?","?","?","?","?","?","?","?","?","?","?","?","?","?","?","?","?","?","?","?","?","?","?","?","?","?","?","?","?","?","?","?","?","?","?","?","?","?","?","?","?","?","?","?","?","?","?","?","?","?","?","?","?","?","?","?","?","?","?","?","?","?","?","?","?","?","?","?","?","?","?","?","?","?","?","?","?","?","?","?","?","?","?","?","?","?","?","?","?","?","?","?","?","?","?","?","?","?","?","?","?","?","?","?","?","?","?","?","?","?","?","?","?","?","?","?","?","?","?","?","?","?","?","?","?","?","?","?","?","?","?","?","?","?","?","?","?","?","?","?","?","?","?","?","?","?","?","?","?","?","?","?","?","?","?","?","?","?","?","?","?","?","?","?","?","?","?","?","?","?","?","?","?","?","?","?","?","?","?","?","?","?","?","?","?","?","?","?","?","?","?","?","?","?","?","?","?","?","?","?","?","?","?","?","?","?","?","?","?","?","?","?","?","?","?","?","?","?","?","?","?","?","?","?","?","?","?","?","?","?","?","?","?","?","?","?","?","?","?","?","?","?","?","?","?","?","?","?","?","?","?","?","?","?","?","?","?","?","?","?","?","?","?","?","?","?","?","?","?","?","?","?","?","?","?","?","?","?","?","?","?","?","?","?","?","?","?","?","?","?","?","?","?","?","?","?","?","?","?","?","?","?","?","?","?","?","?","?","?","?","?","?","?","?","?","?","?","?","?","?","?","?","?","?","?","?","?","?","?","?","?","?","?","?","?","?","?","?","?","?","?","?","?","?","?","?","?","?","?","?","?","?","?","?","?","?","?","?","?","?","?","?","?","?","?","?","?","?","?","?","?","?","?","?","?","?","?","?","?","?","?","?","?","?","?","?","?","?","?","?","?","?","?","?","?","?","?","?","?","?","?","?","?","?","?","?","?","?","?","?","?","?","?","?","?","?","?","?","?","?","?","?","?","?","?","?","?","?","?","?","?","?","?","?","?","?","?","?","?","?","?","?","?","?","?","?","?","?","?","?","?","?","?","?","?","?","?","?","?","?","?","?","?","?","?","?","?","?","?","?","?","?","?","?","?","?","?","?","?","?","?","?","?","?","?","?","?","?","?","?","?","?","?","?","?","?","?","?","?","?","?","?","?","?","?","?","?","?","?","?","?","?","?","?","?","?","?","?","?","?","?","?","?","?","?","?","?","?","?","?","?","?","?","?","?","?","?","?","?","?","?","?","?","?","?","?","?","?","?","?","?","?","?","?","?","?","?","?","?","?","?","?","?","?","?","?","?","?","?","?","?","?","?","?","?","?","?","?","?","?","?","?","?","?","?","?","?","?","?","?","?","?","?","?","?","?","?","?","?","?","?","?","?","?","?","?","?","?","?","?","?","?","?","?","?","?","?","?","?","?","?","?","?","?","?","?","?","?","?","?","?","?","?","?","?","?","?","?","?","?","?","?","?","?","?","?","?","?","?","?","?","?","?","?","?","?","?","?","?","?","?","?","?","?","?","?","?","?","?","?","?","?","?","?","?","?","?","?","?","?","?","?","?","?","?","?","?","?","?","?","?","?","?","?","?","?","?","?","?","?","?","?","?","?","?","?","?","?","?","?","?","?","?","?","?","?","?","?","?","?","?","?","?","?","?","?","?","?","?","?","?","?","?","?","?","?","?","?","?","?","?","?","?","?","?","?","?","?","?","?","?","?","?","?","?","?","?","?","?","?","?","?","?","?","?","?","?","?","?","?","?","?","?","?","?","?","?","?","?","?","?","?","?","?","?","?","?","?","?","?","?","?","?","?","?","?","?","?","?","?","?","?","?","?","?","?","?","?","?","?","?","?","?","?","?","?","?","?","?","?","?","?","?","?","?","?","?","?","?","?","?","?","?","?","?","?","?","?","?","?","?","?","?","?","?","?","?","?","?","?","?","?","?","?","?","?","?","?","?","?","?","?","?","?","?","?","?","?","?","?","?","?","?","?","?","?","?","?","?","?","?","?","?","?","?","?","?","?","?","?","?","?","?","?","?","?","?","?","?","?","?","?","?","?","?","?","?","?","?","?","?","?","?","?","?","?","?","?","?","?","?","?","?","?","?","?","?","?","?","?","?","?","?","?","?","?","?","?","?","?","?","?","?","?","?","?","?","?","?","?","?","?","?","?","?","?","?","?","?","?","?","?","?","?","?","?","?","?","?","?","?","?","?","?","?","?","?","?","?","?","?","?","?","?","?","?","?","?","?","?","?","?","?","?","?","?","?","?","?","?","?","?","?","?","?","?","?","?","?","?","?","?","?","?","?","?","?","?","?","?","?","?","?","?","?","?","?","?","?","?","?","?","?","?","?","?","?","?","?","?","?","?","?","?","?","?","?","?","?","?","?","?","?","?","?","?","?","?","?","?","?","?","?","?","?","?","?","?","?","?","?","?","?","?","?","?","?","?","?","?","?","?","?","?","?","?","?","?","?","?","?","?","?","?","?","?","?","?","?","?","?","?","?","?","?","?","?","?","?","?","?","?","?","?","?","?","?","?","?","?","?","?","?","?","?","?","?","?","?","?","?","?","?","?","?","?","?","?","?","?","?","?","?","?","?","?","?","?","?","?","?","?","?","?","?","?","?","?","?","?","?","?","?","?","?","?","?","?","?","?","?","?","?","?","?","?","?","?","?","?","?","?","?","?","?","?","?","?","?","?","?","?","?","?","?","?","?","?","?","?","?","?","?","?","?","?","?","?","?","?","?","?","?","?","?","?","?","?","?","?","?","?","?","?","?","?","?","?","?","?","?","?","?","?","?","?","?","?","?","?","?","?","?","?","?","?","?","?","?","?","?","?","?","?","?","?","?","?","?","?","?","?","?","?","?","?","?","?","?","?","?","?","?","?","?","?","?","?","?","?","?","?","?","?","?","?","?","?","?","?","?","?","?","?","?","?","?","?","?","?","?","?","?","?","?","?","?","?","?","?","?","?","?","?","?","?","?","?","?","?","?","?","?","?","?","?","?","?","?","?","?","?","?","?","?","?","?","?","?","?","?","?","?","?","?","?","?","?","?","?","?","?","?","?","?","?","?","?","?","?","?","?","?","?","?","?","?","?","?","?","?","?","?","?","?","?","?","?","?","?","?","?","?","?","?","?","?","?","?","?","?","?","?","?","?","?","?","?","?","?","?","?","?","?","?","?","?","?","?","?","?","?","?","?","?","?","?","?","?","?","?","?","?","?","?","?","?","?","?","?","?","?","?","?","?","?","?","?","?","?","?","?","?","?","?","?","?","?","?","?","?","?","?","?","?","?","?","?","?","?","?","?","?","?","?","?","?","?","?","?","?","?","?","?","?","?","?","?","?","?","?","?","?","?","?","?","?","?","?","?","?","?","?","?","?","?","?","?","?","?","?","?","?","?","?","?","?","?","?","?","?","?","?","?","?","?","?","?","?","?","?","?","?","?","?","?","?","?","?","?","?","?","?","?","?","?","?","?","?","?","?","?","?","?","?","?","?","?","?","?","?","?","?","?","?","?","?","?","?","?","?","?","?","?","?","?","?","?","?","?","?","?","?","?","?","?","?","?","?","?","?","?","?","?","?","?","?","?","?","?","?","?","?","?","?","?","?","?","?","?","?","?","?","?","?","?","?","?","?","?","?","?","?","?","?","?","?","?","?","?","?","?","?","?","?","?","?","?","?","?","?","?","?","?","?","?","?","?","?","?","?","?","?","?","?","?","?","?","?","?","?","?","?","?","?","?","?","?","?","?","?","?","?","?","?","?","?","?","?","?","?","?","?","?","?","?","?","?","?","?","?","?","?","?","?","?","?","?","?","?","?","?","?","?","?","?","?","?","?","?","?","?","?","?","?","?","?","?","?","?","?","?","?","?","?","?","?","?","?","?","?","?","?","?","?","?","?","?","?","?","?","?","?","?","?","?","?","?","?","?","?","?","?","?","?","?","?","?","?","?","?","?","?","?","?","?","?","?","?","?","?","?","