[{"success":true,"trial_type":"fullscreen","trial_index":0,"time_elapsed":5093,"internal_node_id":"0.0-0.0","protocol_sum":"","subject_identifier":103,"subject_sum":[3,27,74,245,25,126,195,10,146,111,72,207,64,225,26,125,188,71,0,72,162,30,64,3,183,163,192,124,93,171,27,170],"subject_pair":51,"STUDY_ID":"669a702db1122fc5150a13ce","PROLIFIC_PID":"669007f15b776f0af8ce4069","SESSION_ID":"669a86840fd13a648eb5945b","practice_instructions":1,"leaderboard_instructions":1,"bonus":0,"reveal_word":true,"self_rating":"2","confidence":"100"},{"view_history":"[{\"page_index\":0,\"viewing_time\":6043}]","rt":6044,"trial_type":"instructions","trial_index":1,"time_elapsed":11139,"internal_node_id":"0.0-1.0","protocol_sum":"","subject_identifier":103,"subject_sum":[3,27,74,245,25,126,195,10,146,111,72,207,64,225,26,125,188,71,0,72,162,30,64,3,183,163,192,124,93,171,27,170],"subject_pair":51,"STUDY_ID":"669a702db1122fc5150a13ce","PROLIFIC_PID":"669007f15b776f0af8ce4069","SESSION_ID":"669a86840fd13a648eb5945b","practice_instructions":1,"leaderboard_instructions":1,"bonus":0,"reveal_word":true,"self_rating":"2","confidence":"100"},{"view_history":"[{\"page_index\":0,\"viewing_time\":14769}]","rt":14770,"trial_type":"instructions","trial_index":2,"time_elapsed":25913,"internal_node_id":"0.0-2.0-0.0","protocol_sum":"","subject_identifier":103,"subject_sum":[3,27,74,245,25,126,195,10,146,111,72,207,64,225,26,125,188,71,0,72,162,30,64,3,183,163,192,124,93,171,27,170],"subject_pair":51,"STUDY_ID":"669a702db1122fc5150a13ce","PROLIFIC_PID":"669007f15b776f0af8ce4069","SESSION_ID":"669a86840fd13a648eb5945b","practice_instructions":1,"leaderboard_instructions":1,"bonus":0,"reveal_word":true,"self_rating":"2","confidence":"100"},{"rt":12045,"responses":"{\"Q0\":\"... reveal the word with as <b>few letter guesses</b> as possible\"}","question_order":"[0]","trial_type":"survey-multi-choice","trial_index":3,"time_elapsed":37960,"internal_node_id":"0.0-2.0-1.0","protocol_sum":"","subject_identifier":103,"subject_sum":[3,27,74,245,25,126,195,10,146,111,72,207,64,225,26,125,188,71,0,72,162,30,64,3,183,163,192,124,93,171,27,170],"subject_pair":51,"correct":true,"test_part":"multichoice_nonpretend","STUDY_ID":"669a702db1122fc5150a13ce","PROLIFIC_PID":"669007f15b776f0af8ce4069","SESSION_ID":"669a86840fd13a648eb5945b","practice_instructions":1,"leaderboard_instructions":1,"bonus":0,"reveal_word":true,"self_rating":"2","confidence":"100"},{"view_history":"[{\"page_index\":0,\"viewing_time\":1327}]","rt":1328,"trial_type":"instructions","trial_index":4,"time_elapsed":39290,"internal_node_id":"0.0-3.0","protocol_sum":"","subject_identifier":103,"subject_sum":[3,27,74,245,25,126,195,10,146,111,72,207,64,225,26,125,188,71,0,72,162,30,64,3,183,163,192,124,93,171,27,170],"subject_pair":51,"STUDY_ID":"669a702db1122fc5150a13ce","PROLIFIC_PID":"669007f15b776f0af8ce4069","SESSION_ID":"669a86840fd13a648eb5945b","practice_instructions":1,"leaderboard_instructions":1,"bonus":0,"reveal_word":true,"self_rating":"2","confidence":"100"},{"word":"ZEBRA","click_log":{"letter":["","A","L","B","R","O","C","Z","E"],"t":[0,10574,17867,30123,34051,35850,36750,41642,42842],"hit":[null,1,0,1,1,0,0,1,1],"asked":["","A","AL","ALB","ALBR","ALBRO","ALBROC","ALBROCZ","ALBROCZE"],"word_state":["_____","____A","____A","__B_A","__BRA","__BRA","__BRA","Z_BRA","ZEBRA"]},"hover_log":{"letter":["?","?","?","?","?","?","?","?","?","?","?","?","?","?","?","?","?","?","?","?","?","?","?","?","?","?","?","?","?","?","?","?","?","?","?","?","?","?","?","?","?","?","?","?","?","?","?","?","?","?","?","?","?","?","?","?","?","?","?","?","?","?","?","?","?","?","?","?","?","?","?","?","?","?","?","?","?","?","?","?","?","?","?","?","?","?","?","?","?","?","?","?","?","?","?","?","?","?","?","?","?","?","?","?","?","?","?","?","?","?","?","?","?","?","?","?","?","?","?","?","?","?","?","?","?","?","?","?","?","?","?","?","?","?","?","?","?","?","?","?","?","?","?","?","?","?","?","?","?","?","?","?","?","?","?","?","?","?","?","?","?","?","?","?","?","?","?","?","?","?","?","?","?","?","?","?","?","?","?","?","?","?","?","?","?","?","?","?","?","?","?","?","?","?","?","?","?","?","?","?","?","?","?","?","?","?","?","?","?","?","?","?","?","?","?","?","?","?","?","?","?","?","?","?","?","?","?","?","?","?","?","?","?","?","?","?","?","?","?","?","?","?","?","?","?","?","?","?","?","?","?","?","?","?","?","?","?","?","?","?","?","?","?","?","?","?","?","?","?","?","?","?","?","?","?","?","?","?","?","?","?","?","?","?","?","?","?","?","?","?","?","?","?","?","?","?","?","?","?","?","?","?","?","?","?","?","?","?","?","?","?","?","?","?","?","?","?","?","?","?","?","?","?","?","?","?","?","?","?","?","?","?","?","?","?","?","?","?","?","?","?","?","?","?","?","?","?","?","?","?","?","?","?","?","?","?","?","?","?","?","?","?","?","?","?","?","?","?","?","?","?","?","?","?","?","?","?","?","?","?","?","?","?","?","?","?","?","?","?","?","?","?","?","?","?","?","?","?","?","?","?","?","?","?","?","?","?","?","?","?","?","?","?","?","?","?","?","?","?","?","?","?","?","?","?","?","?","?","?","?","?","?","?","?","?","?","?","?","?","?","?","?","?","?","?","?","?","?","?","?","?","?","?","?","?","?","?","?","?","?","?","?","?","?","?","?","?","?","?","?","?","?","?","?","?","?","?","?","?","?","?","?","?","?","?","?","?","?","?","?","?","?","?","?","?","?","?","?","?","?","?","?","?","?","?","?","?","?","?","?","?","?","?","?","?","J","J","J","J","J","J","J","J","J","J","J","J","J","J","J","J","J","J","J","J","J","?","K","K","K","K","K","K","K","?","?","?","?","?","?","?","?","?","?","?","?","?","?","?","?","?","?","?","?","?","?","?","?","?","?","?","?","?","?","?","?","?","?","?","?","?","?","?","?","?","?","?","?","?","?","?","?","?","?","?","?","?","?","?","?","?","?","?","?","?","?","?","?","?","?","?","?","?","B","B","B","B","B","B","B","B","B","?","A","A","A","A","A","A","A","A","A","A","A","A","A","A","A","A","A","A","A","A","A","A","A","A","A","A","A","A","A","A","A","A","A","A","A","A","A","A","A","A","A","A","A","A","A","A","A","A","A","A","A","A","A","A","A","A","A","A","A","A","?","?","J","J","J","?","S","S","?","?","?","?","?","?","?","?","?","?","?","?","?","?","?","?","?","?","?","?","?","?","?","?","?","?","?","?","?","?","?","?","?","?","?","?","?","?","?","?","?","?","?","?","?","?","?","?","?","?","?","?","?","?","?","?","?","?","?","?","?","?","?","?","?","?","?","?","?","?","?","?","?","?","?","?","?","?","?","?","?","?","?","?","?","?","?","?","?","?","?","?","?","?","?","?","?","?","?","?","?","?","?","?","?","?","?","?","?","?","?","?","?","?","?","?","?","?","?","?","?","?","?","?","?","?","?","?","?","?","?","?","?","?","?","?","?","?","?","?","?","?","?","?","?","?","?","?","?","?","?","?","?","?","?","?","?","?","?","?","?","?","?","?","?","?","?","?","?","?","?","?","?","?","?","?","?","?","?","?","?","?","?","?","?","?","?","?","?","?","?","?","?","?","?","?","?","?","?","?","?","?","?","?","?","?","?","?","?","?","?","?","?","?","?","?","?","?","?","?","?","?","?","?","?","?","?","?","?","?","?","?","?","?","?","?","?","?","?","?","?","?","?","?","?","?","?","?","?","?","?","?","?","?","?","?","?","?","?","?","?","?","?","?","?","?","?","?","?","?","?","?","?","?","?","?","?","?","X","X","X","X","X","X","X","X","X","X","X","X","X","X","X","X","X","X","X","X","X","X","X","X","X","?","?","W","?","?","?","?","?","?","?","?","?","?","?","?","?","?","?","?","?","?","?","?","?","?","M","M","M","?","?","?","?","?","?","?","?","?","?","?","?","?","?","?","?","?","?","?","?","?","?","?","?","?","?","?","?","?","?","?","?","B","B","B","B","B","B","B","B","B","B","B","B","B","B","B","?","?","?","?","?","?","?","?","L","L","L","L","L","L","L","L","L","L","L","L","L","L","L","L","L","L","L","L","L","L","L","L","L","L","L","L","L","L","L","L","L","L","L","L","L","L","L","L","L","L","L","L","L","L","L","L","L","L","L","L","L","L","L","L","L","L","L","L","L","L","L","L","L","L","L","L","L","L","L","L","L","L","L","L","?","?","?","?","V","V","V","V","?","?","?","?","?","?","?","?","?","?","?","?","?","?","?","?","?","?","?","?","?","?","?","?","?","?","?","?","?","?","?","?","?","?","?","?","?","?","?","?","?","?","?","?","?","?","?","?","?","?","?","?","?","?","?","?","?","?","?","?","?","?","?","?","?","?","?","?","?","?","?","?","?","?","?","?","?","?","?","?","?","?","?","?","?","?","?","?","?","?","?","?","?","?","?","?","?","?","?","?","?","?","?","?","?","?","?","T","T","T","T","T","T","T","T","T","T","T","T","T","T","T","T","T","T","T","T","T","T","T","T","T","T","?","?","?","?","?","?","?","?","?","?","?","?","?","?","?","?","?","?","?","?","?","?","?","?","?","?","?","?","?","?","?","?","?","?","?","?","?","?","?","?","?","?","?","?","?","?","?","?","?","?","?","?","?","?","?","?","?","?","?","?","?","?","?","?","?","?","?","?","?","?","?","?","?","?","?","?","?","?","?","?","?","?","?","?","?","?","?","?","?","?","?","?","?","?","?","?","?","?","?","?","?","?","?","?","?","?","?","?","?","?","?","?","?","?","?","?","?","?","?","?","?","?","?","?","?","?","?","?","?","?","?","?","?","?","?","?","?","?","?","?","?","?","?","?","?","?","?","?","?","?","?","?","?","?","?","?","?","?","?","?","?","?","?","?","?","?","?","?","?","?","?","?","?","?","?","?","?","?","?","?","?","?","?","?","?","?","?","?","?","?","?","?","?","?","?","?","?","?","?","?","?","?","?","?","?","?","?","?","?","?","?","?","?","?","?","?","?","?","?","?","?","?","?","?","?","?","?","?","?","?","?","?","?","?","?","?","?","?","?","?","?","?","?","?","?","?","?","?","?","?","?","?","?","?","?","?","?","?","?","?","?","?","?","?","?","?","?","?","?","?","?","?","?","?","?","?","?","?","?","?","?","?","?","?","?","?","?","?","?","?","?","?","?","?","?","?","?","?","?","?","?","?","?","?","?","?","?","?","?","?","?","?","?","?","?","?","?","?","?","?","?","?","?","?","?","?","?","?","?","?","?","?","?","?","?","?","?","?","?","?","?","?","?","?","?","?","?","?","?","?","?","?","?","?","?","?","?","?","?","?","?","?","?","?","?","?","?","?","?","?","?","?","?","?","?","?","?","?","?","?","?","?","?","?","?","?","?","?","?","?","?","?","?","?","?","?","?","?","?","?","?","?","?","?","?","?","?","?","?","?","?","?","?","?","?","?","?","?","?","?","?","?","?","?","?","?","?","?","?","?","?","?","?","?","?","?","?","?","?","?","?","?","?","?","?","?","?","?","?","?","?","?","?","?","?","?","?","?","?","?","?","?","?","?","?","?","?","?","?","?","?","X","X","?","?","?","?","O","O","O","O","O","O","O","O","O","O","O","O","O","O","O","O","O","O","O","O","O","?","?","?","O","O","O","O","?","?","?","?","?","E","E","E","E","E","E","E","E","E","E","E","E","E","E","E","E","E","?","?","?","?","?","?","?","?","?","?","?","?","?","?","?","?","?","?","?","?","?","B","B","B","B","B","B","B","B","B","B","B","B","B","B","B","B","B","B","B","B","B","B","B","B","B","B","B","B","B","B","B","B","B","B","B","B","B","B","B","B","B","B","B","B","B","B","B","B","B","B","B","B","B","B","B","B","B","B","B","?","K","K","?","U","?","?","?","?","?","?","?","?","?","?","?","?","?","?","?","?","?","?","?","?","?","?","?","?","?","?","?","?","?","?","?","?","?","?","?","?","?","?","?","?","?","?","?","?","?","?","?","?","?","?","?","?","?","?","?","?","?","?","?","?","?","?","?","?","?","?","?","?","?","?","?","?","?","?","?","?","?","?","?","?","?","?","?","?","?","?","?","?","?","?","?","?","?","?","?","?","?","?","?","?","?","?","?","?","?","?","?","?","?","?","?","?","?","?","?","?","?","?","?","?","?","?","?","?","?","?","?","?","?","Y","Y","Y","Y","Y","Y","Y","Y","Y","Y","Y","Y","Y","Y","Y","Y","Y","Y","Y","Y","Y","Y","Y","?","?","?","Q","Q","?","?","?","?","?","?","Q","Q","Q","Q","?","R","R","R","R","R","R","R","R","R","R","R","R","R","R","R","R","R","R","R","R","R","R","R","R","R","R","R","R","R","R","R","R","R","R","R","R","R","R","R","R","R","R","R","R","R","R","R","R","R","R","R","R","R","R","R","R","R","R","?","Q","P","O","?","N","?","M","M","M","M","M","M","M","M","M","M","M","M","M","M","M","M","M","M","M","M","M","M","M","M","M","M","?","?","?","?","N","N","N","N","N","N","N","N","N","N","N","N","N","N","N","N","N","N","?","?","O","O","O","O","O","O","O","O","O","O","O","O","O","O","O","O","O","O","O","O","O","O","O","O","O","O","O","O","O","O","O","O","O","O","O","O","O","O","O","O","O","O","?","N","?","?","D","D","?","C","C","C","C","C","C","C","C","C","C","C","C","C","C","C","C","C","C","C","C","C","C","C","C","C","C","C","C","C","C","C","C","C","C","C","C","C","C","C","C","C","C","C","C","C","C","C","C","C","C","C","C","C","C","C","C","C","C","C","C","C","C","C","C","C","C","C","C","C","C","C","C","C","C","C","C","C","C","C","C","C","C","C","C","C","C","C","?","?","?","?","?","M","M","M","M","?","?","?","?","?","?","?","?","?","?","?","?","?","?","?","?","?","?","?","?","?","?","?","?","?","?","W","W","W","W","?","?","?","?","?","?","?","?","?","?","?","?","?","?","?","?","?","?","?","?","?","?","?","?","?","?","?","?","?","?","?","?","?","?","?","?","?","?","?","?","?","?","?","?","?","?","?","?","?","?","?","?","?","?","?","?","?","?","?","?","?","?","?","?","?","?","?","?","?","?","?","?","?","?","?","?","?","?","?","?","?","?","?","?","?","?","?","?","?","?","?","?","?","?","?","?","?","?","?","?","?","?","?","?","?","?","?","?","?","?","?","?","?","?","?","?","?","?","?","?","?","?","?","?","?","?","?","?","?","?","?","?","?","?","?","?","?","?","?","?","U","U","U","U","U","U","U","U","U","U","U","U","U","U","U","U","U","U","U","U","U","V","V","X","Y","?","?","?","?","?","?","?","?","?","?","?","?","?","?","?","?","?","?","?","?","Z","Z","Z","Z","Z","Z","Z","Z","Z","Z","Z","Z","Z","Z","Z","Z","Z","Z","Z","Z","Z","Z","Z","Z","Z","Z","Z","Z","Z","Z","Z","Z","Z","Z","Z","Z","Z","Z","Z","Z","Z","Z","Z","?","Y","Y","?","?","O","O","O","O","O","O","O","O","?","?","?","?","?","?","?","?","?","?","?","?","?","E","E","E","E","E","E","E","E","E","E","E","E","E","E","E","E","E","E","E","E","E","E","E","E","E","E","E","E","E","E","E","E","E","E","E","E","E","E","E","E","E","E","E","E","E","E","E","E","E","E","E","E","E","E","E","E","E","E","E","E","E","E","E","E","E","E","E","E","E","E","E","E","E","E","E","E","E","E","E","?","N","N","?","W","W","W","W","W","W","?","?","?","?","?","?","?","?","?","?","?","?","?","?","?","?","?","?","?","?","?","?","?","?","?","?","?","?","?","?","?","?","?","?","?","?","?","?","?","?","?","?","?","?","?","?","?","?","?","?","?","?","?","?","?","?","?","?","?","?","?","?","?","?","?","?","?","?","?"],"t":[25,37,57,73,90,108,124,141,158,175,193,209,225,242,258,276,291,309,325,342,357,376,392,409,425,440,458,474,491,508,524,541,558,574,591,607,624,640,658,673,691,707,724,741,757,774,791,808,824,841,857,874,891,907,924,941,957,974,991,1007,1024,1040,1057,1073,1091,1107,1124,1140,1157,1174,1191,1207,1224,1241,1258,1273,1290,1308,1324,1341,1357,1374,1391,1407,1424,1441,1457,1474,1490,1508,1524,1540,1558,1574,1591,1607,1624,1641,1658,1674,1691,1708,1724,1741,1757,1774,1791,1807,1824,1841,1857,1874,1891,1908,1924,1941,1958,1974,1991,2007,2024,2041,2057,2074,2092,2108,2124,2141,2158,2175,2191,2207,2224,2241,2257,2274,2291,2308,2324,2341,2357,2374,2390,2407,2424,2441,2458,2474,2491,2507,2525,2541,2558,2574,2590,2607,2624,2641,2657,2674,2691,2708,2724,2742,2758,2775,2791,2807,2825,2841,2858,2875,2891,2908,2925,2942,2958,2975,2992,3008,3025,3041,3057,3073,3088,3104,3120,3134,3152,3167,3185,3201,3215,3227,3247,3260,3275,3292,3307,3322,3335,3348,3366,3382,3396,3413,3431,3448,3465,3480,3498,3512,3526,3540,3558,3571,3589,3605,3623,3637,3655,3671,3690,3704,3722,3738,3751,3768,3785,3802,3817,3835,3850,3864,3882,3896,3909,3922,3940,3957,3971,3987,4006,4021,4034,4048,4061,4074,4088,4102,4115,4127,4140,4154,4169,4185,4201,4216,4233,4248,4266,4282,4295,4309,4323,4340,4353,4371,4386,4400,4417,4432,4445,4463,4479,4496,4513,4530,4545,4558,4575,4592,4609,4625,4642,4657,4671,4687,4705,4723,4738,4755,4769,4784,4801,4816,4829,4847,4860,4874,4888,4900,4913,4930,4949,4966,4983,4998,5012,5027,5043,5060,5074,5088,5100,5118,5132,5149,5165,5179,5196,5213,5230,5246,5264,5278,5292,5309,5325,5342,5358,5371,5388,5405,5421,5437,5451,5463,5475,5489,5505,5520,5535,5549,5564,5579,5594,5610,5624,5642,5657,5670,5684,5698,5714,5728,5746,5761,5775,5788,5802,5818,5837,5852,5865,5879,5892,5905,5917,5938,5954,5972,5988,6004,6022,6038,6055,6070,6089,6104,6121,6137,6155,6172,6188,6205,6222,6236,6250,6267,6284,6301,6316,6333,6351,6368,6383,6400,6417,6432,6450,6465,6483,6497,6509,6524,6541,6559,6573,6589,6605,6622,6639,6655,6672,6689,6706,6722,6739,6756,6772,6789,6806,6822,6838,6854,6871,6888,6905,6922,6939,6954,6972,6989,7006,7022,7039,7055,7073,7089,7105,7122,7139,7156,7172,7189,7206,7222,7239,7255,7272,7289,7306,7323,7339,7356,7373,7389,7406,7422,7439,7456,7472,7489,7506,7522,7539,7556,7572,7589,7606,7623,7639,7656,7672,7689,7706,7722,7739,7756,7772,7789,7806,7823,7838,7856,7873,7889,7906,7922,7940,7956,7972,7990,8006,8023,8039,8056,8073,8089,8106,8123,8140,8156,8172,8190,8206,8222,8239,8256,8272,8289,8305,8322,8339,8355,8372,8389,8406,8423,8437,8451,8465,8480,8495,8511,8526,8541,8555,8567,8581,8599,8614,8629,8645,8661,8677,8694,8709,8728,8744,8760,8777,8794,8810,8826,8844,8860,8876,8894,8911,8927,8942,8954,8967,8985,9004,9022,9039,9058,9073,9090,9107,9123,9140,9156,9173,9190,9206,9223,9240,9256,9272,9289,9306,9323,9339,9356,9373,9390,9406,9423,9440,9457,9473,9489,9507,9523,9540,9557,9574,9590,9607,9623,9640,9657,9673,9690,9707,9724,9740,9757,9774,9790,9806,9823,9840,9857,9873,9889,9906,9924,9940,9954,9970,9987,10003,10017,10035,10053,10068,10085,10102,10119,10135,10152,10169,10186,10202,10219,10233,10250,10265,10282,10299,10313,10326,10342,10357,10373,10390,10407,10421,10441,10454,10468,10486,10500,10514,10526,10539,10556,10571,10587,10603,10620,10634,10647,10660,10672,10691,10708,10721,10736,10751,10768,10783,10796,10810,10822,10840,10857,10870,10887,10904,10922,10939,10955,10973,10986,11000,11016,11032,11045,11061,11078,11094,11111,11127,11144,11160,11177,11194,11211,11228,11244,11260,11278,11294,11310,11327,11344,11361,11376,11394,11411,11426,11443,11458,11476,11492,11504,11520,11536,11553,11568,11583,11602,11616,11630,11647,11662,11681,11695,11711,11727,11743,11761,11777,11794,11811,11827,11844,11861,11878,11894,11910,11927,11944,11960,11977,11994,12011,12027,12044,12060,12077,12092,12110,12125,12139,12156,12173,12188,12206,12220,12234,12251,12266,12284,12299,12313,12330,12346,12363,12378,12396,12415,12431,12448,12463,12480,12497,12513,12530,12547,12564,12581,12598,12614,12631,12648,12663,12680,12697,12714,12729,12747,12761,12776,12789,12801,12819,12833,12849,12865,12881,12896,12909,12922,12935,12952,12968,12983,12999,13014,13031,13047,13064,13081,13097,13114,13131,13148,13164,13181,13196,13213,13228,13243,13260,13274,13288,13306,13323,13339,13356,13373,13390,13405,13423,13440,13456,13472,13489,13506,13523,13539,13556,13573,13589,13606,13623,13640,13654,13669,13686,13702,13719,13735,13750,13768,13782,13796,13809,13822,13835,13852,13869,13883,13899,13912,13928,13943,13961,13977,13992,14008,14024,14042,14057,14071,14086,14102,14119,14135,14150,14168,14183,14196,14213,14231,14247,14262,14280,14295,14313,14333,14347,14364,14381,14396,14409,14422,14435,14453,14468,14483,14497,14512,14527,14541,14557,14573,14589,14606,14623,14639,14656,14672,14690,14706,14723,14737,14755,14771,14785,14802,14819,14834,14851,14866,14884,14900,14913,14928,14944,14961,14977,14991,15005,15018,15031,15047,15064,15079,15093,15108,15123,15140,15156,15172,15187,15205,15220,15234,15251,15266,15284,15301,15318,15335,15350,15365,15381,15398,15412,15426,15438,15453,15470,15486,15502,15518,15536,15552,15568,15584,15602,15619,15635,15651,15669,15684,15701,15715,15730,15747,15762,15780,15795,15812,15828,15846,15864,15881,15897,15912,15926,15938,15951,15964,15981,15992,16005,16020,16036,16052,16069,16085,16102,16118,16136,16150,16168,16182,16197,16213,16228,16242,16260,16275,16288,16305,16320,16334,16351,16366,16381,16399,16415,16431,16448,16465,16481,16497,16514,16531,16546,16564,16579,16593,16605,16618,16630,16646,16659,16674,16690,16706,16723,16739,16756,16773,16790,16806,16823,16839,16855,16872,16886,16904,16920,16934,16946,16962,16976,16991,17006,17023,17040,17053,17071,17086,17101,17113,17126,17139,17152,17168,17185,17201,17217,17235,17252,17269,17285,17301,17318,17334,17352,17368,17385,17401,17418,17432,17451,17468,17484,17499,17515,17531,17548,17562,17577,17593,17610,17625,17643,17657,17671,17689,17703,17717,17730,17747,17766,17782,17800,17811,17827,17845,17863,17881,17898,17915,17929,17947,17962,17980,17995,18013,18031,18047,18064,18080,18097,18112,18125,18143,18158,18171,18189,18203,18222,18237,18255,18272,18290,18306,18321,18334,18352,18367,18384,18399,18413,18427,18442,18462,18481,18498,18514,18531,18549,18565,18581,18598,18615,18632,18648,18665,18682,18699,18715,18731,18749,18765,18781,18797,18814,18829,18842,18860,18875,18893,18908,18922,18939,18954,18967,18984,19000,19018,19033,19048,19066,19082,19098,19115,19132,19148,19165,19179,19197,19213,19230,19245,19260,19276,19291,19305,19322,19338,19355,19370,19384,19397,19415,19433,19451,19469,19488,19507,19524,19538,19556,19573,19590,19607,19623,19640,19657,19674,19690,19707,19724,19740,19757,19774,19790,19807,19823,19840,19857,19873,19890,19907,19923,19940,19957,19974,19991,20007,20023,20040,20057,20074,20090,20107,20124,20141,20157,20173,20191,20207,20223,20240,20257,20274,20290,20307,20324,20341,20357,20373,20391,20407,20424,20441,20457,20473,20490,20507,20522,20535,20551,20570,20587,20603,20620,20638,20658,20678,20696,20710,20729,20744,20760,20777,20794,20810,20827,20844,20861,20878,20894,20911,20925,20944,20960,20978,20995,21009,21026,21043,21060,21075,21092,21108,21122,21139,21154,21169,21184,21200,21213,21229,21245,21263,21281,21298,21317,21336,21352,21370,21386,21402,21419,21437,21453,21470,21486,21503,21519,21537,21552,21569,21586,21603,21620,21637,21653,21669,21687,21703,21719,21736,21753,21770,21786,21802,21820,21836,21852,21869,21886,21903,21919,21936,21953,21970,21987,22003,22019,22036,22053,22070,22086,22103,22119,22136,22153,22170,22186,22203,22220,22237,22253,22269,22287,22303,22319,22335,22353,22370,22386,22402,22420,22437,22451,22466,22483,22499,22513,22527,22540,22554,22570,22586,22604,22621,22631,22652,22666,22697,22709,22723,22738,22757,22772,22788,22804,22821,22834,22850,22867,22883,22899,22918,22934,22951,22967,22983,23000,23017,23033,23050,23067,23083,23099,23116,23133,23150,23167,23182,23199,23216,23233,23249,23266,23283,23299,23316,23333,23349,23366,23383,23400,23416,23433,23449,23466,23483,23499,23516,23533,23550,23566,23582,23600,23616,23633,23649,23666,23683,23700,23717,23733,23749,23766,23782,23800,23816,23832,23850,23866,23883,23899,23916,23933,23949,23966,23983,24000,24017,24032,24050,24066,24083,24099,24116,24133,24150,24165,24183,24199,24216,24233,24250,24267,24282,24300,24317,24333,24349,24366,24383,24400,24416,24433,24450,24465,24478,24495,24510,24523,24538,24555,24570,24588,24602,24619,24634,24647,24666,24685,24703,24720,24735,24748,24760,24778,24795,24809,24825,24844,24859,24877,24892,24911,24926,24943,24959,24977,24993,25010,25025,25044,25059,25072,25091,25105,25121,25137,25155,25172,25190,25205,25222,25239,25256,25271,25284,25303,25318,25333,25350,25369,25384,25398,25415,25431,25448,25463,25481,25497,25515,25529,25544,25562,25581,25598,25615,25631,25644,25661,25680,25699,25716,25735,25755,25771,25789,25802,25820,25835,25852,25868,25881,25894,25908,25922,25940,25956,25971,25989,26005,26019,26037,26051,26067,26084,26103,26116,26135,26151,26169,26184,26198,26211,26228,26245,26260,26276,26294,26309,26323,26341,26360,26377,26395,26410,26422,26436,26453,26470,26485,26501,26514,26528,26545,26561,26576,26591,26606,26624,26643,26660,26679,26692,26706,26723,26735,26752,26770,26787,26802,26815,26830,26844,26857,26871,26886,26903,26918,26934,26952,26967,26985,27001,27019,27033,27048,27066,27084,27103,27120,27135,27149,27166,27181,27196,27213,27231,27246,27261,27279,27298,27315,27333,27347,27365,27380,27398,27414,27432,27447,27465,27481,27498,27513,27532,27547,27561,27578,27598,27616,27633,27648,27661,27679,27693,27709,27726,27744,27759,27775,27792,27809,27825,27841,27859,27875,27890,27908,27925,27942,27958,27975,27991,28008,28025,28042,28057,28073,28090,28105,28124,28138,28156,28171,28186,28199,28216,28233,28248,28263,28281,28297,28311,28328,28349,28361,28378,28395,28411,28428,28446,28462,28479,28495,28512,28529,28545,28562,28579,28596,28612,28629,28646,28663,28678,28695,28712,28729,28743,28757,28770,28787,28804,28817,28834,28852,28867,28885,28901,28919,28934,28952,28968,28986,29001,29016,29033,29050,29064,29079,29096,29112,29128,29145,29162,29179,29195,29211,29229,29245,29261,29278,29293,29311,29325,29343,29359,29377,29391,29409,29425,29443,29460,29476,29491,29507,29523,29540,29557,29574,29590,29606,29622,29639,29654,29672,29688,29702,29719,29734,29752,29767,29785,29800,29818,29835,29850,29866,29883,29899,29916,29932,29947,29965,29980,29998,30013,30031,30046,30060,30073,30090,30107,30122,30137,30156,30173,30189,30201,30218,30237,30254,30270,30287,30301,30315,30328,30341,30356,30374,30388,30404,30418,30436,30450,30469,30485,30497,30516,30535,30552,30569,30584,30602,30618,30635,30651,30665,30682,30697,30710,30727,30738,30755,30774,30791,30808,30825,30841,30857,30875,30890,30907,30924,30940,30958,30974,30989,31007,31022,31039,31055,31073,31088,31106,31121,31139,31155,31168,31186,31200,31217,31233,31251,31268,31286,31305,31323,31341,31357,31374,31391,31408,31424,31440,31458,31474,31491,31508,31523,31540,31557,31572,31590,31605,31623,31638,31652,31670,31684,31700,31717,31735,31750,31764,31777,31795,31809,31827,31843,31856,31870,31887,31903,31919,31931,31946,31964,31985,32000,32018,32038,32055,32071,32084,32098,32111,32129,32145,32159,32175,32190,32207,32222,32238,32255,32272,32288,32303,32316,32333,32347,32365,32380,32398,32413,32431,32447,32460,32478,32498,32516,32531,32546,32562,32579,32596,32612,32629,32645,32662,32678,32697,32718,32733,32747,32765,32781,32798,32813,32827,32843,32860,32875,32894,32912,32928,32945,32962,32979,32995,33012,33029,33046,33062,33079,33095,33112,33128,33147,33168,33184,33198,33211,33226,33242,33259,33275,33290,33306,33321,33337,33352,33368,33384,33400,33416,33433,33450,33466,33483,33499,33514,33530,33546,33562,33579,33595,33612,33629,33646,33662,33679,33695,33712,33727,33744,33759,33776,33793,33806,33824,33842,33861,33878,33895,33910,33924,33941,33960,33977,33995,34010,34028,34043,34056,34070,34087,34103,34119,34132,34152,34168,34186,34201,34219,34234,34252,34270,34287,34302,34315,34333,34347,34363,34380,34397,34413,34431,34447,34465,34480,34498,34514,34528,34540,34556,34572,34588,34604,34621,34637,34654,34670,34687,34702,34715,34732,34747,34762,34779,34798,34813,34827,34841,34856,34871,34887,34903,34920,34937,34951,34964,34978,34995,35012,35029,35045,35062,35078,35095,35112,35128,35145,35161,35178,35195,35209,35224,35241,35255,35271,35287,35300,35319,35333,35352,35367,35385,35403,35420,35436,35453,35470,35486,35504,35519,35537,35551,35564,35583,35601,35620,35637,35651,35665,35679,35696,35713,35729,35748,35765,35782,35799,35816,35834,35855,35871,35885,35899,35911,35928,35945,35960,35975,35993,36009,36028,36042,36060,36076,36089,36107,36126,36144,36161,36178,36195,36212,36228,36245,36262,36278,36296,36312,36329,36346,36363,36377,36389,36403,36418,36434,36450,36467,36480,36498,36513,36531,36546,36560,36578,36589,36606,36624,36639,36655,36670,36687,36703,36718,36731,36749,36764,36780,36796,36815,36830,36844,36860,36876,36890,36908,36926,36944,36961,36976,36989,37007,37027,37044,37062,37077,37094,37108,37126,37142,37160,37176,37190,37202,37221,37237,37251,37265,37280,37293,37306,37324,37341,37355,37368,37384,37400,37416,37433,37449,37468,37484,37502,37517,37534,37549,37566,37582,37597,37615,37632,37649,37665,37683,37699,37716,37733,37749,37766,37782,37799,37816,37833,37849,37865,37883,37899,37915,37932,37947,37965,37980,37994,38011,38026,38042,38059,38076,38091,38105,38124,38138,38151,38167,38183,38200,38216,38232,38249,38266,38282,38299,38315,38333,38347,38363,38379,38395,38409,38422,38441,38455,38471,38488,38505,38521,38534,38548,38564,38580,38596,38609,38625,38642,38658,38674,38690,38708,38725,38741,38757,38774,38791,38807,38824,38840,38858,38872,38887,38904,38920,38934,38952,38970,38984,39002,39017,39035,39051,39068,39084,39096,39110,39129,39146,39160,39176,39190,39203,39216,39230,39246,39260,39276,39291,39308,39325,39339,39357,39372,39389,39405,39419,39437,39451,39468,39484,39502,39518,39535,39551,39569,39584,39603,39618,39636,39652,39665,39683,39697,39713,39730,39747,39762,39782,39797,39815,39831,39849,39864,39882,39897,39910,39928,39947,39966,39983,39998,40011,40028,40048,40066,40083,40098,40111,40128,40148,40166,40183,40197,40211,40223,40240,40257,40272,40288,40306,40324,40342,40360,40378,40395,40413,40429,40446,40463,40480,40496,40513,40529,40545,40562,40579,40596,40613,40629,40643,40659,40675,40693,40708,40726,40742,40759,40775,40792,40809,40825,40842,40856,40874,40889,40905,40921,40937,40954,40971,40987,41004,41021,41037,41054,41070,41085,41103,41118,41132,41144,41163,41179,41192,41208,41225,41242,41258,41274,41291,41308,41324,41341,41356,41374,41390,41405,41424,41439,41454,41470,41487,41501,41519,41535,41553,41568,41585,41600,41619,41634,41652,41667,41685,41701,41715,41732,41751,41768,41787,41802,41815,41827,41845,41862,41877,41892,41906,41923,41939,41955,41971,41987,42004,42020,42037,42053,42070,42087,42103,42120,42137,42154,42170,42186,42204,42221,42238,42253,42270,42286,42305,42323,42341,42358,42374,42391,42408,42425,42441,42458,42472,42488,42504,42520,42535,42548,42564,42580,42596,42612,42631,42647,42661,42678,42693,42706,42719,42736,42754,42767,42783,42802,42817,42831,42849,42863,42876,42890,42908,42924,42939,42954,42972,42989,43002,43018,43034,43052,43068,43081,43098,43113,43127,43145,43164,43182,43198,43213,43231,43246,43260,43273,43285,43303,43320,43333,43349,43363,43382,43397,43413,43429,43443,43460,43476,43492,43508,43526,43542,43556,43572,43588,43606,43621,43634,43652,43668,43683,43699,43715,43732,43749,43765,43782,43799,43815,43831,43849,43866,43882,43897,43916,43931,43946,43959,43975,43989,44001,44014,44028,44043,44056,44068,44081,44093,44107,44121,44136,44151,44169,44185,44200,44217,44233,44247,44263,44278,44297,44311,44325,44342,44357,44373,44389,44404,44421,44439,44455,44474,44487,44503,44518,44533,44549,44563,44580,44595,44614,44629,44643,44660,44674,44689,44706,44721,44739,44753,44768,44785,44799,44813,44826,44845],"hit":[null],"x":[-2,-2,-2,-2,-2,-2,-2,-2,-2,-2,-2,-2,-2,-2,-2,-2,-2,-2,-2,-2,-2,-2,-2,-2,-2,-2,-2,-2,-2,-2,-2,-2,-2,-2,-2,-2,-2,-2,-2,-2,-2,-2,-2,-2,-2,-2,-2,-2,-2,-2,-2,-2,-2,-2,-2,-2,-2,-2,-2,-2,-2,-2,-2,-2,-2,-2,-2,-2,-2,-2,-2,-2,-2,-2,-2,-2,-2,-2,-2,-2,-2,-2,-2,-2,-2,-2,-2,-2,-2,-2,-2,-2,-2,-2,-2,-2,-2,-2,-2,-2,-2,-2,-2,-2,-2,-2,-2,-2,-2,-2,-2,-2,-2,-2,-2,-2,-2,-2,-2,-2,-2,-2,-2,-2,-2,-2,-2,-2,-2,-2,-2,-2,-2,-2,-2,-2,-2,-2,-2,-2,-2,-2,-2,-2,-2,-2,-2,-2,-2,-2,-2,-2,-2,-2,-2,-2,-2,-2,-2,-2,-2,-2,-2,-0.3010204081632653,-0.3010204081632653,-0.3010204081632653,-0.3010204081632653,-0.2976190476190476,-0.29081632653061223,-0.28401360544217685,-0.28061224489795916,-0.27380952380952384,-0.27040816326530615,-0.26360544217687076,-0.2602040816326531,-0.2534013605442177,-0.2534013605442177,-0.25,-0.2465986394557823,-0.24319727891156462,-0.23979591836734693,-0.23979591836734693,-0.23979591836734693,-0.23979591836734693,-0.23979591836734693,-0.23979591836734693,-0.23979591836734693,-0.23979591836734693,-0.23979591836734693,-0.23979591836734693,-0.23979591836734693,-0.23979591836734693,-0.23979591836734693,-0.23979591836734693,-0.23979591836734693,-0.23979591836734693,-0.23979591836734693,-0.23979591836734693,-0.23979591836734693,-0.23979591836734693,-0.23979591836734693,-0.23979591836734693,-0.23979591836734693,-0.23979591836734693,-0.23979591836734693,-0.23979591836734693,-0.23979591836734693,-0.23979591836734693,-0.23979591836734693,-0.23979591836734693,-0.23979591836734693,-0.23979591836734693,-0.23979591836734693,-0.23979591836734693,-0.23979591836734693,-0.23979591836734693,-0.23979591836734693,-0.23979591836734693,-0.23979591836734693,-0.23979591836734693,-0.23979591836734693,-0.23979591836734693,-0.23979591836734693,-0.23979591836734693,-0.23979591836734693,-0.23979591836734693,-0.23979591836734693,-0.23979591836734693,-0.23979591836734693,-0.23979591836734693,-0.23979591836734693,-0.23979591836734693,-0.23979591836734693,-0.23979591836734693,-0.23979591836734693,-0.23979591836734693,-0.23979591836734693,-0.23979591836734693,-0.23979591836734693,-0.23979591836734693,-0.23979591836734693,-0.23979591836734693,-0.23979591836734693,-0.23979591836734693,-0.23979591836734693,-0.23979591836734693,-0.23979591836734693,-0.23979591836734693,-0.23979591836734693,-0.23979591836734693,-0.23979591836734693,-0.23979591836734693,-0.23979591836734693,-0.23979591836734693,-0.23979591836734693,-0.23979591836734693,-0.23979591836734693,-0.23979591836734693,-0.23979591836734693,-0.23979591836734693,-0.23979591836734693,-0.23979591836734693,-0.23979591836734693,-0.23979591836734693,-0.23979591836734693,-0.23979591836734693,-0.23979591836734693,-0.23979591836734693,-0.23979591836734693,-0.23979591836734693,-0.23979591836734693,-0.23979591836734693,-0.23979591836734693,-0.23979591836734693,-0.23979591836734693,-0.23979591836734693,-0.23979591836734693,-0.23979591836734693,-0.23979591836734693,-0.23979591836734693,-0.23979591836734693,-0.23979591836734693,-0.23979591836734693,-0.23979591836734693,-0.23979591836734693,-0.23979591836734693,-0.23979591836734693,-0.23979591836734693,-0.23979591836734693,-0.23979591836734693,-0.23979591836734693,-0.23979591836734693,-0.23979591836734693,-0.23979591836734693,-0.23979591836734693,-0.23979591836734693,-0.23979591836734693,-0.23979591836734693,-0.23979591836734693,-0.23979591836734693,-0.23979591836734693,-0.23979591836734693,-0.23979591836734693,-0.23979591836734693,-0.23979591836734693,-0.23979591836734693,-0.23979591836734693,-0.23979591836734693,-0.23979591836734693,-0.23979591836734693,-0.23979591836734693,-0.23979591836734693,-0.23979591836734693,-0.23979591836734693,-0.23979591836734693,-0.23979591836734693,-0.23979591836734693,-0.23979591836734693,-0.23979591836734693,-0.23979591836734693,-0.23979591836734693,-0.23979591836734693,-0.23979591836734693,-0.23979591836734693,-0.23979591836734693,-0.23979591836734693,-0.23979591836734693,-0.23979591836734693,-0.23979591836734693,-0.23979591836734693,-0.23979591836734693,-0.23979591836734693,-0.23979591836734693,-0.23979591836734693,-0.23979591836734693,-0.23979591836734693,-0.23979591836734693,-0.23979591836734693,-0.23979591836734693,-0.23979591836734693,-0.23979591836734693,-0.23979591836734693,-0.23979591836734693,-0.23979591836734693,-0.23979591836734693,-0.23979591836734693,-0.23979591836734693,-0.23979591836734693,-0.23979591836734693,-0.23979591836734693,-0.23979591836734693,-0.23979591836734693,-0.23979591836734693,-0.23979591836734693,-0.23979591836734693,-0.23979591836734693,-0.23979591836734693,-0.23979591836734693,-0.23979591836734693,-0.23979591836734693,-0.23979591836734693,-0.23979591836734693,-0.23979591836734693,-0.23979591836734693,-0.23979591836734693,-0.23979591836734693,-0.23979591836734693,-0.23979591836734693,-0.23979591836734693,-0.23979591836734693,-0.23979591836734693,-0.23979591836734693,-0.23979591836734693,-0.23979591836734693,-0.23979591836734693,-0.23979591836734693,-0.23979591836734693,-0.23979591836734693,-0.23979591836734693,-0.23979591836734693,-0.23979591836734693,-0.23979591836734693,-0.23979591836734693,-0.23979591836734693,-0.23979591836734693,-0.23979591836734693,-0.23979591836734693,-0.23979591836734693,-0.23979591836734693,-0.23979591836734693,-0.23979591836734693,-0.23979591836734693,-0.23979591836734693,-0.23979591836734693,-0.23979591836734693,-0.23979591836734693,-0.23979591836734693,-0.23979591836734693,-0.23979591836734693,-0.23979591836734693,-0.23979591836734693,-0.23979591836734693,-0.23979591836734693,-0.23979591836734693,-0.23979591836734693,-0.23979591836734693,-0.23979591836734693,-0.23979591836734693,-0.23979591836734693,-0.23979591836734693,-0.23979591836734693,-0.23979591836734693,-0.23979591836734693,-0.23979591836734693,-0.23979591836734693,-0.23979591836734693,-0.23979591836734693,-0.23979591836734693,-0.23979591836734693,-0.23979591836734693,-0.23979591836734693,-0.23979591836734693,-0.23979591836734693,-0.23979591836734693,-0.23979591836734693,-0.23979591836734693,-0.23979591836734693,-0.23979591836734693,-0.23979591836734693,-0.23979591836734693,-0.23979591836734693,-0.23979591836734693,-0.23979591836734693,-0.23979591836734693,-0.23979591836734693,-0.23979591836734693,-0.23979591836734693,-0.23979591836734693,-0.23979591836734693,-0.23979591836734693,-0.23979591836734693,-0.23979591836734693,-0.23979591836734693,-0.23979591836734693,-0.23979591836734693,-0.23979591836734693,-0.23979591836734693,-0.23979591836734693,-0.23979591836734693,-0.23979591836734693,-0.23979591836734693,-0.23979591836734693,-0.23979591836734693,-0.23979591836734693,-0.23979591836734693,-0.23979591836734693,-0.23979591836734693,-0.23979591836734693,-0.23979591836734693,-0.23979591836734693,-0.23979591836734693,-0.23979591836734693,-0.23979591836734693,-0.23979591836734693,-0.23979591836734693,-0.23979591836734693,-0.23979591836734693,-0.23979591836734693,-0.23979591836734693,-0.23979591836734693,-0.23979591836734693,-0.23979591836734693,-0.23979591836734693,-0.23979591836734693,-0.23979591836734693,-0.23979591836734693,-0.23979591836734693,-0.23979591836734693,-0.23979591836734693,-0.23979591836734693,-0.23979591836734693,-0.23979591836734693,-0.23979591836734693,-0.23979591836734693,-0.23979591836734693,-0.23979591836734693,-0.23979591836734693,-0.23979591836734693,-0.23979591836734693,-0.23979591836734693,-0.23979591836734693,-0.23979591836734693,-0.23979591836734693,-0.23979591836734693,-0.23979591836734693,-0.23979591836734693,-0.23979591836734693,-0.23979591836734693,-0.23979591836734693,-0.23979591836734693,-0.23979591836734693,-0.23639455782312926,-0.23299319727891157,-0.2227891156462585,-0.21258503401360543,-0.195578231292517,-0.17857142857142858,-0.15816326530612246,-0.13095238095238096,-0.11394557823129252,-0.10034013605442177,-0.08673469387755102,-0.07312925170068027,-0.06292517006802721,-0.05272108843537415,-0.04591836734693878,-0.03231292517006803,-0.02891156462585034,-0.02891156462585034,-0.02891156462585034,-0.02891156462585034,-0.02891156462585034,-0.02891156462585034,-0.02891156462585034,-0.02891156462585034,-0.02891156462585034,-0.02891156462585034,-0.02891156462585034,-0.02891156462585034,-0.02891156462585034,-0.02891156462585034,-0.02891156462585034,-0.022108843537414966,-0.00510204081632653,0.01870748299319728,0.04931972789115646,0.07993197278911565,0.10714285714285714,0.12074829931972789,0.1445578231292517,0.15476190476190477,0.1649659863945578,0.1717687074829932,0.18197278911564627,0.18877551020408162,0.195578231292517,0.20238095238095238,0.20578231292517007,0.20578231292517007,0.20918367346938777,0.20918367346938777,0.20918367346938777,0.20918367346938777,0.20918367346938777,0.20918367346938777,0.20918367346938777,0.20918367346938777,0.20918367346938777,0.20918367346938777,0.20918367346938777,0.20918367346938777,0.20918367346938777,0.20918367346938777,0.20918367346938777,0.20918367346938777,0.20918367346938777,0.20918367346938777,0.20918367346938777,0.20918367346938777,0.20918367346938777,0.20918367346938777,0.20918367346938777,0.20918367346938777,0.20918367346938777,0.20918367346938777,0.20918367346938777,0.20918367346938777,0.20918367346938777,0.20918367346938777,0.20918367346938777,0.20918367346938777,0.20918367346938777,0.20918367346938777,0.20918367346938777,0.20918367346938777,0.20918367346938777,0.20918367346938777,0.20918367346938777,0.20918367346938777,0.20918367346938777,0.20918367346938777,0.20918367346938777,0.20918367346938777,0.20918367346938777,0.20918367346938777,0.20918367346938777,0.20918367346938777,0.20918367346938777,0.20918367346938777,0.21258503401360543,0.21258503401360543,0.21258503401360543,0.21258503401360543,0.21598639455782312,0.21598639455782312,0.2193877551020408,0.2193877551020408,0.2193877551020408,0.2193877551020408,0.21258503401360543,0.20918367346938777,0.20238095238095238,0.20238095238095238,0.1989795918367347,0.1989795918367347,0.195578231292517,0.1921768707482993,0.17857142857142858,0.16156462585034015,0.15136054421768708,0.12074829931972789,0.09013605442176871,0.06972789115646258,0.0391156462585034,0.022108843537414966,0.015306122448979591,0.00510204081632653,0.0017006802721088435,-0.00510204081632653,-0.008503401360544218,-0.011904761904761904,-0.015306122448979591,-0.01870748299319728,-0.01870748299319728,-0.01870748299319728,-0.01870748299319728,-0.01870748299319728,-0.011904761904761904,-0.008503401360544218,-0.008503401360544218,-0.00510204081632653,-0.00510204081632653,-0.00510204081632653,-0.0017006802721088435,-0.0017006802721088435,-0.0017006802721088435,-0.0017006802721088435,-0.0017006802721088435,-0.0017006802721088435,-0.0017006802721088435,-0.0017006802721088435,-0.0017006802721088435,-0.0017006802721088435,-0.0017006802721088435,-0.0017006802721088435,-0.0017006802721088435,-0.0017006802721088435,-0.0017006802721088435,-0.0017006802721088435,-0.0017006802721088435,-0.0017006802721088435,-0.0017006802721088435,-0.0017006802721088435,-0.0017006802721088435,-0.0017006802721088435,-0.0017006802721088435,-0.0017006802721088435,-0.0017006802721088435,-0.0017006802721088435,-0.0017006802721088435,-0.0017006802721088435,-0.0017006802721088435,-0.0017006802721088435,-0.0017006802721088435,-0.0017006802721088435,-0.0017006802721088435,-0.0017006802721088435,-0.0017006802721088435,-0.0017006802721088435,-0.0017006802721088435,-0.0017006802721088435,-0.0017006802721088435,-0.00510204081632653,-0.00510204081632653,-0.008503401360544218,-0.011904761904761904,-0.011904761904761904,-0.011904761904761904,-0.008503401360544218,0.0017006802721088435,0.011904761904761904,0.02891156462585034,0.04591836734693878,0.06292517006802721,0.08333333333333333,0.10714285714285714,0.12755102040816327,0.14795918367346939,0.16156462585034015,0.17517006802721088,0.18877551020408162,0.1921768707482993,0.195578231292517,0.195578231292517,0.195578231292517,0.195578231292517,0.195578231292517,0.195578231292517,0.195578231292517,0.195578231292517,0.195578231292517,0.195578231292517,0.195578231292517,0.195578231292517,0.195578231292517,0.195578231292517,0.195578231292517,0.195578231292517,0.195578231292517,0.195578231292517,0.195578231292517,0.195578231292517,0.195578231292517,0.195578231292517,0.195578231292517,0.195578231292517,0.195578231292517,0.195578231292517,0.195578231292517,0.195578231292517,0.195578231292517,0.195578231292517,0.1921768707482993,0.1921768707482993,0.18877551020408162,0.18877551020408162,0.18537414965986396,0.18197278911564627,0.17857142857142858,0.17857142857142858,0.17517006802721088,0.1717687074829932,0.1717687074829932,0.1717687074829932,0.1717687074829932,0.1717687074829932,0.1683673469387755,0.1683673469387755,0.1683673469387755,0.1683673469387755,0.1683673469387755,0.1683673469387755,0.1683673469387755,0.1683673469387755,0.1683673469387755,0.1683673469387755,0.1683673469387755,0.1683673469387755,0.1683673469387755,0.1683673469387755,0.1683673469387755,0.1683673469387755,0.1683673469387755,0.1683673469387755,0.1683673469387755,0.1683673469387755,0.1683673469387755,0.1683673469387755,0.18197278911564627,0.20918367346938777,0.2465986394557823,0.27380952380952384,0.304421768707483,0.3282312925170068,0.33843537414965985,0.34523809523809523,0.3520408163265306,0.3554421768707483,0.3554421768707483,0.3554421768707483,0.358843537414966,0.358843537414966,0.358843537414966,0.358843537414966,0.358843537414966,0.358843537414966,0.358843537414966,0.358843537414966,0.358843537414966,0.358843537414966,0.358843537414966,0.358843537414966,0.358843537414966,0.358843537414966,0.358843537414966,0.358843537414966,0.358843537414966,0.358843537414966,0.358843537414966,0.358843537414966,0.358843537414966,0.358843537414966,0.358843537414966,0.3622448979591837,0.3792517006802721,0.39965986394557823,0.4166666666666667,0.4268707482993197,0.4336734693877551,0.44047619047619047,0.44387755102040816,0.44387755102040816,0.44727891156462585,0.44727891156462585,0.44727891156462585,0.44727891156462585,0.44727891156462585,0.44727891156462585,0.44727891156462585,0.44727891156462585,0.45068027210884354,0.45408163265306123,0.4608843537414966,0.467687074829932,0.4710884353741497,0.477891156462585,0.4812925170068027,0.4880952380952381,0.49829931972789115,0.5119047619047619,0.5255102040816326,0.5459183673469388,0.5595238095238095,0.5663265306122449,0.5731292517006803,0.576530612244898,0.5833333333333334,0.5867346938775511,0.5935374149659864,0.6003401360544217,0.6037414965986394,0.6071428571428571,0.6105442176870748,0.6173469387755102,0.6207482993197279,0.6241496598639455,0.6309523809523809,0.6309523809523809,0.6309523809523809,0.6309523809523809,0.6309523809523809,0.6309523809523809,0.6309523809523809,0.6309523809523809,0.6309523809523809,0.6309523809523809,0.6309523809523809,0.6309523809523809,0.6309523809523809,0.6309523809523809,0.6309523809523809,0.6309523809523809,0.6309523809523809,0.6309523809523809,0.6309523809523809,0.6309523809523809,0.6309523809523809,0.6309523809523809,0.6309523809523809,0.6309523809523809,0.6309523809523809,0.6309523809523809,0.6309523809523809,0.6309523809523809,0.6309523809523809,0.6309523809523809,0.6309523809523809,0.6309523809523809,0.6309523809523809,0.6309523809523809,0.6309523809523809,0.6309523809523809,0.6309523809523809,0.6309523809523809,0.6309523809523809,0.6309523809523809,0.6309523809523809,0.6309523809523809,0.6309523809523809,0.6309523809523809,0.6309523809523809,0.6309523809523809,0.6309523809523809,0.6309523809523809,0.6309523809523809,0.6309523809523809,0.6309523809523809,0.6309523809523809,0.6309523809523809,0.6309523809523809,0.6309523809523809,0.641156462585034,0.6479591836734694,0.6581632653061225,0.6649659863945578,0.6751700680272109,0.6819727891156463,0.6887755102040817,0.6921768707482994,0.6955782312925171,0.6989795918367347,0.6989795918367347,0.6989795918367347,0.6989795918367347,0.6989795918367347,0.6989795918367347,0.6989795918367347,0.6989795918367347,0.6989795918367347,0.6989795918367347,0.6989795918367347,0.6989795918367347,0.6989795918367347,0.6989795918367347,0.6989795918367347,0.6989795918367347,0.6989795918367347,0.6989795918367347,0.6989795918367347,0.6989795918367347,0.6989795918367347,0.6989795918367347,0.6989795918367347,0.6989795918367347,0.6989795918367347,0.6989795918367347,0.6989795918367347,0.6989795918367347,0.6989795918367347,0.6989795918367347,0.6989795918367347,0.6989795918367347,0.6989795918367347,0.6989795918367347,0.6989795918367347,0.6989795918367347,0.6989795918367347,0.6989795918367347,0.6989795918367347,0.6989795918367347,0.6989795918367347,0.6989795918367347,0.6989795918367347,0.6989795918367347,0.6989795918367347,0.6989795918367347,0.6989795918367347,0.6989795918367347,0.6989795918367347,0.6989795918367347,0.6989795918367347,0.6989795918367347,0.6989795918367347,0.6989795918367347,0.6955782312925171,0.6921768707482994,0.6921768707482994,0.6887755102040817,0.6887755102040817,0.6887755102040817,0.6887755102040817,0.6887755102040817,0.6887755102040817,0.6887755102040817,0.6887755102040817,0.6887755102040817,0.6887755102040817,0.6887755102040817,0.6887755102040817,0.6887755102040817,0.6887755102040817,0.6887755102040817,0.6887755102040817,0.6887755102040817,0.6887755102040817,0.6887755102040817,0.6887755102040817,0.6887755102040817,0.6887755102040817,0.6887755102040817,0.6887755102040817,0.685374149659864,0.6717687074829932,0.6581632653061225,0.6479591836734694,0.6309523809523809,0.6105442176870748,0.5901360544217688,0.5799319727891157,0.5697278911564626,0.5663265306122449,0.5663265306122449,0.5663265306122449,0.5663265306122449,0.5663265306122449,0.5663265306122449,0.5663265306122449,0.5663265306122449,0.5663265306122449,0.5663265306122449,0.5663265306122449,0.5663265306122449,0.5663265306122449,0.5663265306122449,0.5663265306122449,0.5663265306122449,0.5527210884353742,0.5289115646258503,0.5017006802721088,0.4710884353741497,0.44387755102040816,0.4268707482993197,0.4030612244897959,0.38945578231292516,0.3792517006802721,0.3792517006802721,0.3792517006802721,0.3792517006802721,0.3792517006802721,0.3792517006802721,0.3792517006802721,0.3792517006802721,0.3792517006802721,0.3792517006802721,0.3792517006802721,0.3758503401360544,0.36904761904761907,0.358843537414966,0.33503401360544216,0.2976190476190476,0.2568027210884354,0.2193877551020408,0.1989795918367347,0.18197278911564627,0.1683673469387755,0.16156462585034015,0.15816326530612246,0.15816326530612246,0.15816326530612246,0.15816326530612246,0.15816326530612246,0.15816326530612246,0.15816326530612246,0.15816326530612246,0.16156462585034015,0.16156462585034015,0.16156462585034015,0.1649659863945578,0.1649659863945578,0.1649659863945578,0.1649659863945578,0.1649659863945578,0.1649659863945578,0.1649659863945578,0.1649659863945578,0.1649659863945578,0.1649659863945578,0.1717687074829932,0.17517006802721088,0.1921768707482993,0.20238095238095238,0.21258503401360543,0.2261904761904762,0.23639455782312926,0.2465986394557823,0.2534013605442177,0.2602040816326531,0.26700680272108845,0.27380952380952384,0.28061224489795916,0.28061224489795916,0.28401360544217685,0.28401360544217685,0.28401360544217685,0.28401360544217685,0.28401360544217685,0.28741496598639454,0.28741496598639454,0.29081632653061223,0.29081632653061223,0.29081632653061223,0.29081632653061223,0.29081632653061223,0.29081632653061223,0.29081632653061223,0.29081632653061223,0.29081632653061223,0.29081632653061223,0.29081632653061223,0.29081632653061223,0.29081632653061223,0.29081632653061223,0.29081632653061223,0.29081632653061223,0.29081632653061223,0.29081632653061223,0.29081632653061223,0.29081632653061223,0.29081632653061223,0.29081632653061223,0.29081632653061223,0.29081632653061223,0.29081632653061223,0.29081632653061223,0.29081632653061223,0.29081632653061223,0.29081632653061223,0.29081632653061223,0.29081632653061223,0.29081632653061223,0.29081632653061223,0.29081632653061223,0.29081632653061223,0.29081632653061223,0.29081632653061223,0.29081632653061223,0.29081632653061223,0.29081632653061223,0.29081632653061223,0.29081632653061223,0.29081632653061223,0.29081632653061223,0.29081632653061223,0.29081632653061223,0.29081632653061223,0.29081632653061223,0.29081632653061223,0.29081632653061223,0.29081632653061223,0.29081632653061223,0.29081632653061223,0.29081632653061223,0.29081632653061223,0.29081632653061223,0.29081632653061223,0.29081632653061223,0.29081632653061223,0.29081632653061223,0.29081632653061223,0.29081632653061223,0.29081632653061223,0.2976190476190476,0.3112244897959184,0.33163265306122447,0.3520408163265306,0.3656462585034014,0.3826530612244898,0.39285714285714285,0.4064625850340136,0.4268707482993197,0.44047619047619047,0.45068027210884354,0.4608843537414966,0.467687074829932,0.4710884353741497,0.4710884353741497,0.4744897959183674,0.4744897959183674,0.4744897959183674,0.4744897959183674,0.4744897959183674,0.4744897959183674,0.4744897959183674,0.4744897959183674,0.4744897959183674,0.4744897959183674,0.4744897959183674,0.4744897959183674,0.4744897959183674,0.4744897959183674,0.4744897959183674,0.4744897959183674,0.4744897959183674,0.4744897959183674,0.4846938775510204,0.49489795918367346,0.5051020408163265,0.5119047619047619,0.5187074829931972,0.5221088435374149,0.5221088435374149,0.5221088435374149,0.5221088435374149,0.5221088435374149,0.5221088435374149,0.5221088435374149,0.5221088435374149,0.5221088435374149,0.5221088435374149,0.5221088435374149,0.5221088435374149,0.5221088435374149,0.5221088435374149,0.5221088435374149,0.5221088435374149,0.5221088435374149,0.5221088435374149,0.5221088435374149,0.5221088435374149,0.5221088435374149,0.5221088435374149,0.5221088435374149,0.5221088435374149,0.5221088435374149,0.5221088435374149,0.5221088435374149,0.5221088435374149,0.5221088435374149,0.5221088435374149,0.5221088435374149,0.5221088435374149,0.5221088435374149,0.5221088435374149,0.5221088435374149,0.5221088435374149,0.5221088435374149,0.5221088435374149,0.5221088435374149,0.5221088435374149,0.5221088435374149,0.5221088435374149,0.5221088435374149,0.5221088435374149,0.5221088435374149,0.5221088435374149,0.5221088435374149,0.5221088435374149,0.5221088435374149,0.5221088435374149,0.5221088435374149,0.5221088435374149,0.5221088435374149,0.5221088435374149,0.5221088435374149,0.5221088435374149,0.5221088435374149,0.5221088435374149,0.5221088435374149,0.5221088435374149,0.5221088435374149,0.5221088435374149,0.5221088435374149,0.5221088435374149,0.5221088435374149,0.5221088435374149,0.5221088435374149,0.5221088435374149,0.5221088435374149,0.5221088435374149,0.5221088435374149,0.5221088435374149,0.5153061224489796,0.5051020408163265,0.4846938775510204,0.4370748299319728,0.38605442176870747,0.31802721088435376,0.23979591836734693,0.15816326530612246,0.12414965986394558,0.0935374149659864,0.0935374149659864,0.0935374149659864,0.0935374149659864,0.0935374149659864,0.0935374149659864,0.0935374149659864,0.0935374149659864,0.0935374149659864,0.0935374149659864,0.0935374149659864,0.0935374149659864,0.0935374149659864,0.0935374149659864,0.0935374149659864,0.0935374149659864,0.0935374149659864,0.0935374149659864,0.0935374149659864,0.0935374149659864,0.0935374149659864,0.0935374149659864,0.0935374149659864,0.0935374149659864,0.08673469387755102,0.08673469387755102,0.08333333333333333,0.07993197278911565,0.07993197278911565,0.07993197278911565,0.07993197278911565,0.07993197278911565,0.07993197278911565,0.07993197278911565,0.07993197278911565,0.07993197278911565,0.07993197278911565,0.07993197278911565,0.07993197278911565,0.07993197278911565,0.07993197278911565,0.07993197278911565,0.07993197278911565,0.07993197278911565,0.07993197278911565,0.07993197278911565,0.07993197278911565,0.07993197278911565,0.07993197278911565,0.07993197278911565,0.07993197278911565,0.07993197278911565,0.07993197278911565,0.07993197278911565,0.07993197278911565,0.07993197278911565,0.07993197278911565,0.07993197278911565,0.07993197278911565,0.07993197278911565,0.07993197278911565,0.07993197278911565,0.07993197278911565,0.07993197278911565,0.07993197278911565,0.07993197278911565,0.07993197278911565,0.07993197278911565,0.07993197278911565,0.07993197278911565,0.07993197278911565,0.07993197278911565,0.07993197278911565,0.07993197278911565,0.07993197278911565,0.07993197278911565,0.07993197278911565,0.07993197278911565,0.07993197278911565,0.07993197278911565,0.07993197278911565,0.07993197278911565,0.07993197278911565,0.07993197278911565,0.07993197278911565,0.07993197278911565,0.07993197278911565,0.07993197278911565,0.07993197278911565,0.07993197278911565,0.07993197278911565,0.07993197278911565,0.07993197278911565,0.07993197278911565,0.07993197278911565,0.07993197278911565,0.07993197278911565,0.07993197278911565,0.07993197278911565,0.07993197278911565,0.07993197278911565,0.07993197278911565,0.07993197278911565,0.07993197278911565,0.07993197278911565,0.07993197278911565,0.07993197278911565,0.08333333333333333,0.09013605442176871,0.10374149659863946,0.11394557823129252,0.12414965986394558,0.1377551020408163,0.14795918367346939,0.15816326530612246,0.1649659863945578,0.1683673469387755,0.1683673469387755,0.1717687074829932,0.1717687074829932,0.1717687074829932,0.1717687074829932,0.1717687074829932,0.1717687074829932,0.1717687074829932,0.1717687074829932,0.1717687074829932,0.1717687074829932,0.1717687074829932,0.1717687074829932,0.1717687074829932,0.1717687074829932,0.1717687074829932,0.1717687074829932,0.1717687074829932,0.1717687074829932,0.1717687074829932,0.1717687074829932,0.1717687074829932,0.1717687074829932,0.1717687074829932,0.1717687074829932,0.1717687074829932,0.1717687074829932,0.1717687074829932,0.1717687074829932,0.1717687074829932,0.1717687074829932,0.1717687074829932,0.1717687074829932,0.1717687074829932,0.1717687074829932,0.1717687074829932,0.1717687074829932,0.1717687074829932,0.1717687074829932,0.1717687074829932,0.1717687074829932,0.1717687074829932,0.1717687074829932,0.1717687074829932,0.1717687074829932,0.1717687074829932,0.1717687074829932,0.1717687074829932,0.1717687074829932,0.1717687074829932,0.1717687074829932,0.1717687074829932,0.1717687074829932,0.1717687074829932,0.1717687074829932,0.1717687074829932,0.1717687074829932,0.1717687074829932,0.1717687074829932,0.1717687074829932,0.1717687074829932,0.1717687074829932,0.1717687074829932,0.1717687074829932,0.1717687074829932,0.1717687074829932,0.1717687074829932,0.1717687074829932,0.1717687074829932,0.1717687074829932,0.1717687074829932,0.1717687074829932,0.1717687074829932,0.1717687074829932,0.1717687074829932,0.1717687074829932,0.1717687074829932,0.1717687074829932,0.1717687074829932,0.1717687074829932,0.1717687074829932,0.1717687074829932,0.1717687074829932,0.1717687074829932,0.1717687074829932,0.1717687074829932,0.1717687074829932,0.1717687074829932,0.1717687074829932,0.1717687074829932,0.1717687074829932,0.1717687074829932,0.1717687074829932,0.1717687074829932,0.1717687074829932,0.1717687074829932,0.1717687074829932,0.1717687074829932,0.1717687074829932,0.1717687074829932,0.1717687074829932,0.1717687074829932,0.1717687074829932,0.1717687074829932,0.1717687074829932,0.1717687074829932,0.1717687074829932,0.1717687074829932,0.1717687074829932,0.1717687074829932,0.1717687074829932,0.1717687074829932,0.1717687074829932,0.1717687074829932,0.1717687074829932,0.1717687074829932,0.1717687074829932,0.1717687074829932,0.1717687074829932,0.1717687074829932,0.1717687074829932,0.1717687074829932,0.1717687074829932,0.1717687074829932,0.1717687074829932,0.1717687074829932,0.1717687074829932,0.1717687074829932,0.1717687074829932,0.1717687074829932,0.1717687074829932,0.1717687074829932,0.1717687074829932,0.1717687074829932,0.1717687074829932,0.1717687074829932,0.1717687074829932,0.1717687074829932,0.1717687074829932,0.1717687074829932,0.1717687074829932,0.1717687074829932,0.1717687074829932,0.1717687074829932,0.1717687074829932,0.1717687074829932,0.1717687074829932,0.1717687074829932,0.1717687074829932,0.1717687074829932,0.1717687074829932,0.1717687074829932,0.1717687074829932,0.1717687074829932,0.1717687074829932,0.1717687074829932,0.1717687074829932,0.1717687074829932,0.1717687074829932,0.1717687074829932,0.1717687074829932,0.1717687074829932,0.1717687074829932,0.1717687074829932,0.1717687074829932,0.1717687074829932,0.1717687074829932,0.1717687074829932,0.1717687074829932,0.1717687074829932,0.1717687074829932,0.1717687074829932,0.1717687074829932,0.1717687074829932,0.1717687074829932,0.1717687074829932,0.1717687074829932,0.1717687074829932,0.1717687074829932,0.1717687074829932,0.1717687074829932,0.1717687074829932,0.1717687074829932,0.1717687074829932,0.1717687074829932,0.1717687074829932,0.1717687074829932,0.1717687074829932,0.1717687074829932,0.1717687074829932,0.1717687074829932,0.1717687074829932,0.1717687074829932,0.1717687074829932,0.1717687074829932,0.1717687074829932,0.1717687074829932,0.1717687074829932,0.1717687074829932,0.1717687074829932,0.1717687074829932,0.1717687074829932,0.1717687074829932,0.1717687074829932,0.1717687074829932,0.1717687074829932,0.1717687074829932,0.1717687074829932,0.1717687074829932,0.1717687074829932,0.1717687074829932,0.1717687074829932,0.1717687074829932,0.1717687074829932,0.1717687074829932,0.1717687074829932,0.1717687074829932,0.1717687074829932,0.1717687074829932,0.1717687074829932,0.1717687074829932,0.1717687074829932,0.1717687074829932,0.1717687074829932,0.1717687074829932,0.1717687074829932,0.1717687074829932,0.1717687074829932,0.1717687074829932,0.1717687074829932,0.1717687074829932,0.1717687074829932,0.1717687074829932,0.1717687074829932,0.1717687074829932,0.1717687074829932,0.1717687074829932,0.1717687074829932,0.1717687074829932,0.1717687074829932,0.1717687074829932,0.1717687074829932,0.1717687074829932,0.1717687074829932,0.1717687074829932,0.1717687074829932,0.1717687074829932,0.1717687074829932,0.1717687074829932,0.1717687074829932,0.1717687074829932,0.1717687074829932,0.1717687074829932,0.1717687074829932,0.1717687074829932,0.1717687074829932,0.1717687074829932,0.1717687074829932,0.1717687074829932,0.1717687074829932,0.1717687074829932,0.1717687074829932,0.1717687074829932,0.1717687074829932,0.1717687074829932,0.1717687074829932,0.1717687074829932,0.1717687074829932,0.1717687074829932,0.1717687074829932,0.1717687074829932,0.1717687074829932,0.1717687074829932,0.1717687074829932,0.1717687074829932,0.1717687074829932,0.1717687074829932,0.1717687074829932,0.1717687074829932,0.1717687074829932,0.1717687074829932,0.1717687074829932,0.1717687074829932,0.1717687074829932,0.1717687074829932,0.1717687074829932,0.1717687074829932,0.1717687074829932,0.1717687074829932,0.1717687074829932,0.1717687074829932,0.1717687074829932,0.1717687074829932,0.1717687074829932,0.1717687074829932,0.1717687074829932,0.1717687074829932,0.1717687074829932,0.1717687074829932,0.1717687074829932,0.1717687074829932,0.1717687074829932,0.1717687074829932,0.1717687074829932,0.1717687074829932,0.1717687074829932,0.1717687074829932,0.1717687074829932,0.1717687074829932,0.1717687074829932,0.1717687074829932,0.1717687074829932,0.1717687074829932,0.1717687074829932,0.1717687074829932,0.1717687074829932,0.1717687074829932,0.1717687074829932,0.1717687074829932,0.1717687074829932,0.1717687074829932,0.1717687074829932,0.1717687074829932,0.1717687074829932,0.1717687074829932,0.1717687074829932,0.1717687074829932,0.1717687074829932,0.18197278911564627,0.20238095238095238,0.22959183673469388,0.2534013605442177,0.29081632653061223,0.3112244897959184,0.33843537414965985,0.36904761904761907,0.4030612244897959,0.4370748299319728,0.4642857142857143,0.4846938775510204,0.49829931972789115,0.5085034013605442,0.5153061224489796,0.5187074829931972,0.5187074829931972,0.5187074829931972,0.5187074829931972,0.5187074829931972,0.5187074829931972,0.5187074829931972,0.5187074829931972,0.5187074829931972,0.5187074829931972,0.5187074829931972,0.5187074829931972,0.5187074829931972,0.5187074829931972,0.5187074829931972,0.5187074829931972,0.5187074829931972,0.5187074829931972,0.5187074829931972,0.5289115646258503,0.5527210884353742,0.5833333333333334,0.6207482993197279,0.6513605442176871,0.6683673469387755,0.6887755102040817,0.7023809523809523,0.7159863945578231,0.7261904761904762,0.7397959183673469,0.7465986394557823,0.7568027210884354,0.7602040816326531,0.7636054421768708,0.7636054421768708,0.7636054421768708,0.7602040816326531,0.7568027210884354,0.7534013605442177,0.7534013605442177,0.75,0.75,0.7465986394557823,0.7465986394557823,0.7465986394557823,0.7465986394557823,0.7465986394557823,0.7465986394557823,0.7465986394557823,0.7465986394557823,0.7465986394557823,0.7465986394557823,0.7465986394557823,0.7465986394557823,0.7465986394557823,0.7465986394557823,0.7465986394557823,0.7465986394557823,0.7465986394557823,0.75,0.7602040816326531,0.7602040816326531,0.7670068027210885,0.7704081632653061,0.7704081632653061,0.7704081632653061,0.7704081632653061,0.7704081632653061,0.7670068027210885,0.7534013605442177,0.7363945578231292,0.7125850340136054,0.6751700680272109,0.641156462585034,0.6173469387755102,0.5969387755102041,0.5833333333333334,0.5833333333333334,0.5833333333333334,0.5833333333333334,0.5833333333333334,0.5833333333333334,0.5833333333333334,0.5833333333333334,0.5833333333333334,0.5833333333333334,0.5833333333333334,0.5833333333333334,0.5799319727891157,0.5697278911564626,0.5425170068027211,0.4914965986394558,0.4200680272108844,0.33163265306122447,0.27721088435374147,0.21258503401360543,0.18537414965986396,0.18537414965986396,0.18537414965986396,0.18537414965986396,0.18537414965986396,0.18537414965986396,0.18537414965986396,0.18537414965986396,0.18537414965986396,0.18537414965986396,0.18537414965986396,0.18537414965986396,0.18537414965986396,0.18537414965986396,0.18537414965986396,0.18537414965986396,0.1717687074829932,0.1649659863945578,0.15816326530612246,0.15476190476190477,0.15136054421768708,0.14795918367346939,0.14795918367346939,0.14795918367346939,0.14795918367346939,0.14795918367346939,0.14795918367346939,0.14795918367346939,0.14795918367346939,0.14795918367346939,0.14795918367346939,0.14795918367346939,0.14795918367346939,0.14795918367346939,0.14795918367346939,0.14795918367346939,0.14795918367346939,0.14795918367346939,0.14795918367346939,0.14795918367346939,0.14795918367346939,0.14795918367346939,0.14795918367346939,0.14795918367346939,0.14795918367346939,0.14795918367346939,0.14795918367346939,0.14795918367346939,0.14795918367346939,0.14795918367346939,0.14795918367346939,0.14795918367346939,0.14795918367346939,0.14795918367346939,0.14795918367346939,0.14795918367346939,0.14795918367346939,0.14795918367346939,0.14795918367346939,0.14795918367346939,0.14795918367346939,0.14795918367346939,0.14795918367346939,0.14795918367346939,0.14795918367346939,0.14795918367346939,0.14795918367346939,0.14795918367346939,0.14795918367346939,0.14795918367346939,0.14795918367346939,0.14795918367346939,0.14795918367346939,0.14795918367346939,0.14795918367346939,0.14795918367346939,0.14795918367346939,0.16156462585034015,0.20578231292517007,0.2465986394557823,0.3010204081632653,0.3554421768707483,0.39285714285714285,0.4302721088435374,0.4608843537414966,0.477891156462585,0.477891156462585,0.477891156462585,0.477891156462585,0.477891156462585,0.477891156462585,0.477891156462585,0.477891156462585,0.477891156462585,0.477891156462585,0.477891156462585,0.477891156462585,0.477891156462585,0.477891156462585,0.477891156462585,0.477891156462585,0.477891156462585,0.477891156462585,0.477891156462585,0.477891156462585,0.4744897959183674,0.4642857142857143,0.45408163265306123,0.4336734693877551,0.4200680272108844,0.4098639455782313,0.4030612244897959,0.39965986394557823,0.39285714285714285,0.38605442176870747,0.3826530612244898,0.3792517006802721,0.3792517006802721,0.3758503401360544,0.3758503401360544,0.3758503401360544,0.3758503401360544,0.3758503401360544,0.3758503401360544,0.3758503401360544,0.3758503401360544,0.3758503401360544,0.3758503401360544,0.3758503401360544,0.3758503401360544,0.3758503401360544,0.3758503401360544,0.3758503401360544,0.3758503401360544,0.3758503401360544,0.3758503401360544,0.3758503401360544,0.3758503401360544,0.3758503401360544,0.3758503401360544,0.3758503401360544,0.3758503401360544,0.3758503401360544,0.3758503401360544,0.3758503401360544,0.3758503401360544,0.3758503401360544,0.3758503401360544,0.3758503401360544,0.3758503401360544,0.3758503401360544,0.3758503401360544,0.3758503401360544,0.3758503401360544,0.3758503401360544,0.3758503401360544,0.3758503401360544,0.3758503401360544,0.3758503401360544,0.3758503401360544,0.3758503401360544,0.3758503401360544,0.3758503401360544,0.3758503401360544,0.3758503401360544,0.3758503401360544,0.3758503401360544,0.3758503401360544,0.3758503401360544,0.3758503401360544,0.3758503401360544,0.3758503401360544,0.3758503401360544,0.3758503401360544,0.3758503401360544,0.3758503401360544,0.3758503401360544,0.3758503401360544,0.3758503401360544,0.3758503401360544,0.3758503401360544,0.3792517006802721,0.38945578231292516,0.4336734693877551,0.4812925170068027,0.532312925170068,0.576530612244898,0.6275510204081632,0.6717687074829932,0.6921768707482994,0.7125850340136054,0.7159863945578231,0.7159863945578231,0.7159863945578231,0.7159863945578231,0.7159863945578231,0.7159863945578231,0.7159863945578231,0.7159863945578231,0.7159863945578231,0.7159863945578231,0.7159863945578231,0.7159863945578231,0.7159863945578231,0.7261904761904762,0.7534013605442177,0.7874149659863946,0.8214285714285714,0.8384353741496599,0.8452380952380952,0.8520408163265306,0.8554421768707483,0.858843537414966,0.858843537414966,0.8622448979591837,0.8656462585034014,0.8690476190476191,0.8724489795918368,0.8724489795918368,0.8724489795918368,0.8724489795918368,0.8758503401360545,0.8758503401360545,0.8792517006802721,0.8826530612244898,0.8894557823129252,0.8962585034013606,0.8962585034013606,0.8996598639455783,0.9030612244897959,0.9030612244897959,0.9098639455782312,0.9166666666666666,0.9268707482993197,0.9370748299319728,0.9506802721088435,0.9608843537414966,0.9642857142857143,0.967687074829932,0.967687074829932,0.967687074829932,0.967687074829932,0.967687074829932,0.9710884353741497,0.9812925170068028,1.0051020408163265,1.032312925170068,1.0697278911564625,1.1003401360544218,1.1173469387755102,1.1377551020408163,1.1479591836734695,1.151360544217687,1.1547619047619047,1.1581632653061225,1.1581632653061225,1.1581632653061225,1.1581632653061225,1.1581632653061225,1.1581632653061225,1.1581632653061225,1.1581632653061225,1.1581632653061225,1.1547619047619047,1.151360544217687,1.151360544217687,1.151360544217687,1.151360544217687,1.151360544217687,1.151360544217687,1.151360544217687,1.151360544217687,1.151360544217687,1.151360544217687,1.151360544217687,1.151360544217687,1.151360544217687,1.151360544217687,1.151360544217687,1.151360544217687,1.151360544217687,1.151360544217687,1.151360544217687,1.151360544217687,1.151360544217687,1.151360544217687,1.151360544217687,1.151360544217687,1.151360544217687,1.151360544217687,1.151360544217687,1.151360544217687,1.151360544217687,1.151360544217687,1.151360544217687,1.151360544217687,1.151360544217687,1.151360544217687,1.151360544217687,1.151360544217687,1.151360544217687,1.151360544217687,1.151360544217687,1.151360544217687,1.1479591836734695,1.1173469387755102,1.0595238095238095,1.022108843537415,0.8860544217687075,0.75,0.6479591836734694,0.5697278911564626,0.4880952380952381,0.4370748299319728,0.4200680272108844,0.4200680272108844,0.4200680272108844,0.4200680272108844,0.4200680272108844,0.4200680272108844,0.4200680272108844,0.4200680272108844,0.4200680272108844,0.4200680272108844,0.4166666666666667,0.4098639455782313,0.4064625850340136,0.4030612244897959,0.4030612244897959,0.39965986394557823,0.39965986394557823,0.39965986394557823,0.39965986394557823,0.39965986394557823,0.4030612244897959,0.4098639455782313,0.42346938775510207,0.4370748299319728,0.45068027210884354,0.4744897959183674,0.4880952380952381,0.5119047619047619,0.5255102040816326,0.5459183673469388,0.5561224489795918,0.5663265306122449,0.5663265306122449,0.5663265306122449,0.5663265306122449,0.5663265306122449,0.5663265306122449,0.5663265306122449,0.5663265306122449,0.5663265306122449,0.5663265306122449,0.5663265306122449,0.5663265306122449,0.5663265306122449,0.5799319727891157,0.5901360544217688,0.6037414965986394,0.6275510204081632,0.6479591836734694,0.6615646258503401,0.6785714285714286,0.6887755102040817,0.6955782312925171,0.6989795918367347,0.7023809523809523,0.7023809523809523,0.70578231292517,0.70578231292517,0.7091836734693877,0.7125850340136054,0.7159863945578231,0.7159863945578231,0.7193877551020408,0.7193877551020408,0.7193877551020408,0.7193877551020408,0.7193877551020408,0.7193877551020408,0.7193877551020408,0.7193877551020408,0.7193877551020408,0.7193877551020408,0.7193877551020408,0.7193877551020408,0.7193877551020408,0.7193877551020408,0.7193877551020408,0.7193877551020408,0.7193877551020408,0.7193877551020408,0.7193877551020408,0.7193877551020408,0.7193877551020408,0.7193877551020408,0.7193877551020408,0.7193877551020408,0.7193877551020408,0.7193877551020408,0.7193877551020408,0.7125850340136054,0.6955782312925171,0.6547619047619048,0.6037414965986394,0.5391156462585034,0.4914965986394558,0.4336734693877551,0.38605442176870747,0.3486394557823129,0.3282312925170068,0.3078231292517007,0.2976190476190476,0.29081632653061223,0.28741496598639454,0.28401360544217685,0.28061224489795916,0.27721088435374147,0.27380952380952384,0.27040816326530615,0.26700680272108845,0.26700680272108845,0.26700680272108845,0.26700680272108845,0.26700680272108845,0.26700680272108845,0.26700680272108845,0.26700680272108845,0.26700680272108845,0.26700680272108845,0.26700680272108845,0.26700680272108845,0.26700680272108845,0.26700680272108845,0.26700680272108845,0.26700680272108845,0.26700680272108845,0.26700680272108845,0.26700680272108845,0.26700680272108845,0.26700680272108845,0.26700680272108845,0.26700680272108845,0.26700680272108845,0.26700680272108845,0.26700680272108845,0.26700680272108845,0.26700680272108845,0.26700680272108845,0.26700680272108845,0.26700680272108845,0.26700680272108845,0.26700680272108845,0.26700680272108845,0.26700680272108845,0.26700680272108845,0.26700680272108845,0.26700680272108845,0.26700680272108845,0.26700680272108845,0.26700680272108845,0.26700680272108845,0.26700680272108845,0.26700680272108845,0.26700680272108845,0.26700680272108845,0.26700680272108845,0.26700680272108845,0.26700680272108845,0.26700680272108845,0.26700680272108845,0.26700680272108845,0.26700680272108845,0.26700680272108845,0.26700680272108845,0.26700680272108845,0.26700680272108845,0.26700680272108845,0.26700680272108845,0.26700680272108845,0.26700680272108845,0.26700680272108845,0.27040816326530615,0.27040816326530615,0.27040816326530615,0.27040816326530615,0.27040816326530615,0.27380952380952384,0.27380952380952384,0.27721088435374147,0.28401360544217685,0.28741496598639454,0.29081632653061223,0.2976190476190476,0.3010204081632653,0.3078231292517007,0.32482993197278914,0.33843537414965985,0.3622448979591837,0.3826530612244898,0.4098639455782313,0.4336734693877551,0.44727891156462585,0.4642857142857143,0.4744897959183674,0.4846938775510204,0.49489795918367346,0.5017006802721088,0.5085034013605442,0.5119047619047619,0.5119047619047619,0.5153061224489796,0.5153061224489796,0.5153061224489796,0.5153061224489796,0.5153061224489796,0.5153061224489796,0.5153061224489796,0.5153061224489796,0.5153061224489796,0.5153061224489796,0.5153061224489796,0.5153061224489796,0.5153061224489796,0.5153061224489796,0.5153061224489796,0.5153061224489796,0.5153061224489796,0.5187074829931972,0.5255102040816326,0.5289115646258503,0.5391156462585034,0.5527210884353742,0.576530612244898,0.5867346938775511,0.6003401360544217,0.6071428571428571,0.6139455782312925,0.6173469387755102,0.6207482993197279,0.6207482993197279,0.6207482993197279,0.6207482993197279,0.6207482993197279,0.6207482993197279,0.6207482993197279,0.6207482993197279,0.6207482993197279,0.6207482993197279,0.6207482993197279,0.6207482993197279,0.6207482993197279,0.6207482993197279,0.6207482993197279,0.6207482993197279,0.6207482993197279,0.6207482993197279,0.6207482993197279,0.6275510204081632,0.6343537414965986,0.6445578231292517,0.6513605442176871,0.6615646258503401,0.6683673469387755,0.6785714285714286,0.685374149659864,0.6921768707482994,0.6989795918367347,0.70578231292517,0.7125850340136054,0.7193877551020408,0.7227891156462585,0.7261904761904762,0.7261904761904762,0.7261904761904762,0.7261904761904762,0.7261904761904762,0.7261904761904762,0.7261904761904762,0.7261904761904762,0.7261904761904762,0.7261904761904762,0.7261904761904762,0.7261904761904762,0.7261904761904762,0.7261904761904762,0.7261904761904762,0.7261904761904762,0.7261904761904762,0.7261904761904762,0.7261904761904762,0.7261904761904762,0.7261904761904762,0.7261904761904762,0.7261904761904762,0.7261904761904762,0.7261904761904762,0.7261904761904762,0.7261904761904762,0.7261904761904762,0.7261904761904762,0.7261904761904762,0.7261904761904762,0.7261904761904762,0.7261904761904762,0.7261904761904762,0.7261904761904762,0.7261904761904762,0.7261904761904762,0.7261904761904762,0.7261904761904762,0.7261904761904762,0.7261904761904762,0.7261904761904762,0.7261904761904762,0.7261904761904762,0.7261904761904762,0.7261904761904762,0.7261904761904762,0.7261904761904762,0.7261904761904762,0.7261904761904762,0.7261904761904762,0.7261904761904762,0.7261904761904762,0.7261904761904762,0.7261904761904762,0.7261904761904762,0.7261904761904762,0.7261904761904762,0.7261904761904762,0.7261904761904762,0.7261904761904762,0.7261904761904762,0.7261904761904762,0.7261904761904762,0.7261904761904762,0.7261904761904762,0.7261904761904762,0.7261904761904762,0.7261904761904762,0.7261904761904762,0.7261904761904762,0.7261904761904762,0.7261904761904762,0.7261904761904762,0.7261904761904762,0.7261904761904762,0.7261904761904762,0.7261904761904762,0.7261904761904762,0.7261904761904762,0.7261904761904762,0.7261904761904762,0.7261904761904762,0.7261904761904762,0.7261904761904762,0.7261904761904762,0.7261904761904762,0.7261904761904762,0.7261904761904762,0.7261904761904762,0.7261904761904762,0.7261904761904762,0.7261904761904762,0.7227891156462585,0.7125850340136054,0.6955782312925171,0.6785714285714286,0.6581632653061225,0.6173469387755102,0.5629251700680272,0.4914965986394558,0.44047619047619047,0.38605442176870747,0.34183673469387754,0.32142857142857145,0.3112244897959184,0.304421768707483,0.304421768707483,0.3010204081632653,0.3010204081632653,0.2976190476190476,0.2942176870748299,0.28741496598639454,0.28401360544217685,0.28061224489795916,0.28061224489795916,0.27380952380952384,0.26700680272108845,0.2602040816326531,0.25,0.2465986394557823,0.24319727891156462,0.24319727891156462,0.2602040816326531,0.304421768707483,0.413265306122449,0.4846938775510204,0.7636054421768708,0.8928571428571429,0.9880952380952381,1.0391156462585034,1.0799319727891157,1.096938775510204,1.1071428571428572,1.1105442176870748,1.1105442176870748,1.1139455782312926,1.1139455782312926,1.1139455782312926,1.1139455782312926,1.1139455782312926,1.1139455782312926,1.1139455782312926,1.1139455782312926,1.1037414965986394,1.096938775510204,1.0697278911564625,1.0493197278911566,1.0357142857142858,1.022108843537415,1.0153061224489797,1.0085034013605443,1.0051020408163265,1.001700680272109,1.001700680272109,0.9982993197278912,0.9982993197278912,0.9948979591836735,0.9948979591836735,0.9948979591836735,0.9948979591836735,0.9948979591836735,0.9948979591836735,0.9948979591836735,0.9948979591836735,0.9948979591836735,0.9948979591836735,0.9948979591836735,0.9948979591836735,0.9948979591836735,0.9948979591836735,0.9948979591836735,0.9948979591836735,0.9948979591836735,0.9948979591836735,0.9948979591836735,0.9948979591836735,0.9948979591836735,0.9948979591836735,0.9948979591836735,0.9948979591836735,0.9948979591836735,0.9948979591836735,0.9948979591836735,0.9948979591836735,0.9948979591836735,0.9948979591836735,0.9948979591836735,0.9948979591836735,0.9948979591836735,0.9948979591836735,0.967687074829932,0.9404761904761905,0.9030612244897959,0.8520408163265306,0.8078231292517006,0.7636054421768708,0.7261904761904762,0.7159863945578231,0.70578231292517,0.7023809523809523,0.7023809523809523,0.7023809523809523,0.6989795918367347,0.6955782312925171,0.6921768707482994,0.6887755102040817,0.6819727891156463,0.6785714285714286,0.6751700680272109,0.6717687074829932,0.6683673469387755,0.6683673469387755,0.6615646258503401,0.6513605442176871,0.6445578231292517,0.6377551020408163,0.6309523809523809,0.6275510204081632,0.6241496598639455,0.6207482993197279,0.6207482993197279,0.6207482993197279,0.6207482993197279,0.6207482993197279,0.6207482993197279,0.6173469387755102,0.6173469387755102,0.6173469387755102,0.6173469387755102,0.6173469387755102,0.6139455782312925,0.6139455782312925,0.6139455782312925,0.6105442176870748,0.6105442176870748,0.6105442176870748,0.6105442176870748,0.6105442176870748,0.6105442176870748,0.6105442176870748,0.6105442176870748,0.6105442176870748,0.6105442176870748,0.6105442176870748,0.6105442176870748,0.6105442176870748,0.6105442176870748,0.6105442176870748,0.6105442176870748,0.6105442176870748,0.6105442176870748,0.6105442176870748,0.6105442176870748,0.6105442176870748,0.6105442176870748,0.6105442176870748,0.6105442176870748,0.6105442176870748,0.6105442176870748,0.6105442176870748,0.6105442176870748,0.6105442176870748,0.6105442176870748,0.6105442176870748,0.6105442176870748,0.6105442176870748,0.6105442176870748,0.6105442176870748,0.6105442176870748,0.6105442176870748,0.6105442176870748,0.6105442176870748,0.6105442176870748,0.6105442176870748,0.6105442176870748,0.6105442176870748,0.6105442176870748,0.6105442176870748,0.6105442176870748,0.6105442176870748,0.6105442176870748,0.6105442176870748,0.6105442176870748,0.6105442176870748,0.6105442176870748,0.6105442176870748,0.6105442176870748,0.6105442176870748,0.6105442176870748,0.6105442176870748,0.6105442176870748,0.6105442176870748,0.6105442176870748,0.6105442176870748,0.6105442176870748,0.6071428571428571,0.5901360544217688,0.5731292517006803,0.5663265306122449,0.5561224489795918,0.5527210884353742,0.5527210884353742,0.5527210884353742,0.5527210884353742,0.5527210884353742,0.5561224489795918,0.5561224489795918,0.5595238095238095,0.5629251700680272,0.5629251700680272,0.5663265306122449,0.5663265306122449,0.5697278911564626,0.5697278911564626,0.5697278911564626,0.5697278911564626,0.5697278911564626,0.5697278911564626,0.5697278911564626,0.5697278911564626,0.5697278911564626,0.5697278911564626,0.5697278911564626,0.5697278911564626,0.5697278911564626,0.5731292517006803,0.576530612244898,0.576530612244898,0.576530612244898,0.576530612244898,0.576530612244898,0.576530612244898,0.576530612244898,0.576530612244898,0.576530612244898,0.576530612244898,0.576530612244898,0.576530612244898,0.576530612244898,0.576530612244898,0.576530612244898,0.576530612244898,0.576530612244898,0.576530612244898,0.576530612244898,0.576530612244898,0.576530612244898,0.576530612244898,0.576530612244898,0.576530612244898,0.576530612244898,0.576530612244898,0.576530612244898,0.576530612244898,0.576530612244898,0.576530612244898,0.576530612244898,0.576530612244898,0.576530612244898,0.576530612244898,0.576530612244898,0.576530612244898,0.576530612244898,0.576530612244898,0.576530612244898,0.576530612244898,0.576530612244898,0.576530612244898,0.576530612244898,0.576530612244898,0.576530612244898,0.576530612244898,0.576530612244898,0.576530612244898,0.576530612244898],"y":[-3.75,-3.75,-3.75,-3.75,-3.75,-3.75,-3.75,-3.75,-3.75,-3.75,-3.75,-3.75,-3.75,-3.75,-3.75,-3.75,-3.75,-3.75,-3.75,-3.75,-3.75,-3.75,-3.75,-3.75,-3.75,-3.75,-3.75,-3.75,-3.75,-3.75,-3.75,-3.75,-3.75,-3.75,-3.75,-3.75,-3.75,-3.75,-3.75,-3.75,-3.75,-3.75,-3.75,-3.75,-3.75,-3.75,-3.75,-3.75,-3.75,-3.75,-3.75,-3.75,-3.75,-3.75,-3.75,-3.75,-3.75,-3.75,-3.75,-3.75,-3.75,-3.75,-3.75,-3.75,-3.75,-3.75,-3.75,-3.75,-3.75,-3.75,-3.75,-3.75,-3.75,-3.75,-3.75,-3.75,-3.75,-3.75,-3.75,-3.75,-3.75,-3.75,-3.75,-3.75,-3.75,-3.75,-3.75,-3.75,-3.75,-3.75,-3.75,-3.75,-3.75,-3.75,-3.75,-3.75,-3.75,-3.75,-3.75,-3.75,-3.75,-3.75,-3.75,-3.75,-3.75,-3.75,-3.75,-3.75,-3.75,-3.75,-3.75,-3.75,-3.75,-3.75,-3.75,-3.75,-3.75,-3.75,-3.75,-3.75,-3.75,-3.75,-3.75,-3.75,-3.75,-3.75,-3.75,-3.75,-3.75,-3.75,-3.75,-3.75,-3.75,-3.75,-3.75,-3.75,-3.75,-3.75,-3.75,-3.75,-3.75,-3.75,-3.75,-3.75,-3.75,-3.75,-3.75,-3.75,-3.75,-3.75,-3.75,-3.75,-3.75,-3.75,-3.75,-3.75,-3.75,-3.75,-3.75,-3.75,-3.75,-3.75,-3.75,0.31666666666666665,0.30714285714285716,0.2976190476190476,0.2785714285714286,0.24047619047619048,0.1738095238095238,0.11666666666666667,0.05,-0.016666666666666666,-0.08333333333333333,-0.15,-0.2261904761904762,-0.29285714285714287,-0.3404761904761905,-0.3880952380952381,-0.4166666666666667,-0.4452380952380952,-0.48333333333333334,-0.4928571428571429,-0.5023809523809524,-0.5023809523809524,-0.5023809523809524,-0.5023809523809524,-0.5023809523809524,-0.5023809523809524,-0.5023809523809524,-0.5023809523809524,-0.5023809523809524,-0.5023809523809524,-0.5023809523809524,-0.5023809523809524,-0.5023809523809524,-0.5023809523809524,-0.5023809523809524,-0.5023809523809524,-0.5023809523809524,-0.5023809523809524,-0.5023809523809524,-0.5023809523809524,-0.5023809523809524,-0.5023809523809524,-0.5023809523809524,-0.5023809523809524,-0.5023809523809524,-0.5023809523809524,-0.5023809523809524,-0.5023809523809524,-0.5023809523809524,-0.5023809523809524,-0.5023809523809524,-0.5023809523809524,-0.5023809523809524,-0.5023809523809524,-0.5023809523809524,-0.5023809523809524,-0.5023809523809524,-0.5023809523809524,-0.5023809523809524,-0.5023809523809524,-0.5023809523809524,-0.5023809523809524,-0.5023809523809524,-0.5023809523809524,-0.5023809523809524,-0.5023809523809524,-0.5023809523809524,-0.5023809523809524,-0.5023809523809524,-0.5023809523809524,-0.5023809523809524,-0.5023809523809524,-0.5023809523809524,-0.5023809523809524,-0.5023809523809524,-0.5023809523809524,-0.5023809523809524,-0.5023809523809524,-0.5023809523809524,-0.5023809523809524,-0.5023809523809524,-0.5023809523809524,-0.5023809523809524,-0.5023809523809524,-0.5023809523809524,-0.5023809523809524,-0.5023809523809524,-0.5023809523809524,-0.5023809523809524,-0.5023809523809524,-0.5023809523809524,-0.5023809523809524,-0.5023809523809524,-0.5023809523809524,-0.5023809523809524,-0.5023809523809524,-0.5023809523809524,-0.5023809523809524,-0.5023809523809524,-0.5023809523809524,-0.5023809523809524,-0.5023809523809524,-0.5023809523809524,-0.5023809523809524,-0.5023809523809524,-0.5023809523809524,-0.5023809523809524,-0.5023809523809524,-0.5023809523809524,-0.5023809523809524,-0.5023809523809524,-0.5023809523809524,-0.5023809523809524,-0.5023809523809524,-0.5023809523809524,-0.5023809523809524,-0.5023809523809524,-0.5023809523809524,-0.5023809523809524,-0.5023809523809524,-0.5023809523809524,-0.5023809523809524,-0.5023809523809524,-0.5023809523809524,-0.5023809523809524,-0.5023809523809524,-0.5023809523809524,-0.5023809523809524,-0.5023809523809524,-0.5023809523809524,-0.5023809523809524,-0.5023809523809524,-0.5023809523809524,-0.5023809523809524,-0.5023809523809524,-0.5023809523809524,-0.5023809523809524,-0.5023809523809524,-0.5023809523809524,-0.5023809523809524,-0.5023809523809524,-0.5023809523809524,-0.5023809523809524,-0.5023809523809524,-0.5023809523809524,-0.5023809523809524,-0.5023809523809524,-0.5023809523809524,-0.5023809523809524,-0.5023809523809524,-0.5023809523809524,-0.5023809523809524,-0.5023809523809524,-0.5023809523809524,-0.5023809523809524,-0.5023809523809524,-0.5023809523809524,-0.5023809523809524,-0.5023809523809524,-0.5023809523809524,-0.5023809523809524,-0.5023809523809524,-0.5023809523809524,-0.5023809523809524,-0.5023809523809524,-0.5023809523809524,-0.5023809523809524,-0.5023809523809524,-0.5023809523809524,-0.5023809523809524,-0.5023809523809524,-0.5023809523809524,-0.5023809523809524,-0.5023809523809524,-0.5023809523809524,-0.5023809523809524,-0.5023809523809524,-0.5023809523809524,-0.5023809523809524,-0.5023809523809524,-0.5023809523809524,-0.5023809523809524,-0.5023809523809524,-0.5023809523809524,-0.5023809523809524,-0.5023809523809524,-0.5023809523809524,-0.5023809523809524,-0.5023809523809524,-0.5023809523809524,-0.5023809523809524,-0.5023809523809524,-0.5023809523809524,-0.5023809523809524,-0.5023809523809524,-0.5023809523809524,-0.5023809523809524,-0.5023809523809524,-0.5023809523809524,-0.5023809523809524,-0.5023809523809524,-0.5023809523809524,-0.5023809523809524,-0.5023809523809524,-0.5023809523809524,-0.5023809523809524,-0.5023809523809524,-0.5023809523809524,-0.5023809523809524,-0.5023809523809524,-0.5023809523809524,-0.5023809523809524,-0.5023809523809524,-0.5023809523809524,-0.5023809523809524,-0.5023809523809524,-0.5023809523809524,-0.5023809523809524,-0.5023809523809524,-0.5023809523809524,-0.5023809523809524,-0.5023809523809524,-0.5023809523809524,-0.5023809523809524,-0.5023809523809524,-0.5023809523809524,-0.5023809523809524,-0.5023809523809524,-0.5023809523809524,-0.5023809523809524,-0.5023809523809524,-0.5023809523809524,-0.5023809523809524,-0.5023809523809524,-0.5023809523809524,-0.5023809523809524,-0.5023809523809524,-0.5023809523809524,-0.5023809523809524,-0.5023809523809524,-0.5023809523809524,-0.5023809523809524,-0.5023809523809524,-0.5023809523809524,-0.5023809523809524,-0.5023809523809524,-0.5023809523809524,-0.5023809523809524,-0.5023809523809524,-0.5023809523809524,-0.5023809523809524,-0.5023809523809524,-0.5023809523809524,-0.5023809523809524,-0.5023809523809524,-0.5023809523809524,-0.5023809523809524,-0.5023809523809524,-0.5023809523809524,-0.5023809523809524,-0.5023809523809524,-0.5023809523809524,-0.5023809523809524,-0.5023809523809524,-0.5023809523809524,-0.5023809523809524,-0.5023809523809524,-0.5023809523809524,-0.5023809523809524,-0.5023809523809524,-0.5023809523809524,-0.5023809523809524,-0.5023809523809524,-0.5023809523809524,-0.5023809523809524,-0.5023809523809524,-0.5023809523809524,-0.5023809523809524,-0.5023809523809524,-0.5023809523809524,-0.5023809523809524,-0.5023809523809524,-0.5023809523809524,-0.5023809523809524,-0.5023809523809524,-0.5023809523809524,-0.5023809523809524,-0.5023809523809524,-0.5023809523809524,-0.5023809523809524,-0.5023809523809524,-0.5023809523809524,-0.5023809523809524,-0.5023809523809524,-0.5023809523809524,-0.5023809523809524,-0.5023809523809524,-0.5023809523809524,-0.5023809523809524,-0.5023809523809524,-0.5023809523809524,-0.5023809523809524,-0.5023809523809524,-0.5023809523809524,-0.5023809523809524,-0.5023809523809524,-0.5023809523809524,-0.5023809523809524,-0.5023809523809524,-0.5023809523809524,-0.5023809523809524,-0.5023809523809524,-0.5023809523809524,-0.5023809523809524,-0.5023809523809524,-0.5023809523809524,-0.5023809523809524,-0.5023809523809524,-0.5023809523809524,-0.5023809523809524,-0.5023809523809524,-0.5023809523809524,-0.5023809523809524,-0.5023809523809524,-0.5023809523809524,-0.5023809523809524,-0.5023809523809524,-0.5023809523809524,-0.5023809523809524,-0.5023809523809524,-0.5023809523809524,-0.5023809523809524,-0.5023809523809524,-0.5023809523809524,-0.5023809523809524,-0.5023809523809524,-0.5023809523809524,-0.5023809523809524,-0.4928571428571429,-0.4642857142857143,-0.4261904761904762,-0.37857142857142856,-0.32142857142857145,-0.24523809523809523,-0.16904761904761906,-0.08333333333333333,0.030952380952380953,0.10714285714285714,0.16428571428571428,0.23095238095238096,0.28809523809523807,0.3547619047619048,0.38333333333333336,0.42142857142857143,0.44047619047619047,0.44047619047619047,0.44047619047619047,0.44047619047619047,0.44047619047619047,0.44047619047619047,0.44047619047619047,0.44047619047619047,0.44047619047619047,0.44047619047619047,0.44047619047619047,0.44047619047619047,0.44047619047619047,0.44047619047619047,0.44047619047619047,0.44047619047619047,0.44047619047619047,0.44047619047619047,0.44047619047619047,0.44047619047619047,0.45,0.46904761904761905,0.4880952380952381,0.5166666666666667,0.5357142857142857,0.5547619047619048,0.5738095238095238,0.6023809523809524,0.6214285714285714,0.65,0.6595238095238095,0.669047619047619,0.6785714285714286,0.6785714285714286,0.6880952380952381,0.6880952380952381,0.6880952380952381,0.6880952380952381,0.6880952380952381,0.6880952380952381,0.6880952380952381,0.6880952380952381,0.6880952380952381,0.6880952380952381,0.6880952380952381,0.6880952380952381,0.6880952380952381,0.6880952380952381,0.6880952380952381,0.6880952380952381,0.6880952380952381,0.6880952380952381,0.6880952380952381,0.6880952380952381,0.6880952380952381,0.6880952380952381,0.6880952380952381,0.6880952380952381,0.6880952380952381,0.6880952380952381,0.6880952380952381,0.6880952380952381,0.6880952380952381,0.6880952380952381,0.6880952380952381,0.6880952380952381,0.6880952380952381,0.6880952380952381,0.6880952380952381,0.6880952380952381,0.6880952380952381,0.6880952380952381,0.6880952380952381,0.6880952380952381,0.6880952380952381,0.6880952380952381,0.6880952380952381,0.6880952380952381,0.6880952380952381,0.6880952380952381,0.6880952380952381,0.6785714285714286,0.65,0.611904761904762,0.5357142857142857,0.44047619047619047,0.3357142857142857,0.24047619047619048,0.18333333333333332,0.10714285714285714,0.06904761904761905,0.05,0.030952380952380953,0.02142857142857143,0.011904761904761904,0.002380952380952381,0.002380952380952381,0.002380952380952381,0.002380952380952381,-0.007142857142857143,-0.007142857142857143,-0.007142857142857143,-0.007142857142857143,-0.007142857142857143,0.011904761904761904,0.04047619047619048,0.06904761904761905,0.09761904761904762,0.10714285714285714,0.10714285714285714,0.10714285714285714,0.10714285714285714,0.10714285714285714,0.10714285714285714,0.10714285714285714,0.10714285714285714,0.10714285714285714,0.10714285714285714,0.09761904761904762,0.07857142857142857,0.06904761904761905,0.05952380952380952,0.05,0.04047619047619048,0.04047619047619048,0.04047619047619048,0.04047619047619048,0.04047619047619048,0.04047619047619048,0.04047619047619048,0.04047619047619048,0.04047619047619048,0.04047619047619048,0.04047619047619048,0.04047619047619048,0.04047619047619048,0.04047619047619048,0.04047619047619048,0.04047619047619048,0.04047619047619048,0.04047619047619048,0.04047619047619048,0.04047619047619048,0.04047619047619048,0.04047619047619048,0.04047619047619048,0.04047619047619048,0.04047619047619048,0.04047619047619048,0.04047619047619048,0.04047619047619048,0.04047619047619048,0.04047619047619048,0.04047619047619048,0.04047619047619048,0.04047619047619048,0.04047619047619048,0.04047619047619048,0.04047619047619048,0.04047619047619048,0.04047619047619048,0.04047619047619048,0.04047619047619048,0.04047619047619048,0.05,0.07857142857142857,0.16428571428571428,0.20238095238095238,0.28809523809523807,0.39285714285714285,0.5071428571428571,0.6309523809523809,0.8023809523809524,0.9452380952380952,1.069047619047619,1.2119047619047618,1.3452380952380953,1.4785714285714286,1.5833333333333333,1.6976190476190476,1.8023809523809524,1.8976190476190475,1.9547619047619047,2.0214285714285714,2.0785714285714287,2.0976190476190477,2.107142857142857,2.107142857142857,2.1166666666666667,2.1166666666666667,2.1166666666666667,2.1166666666666667,2.1166666666666667,2.1166666666666667,2.1166666666666667,2.1166666666666667,2.1166666666666667,2.1166666666666667,2.1166666666666667,2.1166666666666667,2.107142857142857,2.107142857142857,2.0976190476190477,2.0976190476190477,2.0880952380952382,2.0880952380952382,2.0690476190476192,2.0595238095238093,2.0404761904761903,2.011904761904762,1.9928571428571429,1.9642857142857142,1.9261904761904762,1.8785714285714286,1.8214285714285714,1.7642857142857142,1.6976190476190476,1.65,1.5928571428571427,1.5357142857142858,1.4976190476190476,1.45,1.411904761904762,1.3928571428571428,1.3642857142857143,1.3452380952380953,1.3452380952380953,1.3357142857142856,1.3357142857142856,1.3357142857142856,1.3357142857142856,1.3357142857142856,1.3357142857142856,1.3357142857142856,1.3357142857142856,1.3357142857142856,1.3357142857142856,1.3357142857142856,1.3357142857142856,1.3357142857142856,1.3357142857142856,1.3357142857142856,1.3357142857142856,1.3357142857142856,1.3357142857142856,1.3357142857142856,1.3357142857142856,1.3357142857142856,1.3357142857142856,1.3357142857142856,1.3357142857142856,1.3452380952380953,1.411904761904762,1.5452380952380953,1.7357142857142858,1.8785714285714286,2.0214285714285714,2.1357142857142857,2.183333333333333,2.2404761904761905,2.2595238095238095,2.2785714285714285,2.2785714285714285,2.288095238095238,2.2785714285714285,2.25,2.25,2.25,2.25,2.25,2.25,2.25,2.25,2.25,2.25,2.25,2.25,2.25,2.25,2.25,2.25,2.25,2.25,2.25,2.25,2.25,2.25,2.2214285714285715,2.164285714285714,2.0976190476190477,2.0404761904761903,2.0023809523809524,1.973809523809524,1.9452380952380952,1.9357142857142857,1.9261904761904762,1.9166666666666667,1.9071428571428573,1.9071428571428573,1.9071428571428573,1.9071428571428573,1.9071428571428573,1.9071428571428573,1.9071428571428573,1.9071428571428573,1.9071428571428573,1.9071428571428573,1.9071428571428573,1.9071428571428573,1.9071428571428573,1.9071428571428573,1.9071428571428573,1.9071428571428573,1.9071428571428573,1.8976190476190475,1.8785714285714286,1.869047619047619,1.8595238095238096,1.85,1.8404761904761904,1.8214285714285714,1.811904761904762,1.8023809523809524,1.7833333333333334,1.7738095238095237,1.7547619047619047,1.7452380952380953,1.7261904761904763,1.707142857142857,1.688095238095238,1.6690476190476191,1.6690476190476191,1.6690476190476191,1.6690476190476191,1.6690476190476191,1.6690476190476191,1.6690476190476191,1.6690476190476191,1.6690476190476191,1.6690476190476191,1.6690476190476191,1.6690476190476191,1.6690476190476191,1.6690476190476191,1.6690476190476191,1.6690476190476191,1.6690476190476191,1.6690476190476191,1.6690476190476191,1.6690476190476191,1.6690476190476191,1.6690476190476191,1.6690476190476191,1.6690476190476191,1.6690476190476191,1.6690476190476191,1.6690476190476191,1.6690476190476191,1.6690476190476191,1.6690476190476191,1.6690476190476191,1.6690476190476191,1.6690476190476191,1.6690476190476191,1.6690476190476191,1.6690476190476191,1.6690476190476191,1.6690476190476191,1.6690476190476191,1.6690476190476191,1.6690476190476191,1.6690476190476191,1.6690476190476191,1.6690476190476191,1.6690476190476191,1.6690476190476191,1.6690476190476191,1.6690476190476191,1.6690476190476191,1.6690476190476191,1.6690476190476191,1.6690476190476191,1.6690476190476191,1.6690476190476191,1.6785714285714286,1.6976190476190476,1.7261904761904763,1.7642857142857142,1.8023809523809524,1.8404761904761904,1.8785714285714286,1.9071428571428573,1.9452380952380952,1.9547619047619047,1.9642857142857142,1.973809523809524,1.973809523809524,1.973809523809524,1.973809523809524,1.973809523809524,1.973809523809524,1.973809523809524,1.973809523809524,1.973809523809524,1.973809523809524,1.973809523809524,1.973809523809524,1.973809523809524,1.973809523809524,1.973809523809524,1.973809523809524,1.973809523809524,1.973809523809524,1.973809523809524,1.973809523809524,1.973809523809524,1.973809523809524,1.973809523809524,1.973809523809524,1.973809523809524,1.973809523809524,1.973809523809524,1.973809523809524,1.973809523809524,1.973809523809524,1.973809523809524,1.973809523809524,1.973809523809524,1.973809523809524,1.973809523809524,1.973809523809524,1.973809523809524,1.973809523809524,1.973809523809524,1.973809523809524,1.973809523809524,1.973809523809524,1.973809523809524,1.973809523809524,1.973809523809524,1.9642857142857142,1.9547619047619047,1.9452380952380952,1.9071428571428573,1.8595238095238096,1.792857142857143,1.707142857142857,1.6023809523809525,1.4404761904761905,1.3452380952380953,1.2785714285714285,1.2119047619047618,1.1547619047619047,1.1071428571428572,1.1071428571428572,1.1071428571428572,1.1071428571428572,1.1071428571428572,1.1071428571428572,1.1071428571428572,1.1071428571428572,1.1071428571428572,1.1071428571428572,1.1071428571428572,1.1071428571428572,1.1071428571428572,1.1071428571428572,1.1071428571428572,1.1071428571428572,1.1071428571428572,1.1071428571428572,1.1071428571428572,1.1071428571428572,1.1071428571428572,1.1071428571428572,1.1071428571428572,1.069047619047619,1.0309523809523808,1.0119047619047619,0.9642857142857143,0.8976190476190476,0.8214285714285714,0.7833333333333333,0.7357142857142858,0.7166666666666667,0.7166666666666667,0.7166666666666667,0.7166666666666667,0.7166666666666667,0.7166666666666667,0.7166666666666667,0.7166666666666667,0.7166666666666667,0.7166666666666667,0.7166666666666667,0.7166666666666667,0.7166666666666667,0.7166666666666667,0.7166666666666667,0.7166666666666667,0.6880952380952381,0.6214285714285714,0.5357142857142857,0.4595238095238095,0.39285714285714285,0.3547619047619048,0.30714285714285716,0.28809523809523807,0.26904761904761904,0.26904761904761904,0.26904761904761904,0.26904761904761904,0.26904761904761904,0.26904761904761904,0.26904761904761904,0.26904761904761904,0.26904761904761904,0.26904761904761904,0.26904761904761904,0.2976190476190476,0.31666666666666665,0.3261904761904762,0.3357142857142857,0.3357142857142857,0.31666666666666665,0.2785714285714286,0.25,0.22142857142857142,0.20238095238095238,0.19285714285714287,0.18333333333333332,0.18333333333333332,0.18333333333333332,0.18333333333333332,0.18333333333333332,0.1738095238095238,0.1738095238095238,0.16428571428571428,0.15476190476190477,0.1357142857142857,0.1261904761904762,0.10714285714285714,0.09761904761904762,0.0880952380952381,0.07857142857142857,0.07857142857142857,0.07857142857142857,0.07857142857142857,0.07857142857142857,0.07857142857142857,0.07857142857142857,0.0880952380952381,0.09761904761904762,0.1357142857142857,0.16428571428571428,0