[{"success":true,"trial_type":"fullscreen","trial_index":0,"time_elapsed":3671,"internal_node_id":"0.0-0.0","protocol_sum":"","subject_identifier":216,"subject_sum":[149,55,243,46,199,89,158,26,233,83,175,108,159,146,159,231,71,255,157,173,247,154,155,239,241,243,4,197,80,23,48,17],"subject_pair":108,"STUDY_ID":"669eec2e4270c76bc184a38e","PROLIFIC_PID":"57dd186e6598aa0001992616","SESSION_ID":"669fb2b40f034c49066b9fb8","practice_instructions":1,"leaderboard_instructions":0,"bonus":0,"reveal_word":false,"self_rating":"2","confidence":"79"},{"view_history":"[{\"page_index\":0,\"viewing_time\":6986.199999988079}]","rt":6986.399999976158,"trial_type":"instructions","trial_index":1,"time_elapsed":10660,"internal_node_id":"0.0-1.0","protocol_sum":"","subject_identifier":216,"subject_sum":[149,55,243,46,199,89,158,26,233,83,175,108,159,146,159,231,71,255,157,173,247,154,155,239,241,243,4,197,80,23,48,17],"subject_pair":108,"STUDY_ID":"669eec2e4270c76bc184a38e","PROLIFIC_PID":"57dd186e6598aa0001992616","SESSION_ID":"669fb2b40f034c49066b9fb8","practice_instructions":1,"leaderboard_instructions":0,"bonus":0,"reveal_word":false,"self_rating":"2","confidence":"79"},{"view_history":"[{\"page_index\":0,\"viewing_time\":110726.89999997616}]","rt":110727.19999998808,"trial_type":"instructions","trial_index":2,"time_elapsed":121388,"internal_node_id":"0.0-2.0-0.0","protocol_sum":"","subject_identifier":216,"subject_sum":[149,55,243,46,199,89,158,26,233,83,175,108,159,146,159,231,71,255,157,173,247,154,155,239,241,243,4,197,80,23,48,17],"subject_pair":108,"STUDY_ID":"669eec2e4270c76bc184a38e","PROLIFIC_PID":"57dd186e6598aa0001992616","SESSION_ID":"669fb2b40f034c49066b9fb8","practice_instructions":1,"leaderboard_instructions":0,"bonus":0,"reveal_word":false,"self_rating":"2","confidence":"79"},{"rt":7921.300000011921,"responses":"{\"Q0\":\"... reveal the word with as <b>few letter guesses</b> as possible\"}","question_order":"[0]","trial_type":"survey-multi-choice","trial_index":3,"time_elapsed":129311,"internal_node_id":"0.0-2.0-1.0","protocol_sum":"","subject_identifier":216,"subject_sum":[149,55,243,46,199,89,158,26,233,83,175,108,159,146,159,231,71,255,157,173,247,154,155,239,241,243,4,197,80,23,48,17],"subject_pair":108,"correct":true,"test_part":"multichoice_nonpretend","STUDY_ID":"669eec2e4270c76bc184a38e","PROLIFIC_PID":"57dd186e6598aa0001992616","SESSION_ID":"669fb2b40f034c49066b9fb8","practice_instructions":1,"leaderboard_instructions":0,"bonus":0,"reveal_word":false,"self_rating":"2","confidence":"79"},{"view_history":"[{\"page_index\":0,\"viewing_time\":1661.8999999761581}]","rt":1662,"trial_type":"instructions","trial_index":4,"time_elapsed":130974,"internal_node_id":"0.0-3.0","protocol_sum":"","subject_identifier":216,"subject_sum":[149,55,243,46,199,89,158,26,233,83,175,108,159,146,159,231,71,255,157,173,247,154,155,239,241,243,4,197,80,23,48,17],"subject_pair":108,"STUDY_ID":"669eec2e4270c76bc184a38e","PROLIFIC_PID":"57dd186e6598aa0001992616","SESSION_ID":"669fb2b40f034c49066b9fb8","practice_instructions":1,"leaderboard_instructions":0,"bonus":0,"reveal_word":false,"self_rating":"2","confidence":"79"},{"word":"ZEBRA","click_log":{"letter":["","A","S","T","R","E","Z","B"],"t":[0,4130.300000011921,14755.800000011921,16298.900000035763,18067.400000035763,20769.30000001192,23035.600000023842,24769.600000023842],"hit":[null,1,0,0,1,1,1,1],"asked":["","A","AS","AST","ASTR","ASTRE","ASTREZ","ASTREZB"],"word_state":["_____","____A","____A","____A","___RA","_E_RA","ZE_RA","ZEBRA"]},"hover_log":{"letter":["?","?","?","?","?","?","?","?","?","?","?","?","?","?","?","?","?","?","?","?","?","?","?","?","?","?","?","?","?","?","?","?","?","?","?","?","?","?","?","?","?","?","?","?","?","?","?","?","?","?","?","?","?","?","?","?","?","?","?","?","?","?","?","?","?","?","?","?","?","?","?","?","?","?","?","?","?","?","?","?","?","?","?","?","?","?","?","?","?","?","?","?","?","?","?","?","X","?","?","M","?","?","?","?","?","?","?","?","A","A","A","A","A","A","A","A","A","A","A","A","A","A","A","A","A","?","?","?","S","?","?","?","?","?","?","?","?","?","?","?","?","?","?","?","?","?","?","?","?","?","?","?","?","?","?","?","?","?","?","?","?","?","?","?","?","?","?","?","?","?","?","?","?","?","?","?","?","?","?","?","?","?","?","?","?","?","?","?","?","?","?","?","?","?","?","?","?","?","?","?","?","?","?","?","?","?","?","?","?","?","?","?","?","?","?","?","?","?","?","?","?","?","?","?","?","?","?","?","?","?","?","?","?","?","?","?","?","?","?","?","?","?","?","?","?","?","?","?","?","?","?","?","?","?","?","?","?","?","?","?","?","?","?","?","?","?","?","?","?","?","?","?","?","?","?","?","?","?","?","?","?","?","?","?","?","?","?","?","?","?","?","?","?","?","?","?","?","?","?","?","?","?","?","?","?","?","?","?","?","?","?","?","?","?","?","?","?","?","?","?","?","?","?","?","?","?","?","?","?","?","?","?","?","?","?","?","?","?","?","?","?","?","?","?","?","?","?","?","?","?","?","?","?","?","?","?","?","?","?","?","?","?","?","?","?","?","?","?","?","?","?","?","?","?","?","?","?","?","?","?","?","?","?","?","?","?","?","?","?","?","?","?","?","?","?","?","?","?","?","?","?","?","?","?","?","?","?","?","?","?","?","?","?","?","?","?","?","U","U","U","U","U","U","?","T","T","T","?","?","S","S","S","S","S","S","S","S","S","S","S","S","S","S","S","S","?","?","?","?","?","?","?","?","?","?","?","?","?","?","?","?","?","?","?","?","?","?","?","?","?","?","?","?","T","T","T","T","T","T","T","T","T","T","T","T","T","T","T","T","T","T","?","?","?","?","?","?","?","?","?","?","?","?","?","?","?","?","?","?","?","?","?","?","?","?","?","?","?","?","?","?","?","?","?","?","?","?","?","?","R","R","R","R","R","R","R","R","R","R","R","R","R","R","R","R","?","?","?","?","?","?","?","?","?","?","?","?","?","?","?","?","?","?","?","?","?","?","?","?","?","?","?","?","?","?","?","?","?","?","?","?","?","?","?","?","?","?","?","?","?","?","?","?","?","?","?","?","M","?","?","E","E","E","E","E","E","E","E","E","E","E","E","E","E","E","E","E","E","E","E","E","E","E","E","E","E","E","?","?","?","?","?","?","?","?","?","?","?","?","?","?","N","M","M","?","?","?","?","?","W","W","W","?","X","X","?","?","Z","Z","Z","Z","Z","Z","Z","Z","Z","Z","Z","Z","Z","Z","Z","Z","Z","Z","Z","Z","Z","Z","Z","Z","Z","Z","Z","Z","Z","Z","Z","Z","Z","Z","Z","Z","Z","Z","Z","Z","Z","Z","Z","?","Y","?","X","X","X","?","?","W","W","W","?","N","?","?","?","?","?","?","?","C","C","?","B","B","B","B","B","B","B","B","B","B","B","B","B","B","B","B","B","B","B","B","B","B","B","L","V","?","?","?","?","?","?","?","?","?","?","?","?","?","?","?","?","?","?","?","?","?","?","?","?","?","?","?","?","?","?","?","?","?","?","?","?","?","?","?","?","?","?","?","?","?","?","?","?","?","?","?","?","?","?","?"],"t":[27,54,87,120,153,186,220,254,292,324,353,386,424,457,491,519,553,590,624,658,691,725,757,791,824,858,887,920,956,991,1022,1057,1087,1121,1155,1188,1222,1255,1292,1325,1359,1392,1426,1459,1491,1520,1554,1589,1625,1659,1692,1725,1759,1792,1825,1858,1892,1920,1956,1991,2025,2054,2092,2125,2159,2188,2221,2255,2293,2321,2354,2388,2422,2458,2493,2526,2559,2593,2626,2660,2693,2726,2759,2789,2822,2861,2893,2922,2955,2992,3022,3056,3089,3125,3155,3189,3229,3256,3288,3328,3356,3394,3427,3461,3490,3523,3561,3594,3629,3662,3694,3727,3757,3790,3826,3858,3894,3927,3960,3993,4022,4057,4093,4122,4156,4190,4223,4256,4296,4323,4357,4390,4428,4461,4495,4528,4561,4595,4628,4661,4694,4728,4762,4795,4828,4858,4890,4926,4961,4995,5028,5061,5095,5124,5157,5195,5228,5258,5295,5324,5357,5393,5429,5462,5495,5525,5557,5591,5624,5657,5693,5729,5763,5796,5829,5862,5896,5929,5963,5995,6025,6059,6091,6129,6158,6191,6229,6263,6291,6330,6363,6396,6430,6463,6496,6530,6563,6596,6630,6663,6696,6730,6763,6797,6826,6863,6897,6925,6958,6993,7027,7063,7092,7127,7159,7192,7226,7263,7297,7326,7359,7394,7430,7459,7495,7526,7560,7593,7626,7659,7693,7731,7759,7795,7831,7864,7898,7928,7959,7995,8031,8064,8094,8129,8164,8194,8227,8263,8298,8327,8365,8399,8432,8465,8495,8527,8562,8599,8632,8666,8699,8732,8761,8795,8830,8865,8898,8932,8966,8999,9033,9066,9098,9133,9166,9195,9233,9266,9300,9329,9361,9395,9432,9466,9500,9530,9563,9596,9629,9663,9698,9729,9763,9796,9829,9863,9896,9930,9963,9997,10029,10062,10097,10134,10167,10201,10230,10262,10297,10329,10362,10396,10433,10463,10500,10534,10567,10601,10634,10668,10702,10735,10765,10796,10830,10863,10901,10935,10968,11001,11034,11063,11100,11136,11168,11197,11230,11268,11302,11330,11365,11397,11431,11467,11501,11535,11568,11602,11635,11668,11701,11735,11769,11802,11835,11869,11898,11931,11964,12001,12035,12069,12102,12135,12169,12203,12234,12264,12299,12331,12365,12398,12433,12469,12498,12533,12569,12599,12636,12669,12703,12736,12769,12803,12836,12869,12903,12936,12970,13003,13036,13070,13103,13134,13166,13199,13234,13270,13304,13335,13366,13404,13437,13470,13504,13537,13570,13604,13637,13671,13704,13733,13767,13800,13838,13869,13899,13934,13967,14003,14033,14066,14102,14138,14172,14200,14236,14268,14302,14333,14367,14400,14434,14467,14505,14534,14566,14601,14638,14671,14705,14738,14771,14801,14837,14867,14906,14934,14967,15001,15035,15072,15105,15133,15172,15200,15236,15272,15301,15333,15367,15401,15435,15469,15502,15535,15571,15605,15634,15672,15705,15734,15772,15801,15834,15868,15905,15935,15973,16006,16038,16067,16103,16139,16169,16203,16235,16268,16302,16334,16369,16403,16436,16468,16502,16538,16571,16607,16639,16667,16702,16739,16768,16803,16840,16873,16907,16938,16969,17002,17036,17071,17109,17141,17170,17208,17241,17275,17308,17338,17369,17403,17436,17473,17503,17537,17572,17609,17640,17671,17703,17737,17770,17803,17836,17874,17907,17936,17970,18008,18041,18070,18103,18140,18170,18209,18237,18274,18306,18337,18370,18404,18437,18470,18505,18542,18570,18606,18642,18675,18709,18741,18770,18805,18842,18876,18909,18942,18976,19009,19043,19076,19109,19137,19170,19205,19242,19270,19304,19338,19372,19407,19437,19477,19505,19538,19571,19605,19639,19672,19705,19738,19771,19804,19840,19871,19905,19938,19972,20005,20039,20072,20105,20138,20171,20205,20238,20271,20305,20339,20372,20406,20439,20472,20507,20540,20572,20605,20639,20673,20706,20739,20772,20805,20839,20872,20906,20940,20973,21006,21040,21072,21107,21139,21173,21206,21241,21273,21307,21340,21373,21407,21440,21474,21507,21542,21573,21607,21640,21674,21707,21741,21774,21807,21840,21874,21907,21941,21974,22008,22041,22074,22107,22141,22175,22207,22240,22274,22307,22340,22374,22408,22441,22474,22508,22542,22580,22611,22645,22679,22712,22747,22780,22813,22846,22880,22913,22947,22981,23013,23041,23076,23112,23146,23180,23213,23241,23275,23310,23348,23381,23410,23448,23480,23509,23548,23582,23609,23643,23676,23716,23742,23776,23809,23843,23877,23910,23949,23981,24010,24043,24077,24115,24143,24177,24215,24249,24280,24310,24348,24382,24412,24448,24483,24516,24548,24582,24615,24648,24676,24710,24744,24779,24811,24849,24877,24917,24950,24982,25016,25049,25081,25111,25145,25182,25216,25245,25277,25312,25344,25378,25413,25444,25478,25511,25547,25577,25616,25650,25682,25711,25746,25783,25816,25850,25883,25917,25950,25983,26016,26050,26083,26117,26150,26183,26217,26250,26284,26311,26345,26379,26412,26446,26478,26511,26545,26578,26614,26651,26684,26718,26751,26785],"hit":[null],"x":[-3.7823129251700682,-3.7823129251700682,0.06802721088435375,0.14285714285714285,0.29931972789115646,0.5680272108843537,0.6394557823129252,0.6462585034013606,0.6564625850340136,0.6632653061224489,0.6666666666666666,0.673469387755102,0.673469387755102,0.673469387755102,0.673469387755102,0.673469387755102,0.673469387755102,0.673469387755102,0.673469387755102,0.673469387755102,0.673469387755102,0.673469387755102,0.673469387755102,0.673469387755102,0.673469387755102,0.673469387755102,0.673469387755102,0.673469387755102,0.673469387755102,0.673469387755102,0.673469387755102,0.6836734693877551,0.7006802721088435,0.717687074829932,0.7414965986394558,0.7959183673469388,0.8231292517006803,0.8401360544217688,0.8435374149659864,0.8503401360544217,0.8503401360544217,0.8571428571428571,0.8571428571428571,0.8639455782312925,0.8639455782312925,0.8639455782312925,0.8639455782312925,0.8639455782312925,0.8639455782312925,0.8639455782312925,0.8639455782312925,0.8639455782312925,0.8639455782312925,0.8639455782312925,0.8639455782312925,0.8639455782312925,0.8639455782312925,0.8639455782312925,0.8639455782312925,0.8639455782312925,0.8639455782312925,0.8639455782312925,0.8639455782312925,0.8639455782312925,0.8639455782312925,0.8639455782312925,0.8639455782312925,0.8639455782312925,0.8639455782312925,0.8639455782312925,0.8639455782312925,0.8639455782312925,0.8639455782312925,0.8639455782312925,0.8639455782312925,0.8639455782312925,0.8639455782312925,0.8639455782312925,0.8639455782312925,0.8639455782312925,0.8639455782312925,0.8639455782312925,0.8639455782312925,0.8639455782312925,0.8741496598639455,0.891156462585034,0.9251700680272109,0.9693877551020408,1.0408163265306123,1.1020408163265305,1.1088435374149659,1.1054421768707483,1.0952380952380953,1.0612244897959184,0.9931972789115646,0.8571428571428571,0.7074829931972789,0.6020408163265306,0.5034013605442177,0.42517006802721086,0.3673469387755102,0.30952380952380953,0.25170068027210885,0.19727891156462585,0.14965986394557823,0.11224489795918367,0.09863945578231292,0.061224489795918366,0.034013605442176874,0.030612244897959183,0.023809523809523808,0.017006802721088437,0.013605442176870748,0,0,-0.006802721088435374,-0.01020408163265306,-0.01020408163265306,-0.01020408163265306,-0.01020408163265306,-0.01020408163265306,-0.01020408163265306,-0.01020408163265306,-0.01020408163265306,-0.01020408163265306,-0.04081632653061224,-0.07482993197278912,-0.06802721088435375,0.030612244897959183,0.32653061224489793,0.9013605442176871,1.034013605442177,1.034013605442177,1.034013605442177,1.034013605442177,1.034013605442177,1.034013605442177,1.034013605442177,1.034013605442177,1.034013605442177,1.034013605442177,1.034013605442177,1.034013605442177,1.034013605442177,1.034013605442177,1.034013605442177,1.034013605442177,1.034013605442177,1.034013605442177,1.034013605442177,1.034013605442177,1.034013605442177,1.034013605442177,1.034013605442177,1.034013605442177,1.034013605442177,1.034013605442177,1.034013605442177,1.034013605442177,1.034013605442177,1.034013605442177,1.034013605442177,1.034013605442177,1.034013605442177,1.034013605442177,1.034013605442177,1.034013605442177,1.034013605442177,1.034013605442177,1.034013605442177,1.034013605442177,1.034013605442177,1.034013605442177,1.034013605442177,1.034013605442177,1.034013605442177,1.034013605442177,1.034013605442177,1.034013605442177,1.034013605442177,1.034013605442177,1.034013605442177,1.034013605442177,1.034013605442177,1.034013605442177,1.034013605442177,1.034013605442177,1.034013605442177,1.034013605442177,1.034013605442177,1.034013605442177,1.034013605442177,1.034013605442177,1.034013605442177,1.034013605442177,1.034013605442177,1.034013605442177,1.034013605442177,1.034013605442177,1.034013605442177,1.034013605442177,1.034013605442177,1.034013605442177,1.034013605442177,1.034013605442177,1.034013605442177,1.034013605442177,1.034013605442177,1.034013605442177,1.034013605442177,1.034013605442177,1.034013605442177,1.034013605442177,1.034013605442177,1.034013605442177,1.034013605442177,1.034013605442177,1.034013605442177,1.034013605442177,1.034013605442177,1.034013605442177,1.034013605442177,1.034013605442177,1.034013605442177,1.034013605442177,1.034013605442177,1.034013605442177,1.034013605442177,1.034013605442177,1.034013605442177,1.034013605442177,1.034013605442177,1.034013605442177,1.034013605442177,1.034013605442177,1.034013605442177,1.034013605442177,1.034013605442177,1.034013605442177,1.034013605442177,1.034013605442177,1.034013605442177,1.034013605442177,1.034013605442177,1.034013605442177,1.034013605442177,1.034013605442177,1.034013605442177,1.034013605442177,1.034013605442177,1.034013605442177,1.034013605442177,1.034013605442177,1.034013605442177,1.034013605442177,1.034013605442177,1.034013605442177,1.034013605442177,1.034013605442177,1.034013605442177,1.034013605442177,1.034013605442177,1.034013605442177,1.034013605442177,1.034013605442177,1.034013605442177,1.034013605442177,1.034013605442177,1.034013605442177,1.034013605442177,1.034013605442177,1.034013605442177,1.034013605442177,1.034013605442177,1.034013605442177,1.034013605442177,1.034013605442177,1.034013605442177,1.034013605442177,1.034013605442177,1.034013605442177,1.034013605442177,1.034013605442177,1.034013605442177,1.034013605442177,1.034013605442177,1.034013605442177,1.0612244897959184,1.1088435374149659,1.1156462585034013,1.1156462585034013,1.1156462585034013,1.1224489795918366,1.1122448979591837,1.1088435374149659,1.0952380952380953,1.0714285714285714,1.0136054421768708,0.9795918367346939,0.9591836734693877,0.95578231292517,0.95578231292517,0.95578231292517,0.95578231292517,0.95578231292517,0.95578231292517,0.95578231292517,0.95578231292517,0.95578231292517,0.95578231292517,0.95578231292517,0.95578231292517,0.95578231292517,0.95578231292517,0.95578231292517,0.95578231292517,0.95578231292517,0.9659863945578231,1.0170068027210883,1.129251700680272,1.3265306122448979,1.4761904761904763,1.6598639455782314,1.7687074829931972,1.782312925170068,1.782312925170068,1.782312925170068,1.782312925170068,1.782312925170068,1.782312925170068,1.782312925170068,1.782312925170068,1.782312925170068,1.782312925170068,1.782312925170068,1.782312925170068,1.782312925170068,1.782312925170068,1.782312925170068,1.782312925170068,1.782312925170068,1.782312925170068,1.782312925170068,1.782312925170068,1.782312925170068,1.782312925170068,1.782312925170068,1.782312925170068,1.782312925170068,1.782312925170068,1.782312925170068,1.782312925170068,1.782312925170068,1.782312925170068,1.782312925170068,1.782312925170068,1.782312925170068,1.782312925170068,1.782312925170068,1.782312925170068,1.782312925170068,1.782312925170068,1.782312925170068,1.782312925170068,1.782312925170068,1.782312925170068,1.782312925170068,1.782312925170068,1.782312925170068,1.782312925170068,1.782312925170068,1.782312925170068,1.782312925170068,1.782312925170068,1.782312925170068,1.782312925170068,1.782312925170068,1.782312925170068,1.782312925170068,1.782312925170068,1.782312925170068,1.782312925170068,1.782312925170068,1.782312925170068,1.782312925170068,1.782312925170068,1.782312925170068,1.782312925170068,1.782312925170068,1.782312925170068,1.782312925170068,1.782312925170068,1.782312925170068,1.782312925170068,1.782312925170068,1.782312925170068,1.782312925170068,1.782312925170068,1.782312925170068,1.782312925170068,1.6054421768707483,1.4625850340136055,1.401360544217687,1.401360544217687,1.401360544217687,1.401360544217687,1.401360544217687,1.3979591836734695,1.3979591836734695,1.3877551020408163,1.346938775510204,1.2312925170068028,1.0204081632653061,0.8707482993197279,0.7414965986394558,0.5816326530612245,0.35034013605442177,0.24829931972789115,0.23809523809523808,0.23809523809523808,0.23469387755102042,0.23129251700680273,0.23129251700680273,0.21428571428571427,0.19727891156462585,0.17687074829931973,0.12244897959183673,0.07482993197278912,0.061224489795918366,0.05782312925170068,0.05102040816326531,0.05102040816326531,0.04081632653061224,0.034013605442176874,0.027210884353741496,0.023809523809523808,0.023809523809523808,0.023809523809523808,0.023809523809523808,0.023809523809523808,0.023809523809523808,0.023809523809523808,0.023809523809523808,0.023809523809523808,0.023809523809523808,0.06802721088435375,0.14965986394557823,0.17346938775510204,0.17346938775510204,0.1836734693877551,0.19047619047619047,0.19047619047619047,0.19047619047619047,0.19047619047619047,0.19047619047619047,0.19047619047619047,0.19047619047619047,0.19047619047619047,0.19047619047619047,0.19047619047619047,0.19047619047619047,0.19047619047619047,0.19047619047619047,0.19047619047619047,0.19047619047619047,0.19047619047619047,0.19047619047619047,0.1870748299319728,0.1870748299319728,0.1870748299319728,0.1870748299319728,0.1870748299319728,0.1870748299319728,0.1836734693877551,0.17346938775510204,0.16666666666666666,0.16326530612244897,0.16326530612244897,0.16326530612244897,0.16326530612244897,0.16326530612244897,0.16326530612244897,0.16326530612244897,0.16326530612244897,0.16326530612244897,0.16326530612244897,0.16326530612244897,0.16326530612244897,0.16326530612244897,0.16326530612244897,0.16326530612244897,0.16326530612244897,0.18027210884353742,0.20408163265306123,0.2619047619047619,0.3469387755102041,0.3707482993197279,0.3707482993197279,0.3707482993197279,0.3707482993197279,0.3707482993197279,0.3707482993197279,0.3707482993197279,0.3707482993197279,0.3707482993197279,0.3707482993197279,0.3707482993197279,0.3707482993197279,0.38095238095238093,0.41496598639455784,0.4897959183673469,0.6122448979591837,0.7891156462585034,1.0816326530612246,1.1972789115646258,1.2448979591836735,1.2551020408163265,1.2551020408163265,1.2551020408163265,1.2551020408163265,1.2585034013605443,1.2551020408163265,1.251700680272109,1.251700680272109,1.248299319727891,1.2448979591836735,1.2312925170068028,1.217687074829932,1.2040816326530612,1.1904761904761905,1.1768707482993197,1.1700680272108843,1.163265306122449,1.153061224489796,1.1462585034013606,1.1462585034013606,1.1462585034013606,1.1462585034013606,1.1462585034013606,1.1462585034013606,1.1462585034013606,1.1462585034013606,1.1462585034013606,1.1462585034013606,1.1734693877551021,1.3401360544217686,1.41156462585034,1.4149659863945578,1.401360544217687,1.3197278911564625,1.1904761904761905,1.0782312925170068,0.9455782312925171,0.8741496598639455,0.8537414965986394,0.8537414965986394,0.8537414965986394,0.8537414965986394,0.8537414965986394,0.8537414965986394,0.8537414965986394,0.8537414965986394,0.8537414965986394,0.8537414965986394,0.8537414965986394,0.8537414965986394,0.8537414965986394,0.8537414965986394,0.8537414965986394,0.8537414965986394,0.8537414965986394,0.8537414965986394,0.8537414965986394,0.8537414965986394,0.8537414965986394,0.8537414965986394,0.8537414965986394,0.8537414965986394,0.8537414965986394,0.8537414965986394,0.826530612244898,0.7346938775510204,0.5510204081632653,0.43537414965986393,0.3877551020408163,0.3707482993197279,0.3673469387755102,0.3673469387755102,0.36054421768707484,0.36054421768707484,0.36054421768707484,0.36054421768707484,0.36054421768707484,0.36054421768707484,0.36054421768707484,0.36054421768707484,0.3707482993197279,0.4421768707482993,0.5,0.5306122448979592,0.5510204081632653,0.5510204081632653,0.5510204081632653,0.5510204081632653,0.5510204081632653,0.5510204081632653,0.5510204081632653,0.5510204081632653,0.5510204081632653,0.5510204081632653,0.5680272108843537,0.5748299319727891,0.5782312925170068,0.5782312925170068,0.5782312925170068,0.5782312925170068,0.5782312925170068,0.5782312925170068,0.5782312925170068,0.5782312925170068,0.5782312925170068,0.5782312925170068,0.5782312925170068,0.5782312925170068,0.5782312925170068,0.5782312925170068,0.5986394557823129,0.6190476190476191,0.6258503401360545,0.6258503401360545,0.6258503401360545,0.6258503401360545,0.6258503401360545,0.6258503401360545,0.6258503401360545,0.6258503401360545,0.6258503401360545,0.6258503401360545,0.6258503401360545,0.6224489795918368,0.5850340136054422,0.5306122448979592,0.46258503401360546,0.3945578231292517,0.3673469387755102,0.36394557823129253,0.37755102040816324,0.4013605442176871,0.48299319727891155,0.5714285714285714,0.5986394557823129,0.6122448979591837,0.6394557823129252,0.6666666666666666,0.7346938775510204,0.8979591836734694,0.9625850340136054,0.9761904761904762,0.9829931972789115,0.9897959183673469,0.9931972789115646,1,1,1,1,1,1,1,1,1,1,1,1,1,1,1,1,1,1,1,1,1,1,1,1,1,1,1,1,1,1,1,1,1,1,1,1,1,0.9965986394557823,0.9795918367346939,0.9149659863945578,0.8435374149659864,0.782312925170068,0.7346938775510204,0.7006802721088435,0.673469387755102,0.6530612244897959,0.6394557823129252,0.6122448979591837,0.5714285714285714,0.5476190476190477,0.5306122448979592,0.5238095238095238,0.4931972789115646,0.47619047619047616,0.46258503401360546,0.43537414965986393,0.41836734693877553,0.391156462585034,0.35374149659863946,0.29931972789115646,0.24489795918367346,0.20408163265306123,0.1870748299319728,0.1836734693877551,0.18027210884353742,0.17687074829931973,0.17006802721088435,0.16326530612244897,0.1598639455782313,0.1564625850340136,0.1564625850340136,0.1564625850340136,0.14625850340136054,0.1360544217687075,0.1360544217687075,0.1360544217687075,0.1360544217687075,0.1360544217687075,0.1360544217687075,0.1360544217687075,0.1360544217687075,0.1360544217687075,0.1360544217687075,0.1360544217687075,0.14625850340136054,0.25170068027210885,0.46598639455782315,0.5748299319727891,0.5782312925170068,0.5782312925170068,0.5782312925170068,0.5782312925170068,0.5782312925170068,0.5782312925170068,0.5782312925170068,0.5782312925170068,0.5782312925170068,0.5782312925170068,0.5782312925170068,0.5782312925170068,0.5782312925170068,0.5782312925170068,0.5782312925170068,0.5782312925170068,0.5782312925170068,0.5782312925170068,0.5782312925170068,0.5782312925170068,0.5782312925170068,0.5782312925170068,0.5782312925170068,0.5782312925170068,0.5782312925170068,0.5782312925170068,0.5782312925170068,0.5782312925170068,0.5782312925170068,0.5782312925170068,0.5782312925170068,0.5782312925170068,0.5782312925170068,0.5782312925170068,0.5782312925170068,0.5782312925170068,0.5782312925170068,0.5782312925170068,0.5782312925170068,0.5782312925170068,0.5782312925170068,0.5782312925170068,0.5782312925170068,0.5782312925170068,0.5782312925170068,0.5782312925170068,0.5782312925170068,0.5782312925170068,0.5782312925170068,0.5782312925170068,0.5782312925170068,0.5782312925170068,0.5782312925170068,0.5782312925170068],"y":[-5.317460317460318,-5.317460317460318,1.6158730158730155,1.7015873015873013,1.882539682539682,2.168253968253968,2.2349206349206345,2.2539682539682535,2.263492063492063,2.282539682539682,2.3015873015873014,2.3015873015873014,2.3015873015873014,2.3015873015873014,2.3015873015873014,2.3015873015873014,2.3015873015873014,2.3015873015873014,2.3015873015873014,2.3015873015873014,2.3015873015873014,2.3015873015873014,2.3015873015873014,2.3015873015873014,2.3015873015873014,2.3015873015873014,2.3015873015873014,2.3015873015873014,2.3015873015873014,2.3015873015873014,2.3015873015873014,2.311111111111111,2.282539682539682,2.263492063492063,2.2539682539682535,2.2539682539682535,2.244444444444444,2.244444444444444,2.244444444444444,2.244444444444444,2.244444444444444,2.244444444444444,2.244444444444444,2.244444444444444,2.2349206349206345,2.2158730158730156,2.206349206349206,2.1968253968253966,2.1968253968253966,2.187301587301587,2.187301587301587,2.187301587301587,2.187301587301587,2.187301587301587,2.187301587301587,2.187301587301587,2.187301587301587,2.187301587301587,2.187301587301587,2.187301587301587,2.187301587301587,2.187301587301587,2.187301587301587,2.187301587301587,2.187301587301587,2.187301587301587,2.187301587301587,2.187301587301587,2.187301587301587,2.187301587301587,2.187301587301587,2.187301587301587,2.187301587301587,2.187301587301587,2.187301587301587,2.187301587301587,2.187301587301587,2.187301587301587,2.187301587301587,2.1777777777777776,2.1777777777777776,2.1777777777777776,2.168253968253968,2.1492063492063487,2.1301587301587297,2.12063492063492,2.139682539682539,2.187301587301587,2.3015873015873014,2.4349206349206347,2.444444444444444,2.4158730158730157,2.368253968253968,2.225396825396825,1.9587301587301584,1.5301587301587298,1.0730158730158728,0.7587301587301584,0.5111111111111107,0.406349206349206,0.35873015873015834,0.3206349206349203,0.2920634920634917,0.2825396825396822,0.24444444444444408,0.20634920634920598,0.18730158730158694,0.14920634920634884,0.11111111111111074,0.11111111111111074,0.09206349206349171,0.07301587301587266,0.05396825396825361,0.025396825396825036,0.025396825396825036,0.01587301587301551,0.006349206349205988,0.006349206349205988,0.006349206349205988,0.006349206349205988,0.006349206349205988,0.006349206349205988,0.006349206349205988,0.006349206349205988,0.006349206349205988,0.23492063492063456,0.7015873015873012,0.9492063492063488,1.1015873015873012,1.406349206349206,2.025396825396825,2.1777777777777776,2.1777777777777776,2.1777777777777776,2.1777777777777776,2.1777777777777776,2.1777777777777776,2.1777777777777776,2.1777777777777776,2.1777777777777776,2.1777777777777776,2.1777777777777776,2.1777777777777776,2.1777777777777776,2.1777777777777776,2.1777777777777776,2.1777777777777776,2.1777777777777776,2.1777777777777776,2.1777777777777776,2.1777777777777776,2.1777777777777776,2.1777777777777776,2.1777777777777776,2.1777777777777776,2.1777777777777776,2.1777777777777776,2.1777777777777776,2.1777777777777776,2.1777777777777776,2.1777777777777776,2.1777777777777776,2.1777777777777776,2.1777777777777776,2.1777777777777776,2.1777777777777776,2.1777777777777776,2.1777777777777776,2.1777777777777776,2.1777777777777776,2.1777777777777776,2.1777777777777776,2.1777777777777776,2.1777777777777776,2.1777777777777776,2.1777777777777776,2.1777777777777776,2.1777777777777776,2.1777777777777776,2.1777777777777776,2.1777777777777776,2.1777777777777776,2.1777777777777776,2.1777777777777776,2.1777777777777776,2.1777777777777776,2.1777777777777776,2.1777777777777776,2.1777777777777776,2.1777777777777776,2.1777777777777776,2.1777777777777776,2.1777777777777776,2.1777777777777776,2.1777777777777776,2.1777777777777776,2.1777777777777776,2.1777777777777776,2.1777777777777776,2.1777777777777776,2.1777777777777776,2.1777777777777776,2.1777777777777776,2.1777777777777776,2.1777777777777776,2.1777777777777776,2.1777777777777776,2.1777777777777776,2.1777777777777776,2.1777777777777776,2.1777777777777776,2.1777777777777776,2.1777777777777776,2.1777777777777776,2.1777777777777776,2.1777777777777776,2.1777777777777776,2.1777777777777776,2.1777777777777776,2.1777777777777776,2.1777777777777776,2.1777777777777776,2.1777777777777776,2.1777777777777776,2.1777777777777776,2.1777777777777776,2.1777777777777776,2.1777777777777776,2.1777777777777776,2.1777777777777776,2.1777777777777776,2.1777777777777776,2.1777777777777776,2.1777777777777776,2.1777777777777776,2.1777777777777776,2.1777777777777776,2.1777777777777776,2.1777777777777776,2.1777777777777776,2.1777777777777776,2.1777777777777776,2.1777777777777776,2.1777777777777776,2.1777777777777776,2.1777777777777776,2.1777777777777776,2.1777777777777776,2.1777777777777776,2.1777777777777776,2.1777777777777776,2.1777777777777776,2.1777777777777776,2.1777777777777776,2.1777777777777776,2.1777777777777776,2.1777777777777776,2.1777777777777776,2.1777777777777776,2.1777777777777776,2.1777777777777776,2.1777777777777776,2.1777777777777776,2.1777777777777776,2.1777777777777776,2.1777777777777776,2.1777777777777776,2.1777777777777776,2.1777777777777776,2.1777777777777776,2.1777777777777776,2.1777777777777776,2.1777777777777776,2.1777777777777776,2.1777777777777776,2.1777777777777776,2.1777777777777776,2.1777777777777776,2.1777777777777776,2.1777777777777776,2.1777777777777776,2.1777777777777776,2.1777777777777776,2.1777777777777776,2.1777777777777776,2.1777777777777776,2.1777777777777776,2.158730158730158,2.139682539682539,2.1301587301587297,2.1301587301587297,2.1301587301587297,2.12063492063492,2.12063492063492,2.0730158730158728,1.9777777777777774,1.806349206349206,1.5015873015873011,1.3396825396825394,1.2539682539682535,1.2539682539682535,1.244444444444444,1.244444444444444,1.244444444444444,1.244444444444444,1.244444444444444,1.244444444444444,1.244444444444444,1.244444444444444,1.244444444444444,1.244444444444444,1.244444444444444,1.244444444444444,1.244444444444444,1.244444444444444,1.244444444444444,1.244444444444444,1.244444444444444,1.2920634920634917,1.4158730158730155,1.5587301587301583,1.5206349206349203,1.3111111111111107,1.2730158730158727,1.2920634920634917,1.2920634920634917,1.2920634920634917,1.2920634920634917,1.2920634920634917,1.2920634920634917,1.2920634920634917,1.2920634920634917,1.2920634920634917,1.2920634920634917,1.2920634920634917,1.2920634920634917,1.2920634920634917,1.2920634920634917,1.2920634920634917,1.2920634920634917,1.2920634920634917,1.2920634920634917,1.2920634920634917,1.2920634920634917,1.2920634920634917,1.2920634920634917,1.2920634920634917,1.2920634920634917,1.2920634920634917,1.2920634920634917,1.2920634920634917,1.2920634920634917,1.2920634920634917,1.2920634920634917,1.2920634920634917,1.2920634920634917,1.2920634920634917,1.2920634920634917,1.2920634920634917,1.2920634920634917,1.2920634920634917,1.2920634920634917,1.2920634920634917,1.2920634920634917,1.2920634920634917,1.2920634920634917,1.2920634920634917,1.2920634920634917,1.2920634920634917,1.2920634920634917,1.2920634920634917,1.2920634920634917,1.2920634920634917,1.2920634920634917,1.2920634920634917,1.2920634920634917,1.2920634920634917,1.2920634920634917,1.2920634920634917,1.2920634920634917,1.2920634920634917,1.2920634920634917,1.2920634920634917,1.2920634920634917,1.2920634920634917,1.2920634920634917,1.2920634920634917,1.2920634920634917,1.2920634920634917,1.2920634920634917,1.2920634920634917,1.2920634920634917,1.2920634920634917,1.2920634920634917,1.2920634920634917,1.2920634920634917,1.2920634920634917,1.2920634920634917,1.2920634920634917,1.3015873015873012,1.406349206349206,1.6730158730158726,1.9206349206349203,1.9206349206349203,1.9206349206349203,1.9206349206349203,1.9206349206349203,1.9206349206349203,1.9396825396825392,2.0158730158730154,2.0158730158730154,1.949206349206349,1.7587301587301585,1.6158730158730155,1.4825396825396822,1.2920634920634917,1.0730158730158728,1.0158730158730156,1.0063492063492059,1.0063492063492059,1.0063492063492059,1.0063492063492059,1.0063492063492059,1.0063492063492059,1.0063492063492059,1.0158730158730156,1.0158730158730156,1.0158730158730156,1.025396825396825,1.025396825396825,1.0349206349206346,1.044444444444444,1.044444444444444,1.044444444444444,1.044444444444444,1.044444444444444,1.044444444444444,1.044444444444444,1.044444444444444,1.044444444444444,1.044444444444444,1.044444444444444,1.044444444444444,1.044444444444444,1.063492063492063,1.4539682539682537,1.9301587301587297,2.025396825396825,2.025396825396825,2.0539682539682538,2.0730158730158728,2.0730158730158728,2.0730158730158728,2.0730158730158728,2.0730158730158728,2.0730158730158728,2.0730158730158728,2.0730158730158728,2.0730158730158728,2.0730158730158728,1.968253968253968,1.7777777777777775,1.4825396825396822,1.2730158730158727,1.1968253968253966,1.1873015873015869,1.1873015873015869,1.1873015873015869,1.1873015873015869,1.1873015873015869,1.1873015873015869,1.1777777777777774,1.1396825396825394,1.1206349206349202,1.0825396825396822,1.044444444444444,1.025396825396825,1.0158730158730156,1.0063492063492059,1.0063492063492059,1.0063492063492059,1.0063492063492059,1.0063492063492059,1.0063492063492059,1.0063492063492059,1.0063492063492059,1.0063492063492059,1.0063492063492059,1.0063492063492059,1.0063492063492059,1.025396825396825,1.206349206349206,1.4634920634920632,1.606349206349206,1.7111111111111108,1.7968253968253964,1.8253968253968251,1.8253968253968251,1.8253968253968251,1.8253968253968251,1.8253968253968251,1.8253968253968251,1.8253968253968251,1.8253968253968251,1.8253968253968251,1.8253968253968251,1.8253968253968251,1.8253968253968251,1.8253968253968251,1.787301587301587,1.7111111111111108,1.606349206349206,1.5015873015873011,1.2539682539682535,1.1111111111111107,1.025396825396825,1.0063492063492059,0.9968253968253965,0.9873015873015869,0.9682539682539679,0.8825396825396822,0.8158730158730155,0.7492063492063489,0.6730158730158726,0.606349206349206,0.5777777777777774,0.5682539682539679,0.5682539682539679,0.5587301587301584,0.5492063492063488,0.5301587301587298,0.5206349206349202,0.5111111111111107,0.5111111111111107,0.5111111111111107,0.5111111111111107,0.5111111111111107,0.5111111111111107,0.5111111111111107,0.5111111111111107,0.5111111111111107,0.5111111111111107,0.5111111111111107,0.5111111111111107,0.606349206349206,1.0158730158730156,1.1968253968253966,1.1968253968253966,1.2920634920634917,1.606349206349206,1.9206349206349203,2.158730158730158,2.387301587301587,2.5111111111111106,2.5396825396825395,2.549206349206349,2.549206349206349,2.549206349206349,2.549206349206349,2.549206349206349,2.549206349206349,2.549206349206349,2.549206349206349,2.549206349206349,2.549206349206349,2.549206349206349,2.549206349206349,2.549206349206349,2.549206349206349,2.549206349206349,2.549206349206349,2.549206349206349,2.549206349206349,2.549206349206349,2.549206349206349,2.549206349206349,2.549206349206349,2.549206349206349,2.549206349206349,2.5301587301587296,2.4158730158730157,2.1492063492063487,1.7111111111111108,1.3682539682539678,1.1396825396825394,1.0730158730158728,1.063492063492063,1.0539682539682536,0.9968253968253965,0.9492063492063488,0.9492063492063488,0.9492063492063488,0.9492063492063488,0.9492063492063488,0.9492063492063488,0.9492063492063488,0.8920634920634917,0.6253968253968251,0.35873015873015834,0.15873015873015836,0.01587301587301551,-0.04126984126984163,-0.0698412698412702,-0.0698412698412702,-0.0698412698412702,-0.0698412698412702,-0.0698412698412702,-0.0698412698412702,-0.0698412698412702,-0.0698412698412702,-0.07936507936507972,-0.0698412698412702,-0.06031746031746068,-0.06031746031746068,-0.050793650793651154,-0.04126984126984163,-0.04126984126984163,-0.04126984126984163,-0.04126984126984163,-0.04126984126984163,-0.04126984126984163,-0.04126984126984163,-0.04126984126984163,-0.04126984126984163,-0.04126984126984163,-0.04126984126984163,0.09206349206349171,0.20634920634920598,0.22539682539682504,0.22539682539682504,0.23492063492063456,0.23492063492063456,0.23492063492063456,0.23492063492063456,0.23492063492063456,0.23492063492063456,0.23492063492063456,0.23492063492063456,0.23492063492063456,0.24444444444444408,0.30158730158730124,0.3873015873015869,0.4920634920634917,0.606349206349206,0.6825396825396822,0.7015873015873012,0.7396825396825393,0.787301587301587,0.9015873015873013,1.0349206349206346,1.063492063492063,1.063492063492063,1.0539682539682536,1.0539682539682536,1.1015873015873012,1.1682539682539679,1.1396825396825394,1.1111111111111107,1.1015873015873012,1.0730158730158728,1.063492063492063,1.044444444444444,1.0349206349206346,1.025396825396825,1.025396825396825,1.025396825396825,1.025396825396825,1.025396825396825,1.025396825396825,1.025396825396825,1.025396825396825,1.025396825396825,1.025396825396825,1.025396825396825,1.025396825396825,1.025396825396825,1.025396825396825,1.025396825396825,1.025396825396825,1.025396825396825,1.025396825396825,1.025396825396825,1.025396825396825,1.025396825396825,1.025396825396825,1.025396825396825,1.025396825396825,1.025396825396825,1.025396825396825,1.025396825396825,1.025396825396825,1.025396825396825,1.025396825396825,1.025396825396825,1.025396825396825,1.0349206349206346,1.0349206349206346,1.044444444444444,1.063492063492063,1.0825396825396822,1.0825396825396822,1.044444444444444,1.025396825396825,1.025396825396825,1.025396825396825,1.025396825396825,1.025396825396825,1.025396825396825,0.9968253968253965,0.9301587301587299,0.8634920634920631,0.7206349206349203,0.5301587301587298,0.3396825396825393,0.27301587301587266,0.24444444444444408,0.20634920634920598,0.18730158730158694,0.15873015873015836,0.1301587301587298,0.06349206349206313,-0.01269841269841306,-0.04126984126984163,-0.06031746031746068,-0.0698412698412702,-0.0698412698412702,-0.0698412698412702,-0.07936507936507972,-0.07936507936507972,-0.07936507936507972,-0.07936507936507972,-0.07936507936507972,-0.07936507936507972,-0.07936507936507972,-0.07936507936507972,-0.07936507936507972,-0.07936507936507972,-0.07936507936507972,-0.07936507936507972,-0.07936507936507972,-0.07936507936507972,-0.07936507936507972,-0.07936507936507972,-0.07936507936507972,-0.07936507936507972,0.03492063492063456,0.5396825396825393,1.1206349206349202,1.3492063492063489,1.3587301587301583,1.3587301587301583,1.3587301587301583,1.3587301587301583,1.3587301587301583,1.3587301587301583,1.3587301587301583,1.3587301587301583,1.3587301587301583,1.3587301587301583,1.3587301587301583,1.3587301587301583,1.3587301587301583,1.3587301587301583,1.3587301587301583,1.3587301587301583,1.3587301587301583,1.3587301587301583,1.3587301587301583,1.3587301587301583,1.3587301587301583,1.3587301587301583,1.3587301587301583,1.3587301587301583,1.3587301587301583,1.3587301587301583,1.3587301587301583,1.3587301587301583,1.3587301587301583,1.3587301587301583,1.3587301587301583,1.3587301587301583,1.3587301587301583,1.3587301587301583,1.3587301587301583,1.3587301587301583,1.3587301587301583,1.3587301587301583,1.3587301587301583,1.3587301587301583,1.3587301587301583,1.3587301587301583,1.3587301587301583,1.3587301587301583,1.3587301587301583,1.3587301587301583,1.3587301587301583,1.3587301587301583,1.3587301587301583,1.3587301587301583,1.3587301587301583,1.3587301587301583,1.3587301587301583,1.3587301587301583]},"final_keyboard_state":["A","S","T","R","E","Z","B"],"num_clicks":7,"points":13,"cheat":false,"trial_type":"Hangman","trial_index":5,"time_elapsed":157761,"internal_node_id":"0.0-4.0","protocol_sum":"","subject_identifier":216,"subject_sum":[149,55,243,46,199,89,158,26,233,83,175,108,159,146,159,231,71,255,157,173,247,154,155,239,241,243,4,197,80,23,48,17],"subject_pair":108,"STUDY_ID":"669eec2e4270c76bc184a38e","PROLIFIC_PID":"57dd186e6598aa0001992616","SESSION_ID":"669fb2b40f034c49066b9fb8","practice_instructions":1,"leaderboard_instructions":0,"bonus":0,"reveal_word":false,"self_rating":"2","confidence":"79"},{"view_history":"[{\"page_index\":0,\"viewing_time\":3016.599999964237},{\"page_index\":1,\"viewing_time\":12617.800000011921}]","rt":15635.099999964237,"trial_type":"instructions","trial_index":6,"time_elapsed":173398,"internal_node_id":"0.0-5.0","protocol_sum":"","subject_identifier":216,"subject_sum":[149,55,243,46,199,89,158,26,233,83,175,108,159,146,159,231,71,255,157,173,247,154,155,239,241,243,4,197,80,23,48,17],"subject_pair":108,"STUDY_ID":"669eec2e4270c76bc184a38e","PROLIFIC_PID":"57dd186e6598aa0001992616","SESSION_ID":"669fb2b40f034c49066b9fb8","practice_instructions":1,"leaderboard_instructions":0,"bonus":0,"reveal_word":false,"self_rating":"2","confidence":"79"},{"rt":10601,"responses":"{\"Q0\":\"...from <b>a previous session</b> that is part of the upcoming tournament.\"}","question_order":"[0]","trial_type":"survey-multi-choice","trial_index":7,"time_elapsed":184000,"internal_node_id":"0.0-6.0","protocol_sum":"","subject_identifier":216,"subject_sum":[149,55,243,46,199,89,158,26,233,83,175,108,159,146,159,231,71,255,157,173,247,154,155,239,241,243,4,197,80,23,48,17],"subject_pair":108,"correct":false,"test_part":"multichoice_leaderboard","STUDY_ID":"669eec2e4270c76bc184a38e","PROLIFIC_PID":"57dd186e6598aa0001992616","SESSION_ID":"669fb2b40f034c49066b9fb8","practice_instructions":1,"leaderboard_instructions":0,"bonus":0,"reveal_word":false,"self_rating":"2","confidence":"79"},{"view_history":"[{\"page_index\":0,\"viewing_time\":4848.399999976158}]","rt":4848.599999964237,"trial_type":"instructions","trial_index":8,"time_elapsed":188850,"internal_node_id":"0.0-7.0-0.0","protocol_sum":"","subject_identifier":216,"subject_sum":[149,55,243,46,199,89,158,26,233,83,175,108,159,146,159,231,71,255,157,173,247,154,155,239,241,243,4,197,80,23,48,17],"subject_pair":108,"STUDY_ID":"669eec2e4270c76bc184a38e","PROLIFIC_PID":"57dd186e6598aa0001992616","SESSION_ID":"669fb2b40f034c49066b9fb8","practice_instructions":1,"leaderboard_instructions":0,"bonus":0,"reveal_word":false,"self_rating":"2","confidence":"79"},{"rt":8493.599999964237,"responses":"{\"Q0\":\"...from the <b>upcoming tournament</b>.\"}","question_order":"[0]","trial_type":"survey-multi-choice","trial_index":9,"time_elapsed":197344,"internal_node_id":"0.0-7.0-1.0","protocol_sum":"","subject_identifier":216,"subject_sum":[149,55,243,46,199,89,158,26,233,83,175,108,159,146,159,231,71,255,157,173,247,154,155,239,241,243,4,197,80,23,48,17],"subject_pair":108,"correct":false,"test_part":"multichoice_leaderboard","STUDY_ID":"669eec2e4270c76bc184a38e","PROLIFIC_PID":"57dd186e6598aa0001992616","SESSION_ID":"669fb2b40f034c49066b9fb8","practice_instructions":1,"leaderboard_instructions":0,"bonus":0,"reveal_word":false,"self_rating":"2","confidence":"79"},{"view_history":"[{\"page_index\":0,\"viewing_time\":2028.1000000238419}]","rt":2028.300000011921,"trial_type":"instructions","trial_index":10,"time_elapsed":199374,"internal_node_id":"0.0-7.1-0.1","protocol_sum":"","subject_identifier":216,"subject_sum":[149,55,243,46,199,89,158,26,233,83,175,108,159,146,159,231,71,255,157,173,247,154,155,239,241,243,4,197,80,23,48,17],"subject_pair":108,"STUDY_ID":"669eec2e4270c76bc184a38e","PROLIFIC_PID":"57dd186e6598aa0001992616","SESSION_ID":"669fb2b40f034c49066b9fb8","practice_instructions":1,"leaderboard_instructions":0,"bonus":0,"reveal_word":false,"self_rating":"2","confidence":"79"},{"rt":2811.599999964237,"responses":"{\"Q0\":\"...from <b>a previous session</b> that is not part of the upcoming tournament.\"}","question_order":"[0]","trial_type":"survey-multi-choice","trial_index":11,"time_elapsed":202186,"internal_node_id":"0.0-7.1-1.1","protocol_sum":"","subject_identifier":216,"subject_sum":[149,55,243,46,199,89,158,26,233,83,175,108,159,146,159,231,71,255,157,173,247,154,155,239,241,243,4,197,80,23,48,17],"subject_pair":108,"correct":true,"test_part":"multichoice_leaderboard","STUDY_ID":"669eec2e4270c76bc184a38e","PROLIFIC_PID":"57dd186e6598aa0001992616","SESSION_ID":"669fb2b40f034c49066b9fb8","practice_instructions":1,"leaderboard_instructions":0,"bonus":0,"reveal_word":false,"self_rating":"2","confidence":"79"},{"view_history":"[{\"page_index\":0,\"viewing_time\":8998.799999952316}]","rt":8998.899999976158,"trial_type":"instructions","trial_index":12,"time_elapsed":211186,"internal_node_id":"0.0-8.0","protocol_sum":"","subject_identifier":216,"subject_sum":[149,55,243,46,199,89,158,26,233,83,175,108,159,146,159,231,71,255,157,173,247,154,155,239,241,243,4,197,80,23,48,17],"subject_pair":108,"STUDY_ID":"669eec2e4270c76bc184a38e","PROLIFIC_PID":"57dd186e6598aa0001992616","SESSION_ID":"669fb2b40f034c49066b9fb8","practice_instructions":1,"leaderboard_instructions":0,"bonus":0,"reveal_word":false,"self_rating":"2","confidence":"79"},{"rt":9085.900000035763,"responses":"{\"Q0\":\"...players' leaderboard position (in terms of <b>points</b>) in an <b>upcoming tournament.</b>\"}","question_order":"[0]","trial_type":"survey-multi-choice","trial_index":13,"time_elapsed":220272,"internal_node_id":"0.0-9.0","protocol_sum":"","subject_identifier":216,"subject_sum":[149,55,243,46,199,89,158,26,233,83,175,108,159,146,159,231,71,255,157,173,247,154,155,239,241,243,4,197,80,23,48,17],"subject_pair":108,"correct":true,"test_part":"multichoice_tournament","STUDY_ID":"669eec2e4270c76bc184a38e","PROLIFIC_PID":"57dd186e6598aa0001992616","SESSION_ID":"669fb2b40f034c49066b9fb8","practice_instructions":1,"leaderboard_instructions":0,"bonus":0,"reveal_word":false,"self_rating":"2","confidence":"79"},{"view_history":"[{\"page_index\":0,\"viewing_time\":7046.5}]","rt":7046.700000047684,"trial_type":"instructions","trial_index":14,"time_elapsed":227320,"internal_node_id":"0.0-11.0","protocol_sum":"","subject_identifier":216,"subject_sum":[149,55,243,46,199,89,158,26,233,83,175,108,159,146,159,231,71,255,157,173,247,154,155,239,241,243,4,197,80,23,48,17],"subject_pair":108,"STUDY_ID":"669eec2e4270c76bc184a38e","PROLIFIC_PID":"57dd186e6598aa0001992616","SESSION_ID":"669fb2b40f034c49066b9fb8","practice_instructions":1,"leaderboard_instructions":0,"bonus":0,"reveal_word":false,"self_rating":"2","confidence":"79"},{"view_history":"[{\"page_index\":0,\"viewing_time\":7991}]","rt":7991.200000047684,"trial_type":"instructions","trial_index":15,"time_elapsed":235311,"internal_node_id":"0.0-12.0-0.0","protocol_sum":"","subject_identifier":216,"subject_sum":[149,55,243,46,199,89,158,26,233,83,175,108,159,146,159,231,71,255,157,173,247,154,155,239,241,243,4,197,80,23,48,17],"subject_pair":108,"STUDY_ID":"669eec2e4270c76bc184a38e","PROLIFIC_PID":"57dd186e6598aa0001992616","SESSION_ID":"669fb2b40f034c49066b9fb8","practice_instructions":1,"leaderboard_instructions":0,"bonus":0,"reveal_word":false,"self_rating":"2","confidence":"79"},{"word":"FIG","click_log":{"letter":["","P","B","K","S","D","M","V","W","N","E","F","I","G"],"t":[0,12030.699999988079,22908.099999964237,24375.80000001192,25443.599999964237,26711.80000001192,27546.5,28280.099999964237,29114.69999998808,29648.599999964237,30249.399999976158,30815.899999976158,34586.80000001192,35720.80000001192],"hit":[null,0,0,0,0,0,0,0,0,0,0,1,1,1],"asked":["","P","PB","PBK","PBKS","PBKSD","PBKSDM","PBKSDMV","PBKSDMVW","PBKSDMVWN","PBKSDMVWNE","PBKSDMVWNEF","PBKSDMVWNEFI","PBKSDMVWNEFIG"],"word_state":["___","___","___","___","___","___","___","___","___","___","___","F__","FI_","FIG"]},"hover_log":{"letter":["?","?","?","?","?","?","?","?","?","?","?","?","?","?","?","?","?","?","?","?","?","?","?","?","?","?","?","?","?","?","?","?","?","?","?","?","?","?","?","?","?","?","?","?","?","?","?","?","?","?","?","?","?","?","?","?","?","?","?","?","?","?","?","?","?","?","?","?","?","?","?","?","?","?","?","?","?","?","?","?","?","?","?","?","?","?","?","?","?","?","?","?","?","?","?","?","?","?","?","?","?","?","?","?","?","?","?","?","?","?","?","?","?","?","?","?","?","?","?","?","?","?","?","?","?","?","?","?","?","?","?","?","?","?","?","?","?","?","?","?","?","?","?","?","?","?","?","?","?","?","?","?","?","?","?","?","?","?","?","?","?","?","?","?","?","?","?","?","?","?","?","?","?","?","?","?","?","?","?","?","?","?","?","?","?","?","?","?","?","?","?","?","?","?","?","?","?","?","?","?","?","?","?","?","?","?","?","?","?","?","?","?","?","?","?","?","?","?","?","?","?","?","?","?","?","?","?","?","?","?","?","?","?","?","?","?","?","?","?","?","?","?","?","?","?","?","?","?","?","?","?","?","?","?","?","?","?","?","?","?","?","?","?","?","?","?","?","?","?","?","?","?","?","?","?","?","?","?","?","?","?","?","?","?","?","?","?","?","?","?","?","?","?","?","?","?","?","?","?","?","?","?","?","?","?","?","?","?","?","?","?","?","?","?","?","?","?","?","?","?","?","?","?","?","?","?","?","?","?","?","?","?","?","?","?","?","?","?","?","?","?","?","?","?","?","?","?","?","?","?","?","?","?","?","?","?","?","?","?","?","?","?","?","?","?","?","?","?","?","?","?","?","?","?","?","?","?","?","?","?","?","?","?","?","?","?","?","?","?","?","?","?","?","?","?","?","?","?","?","?","?","?","?","?","?","?","?","?","?","?","?","?","?","?","?","?","?","?","?","?","?","?","?","?","?","?","?","?","?","?","?","?","?","?","?","?","?","?","?","?","?","?","?","?","?","?","?","?","?","?","?","?","?","?","?","?","?","?","?","?","?","?","?","?","?","?","?","?","?","?","?","?","?","?","?","?","?","?","?","?","?","?","?","?","?","?","?","?","?","?","?","?","?","?","?","?","?","?","?","?","?","?","?","?","?","?","?","?","?","?","?","?","?","?","?","?","?","?","?","?","?","?","?","?","?","?","?","?","?","?","?","?","?","?","?","?","?","?","?","?","?","?","?","?","?","?","?","?","?","?","?","?","?","?","?","?","?","?","?","?","?","?","?","?","?","?","?","?","?","?","?","?","?","?","?","?","?","?","?","?","?","?","?","?","?","?","?","?","?","?","?","?","?","?","?","?","?","?","?","?","?","?","?","?","?","?","?","?","?","?","?","?","?","?","?","?","?","?","?","?","?","?","?","?","?","?","?","?","?","?","?","?","?","?","?","?","?","?","?","?","?","?","?","?","?","?","?","?","?","?","?","?","?","?","?","?","?","?","?","?","?","?","?","?","?","?","?","?","?","?","?","?","?","?","?","?","?","?","?","?","?","?","?","?","?","?","?","?","?","?","?","?","?","?","?","?","?","?","?","?","?","?","?","?","?","?","?","?","?","?","?","?","?","?","?","?","?","?","?","?","?","?","?","?","?","?","?","?","?","?","?","?","?","?","?","?","?","?","?","?","?","?","?","?","?","?","?","?","?","?","?","?","?","?","?","?","?","?","?","?","?","?","?","?","?","?","?","?","?","?","?","?","?","?","?","?","?","?","?","?","?","?","?","?","?","?","?","?","?","?","?","?","?","?","?","?","?","?","?","?","?","?","?","?","?","?","?","?","?","?","?","?","?","?","?","?","?","?","?","?","?","?","?","?","?","?","?","?","?","?","?","?","?","?","?","?","?","?","?","?","?","?","?","?","?","?","?","?","?","?","?","?","?","?","?","?","?","?","?","?","?","?","?","?","?","?","?","?","?","?","?","?","?","?","?","?","?","?","?","?","?","?","?","?","?","?","?","?","?","?","?","?","?","?","?","?","?","?","?","?","?","?","?","?","?","?","?","?","?","?","?","?","?","?","?","?","?","?","?","?","?","?","?","?","?","?","?","?","?","?","?","?","?","?","?","?","?","?","?","?","?","?","?","?","?","?","?","?","?","?","?","?","?","?","?","?","?","?","?","?","?","?","?","?","?","?","?","?","?","?","?","?","?","?","?","?","?","?","?","?","?","?","?","?","?","?","?","?","?","?","?","?","?","?","?","?","?","?","?","?","?","?","?","?","?","?","?","?","?","?","?","?","?","?","?","?","?","?","?","?","?","?","?","?","?","?","?","?","?","?","?","?","?","?","?","?","?","?","?","?","?","?","?","?","?","?","?","?","?","?","?","?","?","?","?","?","?","?","?","?","?","?","?","?","?","?","?","?","?","?","?","?","?","?","?","?","?","?","?","?","?","?","?","?","?","?","?","?","?","?","?","?","?","?","?","?","?","?","?","?","?","?","?","?","?","?","?","?","?","?","?","?","?","?","?","?","?","?","?","?","?","?","?","?","?","?","?","?","?","?","?","?","?","?","?","?","?","?","?","?","?","?","?","?","?","?","?","?","?","?","?","?","?","?","?","?","?","?","?","?","?","?","?","?","?","?","?","?","?","?","?","?","?","?","?","?","?","?","?","?","?","?","?","?","?","?","?","?","?","?","?","?","?","?","?","?","?","?","?","?","?","?","?","?","?","?","?","?","?","?","?","?","?","?","?","?","?","?","?","?","?","?","?","?","?","?","?","?","?","?","?","?","?","?","?","?","?","?","?","?","?","?","?","?","?","?","?","?","?","?","?","?","?","?","?","?","?","?","?","?","?","?","?","?","?","?","?","?","?","?","?","?","?","?","?","?","?","?","?","?","?","?","?","?","?","?","?","?","?","?","?","?","?","?","?","?","?","?","?","?","?","?","?","?","?","?","?","?","?","?","?","?","?","?","?","?","?","?","?","?","?","?","?","?","?","?","?","?","?","?","?","?","?","?","?","?","?","?","?","?","?","?","?","?","?","?","?","?","?","?","?","?","?","?","?","?","?","?","?","?","?","?","?","?","?","?","?","?","?","?","?","?","?","?","?","?","?","?","?","?","?","?","?","?","?","?","?","?","?","?","?","?","?","?","?","?","?","?","?","?","?","?","?","?","?","?","?","?","?","?","?","?","?","?","?","?","?","?","?","?","?","?","?","?","?","?","?","?","?","?","?","?","?","?","?","?","?","?","?","?","?","?","?","?","?","?","?","?","?","?","?","?","?","?","?","?","?","?","?","?","?","?","?","?","?","?","?","?","?","?","?","?","?","?","?","?","?","?","?","?","?","?","?","?","?","?","?","?","?","?","?","?","?","?","?","?","?","?","?","?","?","?","?","?","?","?","?","?","?","?","?","?","?","?","?","?","?","?","?","?","?","?","?","?","?","?","?","?","?","?","?","?","?","?","?","?","?","?","?","?","?","?","?","?","?","?","?","?","?","?","?","?","?","?","?","?","?","?","?","?","?","?","?","?","?","?","?","?","?","?","?","?","?","?","?","?","?","?","?","?","?","?","?","?","?","?","?","?","?","?","?","?","?","?","?","?","?","?","?","?","?","?","?","?","?","?","?","?","?","?","?","?","?","?","?","?","?","?","?","?","?","?","?","?","?","?","?","?","?","?","?","?","?","?","?","?","?","?","?","?","?","?","?","?","?","?","?","?","?","?","?","?","?","?","?","?","?","?","?","?","?","?","?","?","?","?","?","?","?","?","?","?","?","?","?","?","?","?","?","?","?","?","?","?","?","?","?","?","?","?","?","?","?","?","?","?","?","?","?","?","?","?","?","?","?","?","?","?","?","?","?","?","?","?","?","?","?","?","?","?","?","?","?","?","?","?","?","?","?","?","?","?","?","?","?","?","?","?","?","?","?","?","?","?","?","?","?","?","?","?","?","?","?","?","?","?","?","?","?","?","?","?","?","?","?","?","?","?","?","?","?","?","?","?","?","?","?","?","?","?","?","?","?","?","?","?","?","?","?","?","?","?","?","?","?","?","?","?","?","?","?","?","?","?","?","?","?","?","?","?","?","?","?","?","?","?","?","?","?","?","?","?","?","?","?","?","?","?","?","?","?","?","?","?","?","?","?","?","?","?","?","?","?","?","?","?","?","?","?","?","?","?","?","?","?","?","?","?","?","?","?","?","?","?","?","?","?","?","?","?","?","?","?","?","?","?","?","?","?","?","?","?","?","?","?","?","?","?","?","?","?","?","?","?","?","?","?","?","?","?","?","?","?","?","?","?","?","?","?","?","?","?","?","?","?","?","?","?","?","?","?","?","?","?","?","?","?","?","?","?","?","?","?","?","?","?","?","?","?","?","?","?","?","?","?","?","?","?","?","?","?","?","?","?","?","?","?","?","?","?","?","?","?","?","?","?","?","?","?","?","?","?","?","?","?","?","?","?","?","?","?","?","?","?","?","?","?","?","?","?","?","?","?","?","?","?","?","?","?","?","?","?","?","?","?","?","?","?","?","?","?","?","?","?","?","?","?","?","?","?","?","?","?","?","?","?","?","?","?","?","?","?","?","?","?","?","?","?","?","?","?","?","?","?","?","?","?","?","?","?","?","?","?","?","?","?","?","?","?","?","?","?","?","?","?","?","?","?","?","?","?","?","?","?","?","?","?","?","?","?","?","?","?","?","?","?","?","?","?","?","?","?","?","?","?","?","?","?","?","?","?","?","?","?","?","?","?","?","?","?","?","?","?","?","?","?","?","?","?","?","?","?","?","?","?","?","?","?","?","?","?","?","?","?","?","?","?","?","?","?","?","?","?","?","?","?","?","?","?","?","?","?","?","?","?","?","?","?","?","?","?","?","?","?","?","?","?","?","?","?","?","?","?","?","?","?","?","?","?","?","?","?","?","?","?","?","?","?","?","?","?","?","?","?","?","?","?","?","?","?","?","?","?","?","?","?","?","?","?","?","?","?","?","?","?","?","?","?","?","?","?","?","?","?","?","?","?","?","?","?","?","?","?","?","?","?","?","?","?","?","?","?","?","?","?","?","?","?","?","?","?","?","?","?","?","?","?","?","?","?","?","?","?","?","?","?","?","?","?","?","?","?","?","?","?","?","?","?","?","?","?","?","?","?","?","?","?","?","?","?","?","?","?","?","?","?","?","?","?","?","?","?","?","?","?","?","?","?","?","?","?","?","?","?","?","?","?","?","?","?","?","?","?","?","?","?","?","?","?","?","?","?","?","?","?","?","?","?","?","?","?","?","?","?","?","?","?","?","?","?","?","?","?","?","?","?","?","?","?","?","?","?","?","?","?","?","?","?","?","?","?","?","?","?","?","?","?","?","?","?","?","?","?","?","?","?","?","?","?","?","?","?","?","?","?","?","?","?","?","?","?","?","?","?","?","?","?","?","?","?","?","?","?","?","?","?","?","?","?","?","?","?","?","?","?","?","?","?","?","?","?","?","?","?","?","?","?","?","?","?","?","?","?","?","?","?","?","?","?","?","?","?","?","?","?","?","?","?","?","?","?","?","?","?","?","?","?","?","?","?","?","?","?","?","?","?","?","?","?","?","?","?","?","?","?","?","?","?","?","?","?","?","?","?","?","?","?","?","?","?","?","?","?","?","?","?","?","?","?","?","?","?","?","?","?","?","?","?","?","?","?","?","?","?","?","?","?","?","?","?","?","?","?","?","?","?","?","?","?","?","?","?","?","?","?","?","?","?","?","?","?","?","?","?","?","?","?","?","?","?","?","?","?","?","?","?","?","?","?","?","?","?","?","?","?","?","?","?","?","?","?","?","?","?","?","?","?","?","?","?","?","?","?","?","?","?","?","?","?","?","?","?","?","?","?","?","?","?","?","?","?","?","?","?","?","?","?","?","?","?","?","?","?","?","?","?","?","?","?","?","?","?","?","?","?","?","?","?","?","?","?","?","?","?","?","?","?","?","?","?","?","?","?","?","?","?","?","?","?","?","?","?","?","?","?","?","?","?","?","?","?","?","?","?","?","?","?","?","?","?","?","?","?","?","?","?","?","?","?","?","?","?","?","?","?","?","?","?","?","?","?","?","?","?","?","?","?","?","?","?","?","?","?","?","?","?","?","?","?","?","?","?","?","?","?","?","?","?","?","?","?","?","?","?","?","?","?","?","?","?","?","?","?","?","?","?","?","?","?","?","?","?","?","?","?","?","?","?","?","?","?","?","?","?","?","?","?","?","?","?","?","?","?","?","?","?","?","?","?","?","?","?","?","?","?","?","?","?","?","?","?","?","?","?","?","?","?","?","?","?","?","?","?","?","?","?","?","?","?","?","?","?","?","?","?","?","?","?","?","?","?","?","?","?","?","?","?","?","?","?","?","?","?","?","?","?","?","?","?","?","?","?","?","?","?","?","?","?","?","?","?","?","?","?","?","?","?","?","?","?","?","?","?","?","?","?","?","?","?","?","?","?","?","?","?","?","?","?","?","?","?","?","?","?","?","?","?","?","?","?","?","?","?","?","?","?","?","?","?","?","?","?","?","?","?","?","?","?","?","?","?","?","?","?","?","?","?","?","?","?","?","?","?","?","?","?","?","?","?","?","?","?","?","?","?","?","?","?","?","?","?","?","?","?","?","?","?","?","?","?","?","?","?","?","?","?","?","?","?","?","?","?","?","?","?","?","?","?","?","?","?","?","?","?","?","?","?","?","?","?","?","?","?","?","?","?","?","?","?","?","?","?","?","?","?","?","?","?","?","?","?","?","?","?","?","?","?","?","?","?","?","?","?","?","?","?","?","?","?","?","?","?","?","?","?","?","?","?","?","?","?","?","?","?","?","?","?","?","?","?","?","?","?","?","?","?","?","?","?","?","?","?","?","?","?","?","?","?","?","?","?","?","?","?","?","?","?","?","?","?","?","?","?","?","?","?","?","?","?","?","?","?","?","?","?","?","?","?","?","?","?","?","?","?","?","?","?","?","?","?","?","?","?","?","?","?","?","?","?","?","?","?","?","?","?","?","?","?","?","?","?","?","?","?","?","?","?","?","?","?","?","?","?","?","?","?","?","?","?","?","?","?","?","?","?","?","?","?","?","?","?","?","?","?","?","?","?","?","?","?","?","?","?","?","?","?","?","?","?","?","?","?","?","?","?","?","?","?","?","?","?","?","?","?","?","?","?","?","?","?","?","?","?","?","?","?","?","?","?","?","?","?","?","?","?","?","?","?","?","?","?","?","?","?","?","?","?","?","?","?","?","?","?","?","?","?","?","?","?","?","?","?","?","?","?","?","?","?","?","?","?","?","?","?","?","?","?","?","?","?","?","?","?","?","?","?","?","?","?","?","?","?","?","?","?","?","?","?","?","?","?","?","?","?","?","?","?","?","?","?","?","?","?","?","?","?","?","?","?","?","?","?","?","?","?","?","?","?","?","?","?","?","?","?","?","?","?","?","?","?","?","?","?","?","?","?","?","?","?","?","?","?","?","?","?","?","?","?","?","?","?","?","?","?","?","?","?","?","?","?","?","?","?","?","?","?","?","?","?","?","?","?","?","?","?","?","?","?","?","?","?","?","?","?","?","?","?","?","?","?","?","?","?","?","?","?","?","?","?","?","?","?","?","?","?","?","?","?","?","?","?","?","?","?","?","?","?","?","?","?","?","?","?","?","?","?","?","?","?","?","?","?","?","?","?","?","?","?","?","?","?","?","?","?","?","?","?","?","?","?","?","?","?","?","?","?","?","?","?","?","?","?","?","?","?","?","?","?","?","?","?","?","?","?","?","?","?","?","?","?","?","?","?","?","?","?","?","?","?","?","?","?","?","?","?","?","?","?","?","?","?","?","?","?","?","?","?","?","?","?","?","?","?","?","?","?","?","?","?","?","?","?","?","?","?","?","?","?","?","?","?","?","?","?","?","?","?","?","?","?","?","?","?","?","?","?","?","?","?","?","?","?","?","?","?","?","?","?","?","?","?","?","?","?","?","?","?","?","?","?","?","?","?","?","?","?","?","?","?","?","?","?","?","?","?","?","?","?","?","?","?","?","?","?","?","?","?","?","?","?","?","?","?","?","?","?","?","?","?","?","?","?","?","?","?","?","?","?","?","?","?","?","?","?","?","?","?","?","?","?","?","?","?","?","?","?","?","?","?","?","?","?","?","?","?","?","?","?","?","?","?","?","?","?","?","?","?","?","?","?","?","?","?","?","?","?","?","?","?","?","?","?","?","?","?","?","?","?","?","?","?","?","?","?","?","?","?","?","?","?","?","?","?","?","?","?","?","?","?","?","?","?","?","?","?","?","?","?","?","?","?","?","?","?","?","?","?","?","?","?","?","?","?","?","?","?","?","?","?","?","?","?","?","?","?","?","?","?","?","?","?","?","?","?","?","?","?","?","?","?","?","?","?","?","?","?","?","?","?","?","?","?","?","?","?","?","?","?","?","?","?","?","?","?","?","?","?","?","?","?","?","?","?","?","?","?","?","?","?","?","?","?","?","?","?","?","?","?","?","?","?","?","?","?","?","?","?","?","?","?","?","?","?","?","?","?","?","?","?","?","?","?","?","?","?","?","?","?","?","?","?","?","?","?","?","?","?","?","?","?","?","?","?","?","?","?","?","?","?","?","?","?","?","?","?","?","?","?","?","?","?","?","?","?","?","?","?","?","?","?","?","?","?","?","?","?","?","?","?","?","?","?","?","?","?","?","?","?","?","?","?","?","?","?","?","?","?","?","?","?","?","?","?","?","?","?","?","?","?","?","?","?","?","?","?","?","?","?","?","?","?","?","?","?","?","?","?","?","?","?","?","?","?","?","?","?","?","?","?","?","?","?","?","?","?","?","?","?","?","?","?","?","?","?","?","?","?","?","?","?","?","?","?","?","?","?","?","?","?","?","?","?","?","?","?","?","?","?","?","?","?","?","?","?","?","?","?","?","?","?","?","?","?","?","?","?","?","?","?","?","?","?","?","?","?","?","?","?","?","?","?","?","?","?","?","?","?","?","?","?","?","?","?","?","?","?","?","?","?","?","?","?","?","?","?","?","?","?","?","?","?","?","?","?","?","?","?","?","?","?","?","?","?","?","?","?","?","?","?","?","?","?","?","?","?","?","?","?","?","?","?","?","?","?","?","?","?","?","?","?","?","?","?","?","?","?","?","?","?","?","?","?","?","?","?","?","?","?","?","?","?","?","?","?","?","?","?","?","?","?","?","?","?","?","?","?","?","?","?","?","?","?","?","?","?","?","?","?","?","?","?","?","?","?","?","?","?","?","?","?","?","?","?","?","?","?","?","?","?","?","?","?","?","?","?","?","?","?","?","?","?","?","?","?","?","?","?","?","?","?","?","?","?","?","?","?","?","?","?","?","?","?","?","?","?","?","?","?","?","?","?","?","?","?","?","?","?","?","?","?","?","?","?","?","?","?","?","?","?","?","?","?","?","?","?","?","?","?","?","?","?","?","?","?","?","?","?","?","?","?","?","?","?","?","?","?","?","?","?","?","?","?","?","?","?","?","?","?","?","?","?","?","?","?","?","?","?","?","?","?","?","?","?","?","?","?","?","?","?","?","?","?","?","?","?","?","?","?","?","?","?","?","?","?","?","?","?","?","?","?","?","?","?","?","?","?","?","?","?","?","?","?","?","?","?","?","?","?","?","?","?","?","?","?","?","?","?","?","?","?","?","?","?","?","?","?","?","?","?","?","?","?","?","?","?","?","?","?","?","?","?","?","?","?","?","?","?","?","?","?","?","?","?","?","?","?","?","?","?","?","?","?","?","?","?","?","?","?","?","?","?","?","?","?","?","?","?","?","?","?","?","?","?","?","?","?","?","?","?","?","?","?","?","?","?","?","?","?","?","?","?","?","?","?","?","?","?","?","?","?","?","?","?","?","?","?","?","?","?","?","?","?","?","?","?","?","?","?","?","?","?","?","?","?","?","?","?","?","?","?","?","?","?","?","?","?","?","?","?","?","?","?","?","?","?","?","?","?","?","?","?","?","?","?","?","?","?","?","?","?","?","?","?","?","?","?","?","?","?","?","?","?","?","?","?","?","?","?","?","?","?","?","?","?","?","?","?","?","?","?","?","?","?","?","?","?","?","?","?","?","?","?","?","?","?","?","?","?","?","?","?","?","?","?","?","?","?","?","?","?","?","?","?","?","?","?","?","?","?","?","?","?","?","?","?","?","?","?","?","?","?","?","?","?","?","?","?","?","?","?","?","?","?","?","?","?","?","?","?","?","?","?","?","?","?","?","?","?","?","?","?","?","?","?","?","?","?","?","?","?","?","?","?","?","?","?","?","?","?","?","?","?","?","?","?","?","?","?","?","?","?","?","?","?","?","?","?","?","?","?","?","?","?","?","?","?","?","?","?","?","?","?","?","?","?","?","?","?","?","?","?","?","?","?","?","?","?","?","?","?","?","?","?","?","?","?","?","?","?","?","?","?","?","?","?","?","?","?","?","?","?","?","?","?","?","?","?","?","?","?","?","?","?","?","?","?","?","?","?","?","?","?","?","?","?","?","?","?","?","?","?","?","?","?","?","?","?","?","?","?","?","?","?","?","?","?","?","?","?","?","?","?","?","?","?","?","?","?","?","?","?","?","?","?","?","?","?","?","?","?","?","?","?","?","?","?","?","?","?","?","?","?","?","?","?","?","?","?","?","?","?","?","?","?","?","?","?","?","?","?","?","?","?","?","?","?","?","?","?","?","?","?","?","?","?","?","?","?","?","?","?","?","?","?","?","?","?","?","?","?","?","?","?","?","?","?","?","?","?","?","?","?","?","?","?","?","?","?","?","?","?","?","?","?","?","?","?","?","?","?","?","?","?","?","?","?","?","?","?","?","?","?","?","?","?","?","?","?","?","?","?","?","?","?","?","?","?","?","?","?","?","?","?","?","?","?","?","?","?","?","?","?","?","?","?","?","?","?","?","?","?","?","?","?","?","?","?","?","?","?","?","?","?","?","?","?","?","?","?","?","?","?","?","?","?","?","?","?","?","?","?","?","?","?","?","?","?","?","?","?","?","?","?","?","?","?","?","?","?","?","?","?","?","?","?","?","?","?","?","?","?","?","?","?","?","?","?","?","?","?","?","?","?","?","?","?","?","?","?","?","?","?","?","?","?","?","?","?","?","?","?","?","?","?","?","?","?","?","?","?","?","?","?","?","?","?","?","?","?","?","?","?","?","?","?","?","?","?","?","?","?","?","?","?","?","?","?","?","?","?","?","?","?","?","?","?","?","?","?","?","?","?","?","?","?","?","?","?","?","?","?","?","?","?","?","?","?","?","?","?","?","?","?","?","?","?","?","?","?","?","?","?","?","?","?","?","?","?","?","?","?","?","?","?","?","?","?","?","?","?","?","?","?","?","?","?","?","?","?","?","?","?","?","?","?","?","?","?","?","?","?","?","?","?","?","?","?","?","?","?","?","?","?","?","?","?","?","?","?","?","?","?","?","?","?","?","?","?","?","?","?","?","?","?","?","?","?","?","?","?","?","?","?","?","?","?","?","?","?","?","?","?","?","?","?","?","?","?","?","?","?","?","?","?","?","?","?","?","?","?","?","?","?","?","?","?","?","?","?","?","?","?","?","?","?","?","?","?","?","?","?","?","?","?","?","?","?","?","?","?","?","?","?","?","?","?","?","?","?","?","?","?","?","?","?","?","?","?","?","?","?","?","?","?","?","?","?","?","?","?","?","?","?","?","?","?","?","?","?","?","?","?","?","?","?","?","?","?","?","?","?","?","?","?","?","?","?","?","?","?","?","?","?","?","?","?","?","?","?","?","?","?","?","?","?","?","?","?","?","?","?","?","?","?","?","?","?","?","?","?","?","?","?","?","?","?","?","?","?","?","?","?","?","?","?","?","?","?","?","?","?","?","?","?","?","?","?","?","?","?","?","?","?","?","?","?","?","?","?","?","?","?","?","?","?","?","?","?","?","?","?","?","?","?","?","?","?","?","?","?","?","?","?","?","?","?","?","?","?","?","?","?","?","?","?","?","?","?","?","?","?","?","?","?","?","?","?","?","?","?","?","?","?","?","?","?","?","?","?","?","?","?","?","?","?","?","?","?","?","?","?","?","?","?","?","?","?","?","?","?","?","?","?","?","?","?","?","?","?","?","?","?","?","?","?","?","?","?","?","?","?","?","?","?","?","?","?","?","?","?","?","?","?","?","?","?","?","?","?","?","?","?","?","?","?","?","?","?","?","?","?","?","?","?","?","?","?","?","?","?","?","?","?","?","?","?","?","?","?","?","?","?","?","?","?","?","?","?","?","?","?","?","?","?","?","?","?","?","?","?","?","?","?","?","?","?","?","?","?","?","?","?","?","?","?","?","?","?","?","?","?","?","?","?","?","?","?","?","?","?","?","?","?","?","?","?","?","?","?","?","?","?","?","?","?","?","?","?","?","?","?","?","?","?","?","?","?","?","?","?","?","?","?","?","?","?","?","?","?","?","?","?","?","?","?","?","?","?","?","?","?","?","?","?","?","?","?","?","?","?","?","?","?","?","?","?","?","?","?","?","?","?","?","?","?","?","?","?","?","?","?","?","?","?","?","?","?","?","?","?","?","?","?","?","?","?","?","?","?","?","?","?","?","?","?","?","?","?","?","?","?","?","?","?","?","?","?","?","?","?","?","?","?","?","?","?","?","?","?","?","?","?","?","?","?","?","?","?","?","?","?","?","?","?","?","?","?","?","?","?","?","?","?","?","?","?","?","?","?","?","?","?","?","?","?","?","?","?","?","?","?","?","?","?","?","?","?","?","?","?","?","?","?","?","?","?","?","?","?","?","?","?","?","?","?","?","?","?","?","?","?","?","?","?","?","?","?","?","?","?","?","?","?","?","?","?","?","?","?","?","?","?","?","?","?","?","?","?","?","?","?","?","?","?","?","?","?","?","?","?","?","?","?","?","?","?","?","?","?","?","?","?","?","?","?","?","?","?","?","?","?","?","?","?","?","?","?","?","?","?","?","?","?","?","?","?","?","?","?","?","?","?","?","?","?","?","?","?","?","?","?","?","?","?","?","?","?","?","?","?","?","?","?","?","?","?","?","?","?","?","?","?","?","?","?","?","?","?","?","?","?","?","?","?","?","?","?","?","?","?","?","?","?","?","?","?","?","?","?","?","?","?","?","?","?","?","?","?","?","?","?","?","?","?","?","?","?","?","?","?","?","?","?","?","?","?","?","?","?","?","?","?","?","?","?","?","?","?","?","?","?","?","?","?","?","?","?","?","?","?","?","?","?","?","?","?","?","?","?","?","?","?","?","?","?","?","?","?","?","?","?","?","?","?","?","?","?","?","?","?","?","?","?","?","?","?","?","?","?","?","?","?","?","?","?","?","?","?","?","?","?","?","?","?","?","?","?","?","?","?","?","?","?","?","?","?","?","?","?","?","?","?","?","?","?","?","?","?","?","?","?","?","?","?","?","?","?","?","?","?","?","?","?","?","?","?","?","?","?","?","?","?","?","?","?","?","?","?","?","?","?","?","?","?","?","?","?","?","?","?","?","?","?","?","?","?","?","?","?","?","?","?","?","?","?","?","?","?","?","?","?","?","?","?","?","?","?","?","?","?","?","?","?","?","?","?","?","?","?","?","?","?","?","?","?","?","?","?","?","?","?","?","?","?","?","?","?","?","?","?","?","?","?","?","?","?","?","?","?","?","?","?","?","?","?","?","?","?","?","?","?","?","?","?","?","?","?","?","?","?","?","?","?","?","?","?","?","?","?","?","?","?","?","?","?","?","?","?","?","?","?","?","?","?","?","?","?","?","?","?","?","?","?","?","?","?","?","?","?","?","?","?","?","?","?","?","?","?","?","?","?","?","?","?","?","?","?","?","?","?","?","?","?","?","?","?","?","?","?","?","?","?","?","?","?","?","?","?","?","?","?","?","?","?","?","?","?","?","?","?","?","?","?","?","?","?","?","?","?","?","?","?","?","?","?","?","?","?","?","?","?","?","?","?","?","?","?","?","?","?","?","?","?","?","?","?","?","?","?","?","?","?","?","?","?","?","?","?","?","?","?","?","?","?","?","?","?","?","?","?","?","?","?","?","?","?","?","?","?","?","?","?","?","?","?","?","?","?","?","?","?","?","?","?","?","?","?","?","?","?","?","?","?","?","?","?","?","?","?","?","?","?","?","?","?","?","?","?","?","?","?","?","?","?","?","?","?","?","?","?","?","?","?","?","?","?","?","?","?","?","?","?","?","?","?","?","?","?","?","?","?","?","?","?","?","?","?","?","?","?","?","?","?","?","?","?","?","?","?","?","?","?","?","?","?","?","?","?","?","?","?","?","?","?","?","?","?","?","?","?","?","?","?","?","?","?","?","?","?","?","?","?","?","?","?","?","?","?","?","?","?","?","?","?","?","?","?","?","?","?","?","?","?","?","?","?","?","?","?","?","?","?","?","?","?","?","?","?","?","?","?","?","?","?","?","?","?","?","?","?","?","?","?","?","?","?","?","?","?","?","?","?","?","?","?","?","?","?","?","?","?","?","?","?","?","?","?","?","?","?","?","?","?","?","?","?","?","?","?","?","?","?","?","?","?","?","?","?","?","?","?","?","?","?","?","?","?","?","?","?","?","?","?","?","?","?","?","?","?","?","?","?","?","?","?","?","?","?","?","?","?","?","?","?","?","?","?","?","?","?","?","?","?","?","?","?","?","?","?","?","?","?","?","?","?","?","?","?","?","?","?","?","?","?","?","?","?","?","?","?","?","?","?","?","?","?","?","?","?","?","?","?","?","?","?","?","?","?","?","?","?","?","?","?","?","?","?","?","?","?","?","?","?","?","?","?","?","?","?","?","?","?","?","?","?","?","?","?","?","?","?","?","?","?","?","?","?","?","?","?","?","?","?","?","?","?","?","?","?","?","?","?","?","?","?","?","?","?","?","?","?","?","?","?","?","?","?","?","?","?","?","?","?","?","?","?","?","?","?","?","?","?","?","?","?","?","?","?","?","?","?","?","?","?","?","?","?","?","?","?","?","?","?","?","?","?","?","?","?","?","?","?","?","?","?","?","?","?","?","?","?","?","?","?","?","?","?","?","?","?","?","?","?","?","?","?","?","?","?","?","?","?","?","?","?","?","?","?","?","?","?","?","?","?","?","?","?","?","?","?","?","?","?","?","?","?","?","?","?","?","?","?","?","?","?","?","?","?","?","?","?","?","?","?","?","?","?","?","?","?","?","?","?","?","?","?","?","?","?","?","?","?","?","?","?","?","?","?","?","?","?","?","?","?","?","?","?","?","?","?","?","?","?","?","?","?","?","?","?","?","?","?","?","?","?","?","?","?","?","?","?","?","?","?","?","?","?","?","?","?","?","?","?","?","?","?","?","?","?","?","?","?","?","?","?","?","?","?","?","?","?","?","?","?","?","?","?","?","?","?","?","?","?","?","?","?","?","?","?","?","?","?","?","?","?","?","?","?","?","?","?","?","?","?","?","?","?","?","?","?","?","?","?","?","?","?","?","?","?","?","?","?","?","?","?","?","?","?","?","?","?","?","?","?","?","?","?","?","?","?","?","?","?","?","?","?","?","?","?","?","?","?","?","?","?","?","?","?","?","?","?","?","?","?","?","?","?","?","?","?","?","?","?","?","?","?","?","?","?","?","?","?","?","?","?","?","?","?","?","?","?","?","?","?","?","?","?","?","?","?","?","?","?","?","?","?","?","?","?","?","?","?","?","?","?","?","?","?","?","?","?","?","?","?","?","?","?","?","?","?","?","?","?","?","?","?","?","?","?","?","?","?","?","?","?","?","?","?","?","?","?","?","?","?","?","?","?","?","?","?","?","?","?","?","?","?","?","?","?","?","?","?","?","?","?","?","?","?","?","?","?","?","?","?","?","?","?","?","?","?","?","?","?","?","?","?","?","?","?","?","?","?","?","?","?","?","?","?","?","?","?","?","?","?","?","?","?","?","?","?","?","?","?","?","?","?","?","?","?","?","?","?","?","?","?","?","?","?","?","?","?","?","?","?","?","?","?","?","?","?","?","?","?","?","?","?","?","?","?","?","?","?","?","?","?","?","?","?","?","?","?","?","?","?","?","?","?","?","?","?","?","?","?","?","?","?","?","?","?","?","?","?","?","?","?","?","?","?","?","?","?","?","?","?","?","?","?","?","?","?","?","?","?","?","?","?","?","?","?","?","?","?","?","?","?","?","?","?","?","?","?","?","?","?","?","?","?","?","?","?","?","?","?","?","?","?","?","?","?","?","?","?","?","?","?","?","?","?","?","?","?","?","?","?","?","?","?","?","?","?","?","?","?","?","?","?","?","?","?","?","?","?","?","?","?","?","?","?","?","?","?","?","?","?","?","?","?","?","?","?","?","?","?","?","?","?","?","?","?","?","?","?","?","?","?","?","?","?","?","?","?","?","?","?","?","?","?","?","?","?","?","?","?","?","?","?","?","?","?","?","?","?","?","?","?","?","?","?","?","?","?","?","?","?","?","?","?","?","?","?","?","?","?","?","?","?","?","?","?","?","?","?","?","?","?","?","?","?","?","?","?","?","?","?","?","?","?","?","?","?","?","?","?","?","?","?","?","?","?","?","?","?","?","?","?","?","?","?","?","?","?","?","?","?","?","?","?","?","?","?","?","?","?","?","?","?","?","?","?","?","?","?","?","?","?","?","?","?","?","?","?","?","?","?","?","?","?","?","?","?","?","?","?","?","?","?","?","?","?","?","?","?","?","?","?","?","?","?","?","?","?","?","?","?","?","?","?","?","?","?","?","?","?","?","?","?","?","?","?","?","?","?","?","?","?","?","?","?","?","?","?","?","?","?","?","?","?","?","?","?","?","?","?","?","?","?","?","?","?","?","?","?","?","?","?","?","?","?","?","?","?","?","?","?","?","?","?","?","?","?","?","?","?","?","?","?","?","?","?","?","?","?","?","?","?","?","?","?","?","?","?","?","?","?","?","?","?","?","?","?","?","?","?","?","?","?","?","?","?","?","?","?","?","?","?","?","?","?","?","?","?","?","?","?","?","?","?","?","?","?","?","?","?","?","?","?","?","?","?","?","?","?","?","?","?","?","?","?","?","?","?","?","?","?","?","?","?","?","?","?","?","?","?","?","?","?","?","?","?","?","?","?","?","?","?","?","?","?","?","?","?","?","?","?","?","?","?","?","?","?","?","?","?","?","?","?","?","?","?","?","?","?","?","?","?","?","?","?","?","?","?","?","?","?","?","?","?","?","?","?","?","?","?","?","?","?","?","?","?","?","?","?","?","?","?","?","?","?","?","?","?","?","?","?","?","?","?","?","?","?","?","?","?","?","?","?","?","?","?","?","?","?","?","?","?","?","?","?","?","?","?","?","?","?","?","?","?","?","?","?","?","?","?","?","?","?","?","?","?","?","?","?","?","?","?","?","?","?","?","?","?","?","?","?","?","?","?","?","?","?","?","?","?","?","?","?","?","?","?","?","?","?","?","?","?","?","?","?","?","?","?","?","?","?","?","?","?","?","?","?","?","?","?","?","?","?","?","?","?","?","?","?","?","?","?","?","?","?","?","?","?","?","?","?","?","?","?","?","?","?","?","?","?","?","?","?","?","?","?","?","?","?","?","?","?","?","?","?","?","?","?","?","?","?","?","?","?","?","?","?","?","?","?","?","?","?","?","?","?","?","?","?","?","?","?","?","?","?","?","?","?","?","?","?","?","?","?","?","?","?","?","?","?","?","?","?","?","?","?","?","?","?","?","?","?","?","?","?","?","?","?","?","?","?","?","?","?","?","?","?","?","?","?","?","?","?","?","?","?","?","?","?","?","?","?","?","?","?","?","?","?","?","?","?","?","?","?","?","?","?","?","?","?","?","?","?","?","?","?","?","?","?","?","?","?","?","?","?","?","?","?","?","?","?","?","?","?","?","?","?","?","?","?","?","?","?","?","?","?","?","?","?","?","?","?","?","?","?","?","?","?","?","?","?","?","?","?","?","?","?","?","?","?","?","?","?","?","?","?","?","?","?","?","?","?","?","?","?","?","?","?","?","?","?","?","?","?","?","?","?","?","?","?","?","?","?","?","?","?","?","?","?","?","?","?","?","?","?","?","?","?","?","?","?","?","?","?","?","?","?","?","?","?","?","?","?","?","?","?","?","?","?","?","?","?","?","?","?","?","?","?","?","?","?","?","?","?","?","?","?","?","?","?","?","?","?","?","?","?","?","?","?","?","?","?","?","?","?","?","?","?","?","?","?","?","?","?","?","?","?","?","?","?","?","?","?","?","?","?","?","?","?","?","?","?","?","?","?","?","?","?","?","?","?","?","?","?","?","?","?","?","?","?","?","?","?","?","?","?","?","?","?","?","?","?","?","?","?","?","?","?","?","?","?","?","?","?","?","?","?","?","?","?","?","?","?","?","?","?","?","?","?","?","?","?","?","?","?","?","?","?","?","?","?","?","?","?","?","?","?","?","?","?","?","?","?","?","?","?","?","?","?","?","?","?","?","?","?","?","?","?","?","?","?","?","?","?","?","?","?","?","?","?","?","?","?","?","?","?","?","?","?","?","?","?","?","?","?","?","?","?","?","?","?","?","?","?","?","?","?","?","?","?","?","?","?","?","?","?","?","?","?","?","?","?","?","?","?","?","?","?","?","?","?","?","?","?","?","?","?","?","?","?","?","?","?","?","?","?","?","?","?","?","?","?","?","?","?","?","?","?","?","?","?","?","?","?","?","?","?","?","?","?","?","?","?","?","?","?","?","?","?","?","?","?","?","?","?","?","?","?","?","?","?","?","?","?","?","?","?","?","?","?","?","?","?","?","?","?","?","?","?","?","?","?","?","?","?","?","?","?","?","?","?","?","?","?","?","?","?","?","?","?","?","?","?","?","?","?","?","?","?","?","?","?","?","?","?","?","?","?","?","?","?","?","?","?","?","?","?","?","?","?","?","?","?","?","?","?","?","?","?","?","?","?","?","?","?","?","?","?","?","?","?","?","?","?","?","?","?","?","?","?","?","?","?","?","?","?","?","?","?","?","?","?","?","?","?","?","?","?","?","?","?","?","?","?","?","?","?","?","?","?","?","?","?","?","?","?","?","?","?","?","?","?","?","?","?","?","?","?","?","?","?","?","?","?","?","?","?","?","?","?","?","?","?","?","?","?","?","?","?","?","?","?","?","?","?","?","?","?","?","?","?","?","?","?","?","?","?","?","?","?","?","?","?","?","?","?","?","?","?","?","?","?","?","?","?","?","?","?","?","?","?","?","?","?","?","?","?","?","?","?","?","?","?","?","?","?","?","?","?","?","?","?","?","?","?","?","?","?","?","?","?","?","?","?","?","?","?","?","?","?","?","?","?","?","?","?","?","?","?","?","?","?","?","?","?","?","?","?","?","?","?","?","?","?","?","?","?","?","?","?","?","?","?","?","?","?","?","?","?","?","?","?","?","?","?","?","?","?","?","?","?","?","?","?","?","?","?","?","?","?","?","?","?","?","?","?","?","?","?","?","?","?","?","?","?","?","?","?","?","?","?","?","?","?","?","?","?","?","?","?","?","?","?","?","?","?","?","?","?","?","?","?","?","?","?","?","?","?","?","?","?","?","?","?","?","?","?","?","?","?","?","?","?","?","?","?","?","?","?","?","?","?","?","?","?","?","?","?","?","?","?","?","?","?","?","?","?","?","?","?","?","?","?","?","?","?","?","?","?","?","?","?","?","?","?","?","?","?","?","?","?","?","?","?","?","?","?","?","?","?","?","?","?","?","?","?","?","?","?","?","?","?","?","?","?","?","?","?","?","?","?","?","?","?","?","?","?","?","?","?","?","?","?","?","?","?","?","?","?","?","?","?","?","?","?","?","?","?","?","?","?","?","?","?","?","?","?","?","?","?","?","?","?","?","?","?","?","?","?","?","?","?","?","?","?","?","?","?","?","?","?","?","?","?","?","?","?","?","?","?","?","?","?","?","?","?","?","?","?","?","?","?","?","?","?","?","?","?","?","?","?","?","?","?","?","?","?","?","?","?","?","?","?","?","?","?","?","?","?","?","?","?","?","?","?","?","?","?","?","?","?","?","?","?","?","?","?","?","?","?","?","?","?","?","?","?","?","?","?","?","?","?","?","?","?","?","?","?","?","?","?","?","?","?","?","?","?","?","?","?","?","?","?","?","?","?","?","?","?","?","?","?","?","?","?","?","?","?","?","?","?","?","?","?","?","?","?","?","?","?","?","?","?","?","?","?","?","?","?","?","?","?","?","?","?","?","?","?","?","?","?","?","?","?","?","?","?","?","?","?","?","?","?","?","?","?","?","?","?","?","?","?","?","?","?","?","?","?","?","?","?","?","?","?","?","?","?","?","?","?","?","?","?","?","?","?","?","?","?","?","?","?","?","?","?","?","?","?","?","?","?","?","?","?","?","?","?","?","?","?","?","?","?","?","?","?","?","?","?","?","?","?","?","?","?","?","?","?","?","?","?","?","?","?","?","?","?","?","?","?","?","?","?","?","?","?","?","?","?","?","?","?","?","?","?","?","?","?","?","?","?","?","?","?","?","?","?","?","?","?","?","?","?","?","?","?","?","?","?","?","?","?","?","?","?","?","?","?","?","?","?","?","?","?","?","?","?","?","?","?","?","?","?","?","?","?","?","?","?","?","?","?","?","?","?","?","?","?","?","?","?","?","?","?","?","?","?","?","?","?","?","?","?","?","?","?","?","?","?","?","?","?","?","?","?","?","?","?","?","?","?","?","?","?","?","?","?","?","?","?","?","?","?","?","?","?","?","?","?","?","?","?","?","?","?","?","?","?","?","?","?","?","?","?","?","?","?","?","?","?","?","?","?","?","?","?","?","?","?","?","?","?","?","?","?","?","?","?","?","?","?","?","?","?","?","?","?","?","?","?","?","?","?","?","?","?","?","?","?","?","?","?","?","?","?","?","?","?","?","?","?","?","?","?","?","?","?","?","?","?","?","?","?","?","?","?","?","?","?","?","?","?","?","?","?","?","?","?","?","?","?","?","?","?","?","?","?","?","?","?","?","?","?","?","?","?","?","?","?","?","?","?","?","?","?","?","?","?","?","?","?","?","?","?","?","?","?","?","?","?","?","?","?","?","?","?","?","?","?","?","?","?","?","?","?","?","?","?","?","?","?","?","?","?","?","?","?","?","?","?","?","?","?","?","?","?","?","?","?","?","?","?","?","?","?","?","?","?","?","?","?","?","?","?","?","?","?","?","?","?","?","?","?","?","?","?","?","?","?","?","?","?","?","?","?","?","?","?","?","?","?","?","?","?","?","?","?","?","?","?","?","?","?","?","?","?","?","?","?","?","?","?","?","?","?","?","?","?","?","?","?","?","?","?","?","?","?","?","?","?","?","?","?","?","?","?","?","?","?","?","?","?","?","?","?","?","?","?","?","?","?","?","?","?","?","?","?","?","?","?","?","?","?","?","?","?","?","?","?","?","?","?","?","?","?","?","?","?","?","?","?","?","?","?","?","?","?","?","?","?","?","?","?","?","?","?","?","?","?","?","?","?","?","?","?","?","?","?","?","?","?","?","?","?","?","?","?","?","?","?","?","?","?","?","?","?","?","?","?","?","?","?","?","?","?","?","?","?","?","?","?","?","?","?","?","?","?","?","?","?","?","?","?","?","?","?","?","?","?","?","?","?","?","?","?","?","?","?","?","?","?","?","?","?","?","?","?","?","?","?","?","?","?","?","?","?","?","?","?","?","?","?","?","?","?","?","?","?","?","?","?","?","?","?","?","?","?","?","?","?","?","?","?","?","?","?","?","?","?","?","?","?","?","?","?","?","?","?","?","?","?","?","?","?","?","?","?","?","?","?","?","?","?","?","?","?","?","?","?","?","?","?","?","?","?","?","?","?","?","?","?","?","?","?","?","?","?","?","?","?","?","?","?","?","?","?","?","?","?","?","?","?","?","?","?","?","?","?","?","?","?","?","?","?","?","?","?","?","?","?","?","?","?","?","?","?","?","?","?","?","?","?","?","?","?","?","?","?","?","?","?","?","?","?","?","?","?","?","?","?","?","?","?","?","?","?","?","?","?","?","?","?","?","?","?","?","?","?","?","?","?","?","?","?","?","?","?","?","?","?","?","?","?","?","?","?","?","?","?","?","?","?","?","?","?","?","?","?","?","?","?","?","?","?","?","?","?","?","?","?","?","?","?","?","?","?","?","?","?","?","?","?","?","?","?","?","?","?","?","?","?","?","?","?","?","?","?","?","?","?","?","?","?","?","?","?","?","?","?","?","?","?","?","?","?","?","?","?","?","?","?","?","?","?","?","?","?","?","?","?","?","?","?","?","?","?","?","?","?","?","?","?","?","?","?","?","?","?","?","?","?","?","?","?","?","?","?","?","?","?","?","?","?","?","?","?","?","?","?","?","?","?","?","?","?","?","?","?","?","?","?","?","?","?","?","?","?","?","?","?","?","?","?","?","?","?","?","?","?","?","?","?","?","?","?","?","?","?","?","?","?","?","?","?","?","?","?","?","?","?","?","?","?","?","?","?","?","?","?","?","?","?","?","?","?","?","?","?","?","?","?","?","?","?","?","?","?","?","?","?","?","?","?","?","?","?","?","?","?","?","?","?","?","?","?","?","?","?","?","?","?","?","?","?","?","?","?","?","?","?","?","?","?","?","?","?","?","?","?","?","?","?","?","?","?","?","?","?","?","?","?","?","?","?","?","?","?","?","?","?","?","?","?","?","?","?","?","?","?","?","?","?","?","?","?","?","?","?","?","?","?","?","?","?","?","?","?","?","?","?","?","?","?","?","?","?","?","?","?","?","?","?","?","?","?","?","?","?","?","?","?","?","?","?","?","?","?","?","?","?","?","?","?","?","?","?","?","?","?","?","?","?","?","?","?","?","?","?","?","?","?","?","?","?","?","?","?","?","?","?","?","?","?","?","?","?","?","?","?","?","?","?","?","?","?","?","?","?","?","?","?","?","?","?","?","?","?","?","?","?","?","?","?","?","?","?","?","?","?","?","?","?","?","?","?","?","?","?","?","?","?","?","?","?","?","?","?","?","?","?","?","?","?","?","?","?","?","?","?","?","?","?","?","?","?","?","?","?","?","?","?","?","?","?","?","?","?","?","?","?","?","?","?","?","?","?","?","?","?","?","?","?","?","?","?","?","?","?","?","?","?","?","?","?","?","?","?","?","?","?","?","?","?","?","?","?","?","?","?","?","?","?","?","?","?","?","?","?","?","?","?","?","?","?","?","?","?","?","?","?","?","?","?","?","?","?","?","?","?","?","?","?","?","?","?","?","?","?","?","?","?","?","?","?","?","?","?","?","?","?","?","?","?","?","?","?","?","?","?","?","?","?","?","?","?","?","?","?","?","?","?","?","?","?","?","?","?","?","?","?","?","?","?","?","?","?","?","?","?","?","?","?","?","?","?","?","?","?","?","?","?","?","?","?","?","?","?","?","?","?","?","?","?","?","?","?","?","?","?","?","?","?","?","?","?","?","?","?","?","?","?","?","?","?","?","?","?","?","?","?","?","?","?","?","?","?","?","?","?","?","?","?","?","?","?","?","?","?","?","?","?","?","?","?","?","?","?","?","?","?","?","?","?","?","?","?","?","?","?","?","?","?","?","?","?","?","?","?","?","?","?","?","?","?","?","?","?","?","?","?","?","?","?","?","?","?","?","?","?","?","?","?","?","?","?","?","?","?","?","?","?","?","?","?","?","?","?","?","?","?","?","?","?","?","?","?","?","?","?","?","?","?","?","?","?","?","?","?","?","?","?","?","?","?","?","?","?","?","?","?","?","?","?","?","?","?","?","?","?","?","?","?","?","?","?","?","?","?","?","?","?","?","?","?","?","?","?","?","?","?","?","?","?","?","?","?","?","?","?","?","?","?","?","?","?","?","?","?","?","?","?","?","?","?","?","?","?","?","?","?","?","?","?","?","?","?","?","?","?","?","?","?","?","?","?","?","?","?","?","?","?","?","?","?","?","?","?","?","?","?","?","?","?","?","?","?","?","?","?","?","?","?","?","?","?","?","?","?","?","?","?","?","?","?","?","?","?","?","?","?","?","?","?","?","?","?","?","?","?","?","?","?","?","?","?","?","?","?","?","?","?","?","?","?","?","?","?","?","?","?","?","?","?","?","?","?","?","?","?","?","?","?","?","?","?","?","?","?","?","?","?","?","?","?","?","?","?","?","?","?","?","?","?","?","?","?","?","?","?","?","?","?","?","?","?","?","?","?","?","?","?","?","?","?","?","?","?","?","?","?","?","?","?","?","?","?","?","?","?","?","?","?","?","?","?","?","?","?","?","?","?","?","?","?","?","?","?","?","?","?","?","?","?","?","?","?","?","?","?","?","?","?","?","?","?","?","?","?","?","?","?","?","?","?","?","?","?","?","?","?","?","?","?","?","?","?","?","?","?","?","?","?","?","?","?","?","?","?","?","?","?","?","?","?","?","?","?","?","?","?","?","?","?","?","?","?","?","?","?","?","?","?","?","?","?","?","?","?","?","?","?","?","?","?","?","?","?","?","?","?","?","?","?","?","?","?","?","?","?","?","?","?","?","?","?","?","?","?","?","?","?","?","?","?","?","?","?","?","?","?","?","?","?","?","?","?","?","?","?","?","?","?","?","?","?","?","?","?","?","?","?","?","?","?","?","?","?","?","?","?","?","?","?","?","?","?","?","?","?","?","?","?","?","?","?","?","?","?","?","?","?","?","?","?","?","?","?","?","?","?","?","?","?","?","?","?","?","?","?","?","?","?","?","?","?","?","?","?","?","?","?","?","?","?","?","?","?","?","?","?","?","?","?","?","?","?","?","?","?","?","?","?","?","?","?","?","?","?","?","?","?","?","?","?","?","?","?","?","?","?","?","?","?","?","?","?","?","?","?","?","?","?","?","?","?","?","?","?","?","?","?","?","?","?","?","?","?","?","?","?","?","?","?","?","?","?","?","?","?","?","?","?","?","?","?","?","?","?","?","?","?","?","?","?","?","?","?","?","?","?","?","?","?","?","?","?","?","?","?","?","?","?","?","?","?","?","?","?","?","?","?","?","?","?","?","?","?","?","?","?","?","?","?","?","?","?","?","?","?","?","?","?","?","?","?","?","?","?","?","?","?","?","?","?","?","?","?","?","?","?","?","?","?","?","?","?","?","?","?","?","?","?","?","?","?","?","?","?","?","?","?","?","?","?","?","?","?","?","?","?","?","?","?","?","?","?","?","?","?","?","?","?","?","?","?","?","?","?","?","?","?","?","?","?","?","?","?","?","?","?","?","?","?","?","?","?","?","?","?","?","?","?","?","?","?","?","?","?","?","?","?","?","?","?","?","?","?","?","?","?","?","?","?","?","?","?","?","?","?","?","?","?","?","?","?","?","?","?","?","?","?","?","?","?","?","?","?","?","?","?","?","?","?","?","?","?","?","?","?","?","?","?","?","?","?","?","?","?","?","?","?","?","?","?","?","?","?","?","?","?","?","?","?","?","?","?","?","?","?","?","?","?","?","?","?","?","?","?","?","?","?","?","?","?","?","?","?","?","?","?","?","?","?","?","?","?","?","?","?","?","?","?","?","?","?","?","?","?","?","?","?","?","?","?","?","?","?","?","?","?","?","?","?","?","?","?","?","?","?","?","?","?","?","?","?","?","?","?","?","?","?","?","?","?","?","?","?","?","?","?","?","?","?","?","?","?","?","?","?","?","?","?","?","?","?","?","?","?","?","?","?","?","?","?","?","?","?","?","?","?","?","?","?","?","?","?","?","?","?","?","?","?","?","?","?","?","?","?","?","?","?","?","?","?","?","?","?","?","?","?","?","?","?","?","?","?","?","?","?","?","?","?","?","?","?","?","?","?","?","?","?","?","?","?","?","?","?","?","?","?","?","?","?","?","?","?","?","?","?","?","?","?","?","?","?","?","?","?","?","?","?","?","?","?","?","?","?","?","?","?","?","?","?","?","?","?","?","?","?","?","?","?","?","?","?","?","?","?","?","?","?","?","?","?","?","?","?","?","?","?","?","?","?","?","?","?","?","?","?","?","?","?","?","?","?","?","?","?","?","?","?","?","?","?","?","?","?","?","?","?","?","?","?","?","?","?","?","?","?","?","?","?","?","?","?","?","?","?","?","?","?","?","?","?","?","?","?","?","?","?","?","?","?","?","?","?","?","?","?","?","?","?","?","?","?","?","?","?","?","?","?","?","?","?","?","?","?","?","?","?","?","?","?","?","?","?","?","?","?","?","?","?","?","?","?","?","?","?","?","?","?","?","?","?","?","?","?","?","?","?","?","?","?","?","?","?","?","?","?","?","?","?","?","?","?","?","?","?","?","?","?","?","?","?","?","?","?","?","?","?","?","?","?","?","?","?","?","?","?","?","?","?","?","?","?","?","?","?","?","?","?","?","?","?","?","?","?","?","?","?","?","?","?","?","?","?","?","?","?","?","?","?","?","?","?","?","?","?","?","?","?","?","?","?","?","?","?","?","?","?","?","?","?","?","?","?","?","?","?","?","?","?","?","?","?","?","?","?","?","?","?","?","?","?","?","?","?","?","?","?","?","?","?","?","?","?","?","?","?","?","?","?","?","?","?","?","?","?","?","?","?","?","?","?","?","?","?","?","?","?","?","?","?","?","?","?","?","?","?","?","?","?","?","?","?","?","?","?","?","?","?","?","?","?","?","?","?","?","?","?","?","?","?","?","?","?","?","?","?","?","?","?","?","?","?","?","?","?","?","?","?","?","?","?","?","?","?","?","?","?","?","?","?","?","?","?","?","?","?","?","?","?","?","?","?","?","?","?","?","?","?","?","?","?","?","?","?","?","?","?","?","?","?","?","?","?","?","?","?","?","?","?","?","?","?","?","?","?","?","?","?","?","?","?","?","?","?","?","?","?","?","?","?","?","?","?","?","?","?","?","?","?","?","?","?","?","?","?","?","?","?","?","?","?","?","?","?","?","?","?","?","?","?","?","?","?","?","?","?","?","?","?","?","?","?","?","?","?","?","?","?","?","?","?","?","?","?","?","?","?","?","?","?","?","?","?","?","?","?","?","?","?","?","?","?","?","?","?","?","?","?","?","?","?","?","?","?","?","?","?","?","?","?","?","?","?","?","?","?","?","?","?","?","?","?","?","?","?","?","?","?","?","?","?","?","?","?","?","?","?","?","?","?","?","?","?","?","?","?","?","?","?","?","?","?","?","?","?","?","?","?","?","?","?","?","?","?","?","?","?","?","?","?","?","?","?","?","?","?","?","?","?","?","?","?","?","?","?","?","?","?","?","?","?","?","?","?","?","?","?","?","?","?","?","?","?","?","?","?","?","?","?","?","?","?","?","?","?","?","?","?","?","?","?","?","?","?","?","?","?","?","?","?","?","?","?","?","?","?","?","?","?","?","?","?","?","?","?","?","?","?","?","?","?","?","?","?","?","?","?","?","?","?","?","?","?","?","?","?","?","?","?","?","?","?","?","?","?","?","?","?","?","?","?","?","?","?","?","?","?","?","?","?","?","?","?","?","?","?","?","?","?","?","?","?","?","?","?","?","?","?","?","?","?","?","?","?","?","?","?","?","?","?","?","?","?","?","?","?","?","?","?","?","?","?","?","?","?","?","?","?","?","?","?","?","?","?","?","?","?","?","?","?","?","?","?","?","?","?","?","?","?","?","?","?","?","?","?","?","?","?","?","?","?","?","?","?","?","?","?","?","?","?","?","?","?","?","?","?","?","?","?","?","?","?","?","?","?","?","?","?","?","?","?","?","?","?","?","?","?","?","?","?","?","?","?","?","?","?","?","?","?","?","?","?","?","?","?","?","?","?","?","?","?","?","?","?","?","?","?","?","?","?","?","?","?","?","?","?","?","?","?","?","?","?","?","?","?","?","?","?","?","?","?","?","?","?","?","?","?","?","?","?","?","?","?","?","?","?","?","?","?","?","?","?","?","?","?","?","?","?","?","?","?","?","?","?","?","?","?","?","?","?","?","?","?","?","?","?","?","?","?","?","?","?","?","?","?","?","?","?","?","?","?","?","?","?","?","?","?","?","?","?","?","?","?","?","?","?","?","?","?","?","?","?","?","?","?","?","?","?","?","?","?","?","?","?","?","?","?","?","?","?","?","?","?","?","?","?","?","?","?","?","?","?","?","?","?","?","?","?","?","?","?","?","?","?","?","?","?","?","?","?","?","?","?","?","?","?","?","?","?","?","?","?","?","?","?","?","?","?","?","?","?","?","?","?","?","?","?","?","?","?","?","?","?","?","?","?","?","?","?","?","?","?","?","?","?","?","?","?","?","?","?","?","?","?","?","?","?","?","?","?","?","?","?","?","?","?","?","?","?","?","?","?","?","?","?","?","?","?","?","?","?","?","?","?","?","?","?","?","?","?","?","?","?","?","?","?","?","?","?","?","?","?","?","?","?","?","?","?","?","?","?","?","?","?","?","?","?","?","?","?","?","?","?","?","?","?","?","?","?","?","?","?","?","?","?","?","?","?","?","?","?","?","?","?","?","?","?","?","?","?","?","?","?","?","?","?","?","?","?","?","?","?","?","?","?","?","?","?","?","?","?","?","?","?","?","?","?","?","?","?","?","?","?","?","?","?","?","?","?","?","?","?","?","?","?","?","?","?","?","?","?","?","?","?","?","?","?","?","?","?","?","?","?","?","?","?","?","?","?","?","?","?","?","?","?","?","?","?","?","?","?","?","?