[{"success":true,"trial_type":"fullscreen","trial_index":0,"time_elapsed":3076,"internal_node_id":"0.0-0.0","protocol_sum":"","subject_identifier":407,"subject_sum":[70,33,193,213,95,164,232,108,224,218,228,40,131,2,100,27,170,200,109,213,63,118,34,124,137,45,249,211,0,104,45,65],"subject_pair":203,"STUDY_ID":"66a22c0758a3d5c9d26873c6","PROLIFIC_PID":"61686f8376bd6ff59ea15479","SESSION_ID":"66a26daa10cdeb2dc844a563","practice_instructions":1,"leaderboard_instructions":0,"bonus":0,"reveal_word":true,"self_rating":"2","confidence":"75"},{"view_history":"[{\"page_index\":0,\"viewing_time\":4525}]","rt":4526,"trial_type":"instructions","trial_index":1,"time_elapsed":7603,"internal_node_id":"0.0-1.0","protocol_sum":"","subject_identifier":407,"subject_sum":[70,33,193,213,95,164,232,108,224,218,228,40,131,2,100,27,170,200,109,213,63,118,34,124,137,45,249,211,0,104,45,65],"subject_pair":203,"STUDY_ID":"66a22c0758a3d5c9d26873c6","PROLIFIC_PID":"61686f8376bd6ff59ea15479","SESSION_ID":"66a26daa10cdeb2dc844a563","practice_instructions":1,"leaderboard_instructions":0,"bonus":0,"reveal_word":true,"self_rating":"2","confidence":"75"},{"view_history":"[{\"page_index\":0,\"viewing_time\":46204}]","rt":46206,"trial_type":"instructions","trial_index":2,"time_elapsed":53809,"internal_node_id":"0.0-2.0-0.0","protocol_sum":"","subject_identifier":407,"subject_sum":[70,33,193,213,95,164,232,108,224,218,228,40,131,2,100,27,170,200,109,213,63,118,34,124,137,45,249,211,0,104,45,65],"subject_pair":203,"STUDY_ID":"66a22c0758a3d5c9d26873c6","PROLIFIC_PID":"61686f8376bd6ff59ea15479","SESSION_ID":"66a26daa10cdeb2dc844a563","practice_instructions":1,"leaderboard_instructions":0,"bonus":0,"reveal_word":true,"self_rating":"2","confidence":"75"},{"rt":15021,"responses":"{\"Q0\":\"... reveal the word with as <b>few letter guesses</b> as possible\"}","question_order":"[0]","trial_type":"survey-multi-choice","trial_index":3,"time_elapsed":68831,"internal_node_id":"0.0-2.0-1.0","protocol_sum":"","subject_identifier":407,"subject_sum":[70,33,193,213,95,164,232,108,224,218,228,40,131,2,100,27,170,200,109,213,63,118,34,124,137,45,249,211,0,104,45,65],"subject_pair":203,"correct":true,"test_part":"multichoice_nonpretend","STUDY_ID":"66a22c0758a3d5c9d26873c6","PROLIFIC_PID":"61686f8376bd6ff59ea15479","SESSION_ID":"66a26daa10cdeb2dc844a563","practice_instructions":1,"leaderboard_instructions":0,"bonus":0,"reveal_word":true,"self_rating":"2","confidence":"75"},{"view_history":"[{\"page_index\":0,\"viewing_time\":1383}]","rt":1384,"trial_type":"instructions","trial_index":4,"time_elapsed":70216,"internal_node_id":"0.0-3.0","protocol_sum":"","subject_identifier":407,"subject_sum":[70,33,193,213,95,164,232,108,224,218,228,40,131,2,100,27,170,200,109,213,63,118,34,124,137,45,249,211,0,104,45,65],"subject_pair":203,"STUDY_ID":"66a22c0758a3d5c9d26873c6","PROLIFIC_PID":"61686f8376bd6ff59ea15479","SESSION_ID":"66a26daa10cdeb2dc844a563","practice_instructions":1,"leaderboard_instructions":0,"bonus":0,"reveal_word":true,"self_rating":"2","confidence":"75"},{"word":"ZEBRA","click_log":{"letter":["","E","A","B","M","Z","R"],"t":[0,8657,13322,16840,20494,28513,29464],"hit":[null,1,1,1,0,1,1],"asked":["","E","EA","EAB","EABM","EABMZ","EABMZR"],"word_state":["_____","_E___","_E__A","_EB_A","_EB_A","ZEB_A","ZEBRA"]},"hover_log":{"letter":["?","?","?","?","?","?","?","?","?","?","?","?","?","?","?","?","?","?","?","?","?","?","J","?","?","T","T","?","?","?","?","?","?","?","?","?","?","?","?","?","?","?","?","?","?","?","?","?","?","?","?","?","?","?","?","?","?","?","?","?","?","?","?","?","?","?","?","?","?","?","?","?","?","?","?","?","?","?","?","?","?","?","?","?","?","?","?","?","?","?","?","?","?","?","?","?","?","?","?","?","?","?","?","?","?","?","?","?","?","?","?","?","?","?","?","?","?","?","?","?","?","?","?","?","?","?","?","?","?","?","?","?","?","?","?","?","?","?","?","?","?","?","?","?","?","?","?","?","?","?","?","?","?","?","?","?","?","?","?","?","?","?","?","?","?","?","?","?","?","?","?","?","?","?","?","?","?","?","?","?","?","?","?","?","?","?","?","?","?","?","?","?","?","?","?","?","?","?","?","?","?","?","?","?","?","?","?","?","?","?","?","?","?","?","?","?","?","?","?","?","?","?","?","?","?","?","?","?","?","?","?","?","?","?","?","?","?","?","?","?","?","?","?","?","?","?","?","?","?","?","?","?","?","?","?","?","?","?","?","?","?","?","?","?","?","?","?","?","?","?","?","?","?","?","?","?","?","?","?","?","?","?","?","?","?","?","?","?","?","?","?","?","?","?","?","?","?","?","?","?","?","?","?","?","?","?","?","?","?","?","?","?","?","?","?","?","?","?","?","?","?","?","?","?","?","?","?","?","?","?","?","?","?","?","?","?","?","?","?","?","?","?","?","?","?","?","?","?","?","?","?","?","?","?","?","?","?","?","?","?","?","?","?","?","?","?","?","?","?","?","?","?","?","?","?","?","?","?","?","?","?","?","?","?","?","?","?","?","?","?","?","?","?","?","?","?","?","?","?","?","?","?","?","?","?","?","?","?","?","?","?","?","?","?","?","?","?","?","?","?","?","?","?","?","?","?","?","?","?","?","?","?","?","?","?","?","?","?","?","?","?","?","?","?","?","?","?","?","?","?","?","?","?","?","?","?","?","?","?","?","?","?","V","V","?","?","?","N","N","N","N","N","N","N","N","?","?","?","?","?","?","E","E","E","E","?","?","?","?","?","?","?","?","?","?","?","?","?","?","E","E","E","E","E","E","E","E","E","E","E","E","E","E","E","E","E","E","E","E","E","E","E","E","E","E","E","E","E","E","E","E","E","E","E","E","E","E","E","E","E","E","E","E","E","E","E","E","E","E","E","E","E","E","E","E","E","E","E","E","E","E","E","E","E","E","E","E","E","E","E","E","E","E","E","E","E","?","D","D","?","L","L","?","?","?","T","T","T","T","T","T","T","T","T","T","T","T","T","T","T","T","T","T","T","T","T","T","T","T","T","T","T","T","T","T","T","T","T","T","T","T","T","T","T","T","T","T","T","T","T","T","T","T","T","T","T","T","T","T","T","T","T","T","T","T","T","T","T","T","T","T","T","T","T","T","T","T","T","T","T","T","T","T","T","T","T","T","T","T","T","T","T","T","T","T","T","T","T","T","T","T","T","T","T","T","T","T","T","T","T","T","T","T","T","T","T","T","T","T","T","T","T","T","T","?","?","?","K","K","?","?","?","?","?","?","?","?","?","?","?","?","?","?","A","A","A","A","A","A","A","A","A","A","A","A","A","A","A","A","A","A","A","A","A","A","A","A","A","A","A","A","A","A","A","A","A","A","A","A","A","A","A","A","A","A","A","A","A","A","A","A","A","A","A","A","A","A","A","A","A","A","A","A","A","A","A","A","A","A","A","A","A","A","A","A","A","A","A","A","A","A","A","A","A","A","A","A","A","A","A","A","A","A","A","A","A","A","A","A","A","A","A","A","A","A","A","A","A","A","A","A","A","A","A","A","A","A","A","A","A","A","A","A","A","A","A","A","A","A","A","?","?","?","?","?","?","B","B","B","B","B","B","B","B","B","B","B","B","B","B","B","B","B","B","B","B","B","B","B","B","B","B","B","B","B","B","B","B","B","B","B","B","B","B","B","B","B","B","B","B","B","B","B","B","B","B","B","B","B","B","B","B","B","B","B","B","B","B","B","B","B","B","B","B","B","B","B","B","B","B","B","B","B","B","B","B","B","B","B","B","B","B","B","B","B","B","B","B","B","B","B","B","B","B","B","B","B","B","B","B","B","B","B","B","B","B","B","B","B","B","B","B","B","B","B","B","B","B","B","B","B","B","B","B","B","B","B","B","B","B","B","B","B","B","B","B","B","B","B","B","B","B","B","B","B","B","B","B","B","B","B","B","B","B","B","B","B","B","B","B","B","B","B","B","B","B","B","B","B","B","B","B","B","B","B","B","B","B","B","B","B","B","B","B","B","B","B","B","B","B","B","B","B","B","B","B","B","B","B","B","B","B","B","B","B","B","B","B","B","B","B","B","B","B","B","B","B","B","B","B","B","B","B","B","B","B","B","B","B","B","B","B","B","B","B","B","B","B","B","B","B","B","?","?","?","?","?","?","?","?","?","?","?","?","?","?","?","?","?","?","?","?","?","?","?","?","?","?","?","?","?","L","L","L","L","L","L","L","L","L","L","L","L","L","L","L","L","L","L","L","L","L","L","L","L","L","L","L","L","L","L","L","L","L","L","L","L","L","L","L","L","L","L","L","L","L","L","L","L","L","L","L","L","L","L","L","L","L","L","L","L","L","L","L","L","L","?","?","?","M","M","M","M","M","M","M","M","M","M","M","M","M","M","M","M","M","M","M","M","M","M","M","M","M","M","M","M","M","M","M","M","M","M","M","M","M","M","M","M","M","M","M","M","M","M","M","M","M","M","M","M","M","M","M","M","M","M","M","M","M","M","M","M","M","M","M","M","M","M","M","?","?","?","?","?","?","?","?","?","?","?","?","?","?","?","?","?","?","?","?","?","?","?","?","?","?","?","?","?","?","?","?","?","?","?","?","?","?","?","?","?","?","?","?","?","?","?","?","?","?","?","?","?","?","?","?","?","?","?","?","?","?","?","?","?","?","?","?","?","?","?","?","?","?","?","?","?","?","?","?","?","?","?","?","?","?","?","?","?","?","?","?","?","?","?","?","?","?","?","?","?","?","?","?","?","?","?","?","?","?","?","?","?","?","?","?","?","?","?","?","?","?","?","?","?","?","?","?","?","?","?","?","?","?","?","?","?","?","?","?","?","?","?","?","?","?","?","?","?","?","?","?","?","?","?","?","?","?","?","?","?","?","?","?","?","?","?","?","?","?","?","?","?","?","?","?","?","?","?","?","?","?","?","?","?","?","?","?","?","?","?","?","?","?","?","?","?","?","?","?","?","?","?","?","?","?","?","?","?","?","?","?","?","?","?","?","?","?","?","?","?","?","?","?","?","?","?","?","?","?","?","?","?","?","?","?","?","?","?","?","?","?","?","?","?","?","?","?","?","?","?","?","?","?","?","?","?","?","?","?","?","?","?","?","?","?","?","?","?","?","?","?","?","?","?","?","?","?","?","?","?","?","?","?","?","?","?","?","?","?","?","?","?","?","?","?","?","?","?","?","?","?","?","?","?","?","?","?","?","?","?","?","?","?","?","?","?","?","?","V","V","V","V","V","V","V","V","V","V","?","W","X","Y","Y","?","?","Z","Z","Z","Z","?","?","?","?","?","?","?","?","?","?","?","?","?","?","?","?","?","?","?","Y","Y","Y","Y","Y","Y","Y","Y","Y","Y","Y","Y","Y","Y","Y","Y","Y","Y","Y","?","?","Z","Z","Z","Z","Z","Z","Z","Z","Z","Z","Z","Z","Z","Z","Z","Z","Z","Z","Z","Z","Z","Z","Z","Z","Z","Z","Z","Z","Z","Z","Z","Z","Z","Z","Z","Z","Z","Z","Z","Z","Z","Z","Z","Z","Z","Z","Z","Z","Z","Z","Z","Z","Z","Z","Z","Z","Z","Z","Z","Z","Z","Z","Z","Z","Z","Z","Z","Z","Z","Z","Z","Z","Z","Z","Z","Z","Z","Z","Z","Z","Z","Z","Z","Z","Z","Z","?","?","?","?","R","R","R","R","R","R","R","R","R","R","R","R","R","R","R","R","R","R","R","R","R","R","R","R","R","R","R","R","R","R","R","R","R","R","R","R","R","R","R","R","R","R","R","R","R","R","R","R","R","R","R","R","R","R","R","R","R","R","R","R","R","R","R","R","R","R","R","R","R","R","R","R","R","R","R","R","R","R","R","R","R","R","R","R","R","R","R","R","R","R","R","R","R","R","R","R","R","R","R","R","R","R","R","R","R","R","R","R","R","R","R","R","R","R","R","R","R","R","R","R","R","R","R","R","R","R","?","?","?","?","?","?","?","?","?","?","?","?","?","?","?","?","?","?"],"t":[47,66,82,108,129,145,162,178,200,212,228,245,261,278,295,311,328,345,362,378,395,412,431,446,464,480,498,522,546,562,578,596,612,629,645,661,678,694,712,728,744,761,778,795,811,829,845,862,878,895,912,928,945,962,978,995,1012,1028,1045,1062,1078,1095,1112,1128,1145,1162,1179,1195,1212,1228,1245,1262,1279,1295,1312,1328,1345,1361,1379,1395,1412,1428,1445,1462,1478,1495,1511,1528,1545,1562,1579,1595,1612,1628,1645,1662,1679,1695,1712,1728,1745,1762,1779,1795,1813,1829,1846,1863,1879,1896,1913,1929,1946,1963,1979,1996,2012,2029,2045,2062,2079,2095,2112,2129,2145,2162,2179,2196,2212,2229,2246,2262,2279,2295,2313,2329,2345,2362,2379,2395,2413,2428,2446,2462,2479,2495,2512,2529,2546,2562,2579,2596,2612,2629,2646,2662,2679,2696,2712,2729,2746,2762,2780,2796,2813,2829,2846,2862,2879,2896,2913,2930,2946,2962,2979,2996,3013,3029,3046,3063,3079,3096,3113,3129,3146,3162,3180,3196,3213,3229,3246,3262,3280,3296,3312,3329,3346,3363,3379,3396,3413,3429,3447,3463,3479,3496,3513,3529,3547,3563,3580,3596,3613,3629,3646,3663,3680,3696,3713,3729,3746,3762,3779,3797,3813,3829,3847,3863,3880,3896,3913,3929,3946,3963,3980,3996,4013,4029,4047,4062,4080,4096,4113,4129,4147,4163,4180,4196,4213,4230,4246,4262,4280,4296,4313,4329,4347,4364,4380,4398,4413,4430,4446,4463,4480,4497,4513,4530,4547,4563,4580,4596,4613,4630,4647,4663,4680,4696,4714,4730,4746,4764,4780,4796,4814,4830,4846,4863,4880,4896,4913,4931,4947,4963,4980,4996,5013,5030,5047,5063,5080,5097,5114,5130,5147,5163,5180,5197,5214,5230,5247,5264,5280,5297,5314,5330,5347,5364,5380,5397,5414,5430,5447,5463,5480,5497,5514,5530,5547,5563,5580,5597,5614,5630,5647,5664,5681,5697,5714,5730,5747,5764,5781,5797,5814,5830,5848,5864,5881,5897,5914,5930,5948,5964,5981,5998,6014,6030,6047,6064,6081,6097,6114,6130,6147,6164,6181,6197,6214,6230,6247,6263,6281,6297,6314,6330,6347,6364,6381,6397,6414,6430,6447,6464,6481,6497,6514,6530,6547,6564,6581,6597,6614,6630,6648,6664,6681,6697,6714,6731,6748,6764,6781,6797,6814,6831,6848,6864,6881,6898,6914,6931,6948,6964,6981,6997,7014,7030,7048,7064,7081,7097,7114,7131,7148,7164,7181,7197,7215,7231,7248,7264,7281,7297,7315,7331,7347,7364,7381,7397,7415,7431,7448,7464,7481,7498,7515,7531,7548,7564,7581,7598,7615,7631,7648,7665,7682,7698,7716,7732,7749,7765,7782,7799,7815,7832,7849,7865,7881,7898,7915,7931,7949,7965,7982,7998,8015,8032,8049,8065,8082,8099,8116,8131,8149,8166,8182,8199,8215,8232,8248,8264,8281,8298,8316,8332,8349,8366,8382,8399,8415,8432,8449,8465,8482,8499,8516,8531,8550,8567,8583,8599,8616,8633,8650,8666,8683,8699,8716,8732,8749,8766,8783,8799,8816,8832,8849,8866,8882,8899,8915,8932,8949,8965,8982,8998,9015,9032,9049,9065,9082,9099,9116,9132,9149,9165,9182,9198,9217,9232,9249,9265,9282,9299,9316,9332,9349,9365,9383,9399,9416,9432,9449,9466,9483,9499,9516,9532,9549,9565,9582,9599,9616,9632,9649,9667,9683,9699,9716,9733,9750,9766,9783,9799,9816,9832,9849,9867,9883,9899,9916,9933,9949,9966,9982,9999,10016,10032,10050,10065,10083,10099,10116,10133,10150,10166,10183,10199,10216,10233,10249,10266,10283,10299,10317,10333,10350,10366,10383,10399,10416,10432,10449,10466,10483,10499,10516,10533,10549,10566,10583,10599,10616,10633,10650,10666,10683,10699,10717,10732,10750,10766,10783,10799,10816,10832,10850,10866,10883,10899,10916,10933,10950,10967,10983,10999,11016,11033,11050,11066,11083,11100,11116,11133,11150,11166,11184,11199,11216,11233,11250,11266,11283,11299,11317,11333,11350,11366,11384,11399,11417,11433,11450,11466,11483,11500,11517,11533,11550,11566,11584,11600,11616,11633,11651,11667,11684,11700,11717,11733,11750,11766,11784,11801,11819,11834,11850,11867,11883,11900,11918,11934,11950,11966,11984,12000,12017,12034,12050,12066,12086,12101,12118,12134,12151,12168,12184,12200,12217,12233,12250,12266,12284,12300,12317,12333,12350,12367,12384,12401,12417,12433,12450,12467,12483,12500,12517,12534,12550,12567,12584,12601,12617,12634,12650,12667,12684,12701,12717,12734,12751,12767,12783,12800,12817,12834,12851,12867,12884,12900,12917,12934,12952,12968,12984,13000,13017,13034,13051,13067,13084,13100,13118,13134,13150,13168,13184,13201,13218,13234,13251,13267,13285,13300,13318,13334,13351,13367,13385,13400,13417,13434,13451,13467,13484,13501,13518,13534,13551,13567,13585,13601,13618,13634,13650,13668,13685,13701,13718,13734,13751,13768,13784,13801,13818,13834,13851,13868,13885,13902,13918,13934,13952,13968,13985,14002,14018,14035,14051,14068,14085,14102,14119,14135,14152,14168,14185,14201,14218,14234,14251,14268,14286,14302,14319,14335,14352,14368,14385,14401,14418,14435,14452,14468,14485,14501,14518,14534,14551,14568,14584,14601,14618,14635,14652,14668,14685,14701,14718,14734,14751,14768,14785,14801,14818,14834,14851,14868,14885,14901,14919,14935,14952,14968,14985,15001,15018,15035,15051,15068,15089,15101,15118,15135,15152,15168,15185,15201,15218,15234,15252,15268,15285,15301,15318,15334,15351,15368,15385,15401,15419,15435,15452,15468,15485,15502,15519,15535,15552,15568,15585,15602,15618,15635,15652,15668,15685,15702,15718,15735,15752,15768,15785,15801,15819,15835,15851,15868,15885,15902,15919,15935,15952,15968,15985,16002,16019,16035,16052,16068,16086,16102,16119,16135,16152,16169,16186,16203,16219,16235,16252,16269,16286,16302,16319,16335,16352,16368,16386,16402,16419,16435,16452,16469,16486,16502,16519,16535,16552,16569,16586,16602,16619,16635,16652,16669,16685,16703,16719,16736,16752,16769,16786,16802,16819,16836,16853,16869,16886,16902,16920,16936,16953,16969,16986,17002,17019,17035,17052,17069,17086,17102,17119,17135,17153,17169,17186,17202,17219,17236,17253,17269,17286,17302,17319,17336,17353,17369,17386,17402,17419,17436,17452,17470,17486,17503,17519,17536,17553,17569,17586,17603,17619,17636,17653,17669,17686,17703,17719,17736,17753,17769,17787,17803,17820,17836,17853,17869,17886,17902,17920,17935,17953,17970,17986,18003,18020,18036,18053,18069,18086,18103,18120,18136,18153,18169,18186,18203,18220,18236,18253,18270,18287,18303,18321,18337,18354,18370,18387,18404,18420,18437,18453,18470,18487,18504,18521,18537,18554,18570,18587,18603,18620,18637,18653,18670,18687,18704,18721,18737,18754,18771,18787,18804,18821,18837,18853,18870,18888,18904,18920,18937,18954,18971,18987,19004,19020,19037,19054,19071,19088,19104,19121,19138,19154,19171,19187,19204,19220,19237,19254,19270,19287,19303,19320,19336,19354,19370,19387,19404,19420,19437,19454,19470,19487,19504,19521,19537,19554,19570,19587,19604,19620,19637,19654,19670,19687,19703,19721,19737,19754,19770,19787,19804,19820,19837,19854,19871,19887,19905,19921,19938,19954,19971,19987,20004,20020,20037,20055,20070,20088,20104,20121,20138,20154,20170,20187,20203,20220,20237,20255,20273,20287,20305,20321,20338,20354,20371,20387,20403,20423,20438,20455,20472,20489,20505,20521,20537,20554,20571,20588,20604,20621,20638,20654,20671,20687,20704,20721,20738,20754,20771,20788,20804,20821,20837,20854,20871,20888,20905,20921,20939,20954,20971,20988,21004,21021,21037,21054,21071,21088,21104,21121,21138,21156,21172,21189,21205,21222,21238,21255,21272,21288,21305,21322,21339,21356,21371,21389,21405,21422,21438,21454,21471,21488,21504,21521,21538,21555,21571,21588,21605,21622,21638,21654,21671,21688,21704,21721,21738,21755,21771,21788,21804,21822,21838,21854,21871,21889,21904,21921,21938,21955,21971,21988,22005,22022,22038,22054,22071,22089,22105,22121,22138,22154,22171,22189,22205,22222,22238,22255,22271,22288,22305,22322,22338,22355,22371,22389,22405,22421,22438,22455,22471,22488,22505,22522,22538,22555,22572,22588,22605,22622,22638,22655,22671,22689,22705,22721,22738,22756,22772,22788,22805,22821,22838,22855,22872,22889,22905,22922,22939,22955,22972,22989,23005,23022,23038,23055,23072,23089,23105,23122,23138,23155,23172,23189,23205,23222,23238,23256,23272,23289,23305,23322,23338,23355,23372,23389,23405,23423,23439,23455,23472,23489,23505,23523,23539,23556,23573,23589,23606,23622,23638,23655,23672,23689,23705,23722,23739,23756,23772,23789,23805,23822,23839,23856,23872,23889,23905,23922,23939,23956,23972,23989,24005,24022,24039,24056,24072,24089,24106,24123,24139,24156,24172,24189,24206,24222,24239,24256,24272,24289,24306,24323,24339,24356,24372,24389,24406,24423,24439,24455,24472,24490,24506,24523,24539,24556,24573,24591,24607,24622,24639,24656,24672,24689,24706,24723,24739,24756,24773,24789,24806,24823,24840,24856,24873,24890,24906,24923,24939,24956,24972,24989,25006,25023,25039,25056,25072,25089,25107,25124,25140,25157,25173,25190,25207,25224,25240,25257,25274,25290,25306,25323,25339,25357,25373,25390,25406,25423,25439,25456,25473,25490,25506,25523,25540,25556,25573,25590,25606,25624,25640,25657,25673,25690,25706,25723,25740,25757,25773,25790,25807,25823,25840,25857,25873,25890,25906,25923,25940,25957,25973,25990,26006,26024,26040,26057,26073,26090,26106,26124,26140,26156,26173,26190,26206,26224,26240,26257,26273,26290,26307,26323,26340,26357,26373,26390,26407,26423,26441,26457,26474,26491,26507,26524,26540,26557,26574,26590,26606,26624,26640,26657,26674,26690,26707,26724,26741,26757,26774,26791,26807,26823,26840,26857,26873,26890,26907,26924,26940,26957,26974,26990,27007,27024,27040,27058,27074,27091,27108,27125,27141,27158,27174,27191,27207,27225,27241,27258,27279,27292,27307,27324,27341,27358,27374,27392,27408,27425,27441,27458,27475,27491,27507,27525,27541,27558,27575,27591,27607,27625,27641,27658,27675,27691,27708,27725,27741,27757,27774,27791,27808,27825,27841,27857,27874,27891,27907,27924,27941,27957,27974,27992,28008,28025,28041,28058,28075,28091,28108,28125,28141,28158,28174,28191,28209,28225,28241,28258,28275,28292,28309,28325,28342,28358,28374,28393,28407,28424,28441,28459,28475,28492,28509,28525,28541,28558,28574,28592,28608,28624,28641,28657,28675,28691,28708,28725,28741,28758,28774,28792,28807,28825,28841,28858,28875,28892,28908,28925,28941,28958,28975,28992,29008,29026,29041,29058,29075,29093,29109,29126,29142,29159,29175,29195,29210,29225,29242,29258,29275,29292,29308,29325,29342,29360,29375,29392,29408,29426,29441,29460,29476,29492,29508,29526,29541,29559,29575,29592,29608,29625,29641,29659,29675,29692,29708,29725,29742,29758,29775,29792,29808,29825,29842,29859,29875,29892,29909,29926,29942,29959,29975,29993,30009,30026,30042,30058,30075,30092,30108,30126,30142,30159,30175,30192,30209,30226,30242,30259,30275,30292,30309,30326,30342,30359,30375,30393,30408,30426,30442,30459,30475,30492,30509,30526,30542,30559,30575,30592,30609,30626,30642,30659,30675,30693,30709,30726,30742,30759,30775,30792,30809,30826,30842,30859,30876,30893,30909,30926,30942,30959,30976,30992,31009,31026,31042,31059,31076,31092,31109,31126,31142,31160,31176,31193,31209,31226,31242,31259,31276,31293,31310,31327,31342,31359,31375,31393,31409,31427,31442,31460,31476],"hit":[null],"x":[-1.6054421768707483,-1.6054421768707483,-1.6054421768707483,-1.6054421768707483,-1.6054421768707483,-1.6054421768707483,-1.6054421768707483,-1.6054421768707483,-1.6054421768707483,-1.6054421768707483,-1.6054421768707483,-1.6054421768707483,-1.6054421768707483,-1.6054421768707483,-1.6054421768707483,-1.6054421768707483,-1.6054421768707483,-1.6054421768707483,-1.6054421768707483,-1.6054421768707483,-1.6054421768707483,-1.6054421768707483,-0.008503401360544218,0.015306122448979591,0.07653061224489796,0.14795918367346939,0.18197278911564627,0.2227891156462585,0.27721088435374147,0.28401360544217685,0.28741496598639454,0.28741496598639454,0.28741496598639454,0.28741496598639454,0.29081632653061223,0.29081632653061223,0.29081632653061223,0.29081632653061223,0.29081632653061223,0.29081632653061223,0.29081632653061223,0.29081632653061223,0.29081632653061223,0.29081632653061223,0.29081632653061223,0.29081632653061223,0.29081632653061223,0.29081632653061223,0.29081632653061223,0.29081632653061223,0.29081632653061223,0.29081632653061223,0.29081632653061223,0.29081632653061223,0.29081632653061223,0.29081632653061223,0.29081632653061223,0.29081632653061223,0.29081632653061223,0.29081632653061223,0.29081632653061223,0.29081632653061223,0.29081632653061223,0.29081632653061223,0.29081632653061223,0.29081632653061223,0.29081632653061223,0.29081632653061223,0.29081632653061223,0.29081632653061223,0.29081632653061223,0.29081632653061223,0.29081632653061223,0.29081632653061223,0.29081632653061223,0.29081632653061223,0.29081632653061223,0.29081632653061223,0.29081632653061223,0.29081632653061223,0.29081632653061223,0.29081632653061223,0.29081632653061223,0.29081632653061223,0.29081632653061223,0.29081632653061223,0.29081632653061223,0.29081632653061223,0.29081632653061223,0.29081632653061223,0.29081632653061223,0.29081632653061223,0.29081632653061223,0.29081632653061223,0.29081632653061223,0.29081632653061223,0.29081632653061223,0.29081632653061223,0.29081632653061223,0.29081632653061223,0.29081632653061223,0.29081632653061223,0.29081632653061223,0.29081632653061223,0.29081632653061223,0.29081632653061223,0.29081632653061223,0.29081632653061223,0.29081632653061223,0.29081632653061223,0.29081632653061223,0.29081632653061223,0.29081632653061223,0.29081632653061223,0.29081632653061223,0.29081632653061223,0.29081632653061223,0.29081632653061223,0.29081632653061223,0.29081632653061223,0.29081632653061223,0.29081632653061223,0.29081632653061223,0.29081632653061223,0.29081632653061223,0.29081632653061223,0.29081632653061223,0.29081632653061223,0.29081632653061223,0.29081632653061223,0.29081632653061223,0.29081632653061223,0.29081632653061223,0.29081632653061223,0.29081632653061223,0.29081632653061223,0.29081632653061223,0.29081632653061223,0.29081632653061223,0.29081632653061223,0.29081632653061223,0.29081632653061223,0.29081632653061223,0.29081632653061223,0.29081632653061223,0.29081632653061223,0.29081632653061223,0.29081632653061223,0.29081632653061223,0.29081632653061223,0.29081632653061223,0.29081632653061223,0.29081632653061223,0.29081632653061223,0.29081632653061223,0.29081632653061223,0.29081632653061223,0.29081632653061223,0.29081632653061223,0.29081632653061223,0.29081632653061223,0.29081632653061223,0.29081632653061223,0.29081632653061223,0.29081632653061223,0.29081632653061223,0.29081632653061223,0.29081632653061223,0.29081632653061223,0.29081632653061223,0.29081632653061223,0.29081632653061223,0.29081632653061223,0.29081632653061223,0.29081632653061223,0.29081632653061223,0.29081632653061223,0.29081632653061223,0.29081632653061223,0.29081632653061223,0.29081632653061223,0.29081632653061223,0.29081632653061223,0.29081632653061223,0.29081632653061223,0.29081632653061223,0.29081632653061223,0.29081632653061223,0.29081632653061223,0.29081632653061223,0.29081632653061223,0.29081632653061223,0.29081632653061223,0.29081632653061223,0.29081632653061223,0.29081632653061223,0.29081632653061223,0.29081632653061223,0.29081632653061223,0.29081632653061223,0.29081632653061223,0.29081632653061223,0.29081632653061223,0.29081632653061223,0.29081632653061223,0.29081632653061223,0.29081632653061223,0.29081632653061223,0.29081632653061223,0.29081632653061223,0.29081632653061223,0.29081632653061223,0.29081632653061223,0.29081632653061223,0.29081632653061223,0.29081632653061223,0.29081632653061223,0.29081632653061223,0.29081632653061223,0.29081632653061223,0.29081632653061223,0.29081632653061223,0.29081632653061223,0.29081632653061223,0.29081632653061223,0.29081632653061223,0.29081632653061223,0.29081632653061223,0.29081632653061223,0.29081632653061223,0.29081632653061223,0.29081632653061223,0.29081632653061223,0.29081632653061223,0.29081632653061223,0.29081632653061223,0.29081632653061223,0.29081632653061223,0.29081632653061223,0.29081632653061223,0.29081632653061223,0.29081632653061223,0.29081632653061223,0.29081632653061223,0.29081632653061223,0.29081632653061223,0.29081632653061223,0.29081632653061223,0.29081632653061223,0.29081632653061223,0.29081632653061223,0.29081632653061223,0.29081632653061223,0.29081632653061223,0.29081632653061223,0.29081632653061223,0.29081632653061223,0.29081632653061223,0.29081632653061223,0.29081632653061223,0.29081632653061223,0.29081632653061223,0.29081632653061223,0.29081632653061223,0.29081632653061223,0.29081632653061223,0.29081632653061223,0.29081632653061223,0.29081632653061223,0.29081632653061223,0.29081632653061223,0.29081632653061223,0.29081632653061223,0.29081632653061223,0.29081632653061223,0.29081632653061223,0.29081632653061223,0.29081632653061223,0.29081632653061223,0.29081632653061223,0.29081632653061223,0.29081632653061223,0.29081632653061223,0.29081632653061223,0.29081632653061223,0.29081632653061223,0.29081632653061223,0.29081632653061223,0.29081632653061223,0.29081632653061223,0.29081632653061223,0.29081632653061223,0.29081632653061223,0.29081632653061223,0.29081632653061223,0.29081632653061223,0.29081632653061223,0.29081632653061223,0.29081632653061223,0.29081632653061223,0.29081632653061223,0.29081632653061223,0.29081632653061223,0.29081632653061223,0.29081632653061223,0.29081632653061223,0.29081632653061223,0.29081632653061223,0.29081632653061223,0.29081632653061223,0.29081632653061223,0.29081632653061223,0.29081632653061223,0.29081632653061223,0.29081632653061223,0.29081632653061223,0.29081632653061223,0.29081632653061223,0.29081632653061223,0.29081632653061223,0.29081632653061223,0.29081632653061223,0.29081632653061223,0.29081632653061223,0.29081632653061223,0.29081632653061223,0.29081632653061223,0.29081632653061223,0.29081632653061223,0.29081632653061223,0.29081632653061223,0.29081632653061223,0.29081632653061223,0.29081632653061223,0.29081632653061223,0.29081632653061223,0.29081632653061223,0.29081632653061223,0.29081632653061223,0.29081632653061223,0.29081632653061223,0.29081632653061223,0.29081632653061223,0.29081632653061223,0.29081632653061223,0.29081632653061223,0.29081632653061223,0.29081632653061223,0.29081632653061223,0.29081632653061223,0.29081632653061223,0.29081632653061223,0.29081632653061223,0.29081632653061223,0.29081632653061223,0.29081632653061223,0.29081632653061223,0.29081632653061223,0.29081632653061223,0.29081632653061223,0.29081632653061223,0.29081632653061223,0.29081632653061223,0.29081632653061223,0.29081632653061223,0.29081632653061223,0.29081632653061223,0.29081632653061223,0.29081632653061223,0.29081632653061223,0.29081632653061223,0.29081632653061223,0.29081632653061223,0.29081632653061223,0.29081632653061223,0.29081632653061223,0.29081632653061223,0.29081632653061223,0.29081632653061223,0.29081632653061223,0.29081632653061223,0.29081632653061223,0.29081632653061223,0.29081632653061223,0.29081632653061223,0.29081632653061223,0.29081632653061223,0.29081632653061223,0.29081632653061223,0.29081632653061223,0.29081632653061223,0.29081632653061223,0.29081632653061223,0.29081632653061223,0.29081632653061223,0.29081632653061223,0.29081632653061223,0.29081632653061223,0.29081632653061223,0.29081632653061223,0.29081632653061223,0.29081632653061223,0.29081632653061223,0.29081632653061223,0.29081632653061223,0.29081632653061223,0.29081632653061223,0.29081632653061223,0.29081632653061223,0.29081632653061223,0.29081632653061223,0.29081632653061223,0.29081632653061223,0.29081632653061223,0.29081632653061223,0.29081632653061223,0.29081632653061223,0.29081632653061223,0.29081632653061223,0.29081632653061223,0.29081632653061223,0.29081632653061223,0.29081632653061223,0.29081632653061223,0.29081632653061223,0.29081632653061223,0.29081632653061223,0.29081632653061223,0.29081632653061223,0.29081632653061223,0.29081632653061223,0.29081632653061223,0.29081632653061223,0.29081632653061223,0.29081632653061223,0.29081632653061223,0.29081632653061223,0.29081632653061223,0.29081632653061223,0.29081632653061223,0.29081632653061223,0.29081632653061223,0.29081632653061223,0.29081632653061223,0.29081632653061223,0.29081632653061223,0.29081632653061223,0.29081632653061223,0.29081632653061223,0.29081632653061223,0.29081632653061223,0.29081632653061223,0.29081632653061223,0.29081632653061223,0.29081632653061223,0.29081632653061223,0.29081632653061223,0.2942176870748299,0.3078231292517007,0.32142857142857145,0.3520408163265306,0.39965986394557823,0.42346938775510207,0.45408163265306123,0.477891156462585,0.49829931972789115,0.5153061224489796,0.5425170068027211,0.5527210884353742,0.5663265306122449,0.576530612244898,0.5833333333333334,0.5901360544217688,0.5935374149659864,0.6003401360544217,0.6037414965986394,0.6037414965986394,0.6071428571428571,0.6071428571428571,0.6037414965986394,0.5901360544217688,0.5731292517006803,0.5561224489795918,0.5289115646258503,0.5187074829931972,0.5085034013605442,0.49829931972789115,0.49489795918367346,0.4914965986394558,0.4914965986394558,0.4880952380952381,0.4880952380952381,0.4880952380952381,0.4880952380952381,0.4880952380952381,0.49489795918367346,0.5051020408163265,0.5153061224489796,0.5289115646258503,0.5391156462585034,0.5459183673469388,0.5493197278911565,0.5527210884353742,0.5561224489795918,0.5595238095238095,0.5595238095238095,0.5595238095238095,0.5595238095238095,0.5595238095238095,0.5595238095238095,0.5595238095238095,0.5595238095238095,0.5595238095238095,0.5595238095238095,0.5595238095238095,0.5595238095238095,0.5595238095238095,0.5595238095238095,0.5595238095238095,0.5595238095238095,0.5595238095238095,0.5595238095238095,0.5595238095238095,0.5595238095238095,0.5595238095238095,0.5595238095238095,0.5595238095238095,0.5595238095238095,0.5595238095238095,0.5595238095238095,0.5595238095238095,0.5595238095238095,0.5595238095238095,0.5595238095238095,0.5595238095238095,0.5595238095238095,0.5595238095238095,0.5595238095238095,0.5595238095238095,0.5595238095238095,0.5595238095238095,0.5595238095238095,0.5595238095238095,0.5595238095238095,0.5595238095238095,0.5595238095238095,0.5595238095238095,0.5595238095238095,0.5595238095238095,0.5595238095238095,0.5595238095238095,0.5595238095238095,0.5595238095238095,0.5595238095238095,0.5595238095238095,0.5595238095238095,0.5595238095238095,0.5595238095238095,0.5595238095238095,0.5595238095238095,0.5595238095238095,0.5595238095238095,0.5595238095238095,0.5595238095238095,0.5595238095238095,0.5595238095238095,0.5595238095238095,0.5595238095238095,0.5595238095238095,0.5595238095238095,0.5595238095238095,0.5595238095238095,0.5595238095238095,0.5493197278911565,0.5357142857142857,0.5187074829931972,0.4914965986394558,0.44047619047619047,0.39285714285714285,0.34523809523809523,0.2942176870748299,0.25,0.2193877551020408,0.195578231292517,0.18537414965986396,0.1717687074829932,0.1683673469387755,0.1683673469387755,0.1683673469387755,0.1683673469387755,0.1683673469387755,0.1683673469387755,0.1683673469387755,0.1683673469387755,0.1683673469387755,0.1683673469387755,0.1683673469387755,0.1683673469387755,0.1683673469387755,0.1683673469387755,0.1683673469387755,0.1683673469387755,0.1683673469387755,0.1683673469387755,0.1683673469387755,0.1683673469387755,0.1683673469387755,0.1683673469387755,0.1683673469387755,0.1683673469387755,0.1683673469387755,0.1683673469387755,0.1683673469387755,0.1683673469387755,0.1683673469387755,0.1683673469387755,0.1683673469387755,0.1683673469387755,0.1683673469387755,0.1683673469387755,0.1683673469387755,0.1683673469387755,0.1683673469387755,0.1683673469387755,0.1683673469387755,0.1683673469387755,0.1683673469387755,0.1683673469387755,0.1683673469387755,0.1683673469387755,0.1683673469387755,0.1683673469387755,0.1683673469387755,0.1683673469387755,0.1683673469387755,0.1683673469387755,0.1683673469387755,0.1683673469387755,0.1683673469387755,0.1683673469387755,0.1683673469387755,0.1683673469387755,0.1683673469387755,0.1683673469387755,0.1683673469387755,0.1683673469387755,0.1683673469387755,0.1683673469387755,0.1683673469387755,0.1683673469387755,0.1683673469387755,0.1683673469387755,0.1683673469387755,0.1683673469387755,0.1683673469387755,0.1683673469387755,0.1683673469387755,0.1683673469387755,0.1683673469387755,0.1683673469387755,0.1683673469387755,0.1683673469387755,0.1683673469387755,0.1683673469387755,0.1683673469387755,0.1683673469387755,0.1683673469387755,0.1683673469387755,0.1683673469387755,0.1683673469387755,0.1683673469387755,0.1683673469387755,0.1683673469387755,0.1683673469387755,0.1683673469387755,0.1683673469387755,0.1683673469387755,0.1683673469387755,0.1683673469387755,0.1683673469387755,0.1683673469387755,0.1683673469387755,0.1683673469387755,0.1683673469387755,0.1683673469387755,0.1683673469387755,0.1683673469387755,0.1683673469387755,0.1683673469387755,0.1683673469387755,0.1683673469387755,0.1683673469387755,0.1683673469387755,0.1683673469387755,0.1683673469387755,0.1683673469387755,0.1683673469387755,0.1683673469387755,0.1683673469387755,0.1683673469387755,0.1683673469387755,0.1683673469387755,0.1683673469387755,0.1649659863945578,0.15816326530612246,0.1445578231292517,0.12755102040816327,0.11054421768707483,0.0935374149659864,0.07993197278911565,0.06972789115646258,0.0663265306122449,0.06292517006802721,0.06292517006802721,0.06292517006802721,0.06292517006802721,0.06292517006802721,0.06292517006802721,0.06292517006802721,0.06292517006802721,0.06292517006802721,0.06292517006802721,0.06292517006802721,0.04591836734693878,0.03231292517006803,0.01870748299319728,0.00510204081632653,-0.00510204081632653,-0.008503401360544218,-0.011904761904761904,-0.011904761904761904,-0.011904761904761904,-0.011904761904761904,-0.015306122448979591,-0.015306122448979591,-0.015306122448979591,-0.015306122448979591,-0.015306122448979591,-0.015306122448979591,-0.015306122448979591,-0.015306122448979591,-0.015306122448979591,-0.015306122448979591,-0.015306122448979591,-0.015306122448979591,-0.015306122448979591,-0.015306122448979591,-0.015306122448979591,-0.015306122448979591,-0.015306122448979591,-0.015306122448979591,-0.015306122448979591,-0.015306122448979591,-0.015306122448979591,-0.015306122448979591,-0.015306122448979591,-0.015306122448979591,-0.015306122448979591,-0.015306122448979591,-0.015306122448979591,-0.015306122448979591,-0.015306122448979591,-0.015306122448979591,-0.015306122448979591,-0.015306122448979591,-0.015306122448979591,-0.015306122448979591,-0.015306122448979591,-0.015306122448979591,-0.015306122448979591,-0.015306122448979591,-0.015306122448979591,-0.015306122448979591,-0.011904761904761904,-0.011904761904761904,-0.011904761904761904,-0.011904761904761904,-0.011904761904761904,-0.011904761904761904,-0.011904761904761904,-0.011904761904761904,-0.011904761904761904,-0.011904761904761904,-0.011904761904761904,-0.011904761904761904,-0.011904761904761904,-0.011904761904761904,-0.011904761904761904,-0.011904761904761904,-0.011904761904761904,-0.011904761904761904,-0.011904761904761904,-0.011904761904761904,-0.011904761904761904,-0.011904761904761904,-0.011904761904761904,-0.011904761904761904,-0.011904761904761904,-0.011904761904761904,-0.011904761904761904,-0.011904761904761904,-0.011904761904761904,-0.011904761904761904,-0.011904761904761904,-0.011904761904761904,-0.011904761904761904,-0.011904761904761904,-0.011904761904761904,-0.011904761904761904,-0.011904761904761904,-0.011904761904761904,-0.011904761904761904,-0.011904761904761904,-0.011904761904761904,-0.011904761904761904,-0.011904761904761904,-0.011904761904761904,-0.011904761904761904,-0.011904761904761904,-0.011904761904761904,-0.011904761904761904,-0.011904761904761904,-0.011904761904761904,-0.011904761904761904,-0.011904761904761904,-0.011904761904761904,-0.008503401360544218,-0.008503401360544218,-0.00510204081632653,-0.00510204081632653,-0.0017006802721088435,-0.0017006802721088435,0.0017006802721088435,0.0017006802721088435,0.00510204081632653,0.008503401360544218,0.011904761904761904,0.01870748299319728,0.022108843537414966,0.025510204081632654,0.02891156462585034,0.03231292517006803,0.03231292517006803,0.03571428571428571,0.03571428571428571,0.0391156462585034,0.04251700680272109,0.04591836734693878,0.05272108843537415,0.05612244897959184,0.06292517006802721,0.0663265306122449,0.06972789115646258,0.07653061224489796,0.07993197278911565,0.08333333333333333,0.08673469387755102,0.09013605442176871,0.0935374149659864,0.0935374149659864,0.09693877551020408,0.10034013605442177,0.10034013605442177,0.10034013605442177,0.10034013605442177,0.10034013605442177,0.10034013605442177,0.10034013605442177,0.10034013605442177,0.10034013605442177,0.10034013605442177,0.10034013605442177,0.10034013605442177,0.10034013605442177,0.10034013605442177,0.10034013605442177,0.10034013605442177,0.10034013605442177,0.10034013605442177,0.10034013605442177,0.10034013605442177,0.10034013605442177,0.10034013605442177,0.10034013605442177,0.10034013605442177,0.10034013605442177,0.10034013605442177,0.10034013605442177,0.10034013605442177,0.10034013605442177,0.10034013605442177,0.10034013605442177,0.10034013605442177,0.10034013605442177,0.10034013605442177,0.10034013605442177,0.10034013605442177,0.10034013605442177,0.10034013605442177,0.10034013605442177,0.10034013605442177,0.10034013605442177,0.10034013605442177,0.10034013605442177,0.10034013605442177,0.10034013605442177,0.10034013605442177,0.10034013605442177,0.10034013605442177,0.10034013605442177,0.10034013605442177,0.10034013605442177,0.10034013605442177,0.10034013605442177,0.10034013605442177,0.10034013605442177,0.10034013605442177,0.10034013605442177,0.10034013605442177,0.10034013605442177,0.10034013605442177,0.10034013605442177,0.10034013605442177,0.10034013605442177,0.10034013605442177,0.10034013605442177,0.10034013605442177,0.10034013605442177,0.10034013605442177,0.10034013605442177,0.10034013605442177,0.10034013605442177,0.10034013605442177,0.10034013605442177,0.10374149659863946,0.10374149659863946,0.10374149659863946,0.10374149659863946,0.10374149659863946,0.10374149659863946,0.10374149659863946,0.10374149659863946,0.10374149659863946,0.10374149659863946,0.10374149659863946,0.10374149659863946,0.10374149659863946,0.10374149659863946,0.10374149659863946,0.10374149659863946,0.10374149659863946,0.10374149659863946,0.10374149659863946,0.10374149659863946,0.10374149659863946,0.10374149659863946,0.10374149659863946,0.10374149659863946,0.10374149659863946,0.10374149659863946,0.10374149659863946,0.10374149659863946,0.10374149659863946,0.10374149659863946,0.10374149659863946,0.10374149659863946,0.10374149659863946,0.10374149659863946,0.10714285714285714,0.11734693877551021,0.13095238095238096,0.1377551020408163,0.14795918367346939,0.15136054421768708,0.15136054421768708,0.15136054421768708,0.15136054421768708,0.15136054421768708,0.15136054421768708,0.15136054421768708,0.15136054421768708,0.15136054421768708,0.15136054421768708,0.15136054421768708,0.15136054421768708,0.15136054421768708,0.15136054421768708,0.15136054421768708,0.15136054421768708,0.15136054421768708,0.15136054421768708,0.15136054421768708,0.15136054421768708,0.15136054421768708,0.15136054421768708,0.15136054421768708,0.15136054421768708,0.15136054421768708,0.15136054421768708,0.15136054421768708,0.15136054421768708,0.15136054421768708,0.15136054421768708,0.15136054421768708,0.15136054421768708,0.15136054421768708,0.15136054421768708,0.15136054421768708,0.15136054421768708,0.15136054421768708,0.15136054421768708,0.15136054421768708,0.15136054421768708,0.15136054421768708,0.15136054421768708,0.15136054421768708,0.15136054421768708,0.15136054421768708,0.15136054421768708,0.15136054421768708,0.15136054421768708,0.15136054421768708,0.15136054421768708,0.15136054421768708,0.15136054421768708,0.15136054421768708,0.15136054421768708,0.15136054421768708,0.15136054421768708,0.15136054421768708,0.15136054421768708,0.15136054421768708,0.15136054421768708,0.15136054421768708,0.15136054421768708,0.15136054421768708,0.15136054421768708,0.15136054421768708,0.15136054421768708,0.15136054421768708,0.15136054421768708,0.15136054421768708,0.15136054421768708,0.15136054421768708,0.15136054421768708,0.15136054421768708,0.15136054421768708,0.15136054421768708,0.15136054421768708,0.15136054421768708,0.15136054421768708,0.15136054421768708,0.15136054421768708,0.15136054421768708,0.15136054421768708,0.15136054421768708,0.15136054421768708,0.15136054421768708,0.15136054421768708,0.15136054421768708,0.15136054421768708,0.15136054421768708,0.15136054421768708,0.15136054421768708,0.15136054421768708,0.15136054421768708,0.15136054421768708,0.15136054421768708,0.15136054421768708,0.15136054421768708,0.15136054421768708,0.15136054421768708,0.15136054421768708,0.15136054421768708,0.15136054421768708,0.15136054421768708,0.15136054421768708,0.15136054421768708,0.15136054421768708,0.15136054421768708,0.15136054421768708,0.15136054421768708,0.15136054421768708,0.15136054421768708,0.15136054421768708,0.15136054421768708,0.15136054421768708,0.15136054421768708,0.15136054421768708,0.15136054421768708,0.15136054421768708,0.15136054421768708,0.15136054421768708,0.15136054421768708,0.15136054421768708,0.15136054421768708,0.15136054421768708,0.15136054421768708,0.15136054421768708,0.15136054421768708,0.15136054421768708,0.15136054421768708,0.15136054421768708,0.15136054421768708,0.15136054421768708,0.15136054421768708,0.15136054421768708,0.15136054421768708,0.15136054421768708,0.15476190476190477,0.15476190476190477,0.15476190476190477,0.15476190476190477,0.15476190476190477,0.15816326530612246,0.15816326530612246,0.15816326530612246,0.16156462585034015,0.1683673469387755,0.1717687074829932,0.18197278911564627,0.18877551020408162,0.195578231292517,0.20238095238095238,0.20578231292517007,0.21258503401360543,0.21598639455782312,0.2193877551020408,0.2227891156462585,0.2227891156462585,0.2261904761904762,0.22959183673469388,0.23299319727891157,0.23299319727891157,0.23639455782312926,0.23639455782312926,0.23979591836734693,0.24319727891156462,0.24319727891156462,0.2465986394557823,0.2465986394557823,0.25,0.2534013605442177,0.2534013605442177,0.2568027210884354,0.2568027210884354,0.2602040816326531,0.2602040816326531,0.26360544217687076,0.26360544217687076,0.26700680272108845,0.26700680272108845,0.26700680272108845,0.26700680272108845,0.26700680272108845,0.26700680272108845,0.26700680272108845,0.26700680272108845,0.26700680272108845,0.26700680272108845,0.26700680272108845,0.26700680272108845,0.26700680272108845,0.26700680272108845,0.26700680272108845,0.26700680272108845,0.26700680272108845,0.26700680272108845,0.26700680272108845,0.26700680272108845,0.26700680272108845,0.26700680272108845,0.26700680272108845,0.26700680272108845,0.26700680272108845,0.26700680272108845,0.26700680272108845,0.26700680272108845,0.26700680272108845,0.26700680272108845,0.26700680272108845,0.26700680272108845,0.26700680272108845,0.26700680272108845,0.26700680272108845,0.26700680272108845,0.26700680272108845,0.26700680272108845,0.26700680272108845,0.27380952380952384,0.28061224489795916,0.28741496598639454,0.3010204081632653,0.3112244897959184,0.32482993197278914,0.33843537414965985,0.3554421768707483,0.3656462585034014,0.3758503401360544,0.38605442176870747,0.39285714285714285,0.39965986394557823,0.4064625850340136,0.4098639455782313,0.413265306122449,0.413265306122449,0.413265306122449,0.413265306122449,0.413265306122449,0.413265306122449,0.413265306122449,0.413265306122449,0.413265306122449,0.413265306122449,0.413265306122449,0.413265306122449,0.413265306122449,0.413265306122449,0.413265306122449,0.413265306122449,0.413265306122449,0.413265306122449,0.413265306122449,0.413265306122449,0.413265306122449,0.413265306122449,0.413265306122449,0.413265306122449,0.413265306122449,0.413265306122449,0.413265306122449,0.413265306122449,0.413265306122449,0.413265306122449,0.413265306122449,0.413265306122449,0.413265306122449,0.413265306122449,0.413265306122449,0.413265306122449,0.413265306122449,0.413265306122449,0.413265306122449,0.413265306122449,0.413265306122449,0.413265306122449,0.413265306122449,0.413265306122449,0.413265306122449,0.413265306122449,0.413265306122449,0.413265306122449,0.413265306122449,0.413265306122449,0.413265306122449,0.413265306122449,0.413265306122449,0.413265306122449,0.413265306122449,0.413265306122449,0.413265306122449,0.413265306122449,0.413265306122449,0.413265306122449,0.4200680272108844,0.4302721088435374,0.44047619047619047,0.45068027210884354,0.4574829931972789,0.4642857142857143,0.4710884353741497,0.4744897959183674,0.477891156462585,0.4846938775510204,0.4914965986394558,0.49489795918367346,0.49829931972789115,0.5017006802721088,0.5051020408163265,0.5051020408163265,0.5085034013605442,0.5085034013605442,0.5085034013605442,0.5085034013605442,0.5085034013605442,0.5085034013605442,0.5085034013605442,0.5085034013605442,0.5085034013605442,0.5085034013605442,0.5085034013605442,0.5085034013605442,0.5085034013605442,0.5085034013605442,0.5085034013605442,0.5085034013605442,0.5085034013605442,0.5085034013605442,0.5085034013605442,0.5085034013605442,0.5085034013605442,0.5085034013605442,0.5085034013605442,0.5085034013605442,0.5085034013605442,0.5085034013605442,0.5085034013605442,0.5085034013605442,0.5085034013605442,0.5085034013605442,0.5085034013605442,0.5085034013605442,0.5085034013605442,0.5085034013605442,0.5085034013605442,0.5085034013605442,0.5085034013605442,0.5085034013605442,0.5085034013605442,0.5085034013605442,0.5085034013605442,0.5085034013605442,0.5085034013605442,0.5085034013605442,0.5085034013605442,0.5085034013605442,0.5085034013605442,0.5085034013605442,0.5085034013605442,0.5085034013605442,0.5085034013605442,0.5085034013605442,0.5085034013605442,0.5085034013605442,0.5085034013605442,0.5085034013605442,0.5085034013605442,0.5085034013605442,0.5085034013605442,0.5085034013605442,0.5085034013605442,0.5085034013605442,0.5085034013605442,0.5085034013605442,0.5085034013605442,0.5085034013605442,0.5085034013605442,0.5085034013605442,0.5085034013605442,0.5085034013605442,0.5085034013605442,0.5085034013605442,0.5085034013605442,0.5085034013605442,0.5085034013605442,0.5085034013605442,0.5085034013605442,0.5085034013605442,0.5085034013605442,0.5085034013605442,0.5085034013605442,0.5085034013605442,0.5085034013605442,0.5085034013605442,0.5085034013605442,0.5085034013605442,0.5085034013605442,0.5085034013605442,0.5085034013605442,0.5085034013605442,0.5085034013605442,0.5085034013605442,0.5085034013605442,0.5085034013605442,0.5085034013605442,0.5085034013605442,0.5085034013605442,0.5085034013605442,0.5085034013605442,0.5085034013605442,0.5085034013605442,0.5085034013605442,0.5085034013605442,0.5085034013605442,0.5085034013605442,0.5085034013605442,0.5085034013605442,0.5085034013605442,0.5085034013605442,0.5085034013605442,0.5085034013605442,0.5085034013605442,0.5085034013605442,0.5085034013605442,0.5085034013605442,0.5085034013605442,0.5085034013605442,0.5085034013605442,0.5085034013605442,0.5085034013605442,0.5085034013605442,0.5085034013605442,0.5085034013605442,0.5085034013605442,0.5085034013605442,0.5085034013605442,0.5085034013605442,0.5085034013605442,0.5085034013605442,0.5085034013605442,0.5085034013605442,0.5085034013605442,0.5085034013605442,0.5085034013605442,0.5085034013605442,0.5085034013605442,0.5085034013605442,0.5085034013605442,0.5085034013605442,0.5085034013605442,0.5085034013605442,0.5085034013605442,0.5085034013605442,0.5085034013605442,0.5085034013605442,0.5085034013605442,0.5085034013605442,0.5085034013605442,0.5085034013605442,0.5085034013605442,0.5085034013605442,0.5085034013605442,0.5085034013605442,0.5085034013605442,0.5085034013605442,0.5085034013605442,0.5085034013605442,0.5085034013605442,0.5085034013605442,0.5085034013605442,0.5085034013605442,0.5085034013605442,0.5085034013605442,0.5085034013605442,0.5085034013605442,0.5085034013605442,0.5085034013605442,0.5085034013605442,0.5085034013605442,0.5085034013605442,0.5085034013605442,0.5085034013605442,0.5085034013605442,0.5085034013605442,0.5085034013605442,0.5085034013605442,0.5085034013605442,0.5085034013605442,0.5085034013605442,0.5085034013605442,0.5085034013605442,0.5085034013605442,0.5085034013605442,0.5085034013605442,0.5085034013605442,0.5085034013605442,0.5085034013605442,0.5085034013605442,0.5085034013605442,0.5085034013605442,0.5085034013605442,0.5085034013605442,0.5085034013605442,0.5085034013605442,0.5085034013605442,0.5085034013605442,0.5085034013605442,0.5085034013605442,0.5085034013605442,0.5085034013605442,0.5085034013605442,0.5085034013605442,0.5085034013605442,0.5085034013605442,0.5085034013605442,0.5085034013605442,0.5085034013605442,0.5085034013605442,0.5085034013605442,0.5085034013605442,0.5085034013605442,0.5085034013605442,0.5085034013605442,0.5085034013605442,0.5085034013605442,0.5085034013605442,0.5085034013605442,0.5085034013605442,0.5085034013605442,0.5085034013605442,0.5085034013605442,0.5085034013605442,0.5085034013605442,0.5085034013605442,0.5085034013605442,0.5085034013605442,0.5085034013605442,0.5085034013605442,0.5085034013605442,0.5085034013605442,0.5085034013605442,0.5085034013605442,0.5085034013605442,0.5085034013605442,0.5085034013605442,0.5085034013605442,0.5085034013605442,0.5085034013605442,0.5085034013605442,0.5085034013605442,0.5085034013605442,0.5085034013605442,0.5085034013605442,0.5085034013605442,0.5085034013605442,0.5085034013605442,0.5085034013605442,0.5085034013605442,0.5085034013605442,0.5085034013605442,0.5085034013605442,0.5085034013605442,0.5085034013605442,0.5085034013605442,0.5085034013605442,0.5085034013605442,0.5085034013605442,0.5085034013605442,0.5085034013605442,0.5085034013605442,0.5085034013605442,0.5085034013605442,0.5085034013605442,0.5085034013605442,0.5085034013605442,0.5085034013605442,0.5085034013605442,0.5085034013605442,0.5085034013605442,0.5085034013605442,0.5085034013605442,0.5085034013605442,0.5085034013605442,0.5085034013605442,0.5085034013605442,0.5085034013605442,0.5085034013605442,0.5085034013605442,0.5085034013605442,0.5085034013605442,0.5085034013605442,0.5085034013605442,0.5085034013605442,0.5085034013605442,0.5085034013605442,0.5085034013605442,0.5085034013605442,0.5085034013605442,0.5085034013605442,0.5085034013605442,0.5085034013605442,0.5085034013605442,0.5085034013605442,0.5085034013605442,0.5085034013605442,0.5085034013605442,0.5085034013605442,0.5085034013605442,0.5085034013605442,0.5085034013605442,0.5085034013605442,0.5085034013605442,0.5085034013605442,0.5085034013605442,0.5085034013605442,0.5085034013605442,0.49829931972789115,0.477891156462585,0.4574829931972789,0.44047619047619047,0.42346938775510207,0.4030612244897959,0.39625850340136054,0.39285714285714285,0.39285714285714285,0.39285714285714285,0.39285714285714285,0.39965986394557823,0.4302721088435374,0.4846938775510204,0.6139455782312925,0.70578231292517,0.8384353741496599,0.8860544217687075,0.9268707482993197,0.9438775510204082,0.9506802721088435,0.9506802721088435,0.9540816326530612,0.9540816326530612,0.9540816326530612,0.9540816326530612,0.9540816326530612,0.9540816326530612,0.9540816326530612,0.9540816326530612,0.9540816326530612,0.9540816326530612,0.9540816326530612,0.9506802721088435,0.9438775510204082,0.9404761904761905,0.9370748299319728,0.9336734693877551,0.9302721088435374,0.9268707482993197,0.923469387755102,0.9200680272108843,0.9166666666666666,0.9098639455782312,0.9064625850340136,0.9030612244897959,0.9030612244897959,0.8996598639455783,0.8996598639455783,0.8996598639455783,0.8962585034013606,0.8962585034013606,0.8928571428571429,0.8894557823129252,0.8860544217687075,0.8860544217687075,0.8826530612244898,0.8826530612244898,0.8826530612244898,0.8826530612244898,0.8860544217687075,0.8996598639455783,0.9200680272108843,0.9336734693877551,0.9574829931972789,0.9710884353741497,0.9812925170068028,0.9846938775510204,0.9880952380952381,0.9914965986394558,0.9914965986394558,0.9914965986394558,0.9914965986394558,0.9914965986394558,0.9914965986394558,0.9914965986394558,0.9914965986394558,0.9914965986394558,0.9914965986394558,0.9914965986394558,0.9914965986394558,0.9914965986394558,0.9914965986394558,0.9914965986394558,0.9914965986394558,0.9914965986394558,0.9914965986394558,0.9914965986394558,0.9914965986394558,0.9914965986394558,0.9914965986394558,0.9914965986394558,0.9914965986394558,0.9914965986394558,0.9914965986394558,0.9914965986394558,0.9914965986394558,0.9914965986394558,0.9914965986394558,0.9914965986394558,0.9914965986394558,0.9914965986394558,0.9914965986394558,0.9914965986394558,0.9914965986394558,0.9914965986394558,0.9914965986394558,0.9914965986394558,0.9914965986394558,0.9914965986394558,0.9914965986394558,0.9914965986394558,0.9914965986394558,0.9914965986394558,0.9914965986394558,0.9914965986394558,0.9914965986394558,0.9914965986394558,0.9914965986394558,0.9914965986394558,0.9914965986394558,0.9914965986394558,0.9914965986394558,0.9914965986394558,0.9914965986394558,0.9914965986394558,0.9914965986394558,0.9914965986394558,0.9914965986394558,0.9914965986394558,0.9914965986394558,0.9914965986394558,0.9914965986394558,0.9914965986394558,0.9914965986394558,0.9914965986394558,0.9914965986394558,0.9914965986394558,0.9914965986394558,0.9914965986394558,0.9914965986394558,0.9914965986394558,0.9914965986394558,0.9914965986394558,0.9914965986394558,0.9982993197278912,1.0051020408163265,1.0085034013605443,1.0153061224489797,1.022108843537415,1.0357142857142858,1.0493197278911566,1.0765306122448979,1.086734693877551,1.1037414965986394,1.1139455782312926,1.1343537414965987,1.1411564625850341,1.1479591836734695,1.151360544217687,1.151360544217687,1.1547619047619047,1.1547619047619047,1.1547619047619047,1.1547619047619047,1.1547619047619047,1.1547619047619047,1.1547619047619047,1.1547619047619047,1.1547619047619047,1.1547619047619047,1.1547619047619047,1.1547619047619047,1.1547619047619047,1.1547619047619047,1.1547619047619047,1.1547619047619047,1.1547619047619047,1.1547619047619047,1.1547619047619047,1.1547619047619047,1.1547619047619047,1.1547619047619047,1.1547619047619047,1.1547619047619047,1.1547619047619047,1.1547619047619047,1.1547619047619047,1.1547619047619047,1.1547619047619047,1.1547619047619047,1.1547619047619047,1.1547619047619047,1.1547619047619047,1.1547619047619047,1.1547619047619047,1.1547619047619047,1.1547619047619047,1.1547619047619047,1.1547619047619047,1.1547619047619047,1.1547619047619047,1.1547619047619047,1.1547619047619047,1.1547619047619047,1.1547619047619047,1.1547619047619047,1.1547619047619047,1.1547619047619047,1.1547619047619047,1.1547619047619047,1.1547619047619047,1.1547619047619047,1.1547619047619047,1.1547619047619047,1.1547619047619047,1.1547619047619047,1.1547619047619047,1.1547619047619047,1.1547619047619047,1.1547619047619047,1.1547619047619047,1.1547619047619047,1.1547619047619047,1.1547619047619047,1.1547619047619047,1.1547619047619047,1.1547619047619047,1.1547619047619047,1.1547619047619047,1.1547619047619047,1.1547619047619047,1.1547619047619047,1.1547619047619047,1.1547619047619047,1.1547619047619047,1.1547619047619047,1.1547619047619047,1.1547619047619047,1.1547619047619047,1.1547619047619047,1.1547619047619047,1.1547619047619047,1.1547619047619047,1.1547619047619047,1.1547619047619047,1.1547619047619047,1.1547619047619047,1.1547619047619047,1.1547619047619047,1.1547619047619047,1.1547619047619047,1.1547619047619047,1.1547619047619047,1.1547619047619047,1.1547619047619047,1.1547619047619047,1.1547619047619047,1.1547619047619047,1.1547619047619047,1.1547619047619047,1.1547619047619047,1.1547619047619047,1.1547619047619047,1.1547619047619047,1.1547619047619047,1.1547619047619047,1.1547619047619047,1.1547619047619047,1.1547619047619047,1.1547619047619047,1.1547619047619047,1.1547619047619047,1.1547619047619047,1.1547619047619047,1.1547619047619047,1.1547619047619047,1.1547619047619047,1.1547619047619047,1.185374149659864,1.2261904761904763,1.2942176870748299,1.3554421768707483,1.4302721088435375,1.4710884353741496,1.5119047619047619,1.5289115646258504,1.5425170068027212,1.5459183673469388,1.5493197278911566,1.5493197278911566,1.5493197278911566,1.5493197278911566,1.5493197278911566,1.5493197278911566,1.5493197278911566,1.5493197278911566,1.5493197278911566],"y":[-3.1746031746031744,-3.1746031746031744,-3.1746031746031744,-3.1746031746031744,-3.1746031746031744,-3.1746031746031744,-3.1746031746031744,-3.1746031746031744,-3.1746031746031744,-3.1746031746031744,-3.1746031746031744,-3.1746031746031744,-3.1746031746031744,-3.1746031746031744,-3.1746031746031744,-3.1746031746031744,-3.1746031746031744,-3.1746031746031744,-3.1746031746031744,-3.1746031746031744,-3.1746031746031744,-3.1746031746031744,0.6301587301587304,0.6777777777777779,0.8301587301587303,1.0301587301587303,1.1253968253968256,1.258730158730159,1.4777777777777779,1.5253968253968255,1.5920634920634922,1.6492063492063493,1.715873015873016,1.7730158730158732,1.8492063492063493,1.8492063492063493,1.8492063492063493,1.8492063492063493,1.8492063492063493,1.8492063492063493,1.8492063492063493,1.8492063492063493,1.8492063492063493,1.8492063492063493,1.8492063492063493,1.8492063492063493,1.8492063492063493,1.8492063492063493,1.8492063492063493,1.8492063492063493,1.8492063492063493,1.8492063492063493,1.8492063492063493,1.8492063492063493,1.8492063492063493,1.8492063492063493,1.8492063492063493,1.8492063492063493,1.8492063492063493,1.8492063492063493,1.8492063492063493,1.8492063492063493,1.8492063492063493,1.8492063492063493,1.8492063492063493,1.8492063492063493,1.8492063492063493,1.8492063492063493,1.8492063492063493,1.8492063492063493,1.8492063492063493,1.8492063492063493,1.8492063492063493,1.8492063492063493,1.8492063492063493,1.8492063492063493,1.8492063492063493,1.8492063492063493,1.8492063492063493,1.8492063492063493,1.8492063492063493,1.8492063492063493,1.8492063492063493,1.8492063492063493,1.8492063492063493,1.8492063492063493,1.8492063492063493,1.8492063492063493,1.8492063492063493,1.8492063492063493,1.8492063492063493,1.8492063492063493,1.8492063492063493,1.8492063492063493,1.8492063492063493,1.8492063492063493,1.8492063492063493,1.8492063492063493,1.8492063492063493,1.8492063492063493,1.8492063492063493,1.8492063492063493,1.8492063492063493,1.8492063492063493,1.8492063492063493,1.8492063492063493,1.8492063492063493,1.8492063492063493,1.8492063492063493,1.8492063492063493,1.8492063492063493,1.8492063492063493,1.8492063492063493,1.8492063492063493,1.8492063492063493,1.8492063492063493,1.8492063492063493,1.8492063492063493,1.8492063492063493,1.8492063492063493,1.8492063492063493,1.8492063492063493,1.8492063492063493,1.8492063492063493,1.8492063492063493,1.8492063492063493,1.8492063492063493,1.8492063492063493,1.8492063492063493,1.8492063492063493,1.8492063492063493,1.8492063492063493,1.8492063492063493,1.8492063492063493,1.8492063492063493,1.8492063492063493,1.8492063492063493,1.8492063492063493,1.8492063492063493,1.8492063492063493,1.8492063492063493,1.8492063492063493,1.8492063492063493,1.8492063492063493,1.8492063492063493,1.8492063492063493,1.8492063492063493,1.8492063492063493,1.8492063492063493,1.8492063492063493,1.8492063492063493,1.8492063492063493,1.8492063492063493,1.8492063492063493,1.8492063492063493,1.8492063492063493,1.8492063492063493,1.8492063492063493,1.8492063492063493,1.8492063492063493,1.8492063492063493,1.8492063492063493,1.8492063492063493,1.8492063492063493,1.8492063492063493,1.8492063492063493,1.8492063492063493,1.8492063492063493,1.8492063492063493,1.8492063492063493,1.8492063492063493,1.8492063492063493,1.8492063492063493,1.8492063492063493,1.8492063492063493,1.8492063492063493,1.8492063492063493,1.8492063492063493,1.8492063492063493,1.8492063492063493,1.8492063492063493,1.8492063492063493,1.8492063492063493,1.8492063492063493,1.8492063492063493,1.8492063492063493,1.8492063492063493,1.8492063492063493,1.8492063492063493,1.8492063492063493,1.8492063492063493,1.8492063492063493,1.8492063492063493,1.8492063492063493,1.8492063492063493,1.8492063492063493,1.8492063492063493,1.8492063492063493,1.8492063492063493,1.8492063492063493,1.8492063492063493,1.8492063492063493,1.8492063492063493,1.8492063492063493,1.8492063492063493,1.8492063492063493,1.8492063492063493,1.8492063492063493,1.8492063492063493,1.8492063492063493,1.8492063492063493,1.8492063492063493,1.8492063492063493,1.8492063492063493,1.8492063492063493,1.8492063492063493,1.8492063492063493,1.8492063492063493,1.8492063492063493,1.8492063492063493,1.8492063492063493,1.8492063492063493,1.8492063492063493,1.8492063492063493,1.8492063492063493,1.8492063492063493,1.8492063492063493,1.8492063492063493,1.8492063492063493,1.8492063492063493,1.8492063492063493,1.8492063492063493,1.8492063492063493,1.8492063492063493,1.8492063492063493,1.8492063492063493,1.8492063492063493,1.8492063492063493,1.8492063492063493,1.8492063492063493,1.8492063492063493,1.8492063492063493,1.8492063492063493,1.8492063492063493,1.8492063492063493,1.8492063492063493,1.8492063492063493,1.8492063492063493,1.8492063492063493,1.8492063492063493,1.8492063492063493,1.8492063492063493,1.8492063492063493,1.8492063492063493,1.8492063492063493,1.8492063492063493,1.8492063492063493,1.8492063492063493,1.8492063492063493,1.8492063492063493,1.8492063492063493,1.8492063492063493,1.8492063492063493,1.8492063492063493,1.8492063492063493,1.8492063492063493,1.8492063492063493,1.8492063492063493,1.8492063492063493,1.8492063492063493,1.8492063492063493,1.8492063492063493,1.8492063492063493,1.8492063492063493,1.8492063492063493,1.8492063492063493,1.8492063492063493,1.8492063492063493,1.8492063492063493,1.8492063492063493,1.8492063492063493,1.8492063492063493,1.8492063492063493,1.8492063492063493,1.8492063492063493,1.8492063492063493,1.8492063492063493,1.8492063492063493,1.8492063492063493,1.8492063492063493,1.8492063492063493,1.8492063492063493,1.8492063492063493,1.8492063492063493,1.8492063492063493,1.8492063492063493,1.8492063492063493,1.8492063492063493,1.8492063492063493,1.8492063492063493,1.8492063492063493,1.8492063492063493,1.8492063492063493,1.8492063492063493,1.8492063492063493,1.8492063492063493,1.8492063492063493,1.8492063492063493,1.8492063492063493,1.8492063492063493,1.8492063492063493,1.8492063492063493,1.8492063492063493,1.8492063492063493,1.8492063492063493,1.8492063492063493,1.8492063492063493,1.8492063492063493,1.8492063492063493,1.8492063492063493,1.8492063492063493,1.8492063492063493,1.8492063492063493,1.8492063492063493,1.8492063492063493,1.8492063492063493,1.8492063492063493,1.8492063492063493,1.8492063492063493,1.8492063492063493,1.8492063492063493,1.8492063492063493,1.8492063492063493,1.8492063492063493,1.8492063492063493,1.8492063492063493,1.8492063492063493,1.8492063492063493,1.8492063492063493,1.8492063492063493,1.8492063492063493,1.8492063492063493,1.8492063492063493,1.8492063492063493,1.8492063492063493,1.8492063492063493,1.8492063492063493,1.8492063492063493,1.8492063492063493,1.8492063492063493,1.8492063492063493,1.8492063492063493,1.8492063492063493,1.8492063492063493,1.8492063492063493,1.8492063492063493,1.8492063492063493,1.8492063492063493,1.8492063492063493,1.8492063492063493,1.8492063492063493,1.8492063492063493,1.8492063492063493,1.8492063492063493,1.8492063492063493,1.8492063492063493,1.8492063492063493,1.8492063492063493,1.8492063492063493,1.8492063492063493,1.8492063492063493,1.8492063492063493,1.8492063492063493,1.8492063492063493,1.8492063492063493,1.8492063492063493,1.8492063492063493,1.8492063492063493,1.8492063492063493,1.8492063492063493,1.8492063492063493,1.8492063492063493,1.8492063492063493,1.8492063492063493,1.8492063492063493,1.8492063492063493,1.8492063492063493,1.8492063492063493,1.8492063492063493,1.8492063492063493,1.8492063492063493,1.8492063492063493,1.8492063492063493,1.8492063492063493,1.8492063492063493,1.8492063492063493,1.8492063492063493,1.8492063492063493,1.8492063492063493,1.8492063492063493,1.8492063492063493,1.8492063492063493,1.8492063492063493,1.8492063492063493,1.8492063492063493,1.8492063492063493,1.8492063492063493,1.8492063492063493,1.8492063492063493,1.8492063492063493,1.8492063492063493,1.8492063492063493,1.8492063492063493,1.8492063492063493,1.8492063492063493,1.8492063492063493,1.8492063492063493,1.8492063492063493,1.8492063492063493,1.8492063492063493,1.8492063492063493,1.8492063492063493,1.8492063492063493,1.8492063492063493,1.8492063492063493,1.8492063492063493,1.8492063492063493,1.8492063492063493,1.8492063492063493,1.8492063492063493,1.8492063492063493,1.8492063492063493,1.8492063492063493,1.8492063492063493,1.8492063492063493,1.8492063492063493,1.8492063492063493,1.8492063492063493,1.8492063492063493,1.8492063492063493,1.8492063492063493,1.8492063492063493,1.8492063492063493,1.8492063492063493,1.8492063492063493,1.8492063492063493,1.8492063492063493,1.8492063492063493,1.8492063492063493,1.8492063492063493,1.8492063492063493,1.8492063492063493,1.8492063492063493,1.8492063492063493,1.8492063492063493,1.8492063492063493,1.8492063492063493,1.8015873015873018,1.7349206349206352,1.6682539682539685,1.5063492063492065,1.2111111111111112,1.077777777777778,0.9253968253968256,0.7920634920634922,0.696825396825397,0.6206349206349208,0.5349206349206351,0.496825396825397,0.45873015873015893,0.43015873015873035,0.4111111111111113,0.3920634920634922,0.38253968253968273,0.3730158730158732,0.35396825396825415,0.3253968253968256,0.296825396825397,0.2587301587301589,0.22063492063492082,0.18253968253968272,0.1349206349206351,0.07777777777777796,-0.007936507936507756,-0.05555555555555537,-0.09365079365079347,-0.12222222222222204,-0.1412698412698411,-0.1412698412698411,-0.1412698412698411,-0.1412698412698411,-0.1412698412698411,-0.1412698412698411,-0.1412698412698411,-0.1412698412698411,-0.1412698412698411,-0.1412698412698411,-0.1412698412698411,-0.13174603174603156,-0.13174603174603156,-0.12222222222222204,-0.11269841269841252,-0.11269841269841252,-0.09365079365079347,-0.09365079365079347,-0.08412698412698395,-0.07460317460317442,-0.07460317460317442,-0.07460317460317442,-0.07460317460317442,-0.07460317460317442,-0.07460317460317442,-0.07460317460317442,-0.07460317460317442,-0.07460317460317442,-0.07460317460317442,-0.07460317460317442,-0.07460317460317442,-0.07460317460317442,-0.07460317460317442,-0.07460317460317442,-0.07460317460317442,-0.07460317460317442,-0.07460317460317442,-0.07460317460317442,-0.07460317460317442,-0.07460317460317442,-0.07460317460317442,-0.07460317460317442,-0.07460317460317442,-0.07460317460317442,-0.07460317460317442,-0.07460317460317442,-0.07460317460317442,-0.07460317460317442,-0.07460317460317442,-0.07460317460317442,-0.07460317460317442,-0.07460317460317442,-0.07460317460317442,-0.07460317460317442,-0.07460317460317442,-0.07460317460317442,-0.07460317460317442,-0.07460317460317442,-0.07460317460317442,-0.07460317460317442,-0.07460317460317442,-0.07460317460317442,-0.07460317460317442,-0.07460317460317442,-0.07460317460317442,-0.07460317460317442,-0.07460317460317442,-0.07460317460317442,-0.07460317460317442,-0.07460317460317442,-0.07460317460317442,-0.07460317460317442,-0.07460317460317442,-0.07460317460317442,-0.07460317460317442,-0.07460317460317442,-0.07460317460317442,-0.07460317460317442,-0.07460317460317442,-0.07460317460317442,-0.07460317460317442,-0.07460317460317442,-0.07460317460317442,-0.07460317460317442,-0.07460317460317442,-0.07460317460317442,-0.07460317460317442,-0.07460317460317442,-0.05555555555555537,-0.03650793650793633,0.020634920634920815,0.10634920634920653,0.20158730158730176,0.35396825396825415,0.496825396825397,0.6206349206349208,0.7349206349206351,0.7920634920634922,0.8587301587301589,0.8873015873015875,0.896825396825397,0.896825396825397,0.896825396825397,0.896825396825397,0.896825396825397,0.896825396825397,0.896825396825397,0.896825396825397,0.896825396825397,0.896825396825397,0.896825396825397,0.896825396825397,0.896825396825397,0.896825396825397,0.896825396825397,0.896825396825397,0.896825396825397,0.896825396825397,0.896825396825397,0.896825396825397,0.896825396825397,0.896825396825397,0.896825396825397,0.896825396825397,0.896825396825397,0.896825396825397,0.896825396825397,0.896825396825397,0.896825396825397,0.896825396825397,0.896825396825397,0.896825396825397,0.896825396825397,0.896825396825397,0.896825396825397,0.896825396825397,0.896825396825397,0.896825396825397,0.896825396825397,0.896825396825397,0.896825396825397,0.896825396825397,0.896825396825397,0.896825396825397,0.896825396825397,0.896825396825397,0.896825396825397,0.896825396825397,0.896825396825397,0.896825396825397,0.896825396825397,0.896825396825397,0.896825396825397,0.896825396825397,0.896825396825397,0.896825396825397,0.896825396825397,0.896825396825397,0.896825396825397,0.896825396825397,0.896825396825397,0.896825396825397,0.896825396825397,0.896825396825397,0.896825396825397,0.896825396825397,0.896825396825397,0.896825396825397,0.896825396825397,0.896825396825397,0.896825396825397,0.896825396825397,0.896825396825397,0.896825396825397,0.896825396825397,0.896825396825397,0.896825396825397,0.896825396825397,0.896825396825397,0.896825396825397,0.896825396825397,0.896825396825397,0.896825396825397,0.896825396825397,0.896825396825397,0.896825396825397,0.896825396825397,0.896825396825397,0.896825396825397,0.896825396825397,0.896825396825397,0.896825396825397,0.896825396825397,0.896825396825397,0.896825396825397,0.896825396825397,0.896825396825397,0.896825396825397,0.896825396825397,0.896825396825397,0.896825396825397,0.896825396825397,0.896825396825397,0.896825396825397,0.896825396825397,0.896825396825397,0.896825396825397,0.896825396825397,0.896825396825397,0.896825396825397,0.896825396825397,0.896825396825397,0.896825396825397,0.896825396825397,0.896825396825397,0.896825396825397,0.877777777777778,0.8301587301587303,0.7634920634920637,0.6873015873015875,0.6206349206349208,0.5253968253968255,0.4682539682539684,0.4206349206349208,0.3730158730158732,0.3444444444444446,0.3253968253968256,0.30634920634920654,0.296825396825397,0.27777777777777796,0.2682539682539684,0.24920634920634938,0.22063492063492082,0.2111111111111113,0.19206349206349224,0.15396825396825414,0.07777777777777796,0.03015873015873034,-0.01746031746031728,-0.046031746031745854,-0.0650793650793649,-0.07460317460317442,-0.07460317460317442,-0.07460317460317442,-0.07460317460317442,-0.07460317460317442,-0.07460317460317442,-0.07460317460317442,-0.07460317460317442,-0.07460317460317442,-0.07460317460317442,-0.07460317460317442,-0.07460317460317442,-0.07460317460317442,-0.07460317460317442,-0.07460317460317442,-0.07460317460317442,-0.07460317460317442,-0.07460317460317442,-0.07460317460317442,-0.07460317460317442,-0.07460317460317442,-0.07460317460317442,-0.07460317460317442,-0.07460317460317442,-0.07460317460317442,-0.07460317460317442,-0.07460317460317442,-0.07460317460317442,-0.07460317460317442,-0.07460317460317442,-0.07460317460317442,-0.07460317460317442,-0.07460317460317442,-0.07460317460317442,-0.07460317460317442,-0.07460317460317442,-0.07460317460317442,-0.07460317460317442,-0.07460317460317442,-0.07460317460317442,-0.07460317460317442,-0.07460317460317442,-0.07460317460317442,-0.07460317460317442,-0.07460317460317442,-0.07460317460317442,-0.07460317460317442,-0.07460317460317442,-0.0650793650793649,-0.0650793650793649,-0.0650793650793649,-0.0650793650793649,-0.0650793650793649,-0.0650793650793649,-0.0650793650793649,-0.0650793650793649,-0.0650793650793649,-0.0650793650793649,-0.0650793650793649,-0.0650793650793649,-0.0650793650793649,-0.0650793650793649,-0.0650793650793649,-0.0650793650793649,-0.0650793650793649,-0.0650793650793649,-0.0650793650793649,-0.0650793650793649,-0.0650793650793649,-0.0650793650793649,-0.0650793650793649,-0.0650793650793649,-0.0650793650793649,-0.0650793650793649,-0.0650793650793649,-0.0650793650793649,-0.0650793650793649,-0.0650793650793649,-0.0650793650793649,-0.0650793650793649,-0.0650793650793649,-0.0650793650793649,-0.0650793650793649,-0.0650793650793649,-0.0650793650793649,-0.0650793650793649,-0.0650793650793649,-0.0650793650793649,-0.0650793650793649,-0.0650793650793649,-0.0650793650793649,-0.0650793650793649,-0.0650793650793649,-0.0650793650793649,-0.0650793650793649,-0.0650793650793649,-0.0650793650793649,-0.0650793650793649,-0.0650793650793649,-0.0650793650793649,-0.0650793650793649,-0.0650793650793649,-0.0650793650793649,-0.05555555555555537,-0.05555555555555537,-0.05555555555555537,-0.05555555555555537,-0.046031746031745854,-0.046031746031745854,-0.03650793650793633,-0.03650793650793633,-0.026984126984126805,-0.026984126984126805,-0.026984126984126805,-0.01746031746031728,-0.01746031746031728,-0.01746031746031728,-0.007936507936507756,-0.007936507936507756,-0.007936507936507756,0.0015873015873017677,0.011111111111111292,0.011111111111111292,0.020634920634920815,0.020634920634920815,0.03015873015873034,0.03015873015873034,0.03968253968253986,0.049206349206349385,0.049206349206349385,0.049206349206349385,0.05873015873015891,0.05873015873015891,0.05873015873015891,0.05873015873015891,0.05873015873015891,0.06825396825396843,0.06825396825396843,0.06825396825396843,0.06825396825396843,0.06825396825396843,0.06825396825396843,0.06825396825396843,0.06825396825396843,0.06825396825396843,0.06825396825396843,0.06825396825396843,0.06825396825396843,0.06825396825396843,0.06825396825396843,0.06825396825396843,0.06825396825396843,0.06825396825396843,0.06825396825396843,0.06825396825396843,0.06825396825396843,0.06825396825396843,0.06825396825396843,0.06825396825396843,0.06825396825396843,0.06825396825396843,0.06825396825396843,0.06825396825396843,0.06825396825396843,0.06825396825396843,0.06825396825396843,0.06825396825396843,0.06825396825396843,0.06825396825396843,0.06825396825396843,0.06825396825396843,0.06825396825396843,0.06825396825396843,0.06825396825396843,0.06825396825396843,0.06825396825396843,0.06825396825396843,0.06825396825396843,0.06825396825396843,0.06825396825396843,0.06825396825396843,0.06825396825396843,0.06825396825396843,0.06825396825396843,0.06825396825396843,0.06825396825396843,0.06825396825396843,0.06825396825396843,0.06825396825396843,0.06825396825396843,0.06825396825396843,0.06825396825396843,0.06825396825396843,0.06825396825396843,0.06825396825396843,0.06825396825396843,0.06825396825396843,0.06825396825396843,0.06825396825396843,0.06825396825396843,0.06825396825396843,0.06825396825396843,0.06825396825396843,0.06825396825396843,0.06825396825396843,0.05873015873015891,0.05873015873015891,0.05873015873015891,0.05873015873015891,0.05873015873015891,0.05873015873015891,0.05873015873015891,0.05873015873015891,0.05873015873015891,0.05873015873015891,0.05873015873015891,0.05873015873015891,0.05873015873015891,0.05873015873015891,0.05873015873015891,0.05873015873015891,0.05873015873015891,0.05873015873015891,0.05873015873015891,0.05873015873015891,0.05873015873015891,0.05873015873015891,0.05873015873015891,0.05873015873015891,0.05873015873015891,0.05873015873015891,0.05873015873015891,0.05873015873015891,0.05873015873015891,0.05873015873015891,0.05873015873015891,0.05873015873015891,0.05873015873015891,0.05873015873015891,0.05873015873015891,0.05873015873015891,0.05873015873015891,0.05873015873015891,0.05873015873015891,0.05873015873015891,0.05873015873015891,0.05873015873015891,0.05873015873015891,0.05873015873015891,0.05873015873015891,0.05873015873015891,0.05873015873015891,0.05873015873015891,0.05873015873015891,0.05873015873015891,0.05873015873015891,0.05873015873015891,0.05873015873015891,0.05873015873015891,0.05873015873015891,0.05873015873015891,0.05873015873015891,0.05873015873015891,0.05873015873015891,0.05873015873015891,0.05873015873015891,0.05873015873015891,0.05873015873015891,0.05873015873015891,0.05873015873015891,0.05873015873015891,0.05873015873015891,0.05873015873015891,0.05873015873015891,0.05873015873015891,0.05873015873015891,0.05873015873015891,0.05873015873015891,0.05873015873015891,0.05873015873015891,0.05873015873015891,0.05873015873015891,0.05873015873015891,0.05873015873015891,0.05873015873015891,0.05873015873015891,0.05873015873015891,0.05873015873015891,0.05873015873015891,0.05873015873015891,0.05873015873015891,0.05873015873015891,0.05873015873015891,0.05873015873015891,0.05873015873015891,0.05873015873015891,0.05873015873015891,0.05873015873015891,0.05873015873015891,0.05873015873015891,0.05873015873015891,0.05873015873015891,0.05873015873015891,0.05873015873015891,0.05873015873015891,0.05873015873015891,0.05873015873015891,0.05873015873015891,0.05873015873015891,0.05873015873015891,0.05873015873015891,0.05873015873015891,0.05873015873015891,0.05873015873015891,0.05873015873015891,0.05873015873015891,0.05873015873015891,0.05873015873015891,0.05873015873015891,0.05873015873015891,0.05873015873015891,0.05873015873015891,0.05873015873015891,0.05873015873015891,0.05873015873015891,0.05873015873015891,0.05873015873015891,0.05873015873015891,0.05873015873015891,0.05873015873015891,0.05873015873015891,0.05873015873015891,0.05873015873015891,0.05873015873015891,0.05873015873015891,0.05873015873015891,0.05873015873015891,0.05873015873015891,0.05873015873015891,0.05873015873015891,0.05873015873015891,0.05873015873015891,0.05873015873015891,0.05873015873015891,0.05873015873015891,0.05873015873015891,0.05873015873015891,0.05873015873015891,0.05873015873015891,0.05873015873015891,0.05873015873015891,0.05873015873015891,0.05873015873015891,0.05873015873015891,0.05873015873015891,0.05873015873015891,0.05873015873015891,0.05873015873015891,0.05873015873015891,0.05873015873015891,0.05873015873015891,0.05873015873015891,0.05873015873015891,0.05873015873015891,0.05873015873015891,0.05873015873015891,0.05873015873015891,0.07777777777777796,0.09682539682539701,0.10634920634920653,0.11587301587301606,0.1349206349206351,0.14444444444444463,0.16349206349206366,0.18253968253968272,0.19206349206349224,0.20158730158730176,0.2111111111111113,0.22063492063492082,0.23015873015873034,0.23968253968253986,0.24920634920634938,0.2587301587301589,0.2682539682539684,0.2682539682539684,0.27777777777777796,0.27777777777777796,0.2873015873015875,0.296825396825397,0.30634920634920654,0.3253968253968256,0.35396825396825415,0.3730158730158732,0.3920634920634922,0.40158730158730177,0.4206349206349208,0.4206349206349208,0.43968253968253984,0.43968253968253984,0.4492063492063494,0.45873015873015893,0.45873015873015893,0.4682539682539684,0.4682539682539684,0.47777777777777797,0.47777777777777797,0.47777777777777797,0.47777777777777797,0.47777777777777797,0.48730158730158746,0.48730158730158746,0.48730158730158746,0.48730158730158746,0.48730158730158746,0.48730158730158746,0.48730158730158746,0.496825396825397,0.496825396825397,0.496825396825397,0.496825396825397,0.5063492063492065,0.5063492063492065,0.5063492063492065,0.5063492063492065,0.5063492063492065,0.5063492063492065,0.5063492063492065,0.5063492063492065,0.5063492063492065,0.5063492063492065,0.5063492063492065,0.5063492063492065,0.5063492063492065,0.5063492063492065,0.5063492063492065,0.5063492063492065,0.5063492063492065,0.5063492063492065,0.5063492063492065,0.5063492063492065,0.5063492063492065,0.5063492063492065,0.5063492063492065,0.5063492063492065,0.5063492063492065,0.5063492063492065,0.5063492063492065,0.5063492063492065,0.5063492063492065,0.5063492063492065,0.5063492063492065,0.5063492063492065,0.5063492063492065,0.5063492063492065,0.5063492063492065,0.5063492063492065,0.5063492063492065,0.5063492063492065,0.5063492063492065,0.5063492063492065,0.5063492063492065,0.5063492063492065,0.515873015873016,0.5253968253968255,0.5349206349206351,0.5444444444444446,0.5539682539682541,0.5634920634920637,0.5825396825396827,0.5920634920634923,0.6015873015873018,0.6015873015873018,0.6015873015873018,0.6015873015873018,0.6015873015873018,0.6015873015873018,0.6015873015873018,0.6015873015873018,0.6015873015873018,0.6015873015873018,0.6015873015873018,0.6015873015873018,0.6015873015873018,0.5920634920634923,0.5920634920634923,0.5825396825396827,0.5825396825396827,0.5825396825396827,0.5825396825396827,0.5825396825396827,0.5825396825396827,0.5825396825396827,0.5825396825396827,0.5825396825396827,0.5825396825396827,0.5825396825396827,0.5825396825396827,0.5825396825396827,0.5825396825396827,0.5825396825396827,0.5825396825396827,0.5825396825396827,0.5825396825396827,0.5825396825396827,0.5825396825396827,0.5825396825396827,0.5825396825396827,0.5825396825396827,0.5825396825396827,0.5825396825396827,0.5825396825396827,0.5825396825396827,0.5825396825396827,0.5825396825396827,0.5825396825396827,0.5825396825396827,0.5825396825396827,0.5825396825396827,0.5825396825396827,0.5825396825396827,0.5825396825396827,0.5825396825396827,0.5825396825396827,0.5825396825396827,0.5825396825396827,0.5825396825396827,0.5825396825396827,0.5825396825396827,0.5825396825396827,0.5825396825396827,0.5825396825396827,0.5825396825396827,0.5825396825396827,0.5825396825396827,0.5825396825396827,0.5825396825396827,0.5825396825396827,0.5825396825396827,0.5825396825396827,0.5920634920634923,0.6015873015873018,0.6111111111111113,0.6301587301587304,0.6492063492063493,0.6587301587301589,0.6873015873015875,0.696825396825397,0.7158730158730161,0.7349206349206351,0.7444444444444446,0.7539682539682542,0.7634920634920637,0.7730158730158732,0.7920634920634922,0.7920634920634922,0.7920634920634922,0.7920634920634922,0.7920634920634922,0.7920634920634922,0.7920634920634922,0.7920634920634922,0.7920634920634922,0.7920634920634922,0.7920634920634922,0.7920634920634922,0.7920634920634922,0.7920634920634922,0.7920634920634922,0.7920634920634922,0.7920634920634922,0.7920634920634922,0.7920634920634922,0.7920634920634922,0.7920634920634922,0.7920634920634922,0.7920634920634922,0.7920634920634922,0.7920634920634922,0.7920634920634922,0.7920634920634922,0.7920634920634922,0.7920634920634922,0.7920634920634922,0.7920634920634922,0.7920634920634922,0.7920634920634922,0.7920634920634922,0.7920634920634922,0.7920634920634922,0.7920634920634922,0.7920634920634922,0.7920634920634922,0.7920634920634922,0.7920634920634922,0.7920634920634922,0.7920634920634922,0.7920634920634922,0.7920634920634922,0.7920634920634922,0.7920634920634922,0.7920634920634922,0.7920634920634922,0.7920634920634922,0.7920634920634922,0.7920634920634922,0.7920634920634922,0.7920634920634922,0.7920634920634922,0.7920634920634922,0.7920634920634922,0.7920634920634922,0.7920634920634922,0.7920634920634922,0.7920634920634922,0.7920634920634922,0.7920634920634922,0.7920634920634922,0.7920634920634922,0.7920634920634922,0.7920634920634922,0.7920634920634922,0.7920634920634922,0.7920634920634922,0.7920634920634922,0.7920634920634922,0.7920634920634922,0.7920634920634922,0.7920634920634922,0.7920634920634922,0.7920634920634922,0.7920634920634922,0.7920634920634922,0.7920634920634922,0.7920634920634922,0.7920634920634922,0.7920634920634922,0.7920634920634922,0.7920634920634922,0.7920634920634922,0.7920634920634922,0.7920634920634922,0.7920634920634922,0.7920634920634922,0.7920634920634922,0.7920634920634922,0.7920634920634922,0.7920634920634922,0.7920634920634922,0.7920634920634922,0.7920634920634922,0.7920634920634922,0.7920634920634922,0.7920634920634922,0.7920634920634922,0.7920634920634922,0.7920634920634922,0.7920634920634922,0.7920634920634922,0.7920634920634922,0.7920634920634922,0.7920634920634922,0.7920634920634922,0.7920634920634922,0.7920634920634922,0.7920634920634922,0.7920634920634922,0.7920634920634922,0.7920634920634922,0.7920634920634922,0.7920634920634922,0.7920634920634922,0.7920634920634922,0.7920634920634922,0.7920634920634922,0.7920634920634922,0.7920634920634922,0.7920634920634922,0.7920634920634922,0.7920634920634922,0.7920634920634922,0.7920634920634922,0.7920634920634922,0.7920634920634922,0.7920634920634922,0.7920634920634922,0.7920634920634922,0.7920634920634922,0.7920634920634922,0.7920634920634922,0.7920634920634922,0.7920634920634922,0.7920634920634922,0.7920634920634922,0.7920634920634922,0.7920634920634922,0.7920634920634922,0.7920634920634922,0.7920634920634922,0.7920634920634922,0.7920634920634922,0.7920634920634922,0.7920634920634922,0.7920634920634922,0.7920634920634922,0.7920634920634922,0.7920634920634922,0.7920634920634922,0.7920634920634922,0.7920634920634922,0.7920634920634922,0.7920634920634922,0.7920634920634922,0.7920634920634922,0.7920634920634922,0.7920634920634922,0.7920634920634922,0.7920634920634922,0.7920634920634922,0.7920634920634922,0.7920634920634922,0.7920634920634922,0.7920634920634922,0.7920634920634922,0.7920634920634922,0.7920634920634922,0.7920634920634922,0.7920634920634922,0.7920634920634922,0.7920634920634922,0.7920634920634922,0.7920634920634922,0.7920634920634922,0.7920634920634922,0.7920634920634922,0.7920634920634922,0.7920634920634922,0.7920634920634922,0.7920634920634922,0.7920634920634922,0.7920634920634922,0.7920634920634922,0.7920634920634922,0.7920634920634922,0.7920634920634922,0.7920634920634922,0.7920634920634922,0.7920634920634922,0.7920634920634922,0.7920634920634922,0.7920634920634922,0.7920634920634922,0.7920634920634922,0.7920634920634922,0.7920634920634922,0.7920634920634922,0.7920634920634922,0.7920634920634922,0.7920634920634922,0.7920634920634922,0.7920634920634922,0.7920634920634922,0.7920634920634922,0.7920634920634922,0.7920634920634922,0.7920634920634922,0.7920634920634922,0.7920634920634922,0.7920634920634922,0.7920634920634922,0.7920634920634922,0.7920634920634922,0.7920634920634922,0.7920634920634922,0.7920634920634922,0.7920634920634922,0.7920634920634922,0.7920634920634922,0.7920634920634922,0.7920634920634922,0.7920634920634922,0.7920634920634922,0.7920634920634922,0.7920634920634922,0.7920634920634922,0.7920634920634922,0.7920634920634922,0.7920634920634922,0.7920634920634922,0.7920634920634922,0.7920634920634922,0.7920634920634922,0.7920634920634922,0.7920634920634922,0.7920634920634922,0.7920634920634922,0.7920634920634922,0.7920634920634922,0.7920634920634922,0.7920634920634922,0.7920634920634922,0.7920634920634922,0.7920634920634922,0.7920634920634922,0.7920634920634922,0.7920634920634922,0.7920634920634922,0.7920634920634922,0.7920634920634922,0.7920634920634922,0.7920634920634922,0.7920634920634922,0.7920634920634922,0.7920634920634922,0.7920634920634922,0.7920634920634922,0.7920634920634922,0.7920634920634922,0.7920634920634922,0.7920634920634922,0.7920634920634922,0.7920634920634922,0.7920634920634922,0.7920634920634922,0.7920634920634922,0.7920634920634922,0.7920634920634922,0.7920634920634922,0.7920634920634922,0.7920634920634922,0.7920634920634922,0.7920634920634922,0.7920634920634922,0.7920634920634922,0.7920634920634922,0.7920634920634922,0.7920634920634922,0.7920634920634922,0.7920634920634922,0.7920634920634922,0.7920634920634922,0.7920634920634922,0.7920634920634922,0.7920634920634922,0.7920634920634922,0.7920634920634922,0.7920634920634922,0.7920634920634922,0.7920634920634922,0.7920634920634922,0.7920634920634922,0.7920634920634922,0.7920634920634922,0.7920634920634922,0.7920634920634922,0.7920634920634922,0.7920634920634922,0.7920634920634922,0.7920634920634922,0.8015873015873017,0.8206349206349208,0.8396825396825398,0.8492063492063494,0.8682539682539684,0.8873015873015875,0.896825396825397,0.896825396825397,0.9063492063492066,0.9063492063492066,0.9063492063492066,0.9063492063492066,0.9063492063492066,0.9063492063492066,0.9063492063492066,0.9349206349206352,1.0111111111111113,1.0396825396825398,1.058730158730159,1.077777777777778,1.0873015873015874,1.0873015873015874,1.096825396825397,1.096825396825397,1.1063492063492066,1.1063492063492066,1.1063492063492066,1.1063492063492066,1.1063492063492066,1.1063492063492066,1.1063492063492066,1.1063492063492066,1.1063492063492066,1.1063492063492066,1.096825396825397,1.0873015873015874,1.077777777777778,1.077777777777778,1.0682539682539685,1.058730158730159,1.0492063492063495,1.0396825396825398,1.0396825396825398,1.0301587301587303,1.0301587301587303,1.0206349206349208,1.0206349206349208,1.0206349206349208,1.0206349206349208,1.0206349206349208,1.0206349206349208,1.0206349206349208,1.0206349206349208,1.0206349206349208,1.0206349206349208,1.0206349206349208,1.0206349206349208,1.0206349206349208,1.0206349206349208,1.0206349206349208,1.0206349206349208,1.0206349206349208,1.0206349206349208,1.0206349206349208,1.0206349206349208,1.0206349206349208,1.0206349206349208,1.0206349206349208,1.0206349206349208,1.0111111111111113,1.0111111111111113,1.0111111111111113,1.0111111111111113,1.0111111111111113,1.0111111111111113,1.0111111111111113,1.0111111111111113,1.0111111111111113,1.0111111111111113,1.0111111111111113,1.0111111111111113,1.0111111111111113,1.0111111111111113,1.0111111111111113,1.0111111111111113,1.0111111111111113,1.0111111111111113,1.0111111111111113,1.0111111111111113,1.0111111111111113,1.0111111111111113,1.0111111111111113,1.0111111111111113,1.0111111111111113,1.0111111111111113,1.0111111111111113,1.0111111111111113,1.0111111111111113,1.0111111111111113,1.0111111111111113,1.0111111111111113,1.0111111111111113,1.0111111111111113,1.0111111111111113,1.0111111111111113,1.0111111111111113,1.0111111111111113,1.0111111111111113,1.0111111111111113,1.0111111111111113,1.0111111111111113,1.0111111111111113,1.0111111111111113,1.0111111111111113,1.0111111111111113,1.0111111111111113,1.0111111111111113,1.0111111111111113,1.0111111111111113,1.0111111111111113,1.0111111111111113,1.0111111111111113,1.0111111111111113,1.0111111111111113,1.0111111111111113,1.0111111111111113,1.0111111111111113,1.0111111111111113,1.0111111111111113,1.0111111111111113,1.0111111111111113,1.0111111111111113,1.0111111111111113,1.0111111111111113,1.0111111111111113,1.0111111111111113,1.0111111111111113,1.0111111111111113,1.0111111111111113,1.0111111111111113,1.0111111111111113,1.0111111111111113,1.0111111111111113,1.0111111111111113,1.0111111111111113,0.9825396825396827,0.9634920634920636,0.9444444444444446,0.9063492063492066,0.8587301587301589,0.8015873015873017,0.7349206349206351,0.6301587301587304,0.5920634920634923,0.5444444444444446,0.515873015873016,0.4682539682539684,0.4492063492063494,0.43968253968253984,0.43015873015873035,0.43015873015873035,0.43015873015873035,0.43015873015873035,0.43015873015873035,0.43015873015873035,0.43015873015873035,0.43015873015873035,0.43015873015873035,0.43015873015873035,0.43015873015873035,0.43015873015873035,0.43015873015873035,0.43015873015873035,0.43015873015873035,0.43015873015873035,0.43015873015873035,0.43015873015873035,0.43015873015873035,0.43015873015873035,0.43015873015873035,0.43015873015873035,0.43015873015873035,0.43015873015873035,0.43015873015873035,0.43015873015873035,0.43015873015873035,0.43015873015873035,0.43015873015873035,0.43015873015873035,0.43015873015873035,0.43015873015873035,0.43015873015873035,0.43015873015873035,0.43015873015873035,0.43015873015873035,0.43015873015873035,0.43015873015873035,0.43015873015873035,0.43015873015873035,0.43015873015873035,0.43015873015873035,0.43015873015873035,0.43015873015873035,0.43015873015873035,0.43015873015873035,0.43015873015873035,0.43015873015873035,0.43015873015873035,0.43015873015873035,0.43015873015873035,0.43015873015873035,0.43015873015873035,0.43015873015873035,0.43015873015873035,0.43015873015873035,0.43015873015873035,0.43015873015873035,0.43015873015873035,0.43015873015873035,0.43015873015873035,0.43015873015873035,0.43015873015873035,0.43015873015873035,0.43015873015873035,0.43015873015873035,0.43015873015873035,0.43015873015873035,0.43015873015873035,0.43015873015873035,0.43015873015873035,0.43015873015873035,0.43015873015873035,0.43015873015873035,0.43015873015873035,0.43015873015873035,0.43015873015873035,0.43015873015873035,0.43015873015873035,0.43015873015873035,0.43015873015873035,0.43015873015873035,0.43015873015873035,0.43015873015873035,0.43015873015873035,0.43015873015873035,0.43015873015873035,0.43015873015873035,0.43015873015873035,0.43015873015873035,0.43015873015873035,0.43015873015873035,0.43015873015873035,0.43015873015873035,0.43015873015873035,0.43015873015873035,0.43015873015873035,0.43015873015873035,0.43015873015873035,0.43015873015873035,0.43015873015873035,0.43015873015873035,0.43015873015873035,0.43015873015873035,0.43015873015873035,0.43015873015873035,0.43015873015873035,0.43015873015873035,0.43015873015873035,0.43015873015873035,0.43015873015873035,0.43015873015873035,0.43015873015873035,0.43015873015873035,0.43015873015873035,0.43015873015873035,0.43015873015873035,0.43015873015873035,0.43015873015873035,0.43015873015873035,0.43015873015873035,0.4682539682539684,0.5634920634920637,0.6777777777777779,0.8301587301587303,0.9444444444444446,1.058730158730159,1.1253968253968256,1.1730158730158733,1.1920634920634923,1.1920634920634923,1.1920634920634923,1.1920634920634923,1.1920634920634923,1.1920634920634923,1.1920634920634923,1.1920634920634923,1.1920634920634923,1.1920634920634923]},"final_keyboard_state":["E","A","B","M","Z","R"],"num_clicks":6,"points":14,"cheat":false,"trial_type":"Hangman","trial_index":5,"time_elapsed":101698,"internal_node_id":"0.0-4.0","protocol_sum":"","subject_identifier":407,"subject_sum":[70,33,193,213,95,164,232,108,224,218,228,40,131,2,100,27,170,200,109,213,63,118,34,124,137,45,249,211,0,104,45,65],"subject_pair":203,"STUDY_ID":"66a22c0758a3d5c9d26873c6","PROLIFIC_PID":"61686f8376bd6ff59ea15479","SESSION_ID":"66a26daa10cdeb2dc844a563","practice_instructions":1,"leaderboard_instructions":0,"bonus":0,"reveal_word":true,"self_rating":"2","confidence":"75"},{"view_history":"[{\"page_index\":0,\"viewing_time\":3569.0000000000146},{\"page_index\":1,\"viewing_time\":13854}]","rt":17423.000000000015,"trial_type":"instructions","trial_index":6,"time_elapsed":119122,"internal_node_id":"0.0-5.0","protocol_sum":"","subject_identifier":407,"subject_sum":[70,33,193,213,95,164,232,108,224,218,228,40,131,2,100,27,170,200,109,213,63,118,34,124,137,45,249,211,0,104,45,65],"subject_pair":203,"STUDY_ID":"66a22c0758a3d5c9d26873c6","PROLIFIC_PID":"61686f8376bd6ff59ea15479","SESSION_ID":"66a26daa10cdeb2dc844a563","practice_instructions":1,"leaderboard_instructions":0,"bonus":0,"reveal_word":true,"self_rating":"2","confidence":"75"},{"rt":17999,"responses":"{\"Q0\":\"...from <b>a previous session</b> that is part of the upcoming tournament.\"}","question_order":"[0]","trial_type":"survey-multi-choice","trial_index":7,"time_elapsed":137123,"internal_node_id":"0.0-6.0","protocol_sum":"","subject_identifier":407,"subject_sum":[70,33,193,213,95,164,232,108,224,218,228,40,131,2,100,27,170,200,109,213,63,118,34,124,137,45,249,211,0,104,45,65],"subject_pair":203,"correct":false,"test_part":"multichoice_leaderboard","STUDY_ID":"66a22c0758a3d5c9d26873c6","PROLIFIC_PID":"61686f8376bd6ff59ea15479","SESSION_ID":"66a26daa10cdeb2dc844a563","practice_instructions":1,"leaderboard_instructions":0,"bonus":0,"reveal_word":true,"self_rating":"2","confidence":"75"},{"view_history":"[{\"page_index\":0,\"viewing_time\":2005}]","rt":2006,"trial_type":"instructions","trial_index":8,"time_elapsed":139130,"internal_node_id":"0.0-7.0-0.0","protocol_sum":"","subject_identifier":407,"subject_sum":[70,33,193,213,95,164,232,108,224,218,228,40,131,2,100,27,170,200,109,213,63,118,34,124,137,45,249,211,0,104,45,65],"subject_pair":203,"STUDY_ID":"66a22c0758a3d5c9d26873c6","PROLIFIC_PID":"61686f8376bd6ff59ea15479","SESSION_ID":"66a26daa10cdeb2dc844a563","practice_instructions":1,"leaderboard_instructions":0,"bonus":0,"reveal_word":true,"self_rating":"2","confidence":"75"},{"rt":3699,"responses":"{\"Q0\":\"...from <b>a previous session</b> that is not part of the upcoming tournament.\"}","question_order":"[0]","trial_type":"survey-multi-choice","trial_index":9,"time_elapsed":142830,"internal_node_id":"0.0-7.0-1.0","protocol_sum":"","subject_identifier":407,"subject_sum":[70,33,193,213,95,164,232,108,224,218,228,40,131,2,100,27,170,200,109,213,63,118,34,124,137,45,249,211,0,104,45,65],"subject_pair":203,"correct":true,"test_part":"multichoice_leaderboard","STUDY_ID":"66a22c0758a3d5c9d26873c6","PROLIFIC_PID":"61686f8376bd6ff59ea15479","SESSION_ID":"66a26daa10cdeb2dc844a563","practice_instructions":1,"leaderboard_instructions":0,"bonus":0,"reveal_word":true,"self_rating":"2","confidence":"75"},{"view_history":"[{\"page_index\":0,\"viewing_time\":17167}]","rt":17168,"trial_type":"instructions","trial_index":10,"time_elapsed":159999,"internal_node_id":"0.0-8.0","protocol_sum":"","subject_identifier":407,"subject_sum":[70,33,193,213,95,164,232,108,224,218,228,40,131,2,100,27,170,200,109,213,63,118,34,124,137,45,249,211,0,104,45,65],"subject_pair":203,"STUDY_ID":"66a22c0758a3d5c9d26873c6","PROLIFIC_PID":"61686f8376bd6ff59ea15479","SESSION_ID":"66a26daa10cdeb2dc844a563","practice_instructions":1,"leaderboard_instructions":0,"bonus":0,"reveal_word":true,"self_rating":"2","confidence":"75"},{"rt":5000,"responses":"{\"Q0\":\"...players' leaderboard position (in terms of <b>points</b>) in an <b>upcoming tournament.</b>\"}","question_order":"[0]","trial_type":"survey-multi-choice","trial_index":11,"time_elapsed":165001,"internal_node_id":"0.0-9.0","protocol_sum":"","subject_identifier":407,"subject_sum":[70,33,193,213,95,164,232,108,224,218,228,40,131,2,100,27,170,200,109,213,63,118,34,124,137,45,249,211,0,104,45,65],"subject_pair":203,"correct":true,"test_part":"multichoice_tournament","STUDY_ID":"66a22c0758a3d5c9d26873c6","PROLIFIC_PID":"61686f8376bd6ff59ea15479","SESSION_ID":"66a26daa10cdeb2dc844a563","practice_instructions":1,"leaderboard_instructions":0,"bonus":0,"reveal_word":true,"self_rating":"2","confidence":"75"},{"view_history":"[{\"page_index\":0,\"viewing_time\":6139.999999999971}]","rt":6139.999999999971,"trial_type":"instructions","trial_index":12,"time_elapsed":171142,"internal_node_id":"0.0-11.0","protocol_sum":"","subject_identifier":407,"subject_sum":[70,33,193,213,95,164,232,108,224,218,228,40,131,2,100,27,170,200,109,213,63,118,34,124,137,45,249,211,0,104,45,65],"subject_pair":203,"STUDY_ID":"66a22c07