[{"success":true,"trial_type":"fullscreen","trial_index":0,"time_elapsed":3681,"internal_node_id":"0.0-0.0","protocol_sum":"","subject_identifier":141,"subject_sum":[255,90,26,224,18,175,165,212,200,137,197,10,212,39,170,245,69,211,26,79,172,4,255,193,196,208,61,64,59,164,37,10],"subject_pair":70,"STUDY_ID":"669a702db1122fc5150a13ce","PROLIFIC_PID":"650b1963cf394af06984d0b9","SESSION_ID":"669e92ee8ea57c64dc1d5f04","practice_instructions":1,"leaderboard_instructions":0,"bonus":0,"reveal_word":true,"self_rating":"3","confidence":"34"},{"view_history":"[{\"page_index\":0,\"viewing_time\":4582}]","rt":4582,"trial_type":"instructions","trial_index":1,"time_elapsed":8264,"internal_node_id":"0.0-1.0","protocol_sum":"","subject_identifier":141,"subject_sum":[255,90,26,224,18,175,165,212,200,137,197,10,212,39,170,245,69,211,26,79,172,4,255,193,196,208,61,64,59,164,37,10],"subject_pair":70,"STUDY_ID":"669a702db1122fc5150a13ce","PROLIFIC_PID":"650b1963cf394af06984d0b9","SESSION_ID":"669e92ee8ea57c64dc1d5f04","practice_instructions":1,"leaderboard_instructions":0,"bonus":0,"reveal_word":true,"self_rating":"3","confidence":"34"},{"view_history":"[{\"page_index\":0,\"viewing_time\":12974}]","rt":12974,"trial_type":"instructions","trial_index":2,"time_elapsed":21239,"internal_node_id":"0.0-2.0-0.0","protocol_sum":"","subject_identifier":141,"subject_sum":[255,90,26,224,18,175,165,212,200,137,197,10,212,39,170,245,69,211,26,79,172,4,255,193,196,208,61,64,59,164,37,10],"subject_pair":70,"STUDY_ID":"669a702db1122fc5150a13ce","PROLIFIC_PID":"650b1963cf394af06984d0b9","SESSION_ID":"669e92ee8ea57c64dc1d5f04","practice_instructions":1,"leaderboard_instructions":0,"bonus":0,"reveal_word":true,"self_rating":"3","confidence":"34"},{"rt":8608.000000000004,"responses":"{\"Q0\":\"... reveal the word with as <b>few letter guesses</b> as possible\"}","question_order":"[0]","trial_type":"survey-multi-choice","trial_index":3,"time_elapsed":29848,"internal_node_id":"0.0-2.0-1.0","protocol_sum":"","subject_identifier":141,"subject_sum":[255,90,26,224,18,175,165,212,200,137,197,10,212,39,170,245,69,211,26,79,172,4,255,193,196,208,61,64,59,164,37,10],"subject_pair":70,"correct":true,"test_part":"multichoice_nonpretend","STUDY_ID":"669a702db1122fc5150a13ce","PROLIFIC_PID":"650b1963cf394af06984d0b9","SESSION_ID":"669e92ee8ea57c64dc1d5f04","practice_instructions":1,"leaderboard_instructions":0,"bonus":0,"reveal_word":true,"self_rating":"3","confidence":"34"},{"view_history":"[{\"page_index\":0,\"viewing_time\":1973}]","rt":1973,"trial_type":"instructions","trial_index":4,"time_elapsed":31821,"internal_node_id":"0.0-3.0","protocol_sum":"","subject_identifier":141,"subject_sum":[255,90,26,224,18,175,165,212,200,137,197,10,212,39,170,245,69,211,26,79,172,4,255,193,196,208,61,64,59,164,37,10],"subject_pair":70,"STUDY_ID":"669a702db1122fc5150a13ce","PROLIFIC_PID":"650b1963cf394af06984d0b9","SESSION_ID":"669e92ee8ea57c64dc1d5f04","practice_instructions":1,"leaderboard_instructions":0,"bonus":0,"reveal_word":true,"self_rating":"3","confidence":"34"},{"word":"ZEBRA","click_log":{"letter":["","E","A","R","B","Z"],"t":[0,5680,9296,14613,17496,20246],"hit":[null,1,1,1,1,1],"asked":["","E","EA","EAR","EARB","EARBZ"],"word_state":["_____","_E___","_E__A","_E_RA","_EBRA","ZEBRA"]},"hover_log":{"letter":["?","?","?","?","?","?","?","?","?","?","?","?","?","?","?","?","?","?","?","?","?","?","?","?","?","?","?","?","?","?","?","?","?","?","?","?","?","?","?","?","?","?","?","?","?","?","?","?","?","?","?","?","?","?","?","?","?","?","?","?","?","?","?","?","?","?","?","?","?","?","?","?","?","?","?","?","?","?","?","?","?","?","?","?","?","?","?","?","?","?","?","?","?","?","?","?","?","?","?","?","?","?","?","?","?","?","?","?","?","?","?","?","?","?","?","?","?","?","?","?","?","?","?","?","?","?","?","?","?","?","?","?","?","?","?","?","?","?","?","?","?","?","?","?","?","?","?","?","?","?","?","?","?","?","?","?","?","?","?","?","?","?","?","?","?","?","?","?","?","?","?","?","?","?","?","?","?","?","?","?","?","?","?","?","?","?","?","?","?","?","?","?","?","?","?","?","?","?","?","?","?","?","?","?","?","?","?","?","?","?","?","?","?","?","?","?","?","?","?","?","?","?","?","?","?","?","?","?","?","?","?","?","?","?","?","?","?","?","?","?","?","?","?","?","?","?","?","?","?","?","?","?","?","?","?","?","?","?","?","?","?","?","?","?","?","?","?","?","?","?","?","?","?","J","J","?","K","K","L","L","L","L","L","L","L","L","L","L","L","L","L","L","L","L","L","?","?","D","D","D","?","?","E","E","E","E","E","E","E","?","?","?","?","?","E","E","E","E","E","E","E","E","E","E","E","E","E","E","E","E","E","E","E","E","E","E","E","E","E","E","E","E","E","E","E","E","E","E","E","E","E","E","E","E","E","E","E","E","E","E","E","E","E","E","E","E","E","E","E","E","E","E","E","E","E","E","E","E","E","E","E","E","E","E","E","E","E","E","E","E","E","E","E","E","E","E","E","E","E","E","E","E","E","E","E","E","E","E","E","E","E","E","E","E","E","E","E","E","E","E","E","E","E","E","E","E","E","E","E","E","E","E","E","E","E","E","E","E","E","E","E","E","E","E","E","E","E","E","E","E","E","E","E","E","E","E","E","E","E","E","E","E","E","E","E","E","E","E","E","E","E","E","E","E","E","E","E","E","E","E","E","E","E","E","E","E","E","E","E","E","E","E","E","E","E","E","E","E","E","E","E","E","?","D","D","D","D","C","C","?","?","B","B","B","B","B","B","B","B","B","B","B","B","B","?","?","?","A","A","A","A","A","A","A","A","A","A","A","A","A","A","A","A","A","A","A","A","A","A","A","A","A","A","A","A","A","A","A","A","A","A","A","A","A","A","A","A","A","A","A","A","A","A","A","A","A","A","A","A","A","A","A","A","A","A","A","A","A","A","A","A","A","A","A","A","A","A","A","A","A","A","A","A","A","A","A","A","A","A","A","A","A","A","A","A","A","A","A","A","A","A","A","A","A","A","A","A","A","A","A","A","A","A","A","A","A","A","A","A","A","A","A","A","A","A","A","A","A","A","A","A","A","A","A","A","A","A","A","A","A","A","A","A","A","A","A","A","A","A","A","A","A","A","A","A","A","A","A","A","A","A","A","A","A","A","A","A","A","A","A","A","A","A","A","A","A","A","A","A","A","A","A","A","A","A","A","A","A","A","A","A","A","A","A","A","A","A","A","A","A","A","A","A","A","A","A","A","A","A","A","A","A","A","A","A","A","A","A","A","A","A","A","A","A","B","B","?","C","C","C","C","C","?","?","?","?","?","?","?","?","?","?","?","?","D","D","D","D","D","?","?","M","?","?","?","?","?","?","?","?","?","?","?","?","?","?","?","?","?","?","?","?","?","?","O","O","?","?","?","?","?","?","?","?","?","?","?","?","?","?","?","?","?","?","?","?","?","?","O","?","?","?","P","P","P","P","P","P","?","?","Q","Q","Q","Q","Q","Q","Q","Q","Q","?","?","R","R","R","R","R","R","R","R","R","R","R","R","R","R","R","R","R","R","R","R","R","R","R","R","R","R","R","R","R","R","R","R","R","R","R","R","R","R","R","R","R","R","R","R","R","R","R","R","R","R","R","R","R","R","R","R","R","R","R","R","R","R","R","R","R","R","R","R","R","R","R","R","R","R","R","R","R","R","R","R","R","R","R","R","R","R","R","R","R","R","R","R","R","R","R","?","Q","Q","?","?","?","?","Y","?","X","X","X","X","X","?","W","W","?","?","?","M","M","M","M","M","?","?","?","?","?","?","?","?","?","?","?","?","?","?","?","?","?","?","?","?","?","?","?","?","?","?","?","?","?","?","?","?","?","?","?","?","?","?","?","C","C","?","B","B","B","B","B","B","B","B","B","B","B","B","B","B","B","B","B","B","B","B","B","B","B","B","B","B","B","B","B","B","B","B","B","B","B","B","B","B","B","B","B","B","B","B","B","B","B","B","B","B","B","B","B","B","B","B","B","B","B","B","B","B","B","B","B","B","B","B","B","B","B","B","B","B","B","B","B","B","B","B","B","B","B","B","B","B","B","B","?","K","K","K","?","?","?","?","?","?","?","V","V","?","?","?","?","?","?","?","?","?","?","?","?","?","?","?","?","?","?","?","?","?","X","X","X","X","X","X","?","?","?","W","W","W","W","W","W","W","W","W","W","W","W","W","W","?","V","V","V","V","V","V","?","?","?","?","?","?","V","?","W","?","X","X","?","?","Y","Y","Y","Y","Y","Y","Y","Y","Y","Y","Y","Y","Y","?","?","?","?","?","Z","Z","Z","Z","Z","Z","Z","Z","Z","Z","Z","Z","Z","Z","Z","Z","Z","Z","Z","Z","Z","Z","Z","Z","Z","Z","Z","Z","Z","Z","Z","Z","Z","Z","Z","Z","Z","Z","Z","Z","Z","Z","Z","Z","Z","Z","Z","Z","Z","Z","Z","Z","Z","Z","Z","Z","Z","Z","Z","Z","Z","Z","Z","Z","Z","Z","Z","Z","Z","Z","Z","Z","Z","Z","Z","Z","Z","Z","Z","Z","Z","Z","Z","Z","Z","Z","Z","Z","Z","Z","Z","Z","Z","Z","Z","Z","Z","Z","Z","Z","Z","Z","Z","Z","Z","Z","Z","Z","Z","Z","Z","Z","Z","Z","Z","Z","Z","Z","Z","Z","Z","Z","Z","Z","Z","Z","Z","Z","Z","Z","Z","Z","Z","Z","Z","Z","Z","Z","Z","Z","Z","Z","Z","Z","Z","Z","Z","Z","Z"],"t":[28,37,53,71,83,99,115,131,147,164,179,196,213,229,246,263,279,296,312,329,346,363,379,396,413,429,446,462,479,496,513,529,546,562,579,596,612,629,646,662,679,696,712,729,746,762,779,796,813,829,846,862,879,895,912,929,945,962,979,996,1013,1028,1046,1063,1079,1096,1113,1129,1146,1162,1179,1195,1212,1229,1246,1262,1279,1295,1312,1329,1346,1363,1379,1396,1413,1429,1446,1463,1479,1496,1512,1529,1546,1562,1579,1595,1612,1629,1645,1662,1679,1695,1712,1729,1745,1762,1779,1795,1812,1829,1845,1862,1879,1896,1912,1929,1946,1962,1979,1996,2012,2029,2046,2062,2079,2095,2112,2129,2146,2162,2179,2195,2212,2229,2246,2262,2279,2295,2312,2329,2345,2362,2378,2395,2413,2429,2446,2462,2478,2495,2512,2529,2545,2562,2578,2595,2612,2629,2645,2662,2679,2695,2713,2729,2746,2762,2779,2795,2812,2829,2845,2862,2878,2895,2912,2929,2945,2962,2978,2995,3012,3029,3045,3062,3079,3095,3112,3129,3145,3163,3179,3195,3212,3229,3245,3262,3279,3295,3312,3329,3346,3362,3379,3396,3413,3428,3445,3462,3479,3496,3512,3529,3545,3562,3579,3596,3612,3629,3645,3662,3679,3695,3712,3729,3745,3763,3778,3795,3812,3829,3845,3862,3879,3895,3912,3929,3945,3963,3979,3995,4012,4028,4046,4062,4079,4095,4112,4129,4145,4162,4179,4195,4212,4229,4246,4263,4279,4295,4313,4328,4346,4362,4379,4396,4412,4430,4446,4463,4479,4496,4513,4529,4545,4562,4579,4595,4612,4628,4645,4662,4679,4695,4713,4729,4746,4763,4778,4795,4813,4829,4846,4862,4879,4895,4912,4929,4945,4963,4979,4996,5012,5029,5045,5062,5079,5095,5112,5128,5145,5163,5179,5196,5212,5229,5245,5262,5279,5295,5312,5329,5346,5362,5379,5395,5412,5429,5446,5463,5479,5496,5512,5529,5546,5563,5579,5596,5612,5630,5646,5662,5679,5697,5714,5729,5746,5763,5779,5796,5813,5829,5846,5863,5880,5896,5912,5929,5946,5963,5979,5996,6013,6029,6046,6062,6079,6096,6112,6129,6146,6163,6179,6195,6212,6229,6246,6262,6279,6296,6312,6329,6345,6362,6379,6395,6413,6429,6445,6462,6479,6495,6512,6528,6545,6562,6579,6595,6612,6629,6645,6662,6678,6696,6712,6729,6745,6762,6779,6795,6812,6829,6845,6862,6878,6895,6912,6929,6946,6962,6978,6996,7012,7029,7045,7062,7078,7095,7112,7129,7145,7162,7179,7196,7212,7229,7245,7262,7279,7295,7312,7328,7345,7362,7379,7395,7412,7429,7446,7463,7479,7495,7512,7529,7545,7562,7579,7595,7612,7628,7645,7662,7679,7696,7712,7729,7745,7762,7779,7795,7812,7829,7846,7862,7879,7896,7913,7929,7945,7962,7979,7996,8013,8029,8045,8062,8079,8095,8112,8129,8145,8162,8178,8195,8211,8228,8244,8261,8278,8295,8311,8329,8345,8362,8378,8395,8412,8428,8445,8462,8478,8495,8512,8529,8546,8562,8579,8595,8611,8629,8645,8662,8678,8695,8712,8728,8746,8762,8779,8795,8812,8828,8845,8861,8878,8895,8911,8928,8945,8961,8979,8995,9012,9029,9045,9062,9079,9095,9112,9128,9145,9162,9178,9195,9212,9229,9245,9261,9278,9295,9312,9329,9345,9362,9379,9396,9412,9429,9445,9463,9479,9495,9512,9528,9545,9563,9579,9595,9612,9629,9646,9663,9679,9695,9712,9729,9745,9762,9779,9795,9813,9829,9845,9862,9879,9895,9912,9929,9945,9963,9979,9996,10012,10029,10045,10062,10079,10095,10112,10129,10145,10162,10179,10195,10212,10229,10245,10262,10279,10295,10311,10328,10345,10362,10378,10396,10412,10429,10445,10462,10478,10495,10512,10529,10545,10562,10578,10596,10612,10629,10645,10661,10679,10695,10712,10729,10745,10762,10778,10795,10812,10828,10845,10862,10878,10895,10912,10928,10945,10962,10979,10995,11012,11028,11045,11062,11078,11095,11112,11128,11146,11162,11178,11195,11212,11229,11245,11262,11278,11295,11312,11328,11346,11362,11378,11395,11412,11428,11445,11462,11478,11495,11512,11528,11545,11562,11578,11595,11611,11628,11645,11662,11679,11695,11712,11728,11745,11762,11778,11796,11812,11828,11845,11862,11879,11895,11911,11928,11945,11962,11979,11995,12012,12029,12045,12062,12078,12095,12112,12128,12145,12162,12179,12195,12211,12228,12245,12262,12278,12295,12311,12328,12345,12362,12378,12394,12412,12429,12445,12462,12478,12495,12511,12528,12545,12561,12578,12595,12612,12628,12645,12662,12677,12695,12711,12728,12745,12761,12778,12795,12811,12829,12845,12862,12879,12895,12912,12928,12945,12962,12979,12995,13012,13028,13045,13062,13078,13095,13112,13128,13145,13161,13179,13195,13212,13228,13245,13262,13278,13295,13312,13328,13345,13362,13378,13395,13412,13428,13445,13462,13479,13495,13512,13529,13545,13561,13578,13595,13612,13628,13645,13661,13678,13695,13712,13729,13745,13762,13778,13795,13811,13828,13846,13861,13878,13895,13912,13928,13945,13962,13978,13995,14011,14028,14045,14061,14078,14095,14112,14128,14145,14162,14178,14194,14212,14229,14245,14261,14278,14295,14312,14329,14346,14362,14378,14395,14412,14428,14445,14462,14479,14495,14512,14528,14545,14562,14578,14595,14612,14628,14645,14662,14678,14695,14712,14729,14745,14762,14779,14795,14812,14829,14845,14861,14878,14895,14912,14928,14945,14962,14978,14996,15012,15028,15045,15062,15079,15095,15112,15128,15146,15162,15178,15196,15212,15229,15245,15262,15279,15296,15312,15329,15345,15362,15378,15396,15412,15428,15446,15462,15479,15495,15512,15528,15545,15562,15578,15595,15612,15628,15645,15661,15678,15695,15711,15729,15745,15762,15778,15795,15811,15828,15845,15862,15878,15895,15912,15929,15945,15962,15979,15995,16012,16028,16045,16062,16078,16094,16112,16129,16145,16162,16178,16195,16212,16229,16245,16262,16278,16295,16312,16328,16346,16362,16379,16395,16412,16429,16445,16462,16479,16495,16512,16529,16545,16562,16578,16595,16612,16628,16645,16661,16679,16695,16711,16729,16745,16762,16779,16795,16812,16828,16845,16861,16878,16895,16911,16928,16945,16962,16978,16995,17011,17028,17045,17062,17078,17095,17112,17128,17145,17162,17179,17195,17212,17228,17245,17262,17278,17294,17312,17328,17346,17362,17378,17395,17412,17428,17445,17462,17478,17495,17511,17528,17545,17562,17579,17595,17612,17628,17645,17662,17678,17695,17712,17729,17745,17762,17778,17795,17812,17829,17845,17862,17878,17896,17912,17928,17945,17962,17978,17995,18012,18028,18045,18062,18078,18095,18112,18128,18145,18161,18178,18195,18211,18228,18246,18262,18278,18294,18312,18328,18344,18361,18378,18395,18411,18428,18444,18461,18478,18495,18512,18528,18545,18561,18578,18595,18612,18628,18645,18661,18679,18695,18711,18728,18745,18762,18779,18795,18811,18828,18845,18862,18878,18895,18912,18928,18945,18962,18978,18995,19011,19029,19045,19062,19078,19095,19112,19128,19145,19162,19179,19195,19212,19228,19245,19262,19278,19295,19312,19328,19345,19362,19378,19395,19411,19428,19445,19462,19478,19496,19512,19528,19545,19562,19579,19595,19611,19628,19645,19661,19678,19694,19711,19728,19744,19762,19778,19795,19812,19829,19845,19861,19878,19895,19911,19928,19945,19962,19978,19995,20012,20028,20045,20062,20079,20095,20112,20128,20145,20162,20178,20195,20211,20228,20245,20263,20279,20295,20312,20328,20346,20362,20378,20396,20412,20428,20445,20462,20478,20496,20512,20528,20546,20562,20578,20595,20612,20628,20646,20662,20679,20695,20712,20729,20745,20762,20778,20795,20812,20829,20845,20862,20878,20896,20912,20928,20945,20962,20979,20995,21012,21028,21045,21062,21078,21095,21112,21128,21145,21162,21178,21196,21212,21229,21245,21262,21278,21295,21312,21329,21345,21362,21378,21395,21412,21428,21445,21462,21478,21496,21512,21528,21545,21562,21579,21595,21611,21628,21645,21662,21678,21695,21712,21728,21746,21762,21779,21795,21812,21829,21845,21862,21878,21895,21912,21928,21945,21962,21978,21995,22012,22028,22045,22062,22079,22095,22112,22128,22145,22162,22179,22195,22212,22228,22245,22262],"hit":[null],"x":[-2.2857142857142856,-2.2857142857142856,-2.2857142857142856,-2.2857142857142856,-2.2857142857142856,-2.2857142857142856,-2.2857142857142856,-2.2857142857142856,-2.2857142857142856,-2.2857142857142856,-2.2857142857142856,-2.2857142857142856,-2.2857142857142856,-2.2857142857142856,-2.2857142857142856,-2.2857142857142856,-2.2857142857142856,-2.2857142857142856,-2.2857142857142856,-2.2857142857142856,-2.2857142857142856,-2.2857142857142856,-2.2857142857142856,-2.2857142857142856,-2.2857142857142856,-2.2857142857142856,-2.2857142857142856,-2.2857142857142856,-2.2857142857142856,-2.2857142857142856,-2.2857142857142856,-2.2857142857142856,-2.2857142857142856,-2.2857142857142856,-2.2857142857142856,-2.2857142857142856,-2.2857142857142856,-2.2857142857142856,-2.2857142857142856,-2.2857142857142856,-2.2857142857142856,-2.2857142857142856,-2.2857142857142856,-2.2857142857142856,-2.2857142857142856,-2.2857142857142856,-2.2857142857142856,-2.2857142857142856,-2.2857142857142856,-2.2857142857142856,-2.2857142857142856,-2.2857142857142856,-2.2857142857142856,-2.2857142857142856,-2.2857142857142856,-2.2857142857142856,-2.2857142857142856,-2.2857142857142856,-2.2857142857142856,-2.2857142857142856,-2.2857142857142856,-2.2857142857142856,-2.2857142857142856,-2.2857142857142856,-2.2857142857142856,-2.2857142857142856,-2.2857142857142856,-2.2857142857142856,-2.2857142857142856,-2.2857142857142856,-2.2857142857142856,-2.2857142857142856,-2.2857142857142856,-2.2857142857142856,-2.2857142857142856,-2.2857142857142856,-2.2857142857142856,-2.2857142857142856,-2.2857142857142856,-2.2857142857142856,-2.2857142857142856,-2.2857142857142856,-2.2857142857142856,-2.2857142857142856,-2.2857142857142856,-2.2857142857142856,-2.2857142857142856,-2.2857142857142856,-2.2857142857142856,-2.2857142857142856,-2.2857142857142856,-2.2857142857142856,-2.2857142857142856,-2.2857142857142856,-2.2857142857142856,-2.2857142857142856,-2.2857142857142856,-2.2857142857142856,-2.2857142857142856,-2.2857142857142856,-2.2857142857142856,-2.2857142857142856,-2.2857142857142856,-2.2857142857142856,-2.2857142857142856,-2.2857142857142856,-2.2857142857142856,-2.2857142857142856,-2.2857142857142856,-2.2857142857142856,-2.2857142857142856,-2.2857142857142856,-2.2857142857142856,-2.2857142857142856,-2.2857142857142856,-2.2857142857142856,-2.2857142857142856,-2.2857142857142856,-2.2857142857142856,-2.2857142857142856,-2.2857142857142856,-2.2857142857142856,-2.2857142857142856,-2.2857142857142856,-2.2857142857142856,-2.2857142857142856,-2.2857142857142856,-2.2857142857142856,-2.2857142857142856,-2.2857142857142856,-2.2857142857142856,-2.2857142857142856,-2.2857142857142856,-2.2857142857142856,-2.2857142857142856,-2.2857142857142856,-2.2857142857142856,-2.2857142857142856,-2.2857142857142856,-2.2857142857142856,-2.2857142857142856,-2.2857142857142856,-2.2857142857142856,-2.2857142857142856,-2.2857142857142856,-2.2857142857142856,-2.2857142857142856,-2.2857142857142856,-2.2857142857142856,-2.2857142857142856,-2.2857142857142856,-2.2857142857142856,-2.2857142857142856,-2.2857142857142856,-2.2857142857142856,-2.2857142857142856,-2.2857142857142856,-2.2857142857142856,-2.2857142857142856,-2.2857142857142856,-2.2857142857142856,-2.2857142857142856,-2.2857142857142856,-2.2857142857142856,-2.2857142857142856,-2.2857142857142856,-2.2857142857142856,-2.2857142857142856,-2.2857142857142856,-2.2857142857142856,-2.2857142857142856,-2.2857142857142856,-2.2857142857142856,-2.2857142857142856,-2.2857142857142856,-2.2857142857142856,-2.2857142857142856,-2.2857142857142856,-2.2857142857142856,-2.2857142857142856,-2.2857142857142856,-2.2857142857142856,-2.2857142857142856,-2.2857142857142856,-2.2857142857142856,-2.2857142857142856,-2.2857142857142856,-2.2857142857142856,-2.2857142857142856,-2.2857142857142856,-2.2857142857142856,-2.2857142857142856,-2.2857142857142856,-2.2857142857142856,-2.2857142857142856,-2.2857142857142856,-2.2857142857142856,-2.2857142857142856,-2.2857142857142856,-2.2857142857142856,-2.2857142857142856,-2.2857142857142856,-2.2857142857142856,-2.2857142857142856,-2.2857142857142856,-2.2857142857142856,-2.2857142857142856,-2.2857142857142856,-2.2857142857142856,-2.2857142857142856,-2.2857142857142856,-2.2857142857142856,-2.2857142857142856,-2.2857142857142856,-2.2857142857142856,-2.2857142857142856,-2.2857142857142856,-2.2857142857142856,-2.2857142857142856,-2.2857142857142856,-2.2857142857142856,-2.2857142857142856,-2.2857142857142856,-2.2857142857142856,-2.2857142857142856,-2.2857142857142856,-2.2857142857142856,-2.2857142857142856,-2.2857142857142856,-2.2857142857142856,-2.2857142857142856,-2.2857142857142856,-2.2857142857142856,-2.2857142857142856,-2.2857142857142856,-2.2857142857142856,-2.2857142857142856,-2.2857142857142856,-2.2857142857142856,-2.2857142857142856,-2.2857142857142856,-2.2857142857142856,-2.2857142857142856,-2.2857142857142856,-2.2857142857142856,-2.2857142857142856,-2.2857142857142856,-2.2857142857142856,-2.2857142857142856,-2.2857142857142856,-2.2857142857142856,-2.2857142857142856,-2.2857142857142856,-2.2857142857142856,-2.2857142857142856,-2.2857142857142856,-2.2857142857142856,-2.2857142857142856,-2.2857142857142856,-2.2857142857142856,-2.2857142857142856,-2.2857142857142856,-2.2857142857142856,-2.2857142857142856,-2.2857142857142856,-0.13095238095238096,-0.12755102040816327,-0.12755102040816327,-0.12414965986394558,-0.12074829931972789,-0.10714285714285714,-0.0935374149659864,-0.0663265306122449,-0.02891156462585034,0.03231292517006803,0.07993197278911565,0.141156462585034,0.1989795918367347,0.23299319727891157,0.2602040816326531,0.2602040816326531,0.2602040816326531,0.2602040816326531,0.2602040816326531,0.2602040816326531,0.2602040816326531,0.2602040816326531,0.2602040816326531,0.2602040816326531,0.2602040816326531,0.2602040816326531,0.2602040816326531,0.2602040816326531,0.26700680272108845,0.27721088435374147,0.3078231292517007,0.3486394557823129,0.39625850340136054,0.4574829931972789,0.4812925170068027,0.5051020408163265,0.5153061224489796,0.5221088435374149,0.5255102040816326,0.5255102040816326,0.5255102040816326,0.5255102040816326,0.5255102040816326,0.5221088435374149,0.5187074829931972,0.5153061224489796,0.5153061224489796,0.5153061224489796,0.5153061224489796,0.5221088435374149,0.532312925170068,0.5391156462585034,0.5425170068027211,0.5459183673469388,0.5459183673469388,0.5459183673469388,0.5459183673469388,0.5493197278911565,0.5493197278911565,0.5493197278911565,0.5493197278911565,0.5493197278911565,0.5493197278911565,0.5493197278911565,0.5493197278911565,0.5493197278911565,0.5493197278911565,0.5493197278911565,0.5493197278911565,0.5493197278911565,0.5493197278911565,0.5493197278911565,0.5493197278911565,0.5493197278911565,0.5493197278911565,0.5493197278911565,0.5493197278911565,0.5493197278911565,0.5493197278911565,0.5493197278911565,0.5493197278911565,0.5493197278911565,0.5493197278911565,0.5493197278911565,0.5493197278911565,0.5493197278911565,0.5493197278911565,0.5493197278911565,0.5493197278911565,0.5493197278911565,0.5493197278911565,0.5493197278911565,0.5493197278911565,0.5493197278911565,0.5493197278911565,0.5493197278911565,0.5493197278911565,0.5493197278911565,0.5493197278911565,0.5493197278911565,0.5493197278911565,0.5493197278911565,0.5493197278911565,0.5493197278911565,0.5493197278911565,0.5493197278911565,0.5493197278911565,0.5493197278911565,0.5493197278911565,0.5493197278911565,0.5493197278911565,0.5493197278911565,0.5493197278911565,0.5493197278911565,0.5493197278911565,0.5493197278911565,0.5493197278911565,0.5493197278911565,0.5493197278911565,0.5493197278911565,0.5493197278911565,0.5493197278911565,0.5493197278911565,0.5493197278911565,0.5493197278911565,0.5493197278911565,0.5493197278911565,0.5493197278911565,0.5493197278911565,0.5493197278911565,0.5493197278911565,0.5493197278911565,0.5493197278911565,0.5493197278911565,0.5493197278911565,0.5493197278911565,0.5493197278911565,0.5493197278911565,0.5493197278911565,0.5493197278911565,0.5493197278911565,0.5493197278911565,0.5493197278911565,0.5493197278911565,0.5493197278911565,0.5493197278911565,0.5493197278911565,0.5493197278911565,0.5493197278911565,0.5493197278911565,0.5493197278911565,0.5493197278911565,0.5493197278911565,0.5493197278911565,0.5493197278911565,0.5493197278911565,0.5493197278911565,0.5493197278911565,0.5493197278911565,0.5493197278911565,0.5493197278911565,0.5493197278911565,0.5493197278911565,0.5493197278911565,0.5493197278911565,0.5493197278911565,0.5493197278911565,0.5493197278911565,0.5493197278911565,0.5493197278911565,0.5493197278911565,0.5493197278911565,0.5493197278911565,0.5493197278911565,0.5493197278911565,0.5493197278911565,0.5493197278911565,0.5493197278911565,0.5493197278911565,0.5493197278911565,0.5493197278911565,0.5493197278911565,0.5493197278911565,0.5493197278911565,0.5493197278911565,0.5493197278911565,0.5493197278911565,0.5493197278911565,0.5493197278911565,0.5493197278911565,0.5493197278911565,0.5493197278911565,0.5493197278911565,0.5493197278911565,0.5493197278911565,0.5493197278911565,0.5493197278911565,0.5493197278911565,0.5493197278911565,0.5493197278911565,0.5493197278911565,0.5493197278911565,0.5493197278911565,0.5493197278911565,0.5493197278911565,0.5493197278911565,0.5493197278911565,0.5493197278911565,0.5493197278911565,0.5493197278911565,0.5493197278911565,0.5493197278911565,0.5493197278911565,0.5493197278911565,0.5493197278911565,0.5493197278911565,0.5493197278911565,0.5493197278911565,0.5493197278911565,0.5493197278911565,0.5493197278911565,0.5493197278911565,0.5493197278911565,0.5493197278911565,0.5493197278911565,0.5493197278911565,0.5493197278911565,0.5493197278911565,0.5493197278911565,0.5493197278911565,0.5493197278911565,0.5493197278911565,0.5493197278911565,0.5493197278911565,0.5493197278911565,0.5493197278911565,0.5391156462585034,0.5017006802721088,0.477891156462585,0.4574829931972789,0.42346938775510207,0.3758503401360544,0.32142857142857145,0.27380952380952384,0.2261904761904762,0.1989795918367347,0.1717687074829932,0.15476190476190477,0.141156462585034,0.13435374149659865,0.12414965986394558,0.12074829931972789,0.11734693877551021,0.11394557823129252,0.11054421768707483,0.10714285714285714,0.10374149659863946,0.09693877551020408,0.09013605442176871,0.07993197278911565,0.07312925170068027,0.06292517006802721,0.05612244897959184,0.04931972789115646,0.04251700680272109,0.0391156462585034,0.03231292517006803,0.025510204081632654,0.022108843537414966,0.01870748299319728,0.015306122448979591,0.011904761904761904,0.011904761904761904,0.008503401360544218,0.008503401360544218,0.00510204081632653,0.00510204081632653,0.00510204081632653,0.0017006802721088435,0.0017006802721088435,0.0017006802721088435,0.0017006802721088435,0.0017006802721088435,0.0017006802721088435,0.0017006802721088435,0.0017006802721088435,0.0017006802721088435,0.0017006802721088435,0.0017006802721088435,0.0017006802721088435,0.0017006802721088435,0.0017006802721088435,0.0017006802721088435,0.0017006802721088435,0.0017006802721088435,0.0017006802721088435,0.0017006802721088435,0.0017006802721088435,0.0017006802721088435,0.0017006802721088435,0.0017006802721088435,0.0017006802721088435,0.0017006802721088435,0.0017006802721088435,0.0017006802721088435,0.0017006802721088435,0.0017006802721088435,0.0017006802721088435,0.0017006802721088435,0.0017006802721088435,0.0017006802721088435,0.0017006802721088435,0.0017006802721088435,0.0017006802721088435,0.0017006802721088435,0.0017006802721088435,0.0017006802721088435,0.0017006802721088435,0.0017006802721088435,0.0017006802721088435,0.0017006802721088435,0.0017006802721088435,0.0017006802721088435,0.0017006802721088435,0.0017006802721088435,0.0017006802721088435,0.0017006802721088435,0.0017006802721088435,0.0017006802721088435,0.0017006802721088435,0.0017006802721088435,0.0017006802721088435,0.0017006802721088435,0.0017006802721088435,0.0017006802721088435,0.0017006802721088435,0.0017006802721088435,0.0017006802721088435,0.0017006802721088435,0.0017006802721088435,0.0017006802721088435,0.0017006802721088435,0.0017006802721088435,0.0017006802721088435,0.0017006802721088435,0.0017006802721088435,0.0017006802721088435,0.0017006802721088435,0.0017006802721088435,0.0017006802721088435,0.0017006802721088435,0.0017006802721088435,0.0017006802721088435,0.0017006802721088435,0.0017006802721088435,0.0017006802721088435,0.0017006802721088435,0.0017006802721088435,0.0017006802721088435,0.0017006802721088435,0.0017006802721088435,0.0017006802721088435,0.0017006802721088435,0.0017006802721088435,0.0017006802721088435,0.0017006802721088435,0.0017006802721088435,0.0017006802721088435,0.0017006802721088435,0.0017006802721088435,0.0017006802721088435,0.0017006802721088435,0.0017006802721088435,0.0017006802721088435,0.0017006802721088435,0.0017006802721088435,0.0017006802721088435,0.0017006802721088435,0.0017006802721088435,0.0017006802721088435,0.0017006802721088435,0.0017006802721088435,0.0017006802721088435,0.0017006802721088435,0.0017006802721088435,0.0017006802721088435,0.0017006802721088435,0.0017006802721088435,0.0017006802721088435,0.0017006802721088435,0.0017006802721088435,0.0017006802721088435,0.0017006802721088435,0.0017006802721088435,0.0017006802721088435,0.0017006802721088435,0.0017006802721088435,0.0017006802721088435,0.0017006802721088435,0.0017006802721088435,0.0017006802721088435,0.0017006802721088435,0.0017006802721088435,0.0017006802721088435,0.0017006802721088435,0.0017006802721088435,0.0017006802721088435,0.0017006802721088435,0.0017006802721088435,0.0017006802721088435,0.0017006802721088435,0.0017006802721088435,0.0017006802721088435,0.0017006802721088435,0.0017006802721088435,0.0017006802721088435,0.0017006802721088435,0.0017006802721088435,0.0017006802721088435,0.0017006802721088435,0.0017006802721088435,0.0017006802721088435,0.0017006802721088435,0.0017006802721088435,0.0017006802721088435,0.0017006802721088435,0.0017006802721088435,0.0017006802721088435,0.0017006802721088435,0.0017006802721088435,0.0017006802721088435,0.0017006802721088435,0.0017006802721088435,0.0017006802721088435,0.0017006802721088435,0.0017006802721088435,0.0017006802721088435,0.0017006802721088435,0.0017006802721088435,0.0017006802721088435,0.0017006802721088435,0.0017006802721088435,0.0017006802721088435,0.0017006802721088435,0.0017006802721088435,0.0017006802721088435,0.0017006802721088435,0.0017006802721088435,0.0017006802721088435,0.0017006802721088435,0.0017006802721088435,0.0017006802721088435,0.0017006802721088435,0.0017006802721088435,0.0017006802721088435,0.0017006802721088435,0.0017006802721088435,0.0017006802721088435,0.0017006802721088435,0.0017006802721088435,0.0017006802721088435,0.0017006802721088435,0.0017006802721088435,0.0017006802721088435,0.0017006802721088435,0.0017006802721088435,0.0017006802721088435,0.0017006802721088435,0.0017006802721088435,0.00510204081632653,0.00510204081632653,0.00510204081632653,0.00510204081632653,0.008503401360544218,0.008503401360544218,0.015306122448979591,0.01870748299319728,0.03571428571428571,0.05612244897959184,0.09013605442176871,0.13435374149659865,0.20238095238095238,0.2465986394557823,0.28061224489795916,0.2976190476190476,0.31802721088435376,0.3282312925170068,0.33843537414965985,0.34523809523809523,0.3554421768707483,0.3622448979591837,0.3656462585034014,0.36904761904761907,0.36904761904761907,0.37244897959183676,0.37244897959183676,0.3758503401360544,0.3758503401360544,0.3758503401360544,0.3792517006802721,0.38605442176870747,0.39625850340136054,0.413265306122449,0.42346938775510207,0.4370748299319728,0.44727891156462585,0.45408163265306123,0.4710884353741497,0.4812925170068027,0.4914965986394558,0.4914965986394558,0.4914965986394558,0.4914965986394558,0.4914965986394558,0.4914965986394558,0.4914965986394558,0.4914965986394558,0.4914965986394558,0.4914965986394558,0.4914965986394558,0.4914965986394558,0.4914965986394558,0.4914965986394558,0.4914965986394558,0.49489795918367346,0.5017006802721088,0.5391156462585034,0.6003401360544217,0.6547619047619048,0.7125850340136054,0.7431972789115646,0.7738095238095238,0.7874149659863946,0.79421768707483,0.79421768707483,0.79421768707483,0.7874149659863946,0.7772108843537415,0.7636054421768708,0.75,0.7363945578231292,0.7227891156462585,0.7125850340136054,0.7023809523809523,0.6955782312925171,0.6921768707482994,0.6921768707482994,0.6921768707482994,0.6921768707482994,0.6921768707482994,0.6921768707482994,0.7023809523809523,0.7125850340136054,0.7295918367346939,0.75,0.7738095238095238,0.7976190476190477,0.814625850340136,0.8418367346938775,0.858843537414966,0.8724489795918368,0.8826530612244898,0.8996598639455783,0.9200680272108843,0.9336734693877551,0.9506802721088435,0.9642857142857143,0.9710884353741497,0.9744897959183674,0.9778911564625851,0.9812925170068028,0.9914965986394558,1.0119047619047619,1.032312925170068,1.0595238095238095,1.0833333333333333,1.1003401360544218,1.120748299319728,1.130952380952381,1.1411564625850341,1.1445578231292517,1.1479591836734695,1.1479591836734695,1.1479591836734695,1.1479591836734695,1.1479591836734695,1.1479591836734695,1.1479591836734695,1.1479591836734695,1.1479591836734695,1.1479591836734695,1.1445578231292517,1.1445578231292517,1.1445578231292517,1.1445578231292517,1.1445578231292517,1.1445578231292517,1.1445578231292517,1.1445578231292517,1.1445578231292517,1.1445578231292517,1.1445578231292517,1.1445578231292517,1.1445578231292517,1.1445578231292517,1.1445578231292517,1.1445578231292517,1.1445578231292517,1.1445578231292517,1.1445578231292517,1.1445578231292517,1.1445578231292517,1.1445578231292517,1.1445578231292517,1.1445578231292517,1.1445578231292517,1.1445578231292517,1.1445578231292517,1.1445578231292517,1.1445578231292517,1.1445578231292517,1.1445578231292517,1.1445578231292517,1.1445578231292517,1.1445578231292517,1.1445578231292517,1.1445578231292517,1.1445578231292517,1.1445578231292517,1.1445578231292517,1.1445578231292517,1.1445578231292517,1.1445578231292517,1.1445578231292517,1.1445578231292517,1.1445578231292517,1.1445578231292517,1.1445578231292517,1.1445578231292517,1.1445578231292517,1.1445578231292517,1.1445578231292517,1.1445578231292517,1.1445578231292517,1.1445578231292517,1.1445578231292517,1.1445578231292517,1.1445578231292517,1.1445578231292517,1.1445578231292517,1.1445578231292517,1.1445578231292517,1.1445578231292517,1.1445578231292517,1.1445578231292517,1.1445578231292517,1.1445578231292517,1.1445578231292517,1.1445578231292517,1.1445578231292517,1.1445578231292517,1.1445578231292517,1.1445578231292517,1.1445578231292517,1.1445578231292517,1.1445578231292517,1.1445578231292517,1.1445578231292517,1.1411564625850341,1.130952380952381,1.1071428571428572,1.0765306122448979,1.0425170068027212,1.0085034013605443,0.9710884353741497,0.9370748299319728,0.8996598639455783,0.8656462585034014,0.8316326530612245,0.7908163265306123,0.7670068027210885,0.7431972789115646,0.7227891156462585,0.6989795918367347,0.6785714285714286,0.6513605442176871,0.6241496598639455,0.5935374149659864,0.5595238095238095,0.532312925170068,0.5051020408163265,0.4642857142857143,0.44387755102040816,0.4302721088435374,0.4200680272108844,0.413265306122449,0.4064625850340136,0.39965986394557823,0.39625850340136054,0.39285714285714285,0.38605442176870747,0.3826530612244898,0.3792517006802721,0.3792517006802721,0.3758503401360544,0.3758503401360544,0.3758503401360544,0.3758503401360544,0.3758503401360544,0.3758503401360544,0.3758503401360544,0.37244897959183676,0.37244897959183676,0.3656462585034014,0.3622448979591837,0.3554421768707483,0.3520408163265306,0.3486394557823129,0.3486394557823129,0.3486394557823129,0.3486394557823129,0.3486394557823129,0.3486394557823129,0.3486394557823129,0.3486394557823129,0.3486394557823129,0.3486394557823129,0.3486394557823129,0.3486394557823129,0.3486394557823129,0.3486394557823129,0.34523809523809523,0.34183673469387754,0.32482993197278914,0.304421768707483,0.27040816326530615,0.23639455782312926,0.21258503401360543,0.1921768707482993,0.1717687074829932,0.15476190476190477,0.141156462585034,0.13435374149659865,0.12755102040816327,0.12414965986394558,0.12414965986394558,0.12414965986394558,0.12414965986394558,0.12755102040816327,0.12755102040816327,0.12755102040816327,0.13095238095238096,0.13095238095238096,0.13435374149659865,0.1377551020408163,0.141156462585034,0.141156462585034,0.141156462585034,0.141156462585034,0.141156462585034,0.141156462585034,0.141156462585034,0.141156462585034,0.141156462585034,0.141156462585034,0.141156462585034,0.141156462585034,0.141156462585034,0.141156462585034,0.141156462585034,0.141156462585034,0.141156462585034,0.141156462585034,0.141156462585034,0.141156462585034,0.141156462585034,0.141156462585034,0.141156462585034,0.141156462585034,0.141156462585034,0.141156462585034,0.141156462585034,0.141156462585034,0.141156462585034,0.141156462585034,0.141156462585034,0.141156462585034,0.141156462585034,0.141156462585034,0.141156462585034,0.141156462585034,0.141156462585034,0.141156462585034,0.141156462585034,0.141156462585034,0.141156462585034,0.141156462585034,0.141156462585034,0.141156462585034,0.141156462585034,0.141156462585034,0.141156462585034,0.141156462585034,0.141156462585034,0.141156462585034,0.141156462585034,0.141156462585034,0.141156462585034,0.141156462585034,0.141156462585034,0.141156462585034,0.141156462585034,0.141156462585034,0.141156462585034,0.141156462585034,0.141156462585034,0.141156462585034,0.141156462585034,0.141156462585034,0.141156462585034,0.141156462585034,0.141156462585034,0.141156462585034,0.141156462585034,0.14795918367346939,0.15136054421768708,0.15816326530612246,0.1649659863945578,0.1683673469387755,0.17857142857142858,0.18537414965986396,0.20238095238095238,0.2261904761904762,0.2534013605442177,0.31462585034013607,0.3520408163265306,0.3656462585034014,0.413265306122449,0.44727891156462585,0.4744897959183674,0.49829931972789115,0.5221088435374149,0.5357142857142857,0.5561224489795918,0.5697278911564626,0.5833333333333334,0.5969387755102041,0.6003401360544217,0.6037414965986394,0.6071428571428571,0.6105442176870748,0.6173469387755102,0.6241496598639455,0.6309523809523809,0.641156462585034,0.6479591836734694,0.6547619047619048,0.6615646258503401,0.6649659863945578,0.6683673469387755,0.6751700680272109,0.6751700680272109,0.6785714285714286,0.6785714285714286,0.6785714285714286,0.6717687074829932,0.6615646258503401,0.6479591836734694,0.6343537414965986,0.6207482993197279,0.6139455782312925,0.6037414965986394,0.5969387755102041,0.5969387755102041,0.5935374149659864,0.5901360544217688,0.5867346938775511,0.5833333333333334,0.576530612244898,0.5697278911564626,0.5595238095238095,0.5493197278911565,0.532312925170068,0.5085034013605442,0.4846938775510204,0.45068027210884354,0.4268707482993197,0.4064625850340136,0.39285714285714285,0.3792517006802721,0.36904761904761907,0.3622448979591837,0.3554421768707483,0.3554421768707483,0.3554421768707483,0.3656462585034014,0.4030612244897959,0.4914965986394558,0.5663265306122449,0.6207482993197279,0.6887755102040817,0.7363945578231292,0.7636054421768708,0.79421768707483,0.8180272108843537,0.8350340136054422,0.8486394557823129,0.858843537414966,0.8656462585034014,0.8724489795918368,0.8826530612244898,0.8860544217687075,0.8894557823129252,0.8928571428571429,0.8962585034013606,0.8996598639455783,0.9064625850340136,0.9132653061224489,0.9200680272108843,0.9302721088435374,0.9370748299319728,0.9438775510204082,0.9540816326530612,0.9608843537414966,0.9710884353741497,0.9744897959183674,0.9778911564625851,0.9812925170068028,0.9812925170068028,0.9812925170068028,0.9812925170068028,0.9812925170068028,0.9812925170068028,0.9812925170068028,0.9812925170068028,0.9812925170068028,0.9812925170068028,0.9812925170068028,0.9812925170068028,0.9812925170068028,0.9812925170068028,0.9812925170068028,0.9812925170068028,0.9812925170068028,0.9812925170068028,0.9812925170068028,0.9812925170068028,0.9812925170068028,0.9812925170068028,0.9812925170068028,0.9812925170068028,0.9812925170068028,0.9812925170068028,0.9812925170068028,0.9812925170068028,0.9812925170068028,0.9812925170068028,0.9812925170068028,0.9812925170068028,0.9812925170068028,0.9812925170068028,0.9812925170068028,0.9812925170068028,0.9812925170068028,0.9812925170068028,0.9812925170068028,0.9812925170068028,0.9812925170068028,0.9812925170068028,0.9812925170068028,0.9812925170068028,0.9812925170068028,0.9812925170068028,0.9812925170068028,0.9812925170068028,0.9812925170068028,0.9812925170068028,0.9812925170068028,0.9812925170068028,0.9812925170068028,0.9812925170068028,0.9812925170068028,0.9812925170068028,0.9812925170068028,0.9812925170068028,0.9812925170068028,0.9812925170068028,0.9812925170068028,0.9812925170068028,0.9812925170068028,0.9812925170068028,0.9812925170068028,0.9812925170068028,0.9812925170068028,0.9812925170068028,0.9812925170068028,0.9812925170068028,0.9812925170068028,0.9812925170068028,0.9812925170068028,0.9812925170068028,0.9812925170068028,0.9812925170068028,0.9812925170068028,0.9812925170068028,0.9812925170068028,0.9812925170068028,0.9812925170068028,0.9812925170068028,0.9812925170068028,0.9812925170068028,0.9812925170068028,0.9812925170068028,0.9812925170068028,0.9812925170068028,0.9812925170068028,0.9812925170068028,0.9812925170068028,0.9812925170068028,0.9812925170068028,0.9812925170068028,0.9812925170068028,0.9812925170068028,0.9812925170068028,0.9812925170068028,0.9812925170068028,0.9812925170068028,0.9812925170068028,0.9812925170068028,0.9812925170068028,0.9812925170068028,0.9812925170068028,0.9812925170068028,0.9812925170068028,0.9812925170068028,0.9812925170068028,0.9812925170068028,0.9812925170068028,0.9812925170068028,0.9812925170068028,0.9812925170068028,0.9812925170068028,0.9812925170068028,0.9812925170068028,0.9812925170068028,0.9812925170068028,0.9812925170068028,0.9812925170068028,0.9812925170068028,0.9812925170068028,0.9812925170068028,0.9812925170068028,0.9812925170068028,0.9812925170068028,0.9812925170068028,0.9812925170068028,0.9812925170068028,0.9812925170068028,0.9812925170068028,0.9812925170068028,0.9812925170068028,0.9812925170068028,0.9812925170068028,0.9812925170068028,0.9812925170068028,0.9812925170068028,0.9812925170068028,0.9812925170068028,0.9812925170068028,0.9812925170068028,0.9812925170068028],"y":[-4.166666666666667,-4.166666666666667,-4.166666666666667,-4.166666666666667,-4.166666666666667,-4.166666666666667,-4.166666666666667,-4.166666666666667,-4.166666666666667,-4.166666666666667,-4.166666666666667,-4.166666666666667,-4.166666666666667,-4.166666666666667,-4.166666666666667,-4.166666666666667,-4.166666666666667,-4.166666666666667,-4.166666666666667,-4.166666666666667,-4.166666666666667,-4.166666666666667,-4.166666666666667,-4.166666666666667,-4.166666666666667,-4.166666666666667,-4.166666666666667,-4.166666666666667,-4.166666666666667,-4.166666666666667,-4.166666666666667,-4.166666666666667,-4.166666666666667,-4.166666666666667,-4.166666666666667,-4.166666666666667,-4.166666666666667,-4.166666666666667,-4.166666666666667,-4.166666666666667,-4.166666666666667,-4.166666666666667,-4.166666666666667,-4.166666666666667,-4.166666666666667,-4.166666666666667,-4.166666666666667,-4.166666666666667,-4.166666666666667,-4.166666666666667,-4.166666666666667,-4.166666666666667,-4.166666666666667,-4.166666666666667,-4.166666666666667,-4.166666666666667,-4.166666666666667,-4.166666666666667,-4.166666666666667,-4.166666666666667,-4.166666666666667,-4.166666666666667,-4.166666666666667,-4.166666666666667,-4.166666666666667,-4.166666666666667,-4.166666666666667,-4.166666666666667,-4.166666666666667,-4.166666666666667,-4.166666666666667,-4.166666666666667,-4.166666666666667,-4.166666666666667,-4.166666666666667,-4.166666666666667,-4.166666666666667,-4.166666666666667,-4.166666666666667,-4.166666666666667,-4.166666666666667,-4.166666666666667,-4.166666666666667,-4.166666666666667,-4.166666666666667,-4.166666666666667,-4.166666666666667,-4.166666666666667,-4.166666666666667,-4.166666666666667,-4.166666666666667,-4.166666666666667,-4.166666666666667,-4.166666666666667,-4.166666666666667,-4.166666666666667,-4.166666666666667,-4.166666666666667,-4.166666666666667,-4.166666666666667,-4.166666666666667,-4.166666666666667,-4.166666666666667,-4.166666666666667,-4.166666666666667,-4.166666666666667,-4.166666666666667,-4.166666666666667,-4.166666666666667,-4.166666666666667,-4.166666666666667,-4.166666666666667,-4.166666666666667,-4.166666666666667,-4.166666666666667,-4.166666666666667,-4.166666666666667,-4.166666666666667,-4.166666666666667,-4.166666666666667,-4.166666666666667,-4.166666666666667,-4.166666666666667,-4.166666666666667,-4.166666666666667,-4.166666666666667,-4.166666666666667,-4.166666666666667,-4.166666666666667,-4.166666666666667,-4.166666666666667,-4.166666666666667,-4.166666666666667,-4.166666666666667,-4.166666666666667,-4.166666666666667,-4.166666666666667,-4.166666666666667,-4.166666666666667,-4.166666666666667,-4.166666666666667,-4.166666666666667,-4.166666666666667,-4.166666666666667,-4.166666666666667,-4.166666666666667,-4.166666666666667,-4.166666666666667,-4.166666666666667,-4.166666666666667,-4.166666666666667,-4.166666666666667,-4.166666666666667,-4.166666666666667,-4.166666666666667,-4.166666666666667,-4.166666666666667,-4.166666666666667,-4.166666666666667,-4.166666666666667,-4.166666666666667,-4.166666666666667,-4.166666666666667,-4.166666666666667,-4.166666666666667,-4.166666666666667,-4.166666666666667,-4.166666666666667,-4.166666666666667,-4.166666666666667,-4.166666666666667,-4.166666666666667,-4.166666666666667,-4.166666666666667,-4.166666666666667,-4.166666666666667,-4.166666666666667,-4.166666666666667,-4.166666666666667,-4.166666666666667,-4.166666666666667,-4.166666666666667,-4.166666666666667,-4.166666666666667,-4.166666666666667,-4.166666666666667,-4.166666666666667,-4.166666666666667,-4.166666666666667,-4.166666666666667,-4.166666666666667,-4.166666666666667,-4.166666666666667,-4.166666666666667,-4.166666666666667,-4.166666666666667,-4.166666666666667,-4.166666666666667,-4.166666666666667,-4.166666666666667,-4.166666666666667,-4.166666666666667,-4.166666666666667,-4.166666666666667,-4.166666666666667,-4.166666666666667,-4.166666666666667,-4.166666666666667,-4.166666666666667,-4.166666666666667,-4.166666666666667,-4.166666666666667,-4.166666666666667,-4.166666666666667,-4.166666666666667,-4.166666666666667,-4.166666666666667,-4.166666666666667,-4.166666666666667,-4.166666666666667,-4.166666666666667,-4.166666666666667,-4.166666666666667,-4.166666666666667,-4.166666666666667,-4.166666666666667,-4.166666666666667,-4.166666666666667,-4.166666666666667,-4.166666666666667,-4.166666666666667,-4.166666666666667,-4.166666666666667,-4.166666666666667,-4.166666666666667,-4.166666666666667,-4.166666666666667,-4.166666666666667,-4.166666666666667,-4.166666666666667,-4.166666666666667,-4.166666666666667,-4.166666666666667,-4.166666666666667,-4.166666666666667,-4.166666666666667,-4.166666666666667,-4.166666666666667,-4.166666666666667,-4.166666666666667,-4.166666666666667,-4.166666666666667,-4.166666666666667,-4.166666666666667,-4.166666666666667,-4.166666666666667,-4.166666666666667,-4.166666666666667,-4.166666666666667,-4.166666666666667,-4.166666666666667,-4.166666666666667,-4.166666666666667,-4.166666666666667,-4.166666666666667,0.5095238095238095,0.5095238095238095,0.5095238095238095,0.5095238095238095,0.5095238095238095,0.5095238095238095,0.5095238095238095,0.5,0.49047619047619045,0.48095238095238096,0.4714285714285714,0.46190476190476193,0.4523809523809524,0.4523809523809524,0.44285714285714284,0.44285714285714284,0.44285714285714284,0.44285714285714284,0.44285714285714284,0.44285714285714284,0.44285714285714284,0.44285714285714284,0.44285714285714284,0.44285714285714284,0.44285714285714284,0.44285714285714284,0.44285714285714284,0.4238095238095238,0.40476190476190477,0.38571428571428573,0.30952380952380953,0.22380952380952382,0.1380952380952381,0.03333333333333333,0.004761904761904762,-0.04285714285714286,-0.06190476190476191,-0.07142857142857142,-0.07142857142857142,-0.07142857142857142,-0.08095238095238096,-0.08095238095238096,-0.08095238095238096,-0.08095238095238096,-0.08095238095238096,-0.08095238095238096,-0.08095238095238096,-0.08095238095238096,-0.08095238095238096,-0.07142857142857142,-0.06190476190476191,-0.05238095238095238,-0.04285714285714286,-0.03333333333333333,-0.03333333333333333,-0.03333333333333333,-0.023809523809523808,-0.023809523809523808,-0.023809523809523808,-0.023809523809523808,-0.023809523809523808,-0.023809523809523808,-0.023809523809523808,-0.023809523809523808,-0.023809523809523808,-0.023809523809523808,-0.023809523809523808,-0.023809523809523808,-0.023809523809523808,-0.023809523809523808,-0.023809523809523808,-0.023809523809523808,-0.023809523809523808,-0.023809523809523808,-0.023809523809523808,-0.023809523809523808,-0.023809523809523808,-0.023809523809523808,-0.023809523809523808,-0.023809523809523808,-0.023809523809523808,-0.023809523809523808,-0.023809523809523808,-0.023809523809523808,-0.023809523809523808,-0.023809523809523808,-0.023809523809523808,-0.023809523809523808,-0.023809523809523808,-0.023809523809523808,-0.023809523809523808,-0.023809523809523808,-0.023809523809523808,-0.023809523809523808,-0.023809523809523808,-0.023809523809523808,-0.023809523809523808,-0.023809523809523808,-0.023809523809523808,-0.023809523809523808,-0.023809523809523808,-0.023809523809523808,-0.023809523809523808,-0.023809523809523808,-0.023809523809523808,-0.023809523809523808,-0.023809523809523808,-0.023809523809523808,-0.023809523809523808,-0.023809523809523808,-0.023809523809523808,-0.023809523809523808,-0.023809523809523808,-0.023809523809523808,-0.023809523809523808,-0.023809523809523808,-0.023809523809523808,-0.023809523809523808,-0.023809523809523808,-0.023809523809523808,-0.023809523809523808,-0.023809523809523808,-0.023809523809523808,-0.023809523809523808,-0.023809523809523808,-0.023809523809523808,-0.023809523809523808,-0.023809523809523808,-0.023809523809523808,-0.023809523809523808,-0.023809523809523808,-0.023809523809523808,-0.023809523809523808,-0.023809523809523808,-0.023809523809523808,-0.023809523809523808,-0.023809523809523808,-0.023809523809523808,-0.023809523809523808,-0.023809523809523808,-0.023809523809523808,-0.023809523809523808,-0.023809523809523808,-0.023809523809523808,-0.023809523809523808,-0.023809523809523808,-0.023809523809523808,-0.023809523809523808,-0.023809523809523808,-0.023809523809523808,-0.023809523809523808,-0.023809523809523808,-0.023809523809523808,-0.023809523809523808,-0.023809523809523808,-0.023809523809523808,-0.023809523809523808,-0.023809523809523808,-0.023809523809523808,-0.023809523809523808,-0.023809523809523808,-0.023809523809523808,-0.023809523809523808,-0.023809523809523808,-0.023809523809523808,-0.023809523809523808,-0.023809523809523808,-0.023809523809523808,-0.023809523809523808,-0.023809523809523808,-0.023809523809523808,-0.023809523809523808,-0.023809523809523808,-0.023809523809523808,-0.023809523809523808,-0.023809523809523808,-0.023809523809523808,-0.023809523809523808,-0.023809523809523808,-0.023809523809523808,-0.023809523809523808,-0.023809523809523808,-0.023809523809523808,-0.023809523809523808,-0.023809523809523808,-0.023809523809523808,-0.023809523809523808,-0.023809523809523808,-0.023809523809523808,-0.023809523809523808,-0.023809523809523808,-0.023809523809523808,-0.023809523809523808,-0.023809523809523808,-0.023809523809523808,-0.023809523809523808,-0.023809523809523808,-0.023809523809523808,-0.023809523809523808,-0.023809523809523808,-0.023809523809523808,-0.023809523809523808,-0.023809523809523808,-0.023809523809523808,-0.023809523809523808,-0.023809523809523808,-0.023809523809523808,-0.023809523809523808,-0.023809523809523808,-0.023809523809523808,-0.023809523809523808,-0.023809523809523808,-0.023809523809523808,-0.023809523809523808,-0.023809523809523808,-0.023809523809523808,-0.023809523809523808,-0.023809523809523808,-0.023809523809523808,-0.023809523809523808,-0.023809523809523808,-0.023809523809523808,-0.023809523809523808,-0.023809523809523808,-0.023809523809523808,-0.023809523809523808,-0.023809523809523808,-0.023809523809523808,-0.023809523809523808,-0.023809523809523808,-0.023809523809523808,-0.023809523809523808,-0.023809523809523808,-0.023809523809523808,-0.023809523809523808,-0.023809523809523808,-0.023809523809523808,-0.004761904761904762,0.004761904761904762,0.014285714285714285,0.023809523809523808,0.04285714285714286,0.07142857142857142,0.09047619047619047,0.10952380952380952,0.11904761904761904,0.11904761904761904,0.11904761904761904,0.11904761904761904,0.11904761904761904,0.11904761904761904,0.11904761904761904,0.10952380952380952,0.1,0.1,0.09047619047619047,0.08095238095238096,0.07142857142857142,0.06190476190476191,0.05238095238095238,0.04285714285714286,0.023809523809523808,0.014285714285714285,-0.004761904761904762,-0.014285714285714285,-0.023809523809523808,-0.03333333333333333,-0.03333333333333333,-0.03333333333333333,-0.03333333333333333,-0.03333333333333333,-0.03333333333333333,-0.03333333333333333,-0.03333333333333333,-0.03333333333333333,-0.03333333333333333,-0.03333333333333333,-0.03333333333333333,-0.03333333333333333,-0.03333333333333333,-0.03333333333333333,-0.03333333333333333,-0.03333333333333333,-0.03333333333333333,-0.03333333333333333,-0.03333333333333333,-0.03333333333333333,-0.03333333333333333,-0.03333333333333333,-0.03333333333333333,-0.03333333333333333,-0.03333333333333333,-0.03333333333333333,-0.03333333333333333,-0.03333333333333333,-0.03333333333333333,-0.03333333333333333,-0.03333333333333333,-0.03333333333333333,-0.03333333333333333,-0.03333333333333333,-0.03333333333333333,-0.03333333333333333,-0.03333333333333333,-0.03333333333333333,-0.03333333333333333,-0.03333333333333333,-0.03333333333333333,-0.03333333333333333,-0.03333333333333333,-0.03333333333333333,-0.03333333333333333,-0.03333333333333333,-0.03333333333333333,-0.03333333333333333,-0.03333333333333333,-0.03333333333333333,-0.03333333333333333,-0.03333333333333333,-0.03333333333333333,-0.03333333333333333,-0.03333333333333333,-0.03333333333333333,-0.03333333333333333,-0.03333333333333333,-0.03333333333333333,-0.03333333333333333,-0.03333333333333333,-0.03333333333333333,-0.03333333333333333,-0.03333333333333333,-0.03333333333333333,-0.03333333333333333,-0.03333333333333333,-0.03333333333333333,-0.03333333333333333,-0.03333333333333333,-0.03333333333333333,-0.03333333333333333,-0.03333333333333333,-0.03333333333333333,-0.03333333333333333,-0.03333333333333333,-0.03333333333333333,-0.03333333333333333,-0.03333333333333333,-0.03333333333333333,-0.03333333333333333,-0.03333333333333333,-0.03333333333333333,-0.03333333333333333,-0.03333333333333333,-0.03333333333333333,-0.03333333333333333,-0.03333333333333333,-0.03333333333333333,-0.03333333333333333,-0.03333333333333333,-0.03333333333333333,-0.03333333333333333,-0.03333333333333333,-0.03333333333333333,-0.03333333333333333,-0.03333333333333333,-0.03333333333333333,-0.03333333333333333,-0.03333333333333333,-0.03333333333333333,-0.03333333333333333,-0.03333333333333333,-0.03333333333333333,-0.03333333333333333,-0.03333333333333333,-0.03333333333333333,-0.03333333333333333,-0.03333333333333333,-0.03333333333333333,-0.03333333333333333,-0.03333333333333333,-0.03333333333333333,-0.03333333333333333,-0.03333333333333333,-0.03333333333333333,-0.03333333333333333,-0.03333333333333333,-0.03333333333333333,-0.03333333333333333,-0.03333333333333333,-0.03333333333333333,-0.03333333333333333,-0.03333333333333333,-0.03333333333333333,-0.03333333333333333,-0.03333333333333333,-0.03333333333333333,-0.03333333333333333,-0.03333333333333333,-0.03333333333333333,-0.03333333333333333,-0.03333333333333333,-0.03333333333333333,-0.03333333333333333,-0.03333333333333333,-0.03333333333333333,-0.03333333333333333,-0.03333333333333333,-0.03333333333333333,-0.03333333333333333,-0.03333333333333333,-0.03333333333333333,-0.03333333333333333,-0.03333333333333333,-0.03333333333333333,-0.03333333333333333,-0.03333333333333333,-0.03333333333333333,-0.03333333333333333,-0.03333333333333333,-0.03333333333333333,-0.03333333333333333,-0.03333333333333333,-0.03333333333333333,-0.03333333333333333,-0.03333333333333333,-0.03333333333333333,-0.03333333333333333,-0.03333333333333333,-0.03333333333333333,-0.03333333333333333,-0.03333333333333333,-0.03333333333333333,-0.03333333333333333,-0.03333333333333333,-0.03333333333333333,-0.03333333333333333,-0.03333333333333333,-0.03333333333333333,-0.03333333333333333,-0.03333333333333333,-0.03333333333333333,-0.03333333333333333,-0.03333333333333333,-0.03333333333333333,-0.03333333333333333,-0.03333333333333333,-0.03333333333333333,-0.03333333333333333,-0.03333333333333333,-0.03333333333333333,-0.03333333333333333,-0.03333333333333333,-0.03333333333333333,-0.03333333333333333,-0.03333333333333333,-0.03333333333333333,-0.03333333333333333,-0.03333333333333333,-0.03333333333333333,-0.03333333333333333,-0.03333333333333333,-0.03333333333333333,-0.03333333333333333,-0.03333333333333333,-0.03333333333333333,-0.03333333333333333,-0.03333333333333333,-0.03333333333333333,-0.03333333333333333,-0.03333333333333333,-0.03333333333333333,-0.03333333333333333,-0.03333333333333333,-0.03333333333333333,-0.03333333333333333,-0.03333333333333333,-0.03333333333333333,-0.03333333333333333,-0.03333333333333333,-0.03333333333333333,-0.03333333333333333,-0.04285714285714286,-0.05238095238095238,-0.05238095238095238,-0.03333333333333333,0.004761904761904762,0.03333333333333333,0.06190476190476191,0.08095238095238096,0.09047619047619047,0.09047619047619047,0.09047619047619047,0.09047619047619047,0.09047619047619047,0.09047619047619047,0.09047619047619047,0.09047619047619047,0.09047619047619047,0.09047619047619047,0.09047619047619047,0.09047619047619047,0.09047619047619047,0.09047619047619047,0.09047619047619047,0.10952380952380952,0.16666666666666666,0.2904761904761905,0.40476190476190477,0.6238095238095238,0.7,0.7666666666666667,0.7666666666666667,0.7666666666666667,0.7666666666666667,0.7666666666666667,0.7666666666666667,0.7666666666666667,0.7666666666666667,0.7666666666666667,0.7666666666666667,0.7666666666666667,0.7666666666666667,0.7666666666666667,0.7666666666666667,0.7666666666666667,0.7666666666666667,0.7666666666666667,0.7285714285714285,0.6714285714285714,0.6333333333333333,0.6142857142857143,0.6142857142857143,0.6142857142857143,0.6142857142857143,0.6142857142857143,0.6238095238095238,0.6238095238095238,0.6333333333333333,0.6523809523809524,0.6714285714285714,0.6904761904761905,0.7095238095238096,0.719047619047619,0.719047619047619,0.719047619047619,0.719047619047619,0.719047619047619,0.719047619047619,0.719047619047619,0.7095238095238096,0.7095238095238096,0.7,0.6904761904761905,0.6714285714285714,0.6523809523809524,0.6333333333333333,0.6142857142857143,0.6047619047619047,0.6047619047619047,0.5857142857142857,0.5857142857142857,0.5857142857142857,0.5761904761904761,0.5666666666666667,0.5666666666666667,0.5666666666666667,0.5571428571428572,0.5571428571428572,0.5571428571428572,0.5571428571428572,0.5571428571428572,0.5571428571428572,0.5571428571428572,0.5571428571428572,0.5571428571428572,0.5476190476190477,0.5380952380952381,0.5285714285714286,0.5095238095238095,0.5095238095238095,0.5,0.5,0.49047619047619045,0.49047619047619045,0.49047619047619045,0.49047619047619045,0.49047619047619045,0.49047619047619045,0.48095238095238096,0.48095238095238096,0.48095238095238096,0.4714285714285714,0.4714285714285714,0.46190476190476193,0.46190476190476193,0.46190476190476193,0.46190476190476193,0.46190476190476193,0.46190476190476193,0.46190476190476193,0.46190476190476193,0.46190476190476193,0.46190476190476193,0.46190476190476193,0.46190476190476193,0.46190476190476193,0.46190476190476193,0.46190476190476193,0.46190476190476193,0.46190476190476193,0.46190476190476193,0.46190476190476193,0.46190476190476193,0.46190476190476193,0.46190476190476193,0.46190476190476193,0.46190476190476193,0.46190476190476193,0.46190476190476193,0.46190476190476193,0.46190476190476193,0.46190476190476193,0.46190476190476193,0.46190476190476193,0.46190476190476193,0.46190476190476193,0.46190476190476193,0.46190476190476193,0.46190476190476193,0.46190476190476193,0.46190476190476193,0.46190476190476193,0.46190476190476193,0.46190476190476193,0.46190476190476193,0.46190476190476193,0.46190476190476193,0.46190476190476193,0.46190476190476193,0.46190476190476193,0.46190476190476193,0.46190476190476193,0.46190476190476193,0.46190476190476193,0.46190476190476193,0.46190476190476193,0.46190476190476193,0.46190476190476193,0.46190476190476193,0.46190476190476193,0.46190476190476193,0.46190476190476193,0.46190476190476193,0.46190476190476193,0.46190476190476193,0.46190476190476193,0.46190476190476193,0.46190476190476193,0.46190476190476193,0.46190476190476193,0.46190476190476193,0.46190476190476193,0.46190476190476193,0.46190476190476193,0.46190476190476193,0.46190476190476193,0.46190476190476193,0.46190476190476193,0.46190476190476193,0.46190476190476193,0.4714285714285714,0.5095238095238095,0.5571428571428572,0.6047619047619047,0.6523809523809524,0.7,0.7476190476190476,0.7857142857142857,0.8333333333333334,0.8809523809523809,0.9380952380952381,0.9666666666666667,0.9857142857142858,1.0047619047619047,1.0047619047619047,1.0047619047619047,0.9761904761904762,0.9285714285714286,0.8714285714285714,0.8047619047619048,0.7380952380952381,0.6714285714285714,0.5666666666666667,0.5,0.46190476190476193,0.40476190476190477,0.36666666666666664,0.32857142857142857,0.3,0.2904761904761905,0.28095238095238095,0.2714285714285714,0.2619047619047619,0.2523809523809524,0.24285714285714285,0.24285714285714285,0.23333333333333334,0.23333333333333334,0.23333333333333334,0.23333333333333334,0.23333333333333334,0.22380952380952382,0.22380952380952382,0.21428571428571427,0.21428571428571427,0.20476190476190476,0.19523809523809524,0.19523809523809524,0.19523809523809524,0.19523809523809524,0.19523809523809524,0.19523809523809524,0.19523809523809524,0.19523809523809524,0.19523809523809524,0.19523809523809524,0.19523809523809524,0.19523809523809524,0.19523809523809524,0.19523809523809524,0.19523809523809524,0.19523809523809524,0.19523809523809524,0.19523809523809524,0.18571428571428572,0.16666666666666666,0.12857142857142856,0.09047619047619047,0.06190476190476191,0.04285714285714286,0.014285714285714285,0.004761904761904762,-0.004761904761904762,-0.004761904761904762,-0.004761904761904762,-0.014285714285714285,-0.014285714285714285,-0.023809523809523808,-0.023809523809523808,-0.023809523809523808,-0.03333333333333333,-0.03333333333333333,-0.03333333333333333,-0.03333333333333333,-0.03333333333333333,-0.03333333333333333,-0.03333333333333333,-0.03333333333333333,-0.03333333333333333,-0.03333333333333333,-0.03333333333333333,-0.03333333333333333,-0.03333333333333333,-0.03333333333333333,-0.03333333333333333,-0.03333333333333333,-0.03333333333333333,-0.03333333333333333,-0.03333333333333333,-0.03333333333333333,-0.03333333333333333,-0.03333333333333333,-0.03333333333333333,-0.03333333333333333,-0.03333333333333333,-0.03333333333333333,-0.03333333333333333,-0.03333333333333333,-0.03333333333333333,-0.03333333333333333,-0.03333333333333333,-0.03333333333333333,-0.03333333333333333,-0.03333333333333333,-0.03333333333333333,-0.03333333333333333,-0.03333333333333333,-0.03333333333333333,-0.03333333333333333,-0.03333333333333333,-0.03333333333333333,-0.03333333333333333,-0.03333333333333333,-0.03333333333333333,-0.03333333333333333,-0.03333333333333333,-0.03333333333333333,-0.03333333333333333,-0.03333333333333333,-0.03333333333333333,-0.03333333333333333,-0.03333333333333333,-0.03333333333333333,-0.03333333333333333,-0.03333333333333333,-0.03333333333333333,-0.03333333333333333,-0.03333333333333333,-0.03333333333333333,-0.03333333333333333,-0.03333333333333333,-0.03333333333333333,-0.03333333333333333,-0.03333333333333333,-0.03333333333333333,-0.03333333333333333,-0.03333333333333333,-0.03333333333333333,-0.03333333333333333,-0.03333333333333333,-0.03333333333333333,-0.03333333333333333,-0.03333333333333333,-0.03333333333333333,-0.023809523809523808,0.03333333333333333,0.12857142857142856,0.23333333333333334,0.3476190476190476,0.4523809523809524,0.5476190476190477,0.6238095238095238,0.680952380952381,0.7380952380952381,0.7857142857142857,0.8523809523809524,0.8714285714285714,0.8714285714285714,0.8809523809523809,0.8809523809523809,0.861904761904762,0.8523809523809524,0.8333333333333334,0.8333333333333334,0.8238095238095238,0.8142857142857143,0.8142857142857143,0.7952380952380952,0.7952380952380952,0.7952380952380952,0.7952380952380952,0.7952380952380952,0.7952380952380952,0.8047619047619048,0.8142857142857143,0.8238095238095238,0.8333333333333334,0.8428571428571429,0.8428571428571429,0.8523809523809524,0.8714285714285714,0.8809523809523809,0.8904761904761904,0.9,0.9,0.9095238095238095,0.9095238095238095,0.919047619047619,0.9285714285714286,0.9285714285714286,0.9285714285714286,0.9285714285714286,0.9285714285714286,0.9285714285714286,0.9285714285714286,0.9380952380952381,0.9380952380952381,0.9380952380952381,0.9476190476190476,0.9476190476190476,0.9476190476190476,0.9571428571428572,0.9571428571428572,0.9571428571428572,0.9571428571428572,0.9666666666666667,0.9666666666666667,0.9761904761904762,0.9761904761904762,0.9761904761904762,0.9761904761904762,0.9761904761904762,0.9761904761904762,0.9761904761904762,0.9761904761904762,0.9761904761904762,0.9761904761904762,0.9571428571428572,0.919047619047619,0.9,0.8809523809523809,0.8809523809523809,0.8809523809523809,0.8809523809523809,0.8809523809523809,0.8904761904761904,0.9,0.9,0.9,0.9,0.9,0.9,0.9,0.9,0.9095238095238095,0.9095238095238095,0.9095238095238095,0.9095238095238095,0.9095238095238095,0.919047619047619,0.919047619047619,0.919047619047619,0.919047619047619,0.919047619047619,0.919047619047619,0.919047619047619,0.919047619047619,0.919047619047619,0.919047619047619,0.919047619047619,0.919047619047619,0.919047619047619,0.919047619047619,0.919047619047619,0.919047619047619,0.919047619047619,0.919047619047619,0.919047619047619,0.919047619047619,0.919047619047619,0.919047619047619,0.919047619047619,0.919047619047619,0.919047619047619,0.919047619047619,0.919047619047619,0.919047619047619,0.919047619047619,0.919047619047619,0.919047619047619,0.919047619047619,0.919047619047619,0.919047619047619,0.919047619047619,0.919047619047619,0.919047619047619,0.919047619047619,0.919047619047619,0.919047619047619,0.919047619047619,0.919047619047619,0.919047619047619,0.919047619047619,0.919047619047619,0.919047619047619,0.919047619047619,0.919047619047619,0.919047619047619,0.919047619047619,0.919047619047619,0.919047619047619,0.919047619047619,0.919047619047619,0.919047619047619,0.919047619047619,0.919047619047619,0.919047619047619,0.919047619047619,0.919047619047619,0.919047619047619,0.919047619047619,0.919047619047619,0.919047619047619,0.919047619047619,0.919047619047619,0.919047619047619,0.919047619047619,0.919047619047619,0.919047619047619,0.919047619047619,0.919047619047619,0.919047619047619,0.919047619047619,0.919047619047619,0.919047619047619,0.919047619047619,0.919047619047619,0.919047619047619,0.919047619047619,0.919047619047619,0.919047619047619,0.919047619047619,0.919047619047619,0.919047619047619,0.919047619047619,0.919047619047619,0.919047619047619,0.919047619047619,0.919047619047619,0.919047619047619,0.919047619047619,0.919047619047619,0.919047619047619,0.919047619047619,0.919047619047619,0.919047619047619,0.919047619047619,0.919047619047619,0.919047619047619,0.919047619047619,0.919047619047619,0.919047619047619,0.919047619047619,0.919047619047619,0.919047619047619,0.919047619047619,0.919047619047619,0.919047619047619,0.919047619047619,0.919047619047619,0.919047619047619,0.919047619047619,0.919047619047619,0.919047619047619,0.919047619047619,0.919047619047619,0.919047619047619,0.919047619047619,0.919047619047619,0.919047619047619,0.919047619047619,0.919047619047619,0.919047619047619,0.919047619047619,0.919047619047619,0.919047619047619,0.919047619047619,0.919047619047619,0.919047619047619,0.919047619047619,0.919047619047619,0.919047619047619,0.919047619047619,0.919047619047619,0.919047619047619,0.919047619047619,0.919047619047619,0.919047619047619,0.919047619047619,0.919047619047619,0.919047619047619,0.919047619047619,0.919047619047619,0.919047619047619,0.919047619047619,0.919047619047619,0.919047619047619,0.919047619047619,0.919047619047619,0.919047619047619,0.919047619047619,0.919047619047619]},"final_keyboard_state":["E","A","R","B","Z"],"num_clicks":5,"points":15,"cheat":false,"trial_type":"Hangman","trial_index":5,"time_elapsed":54088,"internal_node_id":"0.0-4.0","protocol_sum":"","subject_identifier":141,"subject_sum":[255,90,26,224,18,175,165,212,200,137,197,10,212,39,170,245,69,211,26,79,172,4,255,193,196,208,61,64,59,164,37,10],"subject_pair":70,"STUDY_ID":"669a702db1122fc5150a13ce","PROLIFIC_PID":"650b1963cf394af06984d0b9","SESSION_ID":"669e92ee8ea57c64dc1d5f04","practice_instructions":1,"leaderboard_instructions":0,"bonus":0,"reveal_word":true,"self_rating":"3","confidence":"34"},{"view_history":"[{\"page_index\":0,\"viewing_time\":4648},{\"page_index\":1,\"viewing_time\":12247}]","rt":16895,"trial_type":"instructions","trial_index":6,"time_elapsed":70984,"internal_node_id":"0.0-5.0","protocol_sum":"","subject_identifier":141,"subject_sum":[255,90,26,224,18,175,165,212,200,137,197,10,212,39,170,245,69,211,26,79,172,4,255,193,196,208,61,64,59,164,37,10],"subject_pair":70,"STUDY_ID":"669a702db1122fc5150a13ce","PROLIFIC_PID":"650b1963cf394af06984d0b9","SESSION_ID":"669e92ee8ea57c64dc1d5f04","practice_instructions":1,"leaderboard_instructions":0,"bonus":0,"reveal_word":true,"self_rating":"3","confidence":"34"},{"rt":5663.999999999985,"responses":"{\"Q0\":\"...from <b>a previous session</b> that is part of the upcoming tournament.\"}","question_order":"[0]","trial_type":"survey-multi-choice","trial_index":7,"time_elapsed":76649,"internal_node_id":"0.0-6.0","protocol_sum":"","subject_identifier":141,"subject_sum":[255,90,26,224,18,175,165,212,200,137,197,10,212,39,170,245,69,211,26,79,172,4,255,193,196,208,61,64,59,164,37,10],"subject_pair":70,"correct":false,"test_part":"multichoice_leaderboard","STUDY_ID":"669a702db1122fc5150a13ce","PROLIFIC_PID":"650b1963cf394af06984d0b9","SESSION_ID":"669e92ee8ea57c64dc1d5f04","practice_instructions":1,"leaderboard_instructions":0,"bonus":0,"reveal_word":true,"self_rating":"3","confidence":"34"},{"view_history":"[{\"page_index\":0,\"viewing_time\":2164}]","rt":2164,"trial_type":"instructions","trial_index":8,"time_elapsed":78814,"internal_node_id":"0.0-7.0-0.0","protocol_sum":"","subject_identifier":141,"subject_sum":[255,90,26,224,18,175,165,212,200,137,197,10,212,39,170,245,69,211,26,79,172,4,255,193,196,208,61,64,59,164,37,10],"subject_pair":70,"STUDY_ID":"669a702db1122fc5150a13ce","PROLIFIC_PID":"650b1963cf394af06984d0b9","SESSION_ID":"669e92ee8ea57c64dc1d5f04","practice_instructions":1,"leaderboard_instructions":0,"bonus":0,"reveal_word":true,"self_rating":"3","confidence":"34"},{"rt":9367,"responses":"{\"Q0\":\"...from <b>a previous session</b> that is not part of the upcoming tournament.\"}","question_order":"[0]","trial_type":"survey-multi-choice","trial_index":9,"time_elapsed":88182,"internal_node_id":"0.0-7.0-1.0","protocol_sum":"","subject_identifier":141,"subject_sum":[255,90,26,224,18,175,165,212,200,137,197,10,212,39,170,245,69,211,26,79,172,4,255,193,196,208,61,64,59,164,37,10],"subject_pair":70,"correct":true,"test_part":"multichoice_leaderboard","STUDY_ID":"669a702db1122fc5150a13ce","PROLIFIC_PID":"650b1963cf394af06984d0b9","SESSION_ID":"669e92ee8ea57c64dc1d5f04","practice_instructions":1,"leaderboard_instructions":0,"bonus":0,"reveal_word":true,"self_rating":"3","confidence":"34"},{"view_history":"[{\"page_index\":0,\"viewing_time\":12419}]","rt":12419,"trial_type":"instructions","trial_index":10,"time_elapsed":100602,"internal_node_id":"0.0-8.0","protocol_sum":"","subject_identifier":141,"subject_sum":[255,90,26,224,18,175,165,212,200,137,197,10,212,39,170,245,69,211,26,79,172,4,255,193,196,208,61,64,59,164,37,10],"subject_pair":70,"STUDY_ID":"669a702db1122fc5150a13ce","PROLIFIC_PID":"650b1963cf394af06984d0b9","SESSION_ID":"669e92ee8ea57c64dc1d5f04","practice_instructions":1,"leaderboard_instructions":0,"bonus":0,"reveal_word":true,"self_rating":"3","confidence":"34"},{"rt":11988,"responses":"{\"Q0\":\"...players' leaderboard position (in terms of <b>points</b>) in an <b>upcoming tournament.</b>\"}","question_order":"[0]","trial_type":"survey-multi-choice","trial_index":11,"time_elapsed":112591,"internal_node_id":"0.0-9.0","protocol_sum":"","subject_identifier":141,"subject_sum":[255,90,26,224,18,175,165,212,200,137,197,10,212,39,170,245,69,211,26,79,172,4,255,193,196,208,61,64,59,164,37,10],"subject_pair":70,"correct":true,"test_part":"multichoice_tournament","STUDY_ID":"669a702db1122fc5150a13ce","PROLIFIC_PID":"650b1963cf394af06984d0b9","SESSION_ID":"669e92ee8ea57c64dc1d5f04","practice_instructions":1,"leaderboard_instructions":0,"bonus":0,"reveal_word":true,"self_rating":"3","confidence":"34"},{"view_history":"[{\"page_index\":0,\"viewing_time\":6697.000000000015}]","rt":6697.000000000015,"trial_type":"instructions","trial_index":12,"time_elapsed":119289,"internal_node_id":"0.0-11.0","protocol_sum":"","subject_identifier":141,"subject_sum":[255,90,26,224,18,175,165,212,200,137,197,10,212,39,170,245,69,211,26,79,172,4,255,193,196,208,61,64,59,164,37,10],"subject_pair":70,"STUDY_ID":"669a702db1122fc5150a13ce","PROLIFIC_PID":"650b1963cf394af06984d0b9","SESSION_ID":"669e92ee8ea57c64dc1d5f04","practice_instructions":1,"leaderboard_instructions":0,"bonus":0,"reveal_word":true,"self_rating":"3","confidence":"34"},{"view_history":"[{\"page_index\":0,\"viewing_time\":12283}]","rt":12283,"trial_type":"instructions","trial_index":13,"time_elapsed":131573,"internal_node_id":"0.0-12.0-0.0","protocol_sum":"","subject_identifier":141,"subject_sum":[255,90,26,224,18,175,165,212,200,137,197,10,212,39,170,245,69,211,26,79,172,4,255,193,196,208,61,64,59,164,37,10],"subject_pair":70,"STUDY_ID":"669a702db1122fc5150a13ce","PROLIFIC_PID":"650b1963cf394af06984d0b9","SESSION_ID":"669e92ee8ea57c64dc1d5f04","practice_instructions":1,"leaderboard_instructions":0,"bonus":0,"reveal_word":true,"self_rating":"3","confidence":"34"},{"rt":7258,"response":"THUMB","responses":["THUMB"],"trial_type":"type-this","trial_index":14,"time_elapsed":139341,"internal_node_id":"0.0-12.0-1.0","protocol_sum":"","subject_identifier":141,"subject_sum":[255,90,26,224,18,175,165,212,200,137,197,10,212,39,170,245,69,211,26,79,172,4,255,193,196,208,61,64,59,164,37,10],"subject_pair":70,"STUDY_ID":"669a702db1122fc5150a13ce","PROLIFIC_PID":"650b1963cf394af06984d0b9","SESSION_ID":"669e92ee8ea57c64dc1d5f04","practice_instructions":1,"leaderboard_instructions":0,"bonus":0,"reveal_word":true,"self_rating":"3","confidence":"34"},{"word":"THUMB","click_log":{"letter":["","A","E","I","O","U","T","H","M","B"],"t":[0,10698.99999999997,13631.99999999997,16298.99999999997,18431.99999999997,20581.99999999997,30547.99999999997,32697.99999999997,34649,36415.99999999997],"hit":[null,0,0,0,0,1,1,1,1,1],"asked":["","A","AE","AEI","AEIO","AEIOU","AEIOUT","AEIOUTH","AEIOUTHM","AEIOUTHMB"],"word_state":["_____","_____","_____","_____","_____","__U__","T_U__","THU__","THUM_","THUMB"]},"hover_log":{"letter":["?","?","?","?","?","?","?","?","?","?","?","?","?","?","?","?","?","?","?","?","?","?","?","?","?","?","?","?","?","?","?","?","?","?","?","?","?","?","?","?","?","?","?","?","?","?","?","?","?","?","?","?","?","?","?","?","?","?","?","?","?","?","?","?","?","?","?","?","?","?","?","?","?","?","?","?","?","?","?","?","?","?","?","?","?","?","?","?","?","?","?","?","?","?","?","?","?","?","?","?","?","?","?","?","?","?","?","?","?","?","?","?","?","?","?","?","?","?","?","?","?","?","?","?","?","?","?","?","?","?","?","?","?","?","?","?","?","?","?","?","?","?","?","?","?","?","?","?","?","?","?","?","?","?","?","?","?","?","?","?","?","?","?","?","?","?","?","?","?","?","?","?","?","?","?","?","?","?","?","?","?","?","?","?","?","?","?","?","?","?","?","?","?","?","?","?","?","?","?","?","?","?","?","?","?","?","?","?","?","?","?","?","?","?","?","?","?","?","?","?","?","?","?","?","?","?","?","?","?","?","?","?","?","?","?","?","?","?","?","?","?","?","?","?","?","?","?","?","?","?","?","?","?","?","?","?","?","?","?","?","?","?","?","?","?","?","?","?","?","?","?","?","?","?","?","?","?","?","?","?","?","?","?","?","?","?","?","?","?","?","?","?","?","?","?","?","?","?","?","?","?","?","?","?","?","?","?","?","?","?","?","?","?","?","?","?","?","?","?","?","?","?","?","?","?","?","?","?","?","?","?","?","?","?","?","?","?","?","?","?","?","?","?","?","?","?","?","?","?","?","?","?","?","?","?","?","?","?","?","?","?","?","?","?","?","?","?","?","?","?","?","?","?","?","?","?","?","?","?","?","?","?","?","?","?","?","?","?","?","?","?","?","?","?","?","?","?","?","?","?","?","?","?","?","?","?","?","?","?","?","?","?","?","?","?","?","?","?","?","?","?","?","?","?","?","?","?","?","?","?","?","?","?","?","?","?","?","?","?","?","?","?","?","?","?","?","?","?","?","?","?","?","?","?","?","?","?","?","?","?","?","?","?","?","?","?","?","?","?","?","?","?","?","?","?","?","?","?","?","?","?","?","?","?","?","?","?","?","?","?","?","?","?","?","?","?","?","?","?","?","?","?","?","?","?","?","?","?","?","?","?","?","?","?","?","?","?","?","?","?","?","?","?","?","?","?","?","?","?","?","?","?","?","?","?","?","?","?","?","?","?","?","?","?","?","?","?","?","?","?","?","?","?","?","?","?","?","?","?","?","?","?","?","?","?","?","?","?","?","?","?","?","?","?","?","?","?","?","?","?","?","?","?","?","?","?","?","?","?","?","?","?","?","?","?","?","?","?","?","?","?","?","?","?","?","?","?","?","?","?","?","?","?","?","?","?","?","?","?","?","?","?","?","?","?","?","?","?","?","?","?","?","?","?","?","?","?","?","?","?","?","?","?","?","?","?","?","?","?","?","?","?","?","?","?","?","?","?","?","?","?","?","?","?","?","?","?","?","?","?","?","?","?","?","?","?","?","?","?","?","?","?","?","?","?","?","?","?","?","?","?","?","?","?","?","?","?","?","?","?","?","?","?","?","?","?","?","?","?","?","?","?","?","?","?","?","?","?","?","?","?","?","?","?","?","?","?","?","?","?","?","?","?","?","?","?","?","?","?","?","?","?","?","?","?","?","?","?","?","?","?","?","?","?","?","?","?","?","?","?","?","?","?","?","?","?","?","?","?","?","?","?","?","?","?","?","?","?","?","?","?","?","?","?","?","?","?","?","?","?","?","?","?","?","?","?","?","?","?","?","?","?","?","?","?","?","?","?","?","?","?","?","?","?","?","?","?","?","?","?","?","?","?","?","?","?","?","?","?","?","?","?","?","?","?","?","?","?","?","?","?","?","?","?","?","?","?","?","?","?","?","?","?","?","?","?","?","?","?","?","?","?","?","?","?","?","?","?","?","?","?","?","?","?","?","?","?","?","?","?","?","?","?","?","?","?","?","?","?","?","?","?","?","?","?","?","?","?","?","?","?","?","?","?","?","?","?","?","?","?","?","?","?","?","?","?","?","?","?","?","?","?","?","?","?","?","?","?","?","?","?","?","?","?","?","?","?","?","?","?","?","?","?","?","?","?","?","?","?","?","?","?","?","?","?","?","?","?","?","?","?","?","?","?","?","?","?","?","?","?","?","?","?","?","?","?","?","?","?","?","?","?","?","?","?","?","?","?","?","?","?","?","?","?","?","?","?","?","?","?","?","?","?","?","?","?","?","?","?","?","?","?","?","?","?","?","?","?","?","?","?","?","?","?","?","?","?","?","?","?","?","?","?","?","?","?","?","?","?","?","?","?","?","?","?","?","?","?","?","?","?","?","?","?","?","?","?","?","?","?","?","?","?","?","?","?","?","?","?","?","?","?","?","?","?","?","?","?","?","?","?","?","?","?","?","?","?","?","?","?","?","?","?","?","?","?","?","?","?","?","?","?","?","?","?","?","?","?","?","?","?","?","?","?","?","?","?","?","?","?","?","?","?","?","?","?","?","?","?","?","?","?","?","?","?","?","?","?","?","?","?","?","?","?","?","?","?","?","?","?","?","?","?","?","?","?","?","?","?","?","?","?","?","?","?","?","?","?","?","?","?","?","?","?","?","?","?","?","?","?","?","?","?","?","?","?","?","?","?","?","?","?","?","?","?","?","?","?","?","?","?","?","?","?","?","?","?","?","?","?","?","?","?","?","?","?","?","?","?","?","?","?","?","?","?","?","?","?","?","?","?","?","?","?","?","?","?","?","?","?","?","?","?","?","?","?","?","?","?","?","?","?","?","?","?","?","?","?","?","?","?","?","?","?","?","?","?","?","?","?","?","?","?","?","?","?","?","?","?","?","?","?","?","?","?","?","?","?","?","?","?","?","?","?","?","?","?","?","?","?","?","?","?","?","?","?","?","?","?","?","?","?","?","?","?","?","?","?","?","?","?","?","?","?","?","?","?","?","?","?","?","?","?","?","?","?","?","?","?","?","?","?","?","?","?","?","?","?","?","?","?","?","?","?","?","?","?","?","?","?","?","?","?","?","?","?","?","?","?","?","?","?","?","?","?","?","?","?","?","?","?","?","?","?","?","?","?","?","?","?","?","?","?","?","?","?","?","?","?","?","?","?","?","?","?","?","?","?","?","?","?","?","?","?","?","?","?","?","?","?","?","?","?","?","?","?","?","?","?","?","?","?","?","?","?","?","?","?","?","?","?","?","?","?","?","?","?","?","?","?","?","?","?","?","?","?","?","?","?","?","?","?","?","?","?","?","?","?","?","?","?","?","?","?","?","?","?","?","?","?","?","?","?","?","?","?","?","?","?","?","?","?","?","?","?","?","?","?","?","?","?","?","?","?","?","?","?","?","?","?","?","?","?","?","?","?","?","?","?","?","?","?","?","?","?","?","?","?","?","?","?","?","?","?","?","?","?","?","?","?","?","?","?","?","?","?","?","?","?","?","?","?","?","?","?","?","?","?","?","?","?","?","?","?","?","?","?","?","?","?","?","?","?","?","?","?","?","?","?","?","?","?","?","?","?","?","?","?","?","?","?","?","?","?","?","?","?","?","?","?","?","?","?","?","?","?","?","?","?","?","?","?","?","?","?","?","?","?","?","?","?","?","?","?","?","?","?","?","?","?","?","?","?","?","?","?","?","?","?","?","?","?","?","?","?","?","?","?","?","?","?","?","?","?","?","?","?","?","?","?","?","?","?","?","?","?","?","?","?","?","?","?","?","?","?","?","?","?","?","?","?","?","?","?","?","?","?","?","?","?","?","?","?","?","?","?","?","?","?","?","?","?","?","?","?","?","?","?","?","?","?","?","?","?","?","?","?","?","?","?","?","?","?","?","?","?","?","?","?","?","?","?","?","?","?","?","?","?","?","?","?","?","?","?","?","?","?","?","?","?","?","?","?","?","?","?","?","?","?","?","?","?","?","?","?","?","?","?","?","?","?","?","?","?","?","?","?","?","?","?","?","?","?","?","?","?","?","?","?","?","?","?","?","?","?","?","?","?","?","?","?","?","?","?","?","?","?","?","?","?","?","?","?","?","?","?","?","?","?","?","?","?","?","?","?","?","?","?","?","?","?","?","?","?","?","?","?","?","?","?","?","?","?","?","?","?","?","?","?","?","?","?","?","?","?","?","?","?","?","?","?","?","?","?","?","?","?","?","?","?","?","?","?","?","?","?","?","?","?","?","?","?","?","?","?","?","?","?","?","?","?","?","?","?","?","?","?","?","?","?","?","?","?","?","?","?","?","?","?","?","?","?","?","?","?","?","?","?","?","?","?","?","?","?","?","?","?","?","?","?","?","?","?","?","?","?","?","?","?","?","?","?","?","?","?","?","?","?","?","?","?","?","?","?","?","?","?","?","?","?","?","?","?","?","?","?","?","?","?","?","?","?","?","?","?","?","?","?","?","?","?","?","?","?","?","?","?","?","?","?","?","?","?","?","?","?","?","?","?","?","?","?","?","?","?","?","?","?","?","?","?","?","?","?","?","?","?","?","?","?","?","?","?","?","?","?","?","?","?","?","?","?","?","?","?","?","?","?","?","?","?","?","?","?","?","?","?","?","?","?","?","?","?","?","?","?","?","?","?","?","?","?","?","?","?","?","?","?","?","?","?","?","?","?","?","?","?","?","?","?","?","?","?","?","?","?","?","?","?","?","?","?","?","?","?","?","?","?","?","?","?","?","?","?","?","?","?","?","?","?","?","?","?","?","?","?","?","?","?","?","?","?","?","?","?","?","?","?","?","?","?","?","?","?","?","?","?","?","?","?","?","?","?","?","?","?","?","?","?","?","?","?","?","?","?","?","?","?","?","?","?","?","?","?","?","?","?","?","?","?","?","?","?","?","?","?","?","?","?","?","?","?","?","?","?","?","?","?","?","?","?","?","?","?","?","?","?","?","?","?","?","?","?","?","?","?","?","?","?","?","?","?","?","?","?","?","?","?","?","?","?","?","?","?","?","?","?","?","?","?","?","?","?","?","?","?","?","?","?","?","?","?","?","?","?","?","?","?","?","?","?","?","?","?","?","?","?","?","?","?","?","?","?","?","?","?","?","?","?","?","?","?","?","?","?","?","?","?","?","?","?","?","?","?","?","?","?","?","?","?","?","?","?","?","?","?","?","?","?","?","?","?","?","?","?","?","?","?","?","?","?","?","?","?","?","?","?","?","?","?","?","?","?","?","?","?","?","?","?","?","?","?","?","?","?","?","?","?","?","?","?","?","?","?","?","?","?","?","?","?","?","?","?","?","?","?","?","?","?","?","?","?","?","?","?","?","?","?","?","?","?","?","?","?","?","?","?","?","?","?","?","?","?","?","?","?","?","?","?","?","?","?","?","?","?","?","?","?","?","?","?","?","?","?","?","?","?","?","?","?","?","?","?","?","?","?","?","?","?","?","?","?","?","?","?","?","?","?","?","?","?","?","?","?","?","?","?","?","?","?","?","?","?","?","?","?","?","?","?","?","?","?","?","?","?","?","?","?","?","?","?","?","?","?","?","?","?","?","?","?","?","?","?","?","?","?","?","?","?","?","?","?","?","?","?","?","?","?","?","?","?","?","?","?","?","?","?","?","?","?","?","?","?","?","?","?","?","?","?","?","?","?","?","?","?","?","?","?","?","?","?","?","?","?","?","?","?","?","?","?","?","?","?","?","?","?","?","?","?","?","?","?","?","?","?","?","?","?","?","?","?","?","?","?","?","?","?","?","?","?","?","?","?","?","?","?","?","?","?","?","?","?","?","?","?","?","?","?","?","?","?","?","?","?","?","?","?","?","?","?","?","?","?","?","?","?","?","?","?","?","?","?","?","?","?","?","?","?","?","?","?","?","?","?","?","?","?","?","?","?","?","?","?","?","?","?","?","?","?","?","?","?","?","?","?","?","?","?","?","?","?","?","?","?","?","?","?","?","?","?","?","?","?","?","?","?","?","?","?","?","?","?","?","?","?","?","?","?","?","?","?","?","?","?","?","?","?","?","?","?","?","?","?","?","?","?","?","?","?","?","?","?","?","?","?","?","?","?","?","?","?","?","?","?","?","?","?","?","?","?","?","?","?","?","?","?","?","?","?","?","?","?","?","?","?","?","?","?","?","?","?","?","?","?","?","?","?","?","?","?","?","?","?","?","?","?","?","?","?","?","?","?","?","?","?","?","?","?","?","?","?","?","?","?","?","?","?","?","?","?","?","?","?","?","?","?","?","?","?","?","?","?","?","?","?","?","?","?","?","?","?","?","?","?","?","?","?","?","?","?","?","?","?","?","?","?","?","?","?","?","?","?","?","?","?","?","?","?","?","?","?","?","?","?","?","?","?","?","?","?","?","?","?","?","?","?","?","?","?","?","?","?","?","?","?","?","?","?","?","?","?","?","?","?","?","?","?","?","?","?","?","?","?","?","?","?","?","?","?","?","?","?","?","?","?","?","?","?","?","?","?","?","?","?","?","?","?","?","?","?","?","?","?","?","?","?","?","?","?","?","?","?","?","?","?","?","?","?","?","?","?","?","?","?","?","?","?","?","?","?","?","?","?","?","?","?","?","?","?","?","?","?","?","?","?","?","?","?","?","?","?","?","?","?","?","?","?","?","?","?","?","?","?","?","?","?","?","?","?","?","?","?","?","?","?","?","?","?","?","?","?","?","?","?","?","?","?","?","?","?","?","?","?","?","?","?","?","?","?","?","?","?","?","?","?","?","?","?","?","?","?","?","?","?","?","?","?","?","?","?","?","?","?","?","?","?","?","?","?","?","?","?","?","?","?","?","?","?","?","?","?","?","?","?","?","?","?","?","?","?","?","?","?","?","?","?","?","?","?","?","?","?","?","?","?","?","?","?","?","?","?","?","?","?","?","?","?","?","?","?","?","?","?","?","?","?","?","?","?","?","?","?","?","?","?","?","?","?","?","?","?","?","?","?","?","?","?","?","?","?","?","?","?","?","?","?","?","?","?","?","?","?","?","?","?","?","?","?","?","?","?","?","?","?","?","?","?","?","?","?","?","?","?","?","?","?","?","?","?","?","?","?","?","?","?","?","?","?","?","?","?","?","?","?","?","?","?","?","?","?","?","?","?","?","?","?","?","?","?","?","?","?","?","?","?","?","?","?","?","?","?","?","?","?","?","?","?","?","?","?","?","?","?","?","?","?","?","?","?","?","?","?","?","?","?","?","?","?","?","?","?","?","?","?","?","?","?","?","?","?","?","?","?","?","?","?","?","?","?","?","?","?","?","?","?","?","?","?","?","?","?","?","?","?","?","?","?","?","?","?","?","?","?","?","?","?","?","?","?","?","?","?","?","?","?","?","?","?","?","?","?","?","?","?","?","?","?","?","?","?","?","?","?","?","?","?","?","?","?","?","?","?","?","?","?","?","?","?","?","?","?","?","?","?","?","?","?","?","?","?","?","?","?","?","?","?","?","?","?","?","?","?","?","?","?","?","?","?","?","?","?","?","?","?","?","?","?","?","?","?","?","?","?","?","?","?","?","?","?","?","?","?","?","?","?","?","?","?","?","?","?","?","?","?","?","?","?","?","?","?","?","?","?","?","?","?","?","?","?","?","?","?","?","?","?","?","?","?","?","?","?","?","?","?","?","?","?","?","?","?","?","?","?","?","?","?","?","?","?","?","?","?","?","?","?","?","?","?","?","?","?","?","?","?","?","?","?","?","?","?","?","?","?","?","?","?","?","?","?","?","?","?","?","?","?","?","?","?","?","?","?","?","?","?","?","?","?","?","?","?","?","?","?","?","?","?","?","?","?","?","?","?","?","?","?","?","?","?","?","?","?","?","?","?","?","?","?","?","?","?","?","?","?","?","?","?","?","?","?","?","?","?","?","?","?","?","?","?","?","?","?","?","?","?","?","?","?","?","?","?","?","?","?","?","?","?","?","?","?","?","?","?","?","?","?","?","?","?","?","?","?","?","?","?","?","?","?","?","?","?","?","?","?","?","?","?","?","?","?","?","?","?","?","?","?","?","?","?","?","?","?","?","?","?","?","?","?","?","?","?","?","?","?","?","?","?","?","?","?","?","?","?","?","?","?","?","?","?","?","?","?","?","?","?","?","?","?","?","?","?","?","?","?","?","?","?","?","?","?","?","?","?","?","?","?","?","?","?","?","?","?","?","?","?","?","?","?","?","?","?","?","?","?","?","?","?","?","?","?","?","?","?","?","?","?","?","?","?","?","?","?","?","?","?","?","?","?","?","?","?","?","?","?","?","?","?","?","?","?","?","?","?","?","?","?","?","?","?","?","?","?","?","?","?","?","?","?","?","?","?","?","?","?","?","?","?","?","?","?","?","?","?","?","?","?","?","?","?","?","?","?","?","?","?","?","?","?","?","?","?","?","?","?","?","?","?","?","?","?","?","?","?","?","?","?","?","?","?","?","?","?","?","?","?","?","?","?","?","?","?","?","?","?","?","?","?","?","?","?","?","?","?","?","?","?","?","?","?","?","?","?","?","?","?","?","?","?","?","?","?","?","?","?","?","?","?","?","?","?","?","?","?","?","?","?","?","?","?","?","?","?","?","?","?","?","?","?","?","?","?","?","?","?","?","?","?","?","?","?","?","?","?","?","?","?","?","?","?","?","?","?","?","?","?","?","?","?","?","?","?","?","?","?","?","?","?","?","?","?","?","?","?","?","?","?","?","?","?","?","?","?","?","?","?","?","?","?","?","?","?","?","?","?","?","?","?","?","?","?","?","?","?","?","?","?","?","?","?","?","?","?","?","?","?","?","?","?","?","?","?","?","?","?","?","?","?","?","?","?","?","?","?","?","?","?","?","?","?","?","?","?","?","?","?","?","?","?","?","?","?","?","?","?","?","?","?","?","?","?","?","?","?","?","?","?","?","?","?","?","?","?","?","?","?","?","?","?","?","?","?","?","?","?","?","?","?","?","?","?","?","?","?","?","?","?","?","?","?","?","?","?","?","?","?","?","?","?","?","?","?","?","?","?","?","?","?","?","?","?","?","?","?","?","?","?","?","?","?","?","?","?","?","?","?","?","?","?","?","?","?","?","?","?","?","?","?","?","?","?","?","?","?","?","?","?","?","?","?","?","?","?","?","?","?","?","?","?","?","?","?","?","?","?","?","?","?","?","?","?","?","?","?","?","?","?","?","?","?","?","?","?","?","?","?","?","?","?","?","?","?","?","?","?","?","?","?","?","?","?","?","?","?","?","?","?","?","?","?","?","?","?","?","?","?","?","?","?","?","?","?","?","?","?","?","?","?","?","?","?","?","?","?","?","?","?","?","?","?","?","?","?","?","?","?","?","?","?","?","?","?","?","?","?","?","?","?","?","?","?","?","?","?","?","?","?","?","?","?","?","?","?","?","?","?","?","?","?","?","?","?","?","?","?","?","?","?","?","?","?","?","?","?","?","?","?","?","?","?","?","?","?","?","?","?","?","?","?","?","?","?","?","?","?","?","?","?","?","?","?","?","?","?","?","?","?","?","?","?","?","?","?","?","?","?","?","?","?","?","?","?","?","?","?","?","?","?","?","?","?","?","?","?","?","?","?","?","?","?","?","?","?","?","?","?","?","?","?","?","?","?","?","?","?","?","?","?","?","?","?","?","?","?","?","?","?","?","?","?","?","?","?","?","?","?","?","?","?","?","?","?","?","?","?","?","?","?","?","?","?","?","?","?","?","?","?","?","?","?","?","?","?","?","?","?","?","?","?","?","?","?","?","?","?","?","?","?","?","?","?","?","?","?","?","?","?","?","?","?","?","?","?","?","?","?","?","?","?","?","?","?","?","?","?","?","?","?","?","?","?","?","?","?","?","?","?","?","?","?","?","?","?","?","?","?","?","?","?","?","?","?","?","?","?","?","?","?","?","?","?","?","?","?","?","?","?","?","?","?","?","?","?","?","?","?","?","?","?","?","?","?","?","?","?","?","?","?","?","?","?","?","?","?","?","?","?","?","?","?","?","?","?","?","?","?","?","?","?","?","?","?","?","?","?","?","?","?","?","?","?","?","?","?","?","?","?","?","?","?","?","?","?","?","?","?","?","?","?","?","?","?","?","?","?","?","?","?","?","?","?","?","?","?","?","?","?","?","?","?","?","?","?","?","?","?","?","?","?","?","?","?","?","?","?","?","?","?","?","?","?","?","?","?","?","?","?","?","?","?","?","?","?","?","?","?","?","?","?","?","?","?","?","?","?","?","?","?","?","?","?","?","?","?","?","?","?","?","?","?","?","?","?","?","?","?","?","?","?","?","?","?","?","?","?","?","?","?","?","?","?","?","?","?","?","?","?","?","?","?","?","?","?","?","?","?","?","?","?","?","?","?","?","?","?","?","?","?","?","?","?","?","?","?","?","?","?","?","?","?","?","?","?","?","?","?","?","?","?","?","?","?","?","?","?","?","?","?","?","?","?","?","?","?","?","?","?","?","?","?","?","?","?","?","?","?","?","?","?","?","?","?","?","?","?","?","?","?","?","?","?","?","?","?","?","?","?","?","?","?","?","?","?","?","?","?","?","?","?","?","?","?","?","?","?","?","?","?","?","?","?","?","?","?","?","?","?","?","?","?","?","?","?","?","?","?","?","?","?","?","?","?","?","?","?","?","?","?","?","?","?","?","?","?","?","?","?","?","?","?","?","?","?","?","?","?","?","?","?","?","?","?","?","?","?","?","?","?","?","?","?","?","?","?","?","?","?","?","?","?","?","?","?","?","?","?","?","?","?","?","?","?","?","?","?","?","?","?","?","?","?","?","?","?","?","?","?","?","?","?","?","?","?","?","?","?","?","?","?","?","?","?","?","?","?","?","?","?","?","?","?","?","?","?","?","?","?","?","?","?","?","?","?","?","?","?","?","?","?","?","?","?","?","?","?","?","?","?","?","?","?","?","?","?","?","?","?","?","?","?","?","?","?","?","?","?","?","?","?","?","?","?","?","?","?","?","?","?","?","?","?","?","?","?","?","?","?","?","?","?","?","?","?","?","?","?","?","?","?","?","?","?","?","?","?","?","?","?","?","?","?","?","?","?","?","?","?","?","?","?","?","?","?","?","?","?","?","?","?","?","?","?","?","?","?","?","?","?","?","?","?","?","?","?","?","?","?","?","?","?","?","?","?","?","?","?","?","?","?","?","?","?","?","?","?","?","?","?","?","?","?","?","?","?","?","?","?","?","?","?","?","?","?","?","?","?","?","?","?","?","?","?","?","?","?","?","?","?","?","?","?","?","?","?","?","?","?","?","?","?","?","?","?","?","?","?","?","?","?","?","?","?","?","?","?","?","?","?","?","?","?","?","?","?","?","?","?","?","?","?","?","?","?","?","?","?","?","?","?","?","?","?","?","?","?","?","?","?","?","?","?","?","?","?","?","?","?","?","?","?","?","?","?","?","?","?","?","?","?","?","?","?","?","?","?","?","?","?","?","?","?","?","?","?","?","?","?","?","?","?","?","?","?","?","?","?","?","?","?","?","?","?","?","?","?","?","?","?","?","?","?","?","?","?","?","?","?","?","?","?","?","?","?","?","?","?","?","?","?","?","?","?","?","?","?","?","?","?","?","?","?","?","?","?","?","?","?","?","?","?","?","?","?","?","?","?","?","?","?","?","?","?","?","?","?","?","?","?","?","?","?","?","?","?","?","?","?","?","?","?","?","?","?","?","?","?","?","?","?","?","?","?","?","?","?","?","?","?","?","?","?","?","?","?","?","?","?","?","?","?","?","?","?","?","?","?","?","?","?","?","?","?","?","?","?","?","?","?","?","?","?","?","?","?","?","?","?","?","?","?","?","?","?","?","?","?","?","?","?","?","?","?","?","?","?","?","?","?","?","?","?","?","?","?","?","?","?","?","?","?","?","?","?","?","?","?","?","?","?","?","?","?","?","?","?","?","?","?","?","?","?","?","?","?","?","?","?","?","?","?","?","?","?","?","?","?","?","?","?","?","?","?","?","?","?","?","?","?","?","?","?","?","?","?","?","?","?","?","?","?","?","?","?","?","?","?","?","?","?","?","?","?","?","?","?","?","?","?","?","?","?","?","?","?","?","?","?","?","?","?","?","?","?","?","?","?","?","?","?","?","?","?","?","?","?","?","?","?","?","?","?","?","?","?","?","?","?","?","?","?","?","?","?","?","?","?","?","?","?","?","?","?","?","?","?","?","?","?","?","?","?","?","?","?","?","?","?","?","?","?","?","?","?","?","?","?","?","?","?","?","?","?","?","?","?","?","?","?","?","?","?","?","?","?","?","?","?","?","?","?","?","?","?","?","?","?","?","?","?","?","?","?","?","?","?","?","?","?","?","?","?","?","?","?","?","?","?","?","?","?","?","?","?","?","?","?","?","?","?","?","?","?","?","?","?","?","?","?","?","?","?","?","?","?","?","?","?","?","?","?","?","?","?","?","?","?","?","?","?","?","?","?","?","?","?","?","?","?","?","?","?","?","?","?","?","?","?","?","?","?","?","?","?","?","?","?","?","?","?","?","?","?","?","?","?","?","?","?","?","?","?","?","?","?","?","?","?","?","?","?","?","?","?","?","?","?","?","?","?","?","?","?","?","?","?","?","?","?","?","?","?","?","?","?","?","?","?","?","?","?","?","?","?","?","?","?","?","?","?","?","?","?","?","?","?","?","?","?","?","?","?","?","?","?","?","?","?","?","?","?","?","?","?","?","?","?","?","?","?","?","?","?","?","?","?","?","?","?","?","?","?","?","?","?","?","?","?","?","?","?","?","?","?","?","?","?","?","?","?","?","?","?","?","?","?","?","?","?","?","?","?","?","?","?","?","?","?","?","?","?","?","?","?","?","?","?","?","?","?","?","?","?","?","?","?","?","?","?","?","?","?","?","?","?","?","?","?","?","?","?","?","?","?","?","?","?","?","?","?","?","?","?","?","?","?","?","?","?","?","?","?","?","?","?","?","?","?","?","?","?","?","?","?","?","?","?","?","?","?","?","?","?","?","?","?","?","?","?","?","?","?","?","?","?","?","?","?","?","?","?","?","?","?","?","?","?","?","?","?","?","?","?","?","?","?","?","?","?","?","?","?","?","?","?","?","?","?","?","?","?","?","?","?","?","?","?","?","?","?","?","?","?","?","?","?","?","?","?","?","?","?","?","?","?","?","?","?","?","?","?","?","?","?","?","?","?","?","?","?","?","?","?","?","?","?","?","?","?","?","?","?","?","?","?","?","?","?","?","?","?","?","?","?","?","?","?","?","?","?","?","?","?","?","?","?","?","?","?","?","?","?","?","?","?","?","?","?","?","?","?","?","?","?","?","?","?","?","?","?","?","?","?","?","?","?","?","?","?","?","?","?","?","?","?","?","?","?","?","?","?","?","?","?","?","?","?","?","?","?","?","?","?","?","?","?","?","?","?","?","?","?","?","?","?","?","?","?","?","?","?","?","?","?","?","?","?","?","?","?","?","?","?","?","?","?","?","?","?","?","?","?","?","?","?","?","?","?","?","?","?","?","?","?","?","?","?","?","?","?","?","?","?","?","?","?","?","?","?","?","?","?","?","?","?","?","?","?","?","?","?","?","?","?","?","?","?","?","?","?","?","?","?","?","?","?","?","?","?","?","?","?","?","?","?","?","?","?","?","?","?","?","?","?","?","?","?","?","?","?","?","?","?","?","?","?","?","?","?","?","?","?","?","?","?","?","?","?","?","?","?","?","?","?","?","?","?","?","?","?","?","?","?","?","?","?","?","?","?","?","?","?","?","?","?","?","?","?","?","?","?","?","?"