[{"success":true,"trial_type":"fullscreen","trial_index":0,"time_elapsed":2370,"internal_node_id":"0.0-0.0","protocol_sum":"","subject_identifier":135,"subject_sum":[73,209,128,236,245,97,50,129,149,113,191,57,217,183,179,66,82,42,42,198,210,60,20,24,211,51,130,81,191,228,105,200],"subject_pair":67,"STUDY_ID":"669a702db1122fc5150a13ce","PROLIFIC_PID":"5c1942e200849900010afdcd","SESSION_ID":"669b3a6b33978b9acd1b0cfb","practice_instructions":1,"leaderboard_instructions":1,"bonus":0,"reveal_word":true,"self_rating":"3","confidence":"33"},{"view_history":"[{\"page_index\":0,\"viewing_time\":2387.39999999851}]","rt":2387.5999999996275,"trial_type":"instructions","trial_index":1,"time_elapsed":4758,"internal_node_id":"0.0-1.0","protocol_sum":"","subject_identifier":135,"subject_sum":[73,209,128,236,245,97,50,129,149,113,191,57,217,183,179,66,82,42,42,198,210,60,20,24,211,51,130,81,191,228,105,200],"subject_pair":67,"STUDY_ID":"669a702db1122fc5150a13ce","PROLIFIC_PID":"5c1942e200849900010afdcd","SESSION_ID":"669b3a6b33978b9acd1b0cfb","practice_instructions":1,"leaderboard_instructions":1,"bonus":0,"reveal_word":true,"self_rating":"3","confidence":"33"},{"view_history":"[{\"page_index\":0,\"viewing_time\":18079.400000000373}]","rt":18079.60000000149,"trial_type":"instructions","trial_index":2,"time_elapsed":22838,"internal_node_id":"0.0-2.0-0.0","protocol_sum":"","subject_identifier":135,"subject_sum":[73,209,128,236,245,97,50,129,149,113,191,57,217,183,179,66,82,42,42,198,210,60,20,24,211,51,130,81,191,228,105,200],"subject_pair":67,"STUDY_ID":"669a702db1122fc5150a13ce","PROLIFIC_PID":"5c1942e200849900010afdcd","SESSION_ID":"669b3a6b33978b9acd1b0cfb","practice_instructions":1,"leaderboard_instructions":1,"bonus":0,"reveal_word":true,"self_rating":"3","confidence":"33"},{"rt":10295.300000000745,"responses":"{\"Q0\":\"... reveal the word with as <b>few letter guesses</b> as possible\"}","question_order":"[0]","trial_type":"survey-multi-choice","trial_index":3,"time_elapsed":33134,"internal_node_id":"0.0-2.0-1.0","protocol_sum":"","subject_identifier":135,"subject_sum":[73,209,128,236,245,97,50,129,149,113,191,57,217,183,179,66,82,42,42,198,210,60,20,24,211,51,130,81,191,228,105,200],"subject_pair":67,"correct":true,"test_part":"multichoice_nonpretend","STUDY_ID":"669a702db1122fc5150a13ce","PROLIFIC_PID":"5c1942e200849900010afdcd","SESSION_ID":"669b3a6b33978b9acd1b0cfb","practice_instructions":1,"leaderboard_instructions":1,"bonus":0,"reveal_word":true,"self_rating":"3","confidence":"33"},{"view_history":"[{\"page_index\":0,\"viewing_time\":912.7000000011176}]","rt":912.9000000003725,"trial_type":"instructions","trial_index":4,"time_elapsed":34048,"internal_node_id":"0.0-3.0","protocol_sum":"","subject_identifier":135,"subject_sum":[73,209,128,236,245,97,50,129,149,113,191,57,217,183,179,66,82,42,42,198,210,60,20,24,211,51,130,81,191,228,105,200],"subject_pair":67,"STUDY_ID":"669a702db1122fc5150a13ce","PROLIFIC_PID":"5c1942e200849900010afdcd","SESSION_ID":"669b3a6b33978b9acd1b0cfb","practice_instructions":1,"leaderboard_instructions":1,"bonus":0,"reveal_word":true,"self_rating":"3","confidence":"33"},{"word":"ZEBRA","click_log":{"letter":["","O","E","A","Z","B","R"],"t":[0,8279.699999999255,11287.5,23359.599999999627,25443.400000000373,26621.299999998882,28119.299999998882],"hit":[null,0,1,1,1,1,1],"asked":["","O","OE","OEA","OEAZ","OEAZB","OEAZBR"],"word_state":["_____","_____","_E___","_E__A","ZE__A","ZEB_A","ZEBRA"]},"hover_log":{"letter":["?","?","?","?","?","?","?","?","?","?","?","?","?","?","?","?","?","?","?","?","?","?","?","?","?","?","?","?","?","?","?","?","?","?","?","J","J","J","J","J","J","?","?","?","?","?","?","?","?","A","A","A","A","A","A","A","A","?","?","?","?","?","?","?","?","?","?","?","?","?","?","?","?","?","?","?","?","?","?","?","?","?","?","?","?","?","?","?","?","?","?","?","?","?","?","?","?","?","?","?","?","?","?","?","?","?","?","?","?","?","?","?","?","?","?","?","?","?","?","?","B","?","?","?","?","?","?","?","?","?","?","?","?","?","?","?","?","?","?","?","?","?","?","?","?","?","?","?","?","?","?","?","?","?","?","?","?","?","?","?","?","?","?","?","?","?","?","?","?","?","?","?","?","?","?","?","?","?","?","?","?","?","?","?","?","?","?","?","?","?","?","?","?","?","?","?","?","?","?","?","?","?","?","?","?","?","?","?","?","?","?","?","?","?","?","?","?","?","?","?","?","?","?","?","?","?","?","?","?","?","?","?","?","?","?","?","?","?","?","?","?","?","?","?","?","?","?","?","?","?","?","?","?","?","?","?","?","?","?","?","?","?","?","?","?","?","?","?","?","?","?","?","?","?","?","?","?","?","?","?","?","?","?","?","?","?","?","?","?","?","?","?","?","?","?","?","?","?","?","?","?","?","?","?","?","?","?","?","?","?","?","?","?","?","?","?","?","?","?","?","?","?","?","?","?","?","?","?","?","?","?","?","?","?","?","?","?","?","?","?","?","?","?","?","?","?","?","?","?","?","?","?","?","?","?","?","?","?","?","?","?","?","?","?","?","?","?","?","?","?","?","?","?","?","?","?","?","?","?","?","?","?","?","?","?","?","?","?","?","?","?","?","?","?","?","?","?","?","?","?","?","?","?","?","?","?","?","?","?","?","?","?","?","?","?","?","?","?","?","?","?","?","N","N","N","N","N","N","N","N","N","N","N","N","N","N","N","N","N","?","?","?","?","?","?","?","?","?","?","?","?","?","?","?","?","?","?","?","?","?","?","?","?","?","O","O","O","O","O","O","O","O","O","O","O","O","O","O","O","O","O","O","O","O","O","O","O","O","O","O","O","O","O","O","O","O","O","O","O","O","O","O","O","O","O","O","O","O","O","O","O","O","O","O","O","O","O","O","O","O","O","O","O","O","?","?","?","?","?","?","?","?","?","?","?","?","?","W","W","W","W","W","W","W","?","?","?","?","?","?","?","V","V","V","V","V","V","V","V","V","V","V","V","V","V","V","V","V","V","V","V","V","V","V","V","V","V","V","V","V","V","V","V","V","V","V","?","?","?","U","U","U","U","U","?","?","?","?","?","?","?","?","?","?","?","?","?","?","?","?","?","?","?","?","?","?","?","?","?","?","?","?","?","?","?","?","?","?","?","?","?","?","L","?","?","?","?","?","?","?","D","D","D","D","D","D","?","?","?","?","?","?","?","?","E","E","E","E","E","E","E","E","E","E","E","E","E","E","E","E","E","E","E","E","E","E","E","E","E","E","E","E","E","E","E","E","E","E","E","E","E","E","E","?","D","D","?","L","K","J","?","?","?","?","?","?","?","?","?","?","?","?","?","?","?","?","?","?","?","?","?","?","?","?","?","?","?","?","?","?","?","?","?","?","?","?","?","?","?","?","?","?","?","?","?","?","?","?","?","?","?","?","?","?","?","?","?","?","?","?","?","?","?","?","?","?","?","?","?","?","?","?","?","?","?","?","?","?","?","?","?","?","?","?","?","?","?","?","?","?","?","?","?","?","?","?","?","?","?","?","?","?","?","?","?","?","?","?","?","?","?","?","?","?","?","?","?","?","?","?","?","?","?","?","?","?","?","?","?","?","?","?","?","?","?","?","?","?","?","?","?","?","?","?","?","?","?","?","?","?","?","?","?","?","?","?","?","?","?","?","?","?","?","?","?","?","?","?","?","?","?","?","?","?","?","?","?","?","?","?","?","?","?","?","?","?","?","?","?","?","?","?","?","?","?","?","?","?","?","?","?","?","?","?","?","?","?","?","?","?","?","?","?","?","?","?","?","?","?","?","?","?","?","?","?","?","?","?","?","?","?","?","?","?","?","?","?","?","?","?","?","?","?","?","?","?","?","?","?","?","?","?","?","?","?","?","?","?","?","?","?","?","?","?","?","?","?","?","?","?","?","?","?","?","?","?","?","?","?","?","?","?","?","?","?","?","?","?","?","?","?","?","?","?","?","?","?","?","?","?","?","?","?","?","?","?","?","?","?","?","?","?","?","?","?","?","?","?","?","?","?","?","?","?","?","?","?","?","?","?","?","?","?","?","?","?","?","?","?","?","?","?","?","?","?","?","?","?","?","?","?","?","?","?","?","?","?","?","?","?","?","?","?","?","?","?","?","?","?","?","?","?","?","?","?","?","?","?","?","?","?","?","?","?","?","?","?","?","?","?","?","?","?","?","?","?","?","?","?","?","?","?","?","?","?","?","?","?","?","?","?","?","?","?","?","?","?","?","?","?","?","?","?","?","?","?","?","?","?","?","?","?","?","?","?","?","?","?","?","?","?","?","?","?","?","?","?","?","?","?","?","?","?","?","?","?","?","?","?","?","?","?","?","?","?","?","?","?","?","?","?","?","?","?","?","?","?","?","?","?","?","?","?","?","?","?","?","?","?","?","?","?","?","?","?","?","?","?","?","?","?","?","?","?","?","?","?","?","?","?","?","?","?","?","?","?","?","?","?","?","?","?","?","?","?","?","?","?","?","?","?","?","?","?","?","?","?","?","?","?","?","?","?","?","?","?","?","?","?","?","?","?","?","?","?","?","?","?","?","?","?","?","?","?","?","?","?","?","?","?","?","?","?","?","?","?","?","?","?","?","?","?","?","?","?","?","?","?","?","?","?","?","?","?","?","?","?","?","?","?","?","?","?","?","?","?","?","?","?","?","?","?","?","?","?","?","?","?","?","?","?","?","?","?","?","?","?","?","?","?","?","?","?","?","?","D","D","?","?","O","O","P","?","?","?","?","?","?","?","?","?","?","?","?","?","?","?","?","?","?","?","?","?","P","P","O","?","N","M","L","?","K","K","K","K","?","?","?","?","?","?","?","A","A","A","A","A","A","A","A","A","A","A","A","A","A","A","A","A","A","A","A","A","A","A","A","A","A","A","A","A","A","A","A","A","A","A","A","A","A","A","A","A","A","?","?","?","?","?","?","?","?","?","?","?","?","?","?","?","?","?","?","?","?","?","S","S","T","T","?","U","U","U","U","U","U","U","U","U","U","U","U","U","U","U","U","U","U","U","U","U","U","U","?","?","?","?","?","?","?","?","?","?","?","?","?","?","?","?","?","?","?","?","?","?","?","?","?","?","?","?","?","?","?","Z","Z","Z","Z","Z","Z","Z","Z","Z","Z","Z","Z","Z","Z","Z","Z","Z","Z","Z","Z","Z","Z","Z","Z","Z","Z","Z","Z","Z","Z","Z","Z","Z","Z","Z","Z","Z","Z","Z","Z","Z","Z","Z","Z","Z","Y","Y","X","?","?","?","?","?","?","N","N","?","?","?","M","?","?","?","?","?","?","?","?","?","?","?","B","B","B","B","B","B","B","B","B","B","B","B","B","B","B","B","B","B","B","B","B","B","B","B","B","B","B","B","B","B","B","B","B","?","?","L","L","M","M","?","N","?","O","O","O","O","O","O","O","O","O","?","P","P","P","P","P","?","Q","Q","Q","Q","Q","Q","Q","Q","Q","Q","?","?","?","R","R","R","R","R","R","R","R","R","R","R","R","R","R","R","R","R","R","R","R","R","R","R","R","R","R","R","R","R","R","R","R","R","R","R","R","R","R","R","R","R","R","R","R","R","R","R","R","R","R","R","R","R","R","R","R","R","R","R","R","R","R","R","R","R","?","?","?","Q","Q","Q","Q","?","?","?","?","?","?","?","?","?","?","?","?","?","?","?","?","?","?","?","?","?","?","?","?","?","?","?","?","?","?","?","?","?","?","?","?","?","?","?","?","?","?","?","?","?","?","?","?","?","?","?","?","?","?","?","?","?","?","?","?","?","?","?","?","?","?","?","?","?","?","?","?","?","?","?","?","?","?","?","?","?","?","?","?","?","?","?","?","?","?"],"t":[20,31,48,64,81,97,114,131,147,164,181,197,214,231,247,264,281,297,314,330,347,364,381,397,414,430,447,464,481,497,514,530,548,564,581,598,614,631,647,664,681,698,714,731,747,764,781,798,814,831,848,864,881,898,914,931,948,964,981,998,1014,1031,1048,1064,1081,1098,1114,1131,1147,1164,1181,1197,1214,1231,1247,1264,1280,1297,1314,1330,1347,1364,1381,1397,1414,1431,1447,1464,1480,1497,1514,1531,1547,1564,1580,1597,1614,1631,1648,1664,1681,1697,1714,1731,1747,1764,1781,1797,1814,1831,1847,1864,1881,1897,1914,1931,1947,1964,1981,1998,2014,2031,2047,2064,2081,2097,2114,2131,2147,2164,2181,2197,2214,2231,2247,2264,2281,2298,2314,2331,2347,2364,2381,2397,2414,2431,2447,2464,2481,2497,2514,2530,2547,2564,2581,2597,2614,2631,2647,2664,2680,2697,2714,2730,2747,2764,2781,2797,2814,2830,2847,2864,2880,2897,2914,2930,2947,2964,2980,2997,3014,3030,3047,3064,3080,3097,3114,3130,3147,3164,3180,3197,3214,3230,3247,3264,3280,3297,3314,3330,3347,3364,3380,3397,3414,3430,3447,3464,3480,3497,3514,3530,3547,3564,3581,3597,3614,3630,3647,3664,3681,3697,3714,3730,3747,3764,3781,3797,3814,3830,3847,3864,3881,3897,3914,3930,3947,3964,3981,3997,4014,4030,4047,4064,4080,4097,4114,4130,4147,4164,4180,4197,4214,4230,4247,4264,4280,4297,4314,4330,4347,4364,4380,4397,4414,4431,4447,4464,4480,4497,4514,4530,4547,4564,4580,4597,4614,4630,4647,4663,4681,4697,4714,4730,4747,4764,4780,4797,4814,4831,4847,4864,4880,4897,4914,4930,4947,4964,4980,4997,5014,5031,5047,5064,5080,5097,5114,5131,5147,5164,5181,5197,5214,5230,5247,5264,5280,5297,5314,5330,5347,5364,5380,5397,5414,5430,5447,5464,5480,5497,5514,5530,5547,5564,5580,5597,5614,5630,5647,5663,5681,5697,5713,5730,5747,5764,5780,5797,5814,5830,5847,5863,5880,5897,5913,5930,5947,5963,5980,5997,6014,6030,6047,6064,6080,6097,6114,6130,6147,6164,6180,6197,6214,6230,6247,6263,6280,6297,6314,6330,6347,6364,6380,6397,6413,6430,6447,6464,6480,6497,6514,6530,6547,6564,6580,6597,6614,6630,6647,6664,6680,6697,6714,6730,6747,6764,6780,6797,6814,6830,6847,6864,6880,6897,6914,6930,6947,6964,6980,6997,7014,7030,7047,7064,7080,7097,7113,7130,7147,7164,7180,7197,7214,7230,7247,7264,7280,7297,7314,7330,7347,7364,7381,7397,7414,7430,7447,7464,7480,7497,7514,7531,7548,7564,7581,7597,7614,7631,7647,7664,7680,7697,7714,7730,7747,7764,7781,7797,7814,7830,7847,7864,7880,7897,7914,7930,7947,7964,7980,7997,8014,8030,8047,8064,8080,8097,8114,8130,8147,8163,8180,8197,8214,8230,8247,8264,8281,8297,8314,8330,8347,8364,8380,8397,8414,8430,8447,8464,8480,8497,8514,8530,8547,8564,8580,8597,8614,8630,8647,8664,8680,8697,8714,8730,8747,8764,8780,8797,8814,8830,8847,8864,8880,8897,8914,8930,8947,8964,8981,8997,9014,9030,9047,9064,9080,9097,9114,9130,9147,9164,9180,9197,9214,9230,9247,9264,9280,9297,9314,9330,9347,9363,9380,9397,9414,9430,9447,9463,9480,9497,9513,9530,9547,9563,9580,9597,9614,9630,9647,9664,9680,9697,9714,9731,9747,9764,9780,9797,9814,9830,9847,9864,9880,9897,9914,9930,9947,9964,9980,9997,10014,10030,10047,10063,10080,10097,10114,10130,10147,10163,10180,10197,10214,10230,10247,10264,10280,10297,10313,10330,10347,10364,10380,10397,10414,10430,10447,10464,10480,10497,10514,10531,10547,10564,10580,10597,10614,10630,10647,10664,10680,10697,10714,10730,10747,10764,10780,10797,10814,10830,10847,10864,10880,10897,10914,10930,10947,10964,10980,10997,11014,11031,11047,11063,11080,11097,11114,11130,11147,11164,11180,11197,11213,11230,11247,11263,11280,11297,11314,11330,11347,11363,11380,11397,11414,11430,11447,11463,11480,11497,11514,11530,11547,11564,11580,11597,11614,11630,11647,11664,11680,11697,11714,11730,11747,11764,11780,11797,11814,11830,11847,11864,11880,11897,11913,11930,11947,11964,11980,11997,12014,12030,12047,12064,12080,12097,12114,12130,12147,12164,12180,12197,12214,12230,12247,12264,12280,12297,12313,12330,12347,12363,12380,12397,12413,12430,12447,12463,12480,12497,12513,12530,12547,12563,12580,12597,12613,12630,12647,12663,12680,12697,12713,12730,12747,12763,12780,12797,12813,12830,12847,12864,12880,12897,12913,12930,12947,12963,12980,12997,13014,13030,13047,13063,13080,13097,13113,13130,13147,13163,13180,13197,13213,13230,13247,13263,13280,13297,13313,13330,13347,13363,13380,13397,13414,13430,13447,13463,13480,13497,13513,13530,13547,13563,13580,13597,13613,13630,13647,13663,13680,13697,13713,13730,13747,13763,13780,13797,13813,13830,13847,13863,13880,13897,13913,13930,13947,13963,13980,13997,14013,14030,14047,14063,14080,14097,14113,14130,14147,14163,14180,14197,14213,14230,14247,14263,14280,14297,14313,14330,14347,14363,14380,14397,14413,14430,14447,14463,14480,14497,14513,14530,14547,14563,14580,14597,14613,14630,14647,14663,14680,14697,14713,14730,14747,14763,14780,14797,14813,14830,14847,14863,14880,14897,14913,14930,14947,14963,14980,14997,15013,15030,15047,15063,15080,15097,15113,15130,15147,15163,15180,15197,15213,15230,15247,15263,15280,15297,15313,15330,15347,15363,15380,15397,15414,15430,15447,15463,15480,15497,15513,15530,15547,15563,15580,15597,15613,15630,15647,15663,15680,15697,15713,15730,15747,15763,15780,15797,15813,15830,15847,15863,15880,15897,15913,15930,15947,15963,15980,15997,16013,16030,16047,16063,16080,16097,16113,16130,16146,16163,16180,16197,16213,16230,16247,16263,16280,16297,16313,16330,16347,16363,16380,16397,16413,16430,16446,16463,16480,16496,16513,16530,16547,16564,16580,16597,16613,16630,16647,16663,16680,16697,16713,16730,16747,16763,16780,16797,16813,16830,16847,16863,16880,16897,16914,16930,16947,16964,16980,16997,17013,17030,17047,17063,17080,17097,17113,17130,17147,17164,17180,17197,17213,17230,17247,17263,17280,17297,17313,17330,17347,17363,17380,17397,17414,17430,17447,17464,17480,17497,17513,17530,17547,17563,17580,17597,17613,17630,17647,17663,17680,17697,17713,17730,17747,17763,17780,17797,17813,17830,17847,17863,17880,17897,17913,17930,17947,17963,17980,17997,18013,18030,18047,18063,18080,18097,18114,18130,18147,18163,18180,18197,18213,18230,18247,18264,18280,18297,18313,18330,18347,18363,18380,18397,18413,18430,18447,18463,18480,18497,18513,18530,18547,18563,18580,18597,18613,18630,18647,18663,18680,18697,18713,18730,18747,18763,18780,18797,18813,18830,18847,18863,18880,18897,18913,18930,18947,18963,18980,18997,19013,19030,19047,19063,19080,19097,19113,19130,19146,19163,19180,19197,19213,19230,19247,19263,19280,19297,19313,19330,19347,19363,19380,19396,19413,19430,19446,19463,19480,19497,19513,19530,19546,19563,19580,19596,19613,19630,19647,19663,19680,19696,19713,19730,19747,19763,19780,19797,19813,19830,19847,19863,19880,19896,19913,19930,19946,19963,19980,19997,20013,20030,20046,20063,20080,20096,20113,20130,20147,20163,20180,20196,20213,20230,20246,20263,20280,20296,20313,20330,20346,20363,20380,20396,20413,20430,20447,20463,20480,20497,20513,20530,20546,20563,20580,20596,20613,20630,20646,20663,20680,20696,20713,20730,20746,20763,20780,20796,20813,20830,20847,20863,20880,20896,20913,20930,20946,20963,20980,20997,21013,21030,21046,21063,21080,21096,21113,21130,21146,21163,21180,21196,21213,21230,21246,21263,21280,21296,21313,21330,21346,21363,21380,21396,21413,21430,21446,21463,21480,21496,21513,21530,21546,21563,21580,21596,21613,21630,21646,21663,21680,21697,21713,21730,21747,21763,21780,21796,21813,21830,21846,21863,21880,21896,21913,21930,21946,21963,21980,21997,22013,22030,22046,22063,22080,22097,22113,22130,22147,22163,22180,22197,22213,22230,22247,22263,22280,22297,22313,22330,22347,22364,22380,22397,22413,22430,22446,22463,22480,22496,22513,22530,22546,22563,22580,22596,22613,22630,22646,22663,22680,22697,22713,22730,22747,22763,22780,22797,22814,22830,22847,22863,22880,22897,22913,22930,22947,22963,22980,22997,23013,23030,23047,23063,23080,23097,23113,23130,23147,23163,23180,23196,23213,23230,23246,23263,23280,23296,23313,23330,23346,23363,23380,23396,23413,23430,23446,23463,23480,23496,23513,23530,23546,23563,23580,23596,23613,23630,23646,23663,23680,23697,23713,23730,23747,23763,23780,23797,23813,23830,23847,23863,23880,23897,23913,23930,23947,23963,23980,23997,24013,24030,24047,24063,24080,24097,24113,24130,24147,24163,24180,24197,24213,24230,24246,24263,24280,24296,24313,24330,24346,24363,24380,24396,24413,24430,24446,24463,24480,24496,24513,24530,24547,24563,24580,24597,24613,24630,24646,24663,24680,24697,24713,24730,24747,24763,24780,24797,24813,24830,24846,24863,24880,24897,24913,24930,24946,24963,24980,24997,25013,25030,25047,25063,25080,25097,25113,25130,25147,25163,25180,25196,25213,25230,25247,25263,25280,25296,25313,25330,25346,25363,25380,25396,25413,25430,25446,25463,25480,25496,25513,25530,25546,25563,25580,25596,25613,25630,25646,25663,25680,25697,25713,25730,25746,25763,25780,25797,25813,25830,25847,25863,25880,25897,25913,25930,25947,25963,25980,25997,26013,26030,26047,26063,26080,26097,26113,26130,26147,26163,26180,26197,26213,26230,26247,26263,26280,26296,26313,26330,26346,26363,26380,26396,26413,26430,26446,26463,26480,26496,26513,26530,26546,26563,26580,26596,26613,26630,26646,26663,26680,26696,26713,26730,26746,26763,26780,26797,26813,26830,26846,26863,26880,26896,26913,26930,26946,26963,26980,26997,27013,27030,27046,27063,27080,27097,27113,27130,27146,27163,27180,27197,27213,27230,27247,27263,27280,27297,27313,27330,27347,27363,27380,27397,27413,27430,27447,27463,27480,27497,27513,27530,27547,27563,27580,27596,27613,27630,27647,27663,27680,27696,27713,27730,27746,27763,27780,27796,27813,27829,27846,27863,27880,27896,27913,27930,27946,27963,27980,27996,28013,28030,28046,28063,28080,28096,28113,28131,28146,28163,28180,28196,28213,28230,28246,28263,28280,28296,28313,28330,28346,28363,28380,28396,28413,28430,28446,28463,28480,28496,28513,28530,28547,28563,28580,28596,28613,28630,28647,28663,28680,28697,28713,28730,28747,28763,28780,28797,28813,28830,28847,28863,28880,28896,28913,28930,28947,28963,28980,28997,29013,29030,29046,29063,29080,29097,29113,29130,29147,29163,29180,29197,29213,29230,29247,29263,29280,29296,29313,29330,29346,29363,29380,29396,29413,29430,29446,29463,29480,29496,29513,29530,29546,29563,29580,29596,29613,29630,29646,29663,29679,29696,29713,29730,29747,29763,29780,29797,29813,29830,29847,29863,29880,29896,29913,29930,29946,29963,29980,29997,30013,30030,30046,30063,30080,30096,30113,30131],"hit":[null],"x":[-2.693877551020408,-2.693877551020408,-2.693877551020408,-2.693877551020408,-2.693877551020408,-2.693877551020408,-2.693877551020408,-2.693877551020408,-2.693877551020408,-2.693877551020408,-2.693877551020408,-2.693877551020408,-2.693877551020408,-2.693877551020408,-2.693877551020408,-2.693877551020408,-2.693877551020408,-2.693877551020408,-2.693877551020408,-2.693877551020408,-2.693877551020408,-2.693877551020408,-2.693877551020408,-2.693877551020408,-2.693877551020408,-2.693877551020408,-2.693877551020408,-2.693877551020408,-2.693877551020408,-2.693877551020408,-2.693877551020408,-2.693877551020408,0.03741496598639456,0.03741496598639456,0.03741496598639456,0.03741496598639456,0.03741496598639456,0.03741496598639456,0.03741496598639456,0.03741496598639456,0.03741496598639456,0.03741496598639456,0.03741496598639456,0.03741496598639456,0.03741496598639456,0.03741496598639456,0.03741496598639456,0.034013605442176874,0.034013605442176874,0.030612244897959183,0.030612244897959183,0.023809523809523808,0.02040816326530612,0.02040816326530612,0.02040816326530612,0.02040816326530612,0.013605442176870748,0.013605442176870748,0.013605442176870748,0.013605442176870748,0.013605442176870748,0.013605442176870748,0.013605442176870748,0.013605442176870748,0.013605442176870748,0.013605442176870748,0.02040816326530612,0.02040816326530612,0.02040816326530612,0.023809523809523808,0.027210884353741496,0.027210884353741496,0.027210884353741496,0.027210884353741496,0.027210884353741496,0.027210884353741496,0.027210884353741496,0.027210884353741496,0.027210884353741496,0.027210884353741496,0.027210884353741496,0.027210884353741496,0.027210884353741496,0.027210884353741496,0.027210884353741496,0.027210884353741496,0.027210884353741496,0.027210884353741496,0.027210884353741496,0.027210884353741496,0.027210884353741496,0.027210884353741496,0.027210884353741496,0.027210884353741496,0.027210884353741496,0.027210884353741496,0.030612244897959183,0.030612244897959183,0.034013605442176874,0.03741496598639456,0.03741496598639456,0.04081632653061224,0.04421768707482993,0.047619047619047616,0.05102040816326531,0.05442176870748299,0.061224489795918366,0.06462585034013606,0.06462585034013606,0.06462585034013606,0.06802721088435375,0.07142857142857142,0.07142857142857142,0.0782312925170068,0.08163265306122448,0.08503401360544217,0.08503401360544217,0.08503401360544217,0.08843537414965986,0.09183673469387756,0.10204081632653061,0.11224489795918367,0.12585034013605442,0.1292517006802721,0.14285714285714285,0.16666666666666666,0.1836734693877551,0.20068027210884354,0.20408163265306123,0.20748299319727892,0.20748299319727892,0.20748299319727892,0.2108843537414966,0.21428571428571427,0.21428571428571427,0.22108843537414966,0.22448979591836735,0.22789115646258504,0.22789115646258504,0.23129251700680273,0.23469387755102042,0.23469387755102042,0.23809523809523808,0.24149659863945577,0.24149659863945577,0.24829931972789115,0.24829931972789115,0.24829931972789115,0.25170068027210885,0.25510204081632654,0.2619047619047619,0.2619047619047619,0.2653061224489796,0.2687074829931973,0.2755102040816326,0.282312925170068,0.2857142857142857,0.29591836734693877,0.30272108843537415,0.30612244897959184,0.30612244897959184,0.3129251700680272,0.3129251700680272,0.3129251700680272,0.3129251700680272,0.3129251700680272,0.3129251700680272,0.3129251700680272,0.3129251700680272,0.3129251700680272,0.3129251700680272,0.3129251700680272,0.3129251700680272,0.3129251700680272,0.3129251700680272,0.3129251700680272,0.3129251700680272,0.3129251700680272,0.3129251700680272,0.3129251700680272,0.3129251700680272,0.3129251700680272,0.3129251700680272,0.3129251700680272,0.3129251700680272,0.3129251700680272,0.3129251700680272,0.3129251700680272,0.3129251700680272,0.3129251700680272,0.3129251700680272,0.3129251700680272,0.3129251700680272,0.3129251700680272,0.3129251700680272,0.3129251700680272,0.3129251700680272,0.3129251700680272,0.3129251700680272,0.3129251700680272,0.3129251700680272,0.3129251700680272,0.3129251700680272,0.3129251700680272,0.3129251700680272,0.3129251700680272,0.3129251700680272,0.3129251700680272,0.3129251700680272,0.3129251700680272,0.3129251700680272,0.3129251700680272,0.3231292517006803,0.3333333333333333,0.3401360544217687,0.36054421768707484,0.37755102040816324,0.391156462585034,0.391156462585034,0.391156462585034,0.3945578231292517,0.4013605442176871,0.40476190476190477,0.41156462585034015,0.4217687074829932,0.42517006802721086,0.42517006802721086,0.42517006802721086,0.42857142857142855,0.42857142857142855,0.43197278911564624,0.4387755102040816,0.4387755102040816,0.4421768707482993,0.4421768707482993,0.445578231292517,0.445578231292517,0.4489795918367347,0.4523809523809524,0.4557823129251701,0.4557823129251701,0.4557823129251701,0.4557823129251701,0.45918367346938777,0.46598639455782315,0.46598639455782315,0.46598639455782315,0.46598639455782315,0.46598639455782315,0.46598639455782315,0.46598639455782315,0.46598639455782315,0.46598639455782315,0.46598639455782315,0.46598639455782315,0.46598639455782315,0.46598639455782315,0.46598639455782315,0.46598639455782315,0.46598639455782315,0.46598639455782315,0.46598639455782315,0.46598639455782315,0.46598639455782315,0.46598639455782315,0.46258503401360546,0.45918367346938777,0.4523809523809524,0.4523809523809524,0.4523809523809524,0.4523809523809524,0.4523809523809524,0.4523809523809524,0.445578231292517,0.445578231292517,0.445578231292517,0.445578231292517,0.445578231292517,0.445578231292517,0.445578231292517,0.4387755102040816,0.4387755102040816,0.43537414965986393,0.43537414965986393,0.42857142857142855,0.42517006802721086,0.4217687074829932,0.41156462585034015,0.41156462585034015,0.40816326530612246,0.40476190476190477,0.4013605442176871,0.3945578231292517,0.3945578231292517,0.3945578231292517,0.3945578231292517,0.3945578231292517,0.391156462585034,0.391156462585034,0.391156462585034,0.391156462585034,0.3843537414965986,0.3673469387755102,0.3401360544217687,0.3231292517006803,0.3129251700680272,0.30612244897959184,0.29591836734693877,0.2857142857142857,0.2755102040816326,0.2653061224489796,0.25510204081632654,0.25510204081632654,0.25510204081632654,0.25510204081632654,0.25510204081632654,0.25510204081632654,0.25510204081632654,0.25510204081632654,0.25510204081632654,0.25510204081632654,0.25510204081632654,0.25510204081632654,0.25510204081632654,0.25510204081632654,0.25510204081632654,0.25510204081632654,0.2687074829931973,0.2925170068027211,0.30952380952380953,0.3197278911564626,0.3299319727891156,0.336734693877551,0.3435374149659864,0.3469387755102041,0.35034013605442177,0.35034013605442177,0.35714285714285715,0.35714285714285715,0.35714285714285715,0.36054421768707484,0.36054421768707484,0.36054421768707484,0.36054421768707484,0.36054421768707484,0.36054421768707484,0.36054421768707484,0.36054421768707484,0.36054421768707484,0.36054421768707484,0.36054421768707484,0.36054421768707484,0.36054421768707484,0.36054421768707484,0.36054421768707484,0.36054421768707484,0.36054421768707484,0.36054421768707484,0.36054421768707484,0.36054421768707484,0.36054421768707484,0.36054421768707484,0.36394557823129253,0.36394557823129253,0.36394557823129253,0.36394557823129253,0.36394557823129253,0.36394557823129253,0.36394557823129253,0.36394557823129253,0.36394557823129253,0.36394557823129253,0.36394557823129253,0.36394557823129253,0.36394557823129253,0.36394557823129253,0.36394557823129253,0.36394557823129253,0.36394557823129253,0.36394557823129253,0.36394557823129253,0.36394557823129253,0.36394557823129253,0.36394557823129253,0.36394557823129253,0.36394557823129253,0.36394557823129253,0.36394557823129253,0.36394557823129253,0.36394557823129253,0.36394557823129253,0.37755102040816324,0.3877551020408163,0.391156462585034,0.391156462585034,0.391156462585034,0.3945578231292517,0.3945578231292517,0.40476190476190477,0.40476190476190477,0.40476190476190477,0.41156462585034015,0.41496598639455784,0.4387755102040816,0.4557823129251701,0.46598639455782315,0.46938775510204084,0.47959183673469385,0.4965986394557823,0.5068027210884354,0.5136054421768708,0.5136054421768708,0.5170068027210885,0.5170068027210885,0.5238095238095238,0.5238095238095238,0.5238095238095238,0.5238095238095238,0.5238095238095238,0.5238095238095238,0.5238095238095238,0.5238095238095238,0.5238095238095238,0.5238095238095238,0.5238095238095238,0.5272108843537415,0.5272108843537415,0.5272108843537415,0.5272108843537415,0.5272108843537415,0.5272108843537415,0.5272108843537415,0.5306122448979592,0.5340136054421769,0.5374149659863946,0.5476190476190477,0.5544217687074829,0.564625850340136,0.5748299319727891,0.5748299319727891,0.5748299319727891,0.5782312925170068,0.5816326530612245,0.5850340136054422,0.5850340136054422,0.5850340136054422,0.5850340136054422,0.5850340136054422,0.5850340136054422,0.5850340136054422,0.5850340136054422,0.5884353741496599,0.5918367346938775,0.6020408163265306,0.6122448979591837,0.6258503401360545,0.6360544217687075,0.6394557823129252,0.6428571428571429,0.6428571428571429,0.6428571428571429,0.6462585034013606,0.6462585034013606,0.6530612244897959,0.6564625850340136,0.6598639455782312,0.6632653061224489,0.6632653061224489,0.6666666666666666,0.6666666666666666,0.6666666666666666,0.6666666666666666,0.673469387755102,0.6768707482993197,0.6802721088435374,0.6802721088435374,0.6802721088435374,0.6836734693877551,0.6870748299319728,0.6870748299319728,0.6870748299319728,0.6938775510204082,0.6938775510204082,0.6938775510204082,0.6972789115646258,0.7006802721088435,0.7006802721088435,0.7006802721088435,0.7074829931972789,0.7074829931972789,0.7074829931972789,0.7074829931972789,0.7074829931972789,0.7074829931972789,0.7074829931972789,0.7074829931972789,0.7074829931972789,0.7074829931972789,0.7074829931972789,0.7074829931972789,0.7074829931972789,0.7074829931972789,0.7074829931972789,0.7074829931972789,0.7074829931972789,0.7074829931972789,0.7074829931972789,0.7074829931972789,0.7074829931972789,0.7074829931972789,0.7074829931972789,0.7074829931972789,0.7074829931972789,0.7074829931972789,0.7074829931972789,0.7074829931972789,0.7074829931972789,0.7074829931972789,0.7108843537414966,0.7108843537414966,0.7108843537414966,0.7108843537414966,0.7074829931972789,0.7040816326530612,0.6938775510204082,0.6836734693877551,0.673469387755102,0.6666666666666666,0.6632653061224489,0.6564625850340136,0.6564625850340136,0.6530612244897959,0.6530612244897959,0.6462585034013606,0.6428571428571429,0.6360544217687075,0.6292517006802721,0.6224489795918368,0.6190476190476191,0.608843537414966,0.5952380952380952,0.5714285714285714,0.5510204081632653,0.5340136054421769,0.5238095238095238,0.5136054421768708,0.5068027210884354,0.5,0.4931972789115646,0.48639455782312924,0.47619047619047616,0.46258503401360546,0.4489795918367347,0.4387755102040816,0.43537414965986393,0.42517006802721086,0.42517006802721086,0.4217687074829932,0.41836734693877553,0.41156462585034015,0.41156462585034015,0.41156462585034015,0.41156462585034015,0.40816326530612246,0.40816326530612246,0.40816326530612246,0.40816326530612246,0.40816326530612246,0.40816326530612246,0.40816326530612246,0.40816326530612246,0.40816326530612246,0.40816326530612246,0.40816326530612246,0.40816326530612246,0.40816326530612246,0.4013605442176871,0.4013605442176871,0.3979591836734694,0.3945578231292517,0.391156462585034,0.3843537414965986,0.38095238095238093,0.37755102040816324,0.3741496598639456,0.3707482993197279,0.3673469387755102,0.35714285714285715,0.3435374149659864,0.3231292517006803,0.3129251700680272,0.29591836734693877,0.2789115646258503,0.2619047619047619,0.24489795918367346,0.23129251700680273,0.22789115646258504,0.21768707482993196,0.21428571428571427,0.21428571428571427,0.21428571428571427,0.21428571428571427,0.21428571428571427,0.21428571428571427,0.21428571428571427,0.21428571428571427,0.21428571428571427,0.21428571428571427,0.21428571428571427,0.21428571428571427,0.2108843537414966,0.2108843537414966,0.20748299319727892,0.20748299319727892,0.20748299319727892,0.20408163265306123,0.20408163265306123,0.20408163265306123,0.20408163265306123,0.20408163265306123,0.20068027210884354,0.19727891156462585,0.19727891156462585,0.19387755102040816,0.19387755102040816,0.19387755102040816,0.19387755102040816,0.19387755102040816,0.19387755102040816,0.20068027210884354,0.2108843537414966,0.21768707482993196,0.23469387755102042,0.24489795918367346,0.2619047619047619,0.2925170068027211,0.3197278911564626,0.3435374149659864,0.36394557823129253,0.38095238095238093,0.4013605442176871,0.41496598639455784,0.42857142857142855,0.445578231292517,0.46598639455782315,0.48299319727891155,0.5,0.5,0.5,0.5,0.5,0.5034013605442177,0.5068027210884354,0.5102040816326531,0.5170068027210885,0.5170068027210885,0.5204081632653061,0.5204081632653061,0.5238095238095238,0.5272108843537415,0.5306122448979592,0.5340136054421769,0.5374149659863946,0.5374149659863946,0.5374149659863946,0.5374149659863946,0.5374149659863946,0.5374149659863946,0.5374149659863946,0.5374149659863946,0.5374149659863946,0.5374149659863946,0.5374149659863946,0.5374149659863946,0.5374149659863946,0.5374149659863946,0.5374149659863946,0.5374149659863946,0.5374149659863946,0.5374149659863946,0.5374149659863946,0.5374149659863946,0.5374149659863946,0.5374149659863946,0.5374149659863946,0.5374149659863946,0.5374149659863946,0.5374149659863946,0.5374149659863946,0.5374149659863946,0.5374149659863946,0.5272108843537415,0.5136054421768708,0.4897959183673469,0.46598639455782315,0.4387755102040816,0.3843537414965986,0.2619047619047619,0.13945578231292516,-0.01020408163265306,-0.15306122448979592,-0.2891156462585034,-0.4013605442176871,-0.47278911564625853,-0.5170068027210885,-0.5510204081632653,-0.564625850340136,-0.5782312925170068,-0.5850340136054422,-0.5918367346938775,-0.5952380952380952,-0.5986394557823129,-0.6020408163265306,-0.608843537414966,-0.608843537414966,-0.608843537414966,-0.6122448979591837,-0.6156462585034014,-0.6190476190476191,-0.6224489795918368,-0.6292517006802721,-0.6326530612244898,-0.6326530612244898,-0.6360544217687075,-0.6394557823129252,-0.6394557823129252,-0.6394557823129252,-0.6394557823129252,-0.6394557823129252,-0.6394557823129252,-0.6394557823129252,-0.6394557823129252,-0.6394557823129252,-0.6394557823129252,-0.6394557823129252,-0.6394557823129252,-0.6428571428571429,-0.6428571428571429,-0.6428571428571429,-0.6428571428571429,-0.6428571428571429,-0.6428571428571429,-0.6428571428571429,-0.6428571428571429,-0.6428571428571429,-0.6428571428571429,-0.6428571428571429,-0.6428571428571429,-0.6428571428571429,-0.6428571428571429,-0.6428571428571429,-0.6428571428571429,-0.6428571428571429,-0.6428571428571429,-0.6428571428571429,-0.6428571428571429,-0.6428571428571429,-0.6428571428571429,-0.6428571428571429,-0.6428571428571429,-0.6428571428571429,-0.6428571428571429,-0.6428571428571429,-0.6428571428571429,-0.6428571428571429,-0.6428571428571429,-0.6428571428571429,-0.6428571428571429,-0.6428571428571429,-0.6428571428571429,-0.6428571428571429,-0.6428571428571429,-0.6428571428571429,-0.6428571428571429,-0.6428571428571429,-0.6428571428571429,-0.6428571428571429,-0.6428571428571429,-0.6428571428571429,-0.6428571428571429,-0.6428571428571429,-0.6428571428571429,-0.6428571428571429,-0.6428571428571429,-0.6428571428571429,-0.6428571428571429,-0.6428571428571429,-0.6428571428571429,-0.6428571428571429,-0.6428571428571429,-0.6428571428571429,-0.6428571428571429,-0.6428571428571429,-0.6428571428571429,-0.6428571428571429,-0.6428571428571429,-0.6428571428571429,-0.6428571428571429,-0.6428571428571429,-0.6428571428571429,-0.6428571428571429,-0.6428571428571429,-0.6428571428571429,-0.6428571428571429,-0.6428571428571429,-0.6428571428571429,-0.6428571428571429,-0.6428571428571429,-0.6428571428571429,-0.6428571428571429,-0.6428571428571429,-0.6428571428571429,-0.6428571428571429,-0.6428571428571429,-0.6428571428571429,-0.6428571428571429,-0.6428571428571429,-0.6428571428571429,-0.6428571428571429,-0.6428571428571429,-0.6428571428571429,-0.6428571428571429,-0.6428571428571429,-0.6428571428571429,-0.6428571428571429,-0.6428571428571429,-0.6428571428571429,-0.6428571428571429,-0.6428571428571429,-0.6428571428571429,-0.6428571428571429,-0.6428571428571429,-0.6428571428571429,-0.6428571428571429,-0.6428571428571429,-0.6428571428571429,-0.6428571428571429,-0.6428571428571429,-0.6428571428571429,-0.6428571428571429,-0.6428571428571429,-0.6428571428571429,-0.6428571428571429,-0.6428571428571429,-0.6428571428571429,-0.6428571428571429,-0.6428571428571429,-0.6428571428571429,-0.6428571428571429,-0.6428571428571429,-0.6428571428571429,-0.6428571428571429,-0.6428571428571429,-0.6428571428571429,-0.6428571428571429,-0.6428571428571429,-0.6428571428571429,-0.6428571428571429,-0.6428571428571429,-0.6428571428571429,-0.6428571428571429,-0.6428571428571429,-0.6428571428571429,-0.6428571428571429,-0.6428571428571429,-0.6428571428571429,-0.6428571428571429,-0.6428571428571429,-0.6428571428571429,-0.6428571428571429,-0.6428571428571429,-0.6428571428571429,-0.6428571428571429,-0.6428571428571429,-0.6428571428571429,-0.6428571428571429,-0.6428571428571429,-0.6428571428571429,-0.6428571428571429,-0.6428571428571429,-0.6428571428571429,-0.6428571428571429,-0.6428571428571429,-0.6428571428571429,-0.6428571428571429,-0.6428571428571429,-0.6428571428571429,-0.6428571428571429,-0.6428571428571429,-0.6428571428571429,-0.6428571428571429,-0.6428571428571429,-0.6428571428571429,-0.6428571428571429,-0.6428571428571429,-0.6428571428571429,-0.6428571428571429,-0.6428571428571429,-0.6428571428571429,-0.6428571428571429,-0.6428571428571429,-0.6428571428571429,-0.6428571428571429,-0.6428571428571429,-0.6428571428571429,-0.6428571428571429,-0.6428571428571429,-0.6428571428571429,-0.6428571428571429,-0.6428571428571429,-0.6428571428571429,-0.6428571428571429,-0.6428571428571429,-0.6428571428571429,-0.6428571428571429,-0.6428571428571429,-0.6428571428571429,-0.6428571428571429,-0.6428571428571429,-0.6428571428571429,-0.6428571428571429,-0.6428571428571429,-0.6428571428571429,-0.6428571428571429,-0.6428571428571429,-0.6428571428571429,-0.6428571428571429,-0.6428571428571429,-0.6428571428571429,-0.6428571428571429,-0.6428571428571429,-0.6428571428571429,-0.6428571428571429,-0.6428571428571429,-0.6428571428571429,-0.6428571428571429,-0.6428571428571429,-0.6428571428571429,-0.6428571428571429,-0.6428571428571429,-0.6428571428571429,-0.6428571428571429,-0.6428571428571429,-0.6428571428571429,-0.6428571428571429,-0.6428571428571429,-0.6428571428571429,-0.6428571428571429,-0.6428571428571429,-0.6428571428571429,-0.6428571428571429,-0.6428571428571429,-0.6428571428571429,-0.6428571428571429,-0.6428571428571429,-0.6428571428571429,-0.6428571428571429,-0.6428571428571429,-0.6428571428571429,-0.6428571428571429,-0.6428571428571429,-0.6428571428571429,-0.6428571428571429,-0.6428571428571429,-0.6428571428571429,-0.6428571428571429,-0.6428571428571429,-0.6428571428571429,-0.6428571428571429,-0.6428571428571429,-0.6428571428571429,-0.6428571428571429,-0.6428571428571429,-0.6428571428571429,-0.6428571428571429,-0.6428571428571429,-0.6428571428571429,-0.6428571428571429,-0.6428571428571429,-0.6428571428571429,-0.6428571428571429,-0.6428571428571429,-0.6428571428571429,-0.6428571428571429,-0.6428571428571429,-0.6428571428571429,-0.6428571428571429,-0.6428571428571429,-0.6428571428571429,-0.6428571428571429,-0.6428571428571429,-0.6428571428571429,-0.6428571428571429,-0.6428571428571429,-0.6428571428571429,-0.6428571428571429,-0.6428571428571429,-0.6428571428571429,-0.6428571428571429,-0.6428571428571429,-0.6428571428571429,-0.6428571428571429,-0.6428571428571429,-0.6428571428571429,-0.6428571428571429,-0.6428571428571429,-0.6428571428571429,-0.6428571428571429,-0.6428571428571429,-0.6428571428571429,-0.6428571428571429,-0.6428571428571429,-0.6326530612244898,-0.47959183673469385,-0.10204081632653061,0.4489795918367347,1.2074829931972788,2.1530612244897958,2.9115646258503403,3.193877551020408,3.1564625850340136,3.068027210884354,3.04421768707483,3.04421768707483,3.0408163265306123,3.0170068027210886,2.891156462585034,2.7551020408163267,2.1598639455782314,1.748299319727891,1.346938775510204,1.010204081632653,0.7789115646258503,0.608843537414966,0.5272108843537415,0.47959183673469385,0.4387755102040816,0.3877551020408163,0.3299319727891156,0.2585034013605442,0.19727891156462585,0.16326530612244897,0.14965986394557823,0.14285714285714285,0.1326530612244898,0.12585034013605442,0.12585034013605442,0.12585034013605442,0.12585034013605442,0.12585034013605442,0.12585034013605442,0.12585034013605442,0.1326530612244898,0.13945578231292516,0.13945578231292516,0.14285714285714285,0.14285714285714285,0.14625850340136054,0.14625850340136054,0.14625850340136054,0.14625850340136054,0.14625850340136054,0.14625850340136054,0.14625850340136054,0.14625850340136054,0.14625850340136054,0.14625850340136054,0.14625850340136054,0.14625850340136054,0.14625850340136054,0.14625850340136054,0.14625850340136054,0.14625850340136054,0.14625850340136054,0.14625850340136054,0.14625850340136054,0.14965986394557823,0.14965986394557823,0.14965986394557823,0.14965986394557823,0.14965986394557823,0.14965986394557823,0.14965986394557823,0.14965986394557823,0.14965986394557823,0.14965986394557823,0.14625850340136054,0.14625850340136054,0.14625850340136054,0.14285714285714285,0.14285714285714285,0.1360544217687075,0.1360544217687075,0.1360544217687075,0.12585034013605442,0.12585034013605442,0.12244897959183673,0.12244897959183673,0.12244897959183673,0.12244897959183673,0.12244897959183673,0.12244897959183673,0.12244897959183673,0.12244897959183673,0.12244897959183673,0.12244897959183673,0.12244897959183673,0.12244897959183673,0.12244897959183673,0.12244897959183673,0.12244897959183673,0.12244897959183673,0.12244897959183673,0.12244897959183673,0.12244897959183673,0.12244897959183673,0.12244897959183673,0.12244897959183673,0.12244897959183673,0.12244897959183673,0.12244897959183673,0.12244897959183673,0.12244897959183673,0.12244897959183673,0.12244897959183673,0.12244897959183673,0.12244897959183673,0.12244897959183673,0.12244897959183673,0.12244897959183673,0.12244897959183673,0.12244897959183673,0.12244897959183673,0.12244897959183673,0.12244897959183673,0.12244897959183673,0.12244897959183673,0.12244897959183673,0.12244897959183673,0.12244897959183673,0.12244897959183673,0.12244897959183673,0.12244897959183673,0.12244897959183673,0.12244897959183673,0.12244897959183673,0.12244897959183673,0.12244897959183673,0.12244897959183673,0.12244897959183673,0.12244897959183673,0.12244897959183673,0.12244897959183673,0.12244897959183673,0.12244897959183673,0.12244897959183673,0.12244897959183673,0.12244897959183673,0.12244897959183673,0.12244897959183673,0.12244897959183673,0.12244897959183673,0.12244897959183673,0.12244897959183673,0.12244897959183673,0.12244897959183673,0.12244897959183673,0.12244897959183673,0.12244897959183673,0.12244897959183673,0.12244897959183673,0.12244897959183673,0.12244897959183673,0.12244897959183673,0.12244897959183673,0.12244897959183673,0.12244897959183673,0.12244897959183673,0.12244897959183673,0.12244897959183673,0.12244897959183673,0.12244897959183673,0.12244897959183673,0.12244897959183673,0.12244897959183673,0.12244897959183673,0.12244897959183673,0.12244897959183673,0.12244897959183673,0.12244897959183673,0.12244897959183673,0.12244897959183673,0.12244897959183673,0.12244897959183673,0.12244897959183673,0.12244897959183673,0.12244897959183673,0.12244897959183673,0.12244897959183673,0.12244897959183673,0.12244897959183673,0.12244897959183673,0.12244897959183673,0.12244897959183673,0.12244897959183673,0.12244897959183673,0.12244897959183673,0.12244897959183673,0.12244897959183673,0.12244897959183673,0.12244897959183673,0.12244897959183673,0.12244897959183673,0.12244897959183673,0.12244897959183673,0.12244897959183673,0.12244897959183673,0.12244897959183673,0.12244897959183673,0.12244897959183673,0.12244897959183673,0.12244897959183673,0.12244897959183673,0.12244897959183673,0.12244897959183673,0.12244897959183673,0.12244897959183673,0.12244897959183673,0.12244897959183673,0.12244897959183673,0.12244897959183673,0.12244897959183673,0.12244897959183673,0.12244897959183673,0.12244897959183673,0.12244897959183673,0.12244897959183673,0.12244897959183673,0.12244897959183673,0.12244897959183673,0.12244897959183673,0.12244897959183673,0.12244897959183673,0.12244897959183673,0.12244897959183673,0.12244897959183673,0.12244897959183673,0.12244897959183673,0.12244897959183673,0.12244897959183673,0.12244897959183673,0.12244897959183673,0.12244897959183673,0.12244897959183673,0.12244897959183673,0.12244897959183673,0.12244897959183673,0.12244897959183673,0.12244897959183673,0.12244897959183673,0.12244897959183673,0.12244897959183673,0.12244897959183673,0.12244897959183673,0.12244897959183673,0.12244897959183673,0.12244897959183673,0.12244897959183673,0.12244897959183673,0.12244897959183673,0.12244897959183673,0.12244897959183673,0.12244897959183673,0.12244897959183673,0.12244897959183673,0.12244897959183673,0.12244897959183673,0.12244897959183673,0.12244897959183673,0.12244897959183673,0.12244897959183673,0.12244897959183673,0.12244897959183673,0.12244897959183673,0.12244897959183673,0.12244897959183673,0.12244897959183673,0.12244897959183673,0.12244897959183673,0.12244897959183673,0.12244897959183673,0.12244897959183673,0.12244897959183673,0.12244897959183673,0.12244897959183673,0.12244897959183673,0.12244897959183673,0.12244897959183673,0.12244897959183673,0.12244897959183673,0.12244897959183673,0.12244897959183673,0.12244897959183673,0.12244897959183673,0.12244897959183673,0.12244897959183673,0.12244897959183673,0.12244897959183673,0.12244897959183673,0.12244897959183673,0.12244897959183673,0.12244897959183673,0.12244897959183673,0.12244897959183673,0.12244897959183673,0.12244897959183673,0.12244897959183673,0.12244897959183673,0.12244897959183673,0.12244897959183673,0.12244897959183673,0.12244897959183673,0.12244897959183673,0.12244897959183673,0.11904761904761904,0.09183673469387756,0.08163265306122448,0.08163265306122448,0.09523809523809523,0.1054421768707483,0.12244897959183673,0.14285714285714285,0.19047619047619047,0.24489795918367346,0.3129251700680272,0.3945578231292517,0.47619047619047616,0.5850340136054422,0.6428571428571429,0.7006802721088435,0.7653061224489796,0.8401360544217688,0.9285714285714286,0.9319727891156463,0.9319727891156463,0.9319727891156463,0.9319727891156463,0.9319727891156463,0.9319727891156463,0.9319727891156463,0.9319727891156463,0.9319727891156463,0.9319727891156463,0.9319727891156463,0.9319727891156463,0.9319727891156463,0.9319727891156463,0.9319727891156463,0.9319727891156463,0.9319727891156463,0.9319727891156463,0.9251700680272109,0.9081632653061225,0.8775510204081632,0.8197278911564626,0.7414965986394558,0.6496598639455783,0.5374149659863946,0.3979591836734694,0.2891156462585034,0.21768707482993196,0.17006802721088435,0.13945578231292516,0.12244897959183673,0.12244897959183673,0.11224489795918367,0.10204081632653061,0.09523809523809523,0.08503401360544217,0.06462585034013606,0.05102040816326531,0.04081632653061224,0.027210884353741496,0.017006802721088437,0.013605442176870748,0.01020408163265306,0,-0.006802721088435374,-0.006802721088435374,-0.01020408163265306,-0.01020408163265306,-0.01020408163265306,-0.01020408163265306,-0.01020408163265306,-0.01020408163265306,-0.01020408163265306,-0.01020408163265306,-0.01020408163265306,-0.01020408163265306,-0.01020408163265306,-0.01020408163265306,-0.01020408163265306,-0.01020408163265306,-0.01020408163265306,-0.01020408163265306,-0.01020408163265306,-0.01020408163265306,-0.01020408163265306,-0.01020408163265306,-0.01020408163265306,-0.01020408163265306,-0.01020408163265306,-0.01020408163265306,-0.01020408163265306,-0.01020408163265306,-0.01020408163265306,-0.01020408163265306,-0.01020408163265306,-0.01020408163265306,-0.01020408163265306,-0.01020408163265306,-0.017006802721088437,-0.02040816326530612,-0.027210884353741496,-0.03741496598639456,-0.05102040816326531,-0.07482993197278912,-0.10884353741496598,-0.1564625850340136,-0.20068027210884354,-0.22789115646258504,-0.24489795918367346,-0.2585034013605442,-0.2687074829931973,-0.282312925170068,-0.2891156462585034,-0.2925170068027211,-0.2925170068027211,-0.2891156462585034,-0.2755102040816326,-0.25510204081632654,-0.22448979591836735,-0.17006802721088435,-0.11224489795918367,-0.07142857142857142,-0.017006802721088437,0.030612244897959183,0.08843537414965986,0.14625850340136054,0.20748299319727892,0.25170068027210885,0.282312925170068,0.29931972789115646,0.30272108843537415,0.30272108843537415,0.30272108843537415,0.30272108843537415,0.30272108843537415,0.30272108843537415,0.30272108843537415,0.30272108843537415,0.30272108843537415,0.30272108843537415,0.30272108843537415,0.30272108843537415,0.30272108843537415,0.30272108843537415,0.30272108843537415,0.30272108843537415,0.30272108843537415,0.30272108843537415,0.30272108843537415,0.2925170068027211,0.282312925170068,0.272108843537415,0.25510204081632654,0.23809523809523808,0.22448979591836735,0.21768707482993196,0.21768707482993196,0.22448979591836735,0.29931972789115646,0.47619047619047616,0.6632653061224489,0.8231292517006803,0.95578231292517,1.0408163265306123,1.0850340136054422,1.0918367346938775,1.0918367346938775,1.0918367346938775,1.0918367346938775,1.0918367346938775,1.0952380952380953,1.0952380952380953,1.0952380952380953,1.0952380952380953,1.0952380952380953,1.0918367346938775,1.0850340136054422,1.0782312925170068,1.064625850340136,1.0510204081632653,1.0442176870748299,1.034013605442177,1.034013605442177,1.030612244897959,1.030612244897959,1.0272108843537415,1.0238095238095237,1.0136054421768708,1.0136054421768708,1.0136054421768708,1.0136054421768708,1.010204081632653,1.010204081632653,1.010204081632653,1.010204081632653,1.010204081632653,1.010204081632653,1.010204081632653,1.010204081632653,1.010204081632653,1.010204081632653,1.010204081632653,1.010204081632653,1.010204081632653,1.010204081632653,1.010204081632653,1.010204081632653,1.010204081632653,1.010204081632653,1.010204081632653,1.010204081632653,1.010204081632653,1.010204081632653,1.010204081632653,1.010204081632653,1.010204081632653,1.010204081632653,1.010204081632653,1.010204081632653,1.010204081632653,1.010204081632653,1.010204081632653,1.0068027210884354,1,0.9795918367346939,0.95578231292517,0.9013605442176871,0.8197278911564626,0.7210884353741497,0.6598639455782312,0.5816326530612245,0.5306122448979592,0.5204081632653061,0.5170068027210885,0.5170068027210885,0.5170068027210885,0.5136054421768708,0.5102040816326531,0.4965986394557823,0.47619047619047616,0.46258503401360546,0.43537414965986393,0.3945578231292517,0.3469387755102041,0.30952380952380953,0.2653061224489796,0.24149659863945577,0.21768707482993196,0.20748299319727892,0.20408163265306123,0.20068027210884354,0.20068027210884354,0.19047619047619047,0.1870748299319728,0.18027210884353742,0.18027210884353742,0.17346938775510204,0.17346938775510204,0.17006802721088435,0.17006802721088435,0.16326530612244897,0.1598639455782313,0.14965986394557823,0.14965986394557823,0.14965986394557823,0.14965986394557823,0.14965986394557823,0.14965986394557823,0.14965986394557823,0.14965986394557823,0.14965986394557823,0.14965986394557823,0.14965986394557823,0.14965986394557823,0.14965986394557823,0.14965986394557823,0.14965986394557823,0.14965986394557823,0.14965986394557823,0.14965986394557823,0.14625850340136054,0.14625850340136054,0.14625850340136054,0.14625850340136054,0.15306122448979592,0.17687074829931973,0.20408163265306123,0.2789115646258503,0.336734693877551,0.3945578231292517,0.445578231292517,0.5,0.5612244897959183,0.6496598639455783,0.6870748299319728,0.7040816326530612,0.7142857142857143,0.7142857142857143,0.7142857142857143,0.7142857142857143,0.7210884353741497,0.7346938775510204,0.7551020408163265,0.782312925170068,0.8027210884353742,0.8333333333333334,0.8639455782312925,0.8877551020408163,0.9081632653061225,0.9285714285714286,0.9591836734693877,0.9931972789115646,1.0136054421768708,1.0204081632653061,1.0238095238095237,1.0272108843537415,1.034013605442177,1.0374149659863945,1.0442176870748299,1.0510204081632653,1.0612244897959184,1.0782312925170068,1.0816326530612246,1.08843537414966,1.0918367346938775,1.098639455782313,1.1054421768707483,1.1088435374149659,1.1156462585034013,1.1224489795918366,1.1224489795918366,1.129251700680272,1.1360544217687074,1.1394557823129252,1.1394557823129252,1.1428571428571428,1.1428571428571428,1.1428571428571428,1.1428571428571428,1.1428571428571428,1.1428571428571428,1.1428571428571428,1.1428571428571428,1.1428571428571428,1.1428571428571428,1.1428571428571428,1.1428571428571428,1.1428571428571428,1.1428571428571428,1.1428571428571428,1.1428571428571428,1.1428571428571428,1.1428571428571428,1.1428571428571428,1.1428571428571428,1.1428571428571428,1.1428571428571428,1.1428571428571428,1.1428571428571428,1.1428571428571428,1.1428571428571428,1.1428571428571428,1.1428571428571428,1.1428571428571428,1.1428571428571428,1.1428571428571428,1.1428571428571428,1.1428571428571428,1.1428571428571428,1.1428571428571428,1.1428571428571428,1.1428571428571428,1.1428571428571428,1.1428571428571428,1.1428571428571428,1.1428571428571428,1.1428571428571428,1.1428571428571428,1.1428571428571428,1.1428571428571428,1.1428571428571428,1.1428571428571428,1.1428571428571428,1.1428571428571428,1.1394557823129252,1.1326530612244898,1.1156462585034013,1.098639455782313,1.0816326530612246,1.0680272108843538,1.0612244897959184,1.0476190476190477,1.0170068027210883,0.9965986394557823,0.9761904761904762,0.9217687074829932,0.8639455782312925,0.7891156462585034,0.7074829931972789,0.6054421768707483,0.47619047619047616,0.35714285714285715,0.23469387755102042,0.1360544217687075,0.05102040816326531,-0.027210884353741496,-0.10204081632653061,-0.17346938775510204,-0.24829931972789115,-0.3129251700680272,-0.3945578231292517,-0.41836734693877553,-0.43537414965986393,-0.4387755102040816,-0.4387755102040816,-0.4421768707482993,-0.445578231292517,-0.4489795918367347,-0.4557823129251701,-0.4557823129251701,-0.45918367346938777,-0.45918367346938777,-0.46598639455782315,-0.46938775510204084,-0.47278911564625853,-0.47959183673469385,-0.48299319727891155,-0.4897959183673469,-0.4897959183673469,-0.4897959183673469,-0.4897959183673469,-0.4897959183673469,-0.4897959183673469,-0.4897959183673469,-0.4897959183673469,-0.4897959183673469,-0.4897959183673469,-0.4897959183673469,-0.4897959183673469,-0.4897959183673469,-0.4897959183673469,-0.4897959183673469,-0.4897959183673469,-0.4897959183673469,-0.4897959183673469,-0.4897959183673469,-0.4897959183673469,-0.4897959183673469,-0.4897959183673469,-0.4897959183673469,-0.4897959183673469,-0.4897959183673469,-0.4897959183673469,-0.4897959183673469,-0.4897959183673469,-0.4897959183673469,-0.4897959183673469,-0.4897959183673469,-0.4897959183673469,-0.4897959183673469,-0.47959183673469385,-0.4557823129251701,-0.43537414965986393,-0.41156462585034015,-0.38095238095238093,-0.3435374149659864,-0.30952380952380953,-0.282312925170068,-0.2619047619047619,-0.24489795918367346,-0.23129251700680273,-0.22448979591836735,-0.21428571428571427,-0.21428571428571427,-0.23129251700680273,-0.25510204081632654,-0.2755102040816326,-0.2925170068027211,-0.30952380952380953,-0.3401360544217687,-0.3707482993197279,-0.40476190476190477,-0.4217687074829932,-0.43197278911564624,-0.445578231292517],"y":[-4.285714285714286,-4.285714285714286,-4.285714285714286,-4.285714285714286,-4.285714285714286,-4.285714285714286,-4.285714285714286,-4.285714285714286,-4.285714285714286,-4.285714285714286,-4.285714285714286,-4.285714285714286,-4.285714285714286,-4.285714285714286,-4.285714285714286,-4.285714285714286,-4.285714285714286,-4.285714285714286,-4.285714285714286,-4.285714285714286,-4.285714285714286,-4.285714285714286,-4.285714285714286,-4.285714285714286,-4.285714285714286,-4.285714285714286,-4.285714285714286,-4.285714285714286,-4.285714285714286,-4.285714285714286,-4.285714285714286,-4.285714285714286,0.680952380952381,0.6523809523809524,0.6333333333333333,0.6047619047619047,0.5666666666666667,0.5190476190476191,0.4714285714285714,0.43333333333333335,0.38571428571428573,0.3476190476190476,0.3380952380952381,0.3,0.28095238095238095,0.2714285714285714,0.2523809523809524,0.22380952380952382,0.18571428571428572,0.1380952380952381,0.1,0.05238095238095238,-0.004761904761904762,-0.03333333333333333,-0.07142857142857142,-0.1,-0.15714285714285714,-0.16666666666666666,-0.18571428571428572,-0.19523809523809524,-0.20476190476190476,-0.21428571428571427,-0.23333333333333334,-0.24285714285714285,-0.28095238095238095,-0.3,-0.32857142857142857,-0.3476190476190476,-0.35714285714285715,-0.3761904761904762,-0.3952380952380952,-0.40476190476190477,-0.40476190476190477,-0.40476190476190477,-0.40476190476190477,-0.4142857142857143,-0.4142857142857143,-0.4142857142857143,-0.4142857142857143,-0.4142857142857143,-0.4142857142857143,-0.4142857142857143,-0.4142857142857143,-0.4142857142857143,-0.4142857142857143,-0.4142857142857143,-0.4142857142857143,-0.4142857142857143,-0.4142857142857143,-0.4142857142857143,-0.4142857142857143,-0.4142857142857143,-0.4142857142857143,-0.4142857142857143,-0.4142857142857143,-0.4142857142857143,-0.40476190476190477,-0.3952380952380952,-0.36666666666666664,-0.35714285714285715,-0.32857142857142857,-0.319047619047619,-0.3,-0.2619047619047619,-0.24285714285714285,-0.21428571428571427,-0.18571428571428572,-0.1761904761904762,-0.16666666666666666,-0.16666666666666666,-0.14761904761904762,-0.1380952380952381,-0.12857142857142856,-0.1,-0.1,-0.09047619047619047,-0.09047619047619047,-0.09047619047619047,-0.09047619047619047,-0.09047619047619047,-0.11904761904761904,-0.16666666666666666,-0.23333333333333334,-0.2904761904761905,-0.49047619047619045,-0.7,-0.9,-1.0904761904761904,-1.2142857142857142,-1.3095238095238095,-1.3952380952380952,-1.4238095238095239,-1.4523809523809523,-1.5,-1.5380952380952382,-1.5761904761904761,-1.6047619047619048,-1.6333333333333333,-1.6333333333333333,-1.6428571428571428,-1.661904761904762,-1.661904761904762,-1.6714285714285715,-1.680952380952381,-1.680952380952381,-1.680952380952381,-1.680952380952381,-1.6904761904761905,-1.6904761904761905,-1.6904761904761905,-1.6904761904761905,-1.6904761904761905,-1.6904761904761905,-1.6904761904761905,-1.6714285714285715,-1.6428571428571428,-1.6333333333333333,-1.6047619047619048,-1.5952380952380953,-1.5952380952380953,-1.5952380952380953,-1.5857142857142856,-1.5857142857142856,-1.5857142857142856,-1.5857142857142856,-1.5857142857142856,-1.5857142857142856,-1.5857142857142856,-1.5857142857142856,-1.5857142857142856,-1.5857142857142856,-1.5857142857142856,-1.5857142857142856,-1.5857142857142856,-1.5857142857142856,-1.5857142857142856,-1.5857142857142856,-1.5857142857142856,-1.5857142857142856,-1.5857142857142856,-1.5857142857142856,-1.5857142857142856,-1.5857142857142856,-1.5857142857142856,-1.5857142857142856,-1.5857142857142856,-1.5857142857142856,-1.5857142857142856,-1.5857142857142856,-1.5857142857142856,-1.5857142857142856,-1.5857142857142856,-1.5857142857142856,-1.5857142857142856,-1.5857142857142856,-1.5857142857142856,-1.5857142857142856,-1.5857142857142856,-1.5857142857142856,-1.5857142857142856,-1.5857142857142856,-1.5857142857142856,-1.5857142857142856,-1.5857142857142856,-1.5857142857142856,-1.5857142857142856,-1.5857142857142856,-1.5857142857142856,-1.5857142857142856,-1.5857142857142856,-1.5857142857142856,-1.5857142857142856,-1.5857142857142856,-1.5857142857142856,-1.5952380952380953,-1.6047619047619048,-1.6142857142857143,-1.6142857142857143,-1.6142857142857143,-1.6142857142857143,-1.6142857142857143,-1.6142857142857143,-1.6142857142857143,-1.6142857142857143,-1.6142857142857143,-1.6142857142857143,-1.6047619047619048,-1.6047619047619048,-1.6047619047619048,-1.6047619047619048,-1.5952380952380953,-1.5952380952380953,-1.5857142857142856,-1.5857142857142856,-1.5857142857142856,-1.5761904761904761,-1.5761904761904761,-1.5761904761904761,-1.5666666666666667,-1.5666666666666667,-1.5666666666666667,-1.5666666666666667,-1.5666666666666667,-1.5666666666666667,-1.5571428571428572,-1.5571428571428572,-1.5571428571428572,-1.5571428571428572,-1.5476190476190477,-1.5380952380952382,-1.5380952380952382,-1.5380952380952382,-1.5285714285714285,-1.5285714285714285,-1.5285714285714285,-1.5285714285714285,-1.5285714285714285,-1.5285714285714285,-1.5285714285714285,-1.5285714285714285,-1.5285714285714285,-1.5285714285714285,-1.5285714285714285,-1.519047619047619,-1.519047619047619,-1.519047619047619,-1.5380952380952382,-1.5476190476190477,-1.5476190476190477,-1.5476190476190477,-1.5476190476190477,-1.5476190476190477,-1.5476190476190477,-1.5476190476190477,-1.5476190476190477,-1.5476190476190477,-1.5476190476190477,-1.5476190476190477,-1.5476190476190477,-1.5476190476190477,-1.5476190476190477,-1.5476190476190477,-1.5476190476190477,-1.5476190476190477,-1.5476190476190477,-1.5380952380952382,-1.5285714285714285,-1.5,-1.4904761904761905,-1.4619047619047618,-1.4523809523809523,-1.4333333333333333,-1.4142857142857144,-1.4047619047619047,-1.4047619047619047,-1.4047619047619047,-1.4047619047619047,-1.3952380952380952,-1.3952380952380952,-1.3952380952380952,-1.3952380952380952,-1.3761904761904762,-1.338095238095238,-1.3,-1.2619047619047619,-1.2523809523809524,-1.2523809523809524,-1.2333333333333334,-1.2142857142857142,-1.1857142857142857,-1.1285714285714286,-1.0904761904761904,-1.0904761904761904,-1.0904761904761904,-1.0904761904761904,-1.0904761904761904,-1.0904761904761904,-1.0904761904761904,-1.0904761904761904,-1.0904761904761904,-1.0904761904761904,-1.0904761904761904,-1.0904761904761904,-1.0904761904761904,-1.0904761904761904,-1.0904761904761904,-1.061904761904762,-0.9857142857142858,-0.9285714285714286,-0.8904761904761904,-0.8523809523809524,-0.8238095238095238,-0.8047619047619048,-0.7952380952380952,-0.7857142857142857,-0.7761904761904762,-0.7761904761904762,-0.7761904761904762,-0.7761904761904762,-0.7761904761904762,-0.7761904761904762,-0.7761904761904762,-0.7761904761904762,-0.7761904761904762,-0.7761904761904762,-0.7761904761904762,-0.7761904761904762,-0.7761904761904762,-0.7761904761904762,-0.7761904761904762,-0.7761904761904762,-0.7761904761904762,-0.7761904761904762,-0.7761904761904762,-0.7761904761904762,-0.7761904761904762,-0.7761904761904762,-0.7761904761904762,-0.7761904761904762,-0.7761904761904762,-0.7761904761904762,-0.7857142857142857,-0.8047619047619048,-0.8047619047619048,-0.8047619047619048,-0.8047619047619048,-0.8047619047619048,-0.8047619047619048,-0.8047619047619048,-0.8047619047619048,-0.8047619047619048,-0.8047619047619048,-0.8047619047619048,-0.8047619047619048,-0.8047619047619048,-0.8047619047619048,-0.8047619047619048,-0.8047619047619048,-0.8047619047619048,-0.8047619047619048,-0.8047619047619048,-0.8047619047619048,-0.8047619047619048,-0.8047619047619048,-0.8047619047619048,-0.8047619047619048,-0.8047619047619048,-0.8047619047619048,-0.8047619047619048,-0.8142857142857143,-0.8333333333333334,-0.8809523809523809,-0.8904761904761904,-0.8904761904761904,-0.8904761904761904,-0.8904761904761904,-0.9,-0.9,-0.8904761904761904,-0.8809523809523809,-0.8809523809523809,-0.8238095238095238,-0.7571428571428571,-0.6142857142857143,-0.49047619047619045,-0.38571428571428573,-0.35714285714285715,-0.2904761904761905,-0.12857142857142856,-0.014285714285714285,0.11904761904761904,0.23333333333333334,0.28095238095238095,0.28095238095238095,0.3,0.3,0.3,0.3,0.3,0.3,0.319047619047619,0.3761904761904762,0.44285714285714284,0.5380952380952381,0.5571428571428572,0.5571428571428572,0.5571428571428572,0.5571428571428572,0.5571428571428572,0.5571428571428572,0.5571428571428572,0.5571428571428572,0.5571428571428572,0.5476190476190477,0.5285714285714286,0.4714285714285714,0.43333333333333335,0.3761904761904762,0.3476190476190476,0.2904761904761905,0.28095238095238095,0.2619047619047619,0.22380952380952382,0.21428571428571427,0.20476190476190476,0.20476190476190476,0.20476190476190476,0.20476190476190476,0.20476190476190476,0.20476190476190476,0.20476190476190476,0.20476190476190476,0.21428571428571427,0.2523809523809524,0.2904761904761905,0.3380952380952381,0.3761904761904762,0.40476190476190477,0.4142857142857143,0.4238095238095238,0.4238095238095238,0.44285714285714284,0.4523809523809524,0.4523809523809524,0.4714285714285714,0.48095238095238096,0.49047619047619045,0.5,0.5,0.5,0.5,0.5,0.5,0.5,0.5,0.5,0.5,0.5,0.5,0.5,0.5,0.5,0.5,0.49047619047619045,0.49047619047619045,0.49047619047619045,0.49047619047619045,0.49047619047619045,0.48095238095238096,0.48095238095238096,0.48095238095238096,0.48095238095238096,0.48095238095238096,0.48095238095238096,0.48095238095238096,0.48095238095238096,0.48095238095238096,0.48095238095238096,0.48095238095238096,0.48095238095238096,0.48095238095238096,0.48095238095238096,0.48095238095238096,0.48095238095238096,0.48095238095238096,0.48095238095238096,0.48095238095238096,0.48095238095238096,0.48095238095238096,0.48095238095238096,0.48095238095238096,0.48095238095238096,0.48095238095238096,0.48095238095238096,0.48095238095238096,0.48095238095238096,0.48095238095238096,0.48095238095238096,0.48095238095238096,0.5,0.5380952380952381,0.5380952380952381,0.5857142857142857,0.6238095238095238,0.6714285714285714,0.719047619047619,0.7666666666666667,0.7952380952380952,0.8238095238095238,0.8428571428571429,0.8523809523809524,0.861904761904762,0.861904761904762,0.8809523809523809,0.8904761904761904,0.9,0.919047619047619,0.9285714285714286,0.9380952380952381,0.9666666666666667,0.9952380952380953,1.0333333333333334,1.0714285714285714,1.0904761904761904,1.1095238095238096,1.119047619047619,1.119047619047619,1.1285714285714286,1.1285714285714286,1.1285714285714286,1.1285714285714286,1.1285714285714286,1.138095238095238,1.138095238095238,1.138095238095238,1.138095238095238,1.138095238095238,1.138095238095238,1.1476190476190475,1.1476190476190475,1.1476190476190475,1.1476190476190475,1.1476190476190475,1.1476190476190475,1.1476190476190475,1.1476190476190475,1.1476190476190475,1.1476190476190475,1.1476190476190475,1.1476190476190475,1.1476190476190475,1.1476190476190475,1.1476190476190475,1.1476190476190475,1.1476190476190475,1.1476190476190475,1.1476190476190475,1.138095238095238,1.1285714285714286,1.119047619047619,1.1,1.0809523809523809,1.0714285714285714,1.0523809523809524,1.042857142857143,1.0238095238095237,1.0142857142857142,0.9761904761904762,0.9476190476190476,0.919047619047619,0.9095238095238095,0.9,0.8904761904761904,0.8714285714285714,0.861904761904762,0.8333333333333334,0.8333333333333334,0.8238095238095238,0.8142857142857143,0.8142857142857143,0.8142857142857143,0.8142857142857143,0.8142857142857143,0.8142857142857143,0.8142857142857143,0.8142857142857143,0.8047619047619048,0.8047619047619048,0.8047619047619048,0.8047619047619048,0.8047619047619048,0.7952380952380952,0.7952380952380952,0.7952380952380952,0.7857142857142857,0.7666666666666667,0.7666666666666667,0.7666666666666667,0.7666666666666667,0.7666666666666667,0.7571428571428571,0.7380952380952381,0.7285714285714285,0.7095238095238096,0.680952380952381,0.6714285714285714,0.6428571428571429,0.6238095238095238,0.5952380952380952,0.5476190476190477,0.5095238095238095,0.4714285714285714,0.4142857142857143,0.3761904761904762,0.319047619047619,0.2714285714285714,0.21428571428571427,0.16666666666666666,0.12857142857142856,0.1,0.06190476190476191,0.04285714285714286,0.023809523809523808,-0.004761904761904762,-0.014285714285714285,-0.03333333333333333,-0.04285714285714286,-0.04285714285714286,-0.04285714285714286,-0.04285714285714286,-0.04285714285714286,-0.04285714285714286,-0.04285714285714286,-0.04285714285714286,-0.04285714285714286,-0.03333333333333333,-0.03333333333333333,-0.03333333333333333,-0.03333333333333333,-0.03333333333333333,-0.03333333333333333,-0.03333333333333333,-0.04285714285714286,-0.04285714285714286,-0.04285714285714286,-0.04285714285714286,-0.04285714285714286,-0.04285714285714286,-0.04285714285714286,-0.04285714285714286,-0.04285714285714286,-0.04285714285714286,-0.04285714285714286,-0.04285714285714286,-0.04285714285714286,-0.04285714285714286,-0.04285714285714286,-0.04285714285714286,-0.04285714285714286,-0.04285714285714286,-0.04285714285714286,-0.04285714285714286,-0.04285714285714286,-0.04285714285714286,-0.04285714285714286,-0.04285714285714286,-0.04285714285714286,-0.04285714285714286,-0.04285714285714286,-0.04285714285714286,-0.04285714285714286,-0.023809523809523808,0.004761904761904762,0.07142857142857142,0.08095238095238096,0.12857142857142856,0.23333333333333334,0.3952380952380952,0.49047619047619045,0.6238095238095238,0.719047619047619,0.7952380952380952,0.8809523809523809,0.919047619047619,0.9571428571428572,0.9857142857142858,1.0047619047619047,1.0238095238095237,1.0333333333333334,1.0333333333333334,1.042857142857143,1.042857142857143,1.042857142857143,1.0523809523809524,1.0523809523809524,1.0523809523809524,1.0523809523809524,1.0523809523809524,1.042857142857143,1.0142857142857142,0.9857142857142858,0.9,0.8523809523809524,0.7952380952380952,0.719047619047619,0.6523809523809524,0.5952380952380952,0.5285714285714286,0.48095238095238096,0.4523809523809524,0.4142857142857143,0.40476190476190477,0.38571428571428573,0.3761904761904762,0.36666666666666664,0.35714285714285715,0.35714285714285715,0.35714285714285715,0.35714285714285715,0.35714285714285715,0.35714285714285715,0.35714285714285715,0.35714285714285715,0.35714285714285715,0.35714285714285715,0.35714285714285715,0.35714285714285715,0.35714285714285715,0.35714285714285715,0.35714285714285715,0.35714285714285715,0.35714285714285715,0.35714285714285715,0.35714285714285715,0.35714285714285715,0.35714285714285715,0.35714285714285715,0.35714285714285715,0.35714285714285715,0.35714285714285715,0.35714285714285715,0.35714285714285715,0.35714285714285715,0.35714285714285715,0.35714285714285715,0.35714285714285715,0.35714285714285715,0.35714285714285715,0.35714285714285715,0.35714285714285715,0.35714285714285715,0.35714285714285715,0.35714285714285715,0.35714285714285715,0.35714285714285715,0.35714285714285715,0.35714285714285715,0.35714285714285715,0.35714285714285715,0.35714285714285715,0.35714285714285715,0.35714285714285715,0.35714285714285715,0.35714285714285715,0.35714285714285715,0.35714285714285715,0.35714285714285715,0.35714285714285715,0.35714285714285715,0.35714285714285715,0.35714285714285715,0.35714285714285715,0.35714285714285715,0.35714285714285715,0.35714285714285715,0.35714285714285715,0.35714285714285715,0.35714285714285715,0.35714285714285715,0.35714285714285715,0.35714285714285715,0.35714285714285715,0.35714285714285715,0.35714285714285715,0.35714285714285715,0.35714285714285715,0.35714285714285715,0.35714285714285715,0.35714285714285715,0.35714285714285715,0.35714285714285715,0.35714285714285715,0.35714285714285715,0.35714285714285715,0.35714285714285715,0.35714285714285715,0.35714285714285715,0.35714285714285715,0.35714285714285715,0.35714285714285715,0.35714285714285715,0.35714285714285715,0.35714285714285715,0.35714285714285715,0.35714285714285715,0.35714285714285715,0.35714285714285715,0.35714285714285715,0.35714285714285715,0.35714285714285715,0.35714285714285715,0.35714285714285715,0.35714285714285715,0.35714285714285715,0.35714285714285715,0.35714285714285715,0.35714285714285715,0.35714285714285715,0.35714285714285715,0.35714285714285715,0.35714285714285715,0.35714285714285715,0.35714285714285715,0.35714285714285715,0.35714285714285715,0.35714285714285715,0.35714285714285715,0.35714285714285715,0.35714285714285715,0.35714285714285715,0.35714285714285715,0.35714285714285715,0.35714285714285715,0.35714285714285715,0.35714285714285715,0.35714285714285715,0.35714285714285715,0.35714285714285715,0.35714285714285715,0.35714285714285715,0.35714285714285715,0.35714285714285715,0.35714285714285715,0.35714285714285715,0.35714285714285715,0.35714285714285715,0.35714285714285715,0.35714285714285715,0.35714285714285715,0.35714285714285715,0.35714285714285715,0.35714285714285715,0.35714285714285715,0.35714285714285715,0.35714285714285715,0.35714285714285715,0.35714285714285715,0.35714285714285715,0.35714285714285715,0.35714285714285715,0.35714285714285715,0.35714285714285715,0.35714285714285715,0.35714285714285715,0.35714285714285715,0.35714285714285715,0.35714285714285715,0.35714285714285715,0.35714285714285715,0.35714285714285715,0.35714285714285715,0.35714285714285715,0.35714285714285715,0.35714285714285715,0.35714285714285715,0.35714285714285715,0.35714285714285715,0.35714285714285715,0.35714285714285715,0.35714285714285715,0.35714285714285715,0.35714285714285715,0.35714285714285715,0.35714285714285715,0.35714285714285715,0.35714285714285715,0.35714285714285715,0.35714285714285715,0.35714285714285715,0.35714285714285715,0.35714285714285715,0.35714285714285715,0.35714285714285715,0.35714285714285715,0.35714285714285715,0.35714285714285715,0.35714285714285715,0.35714285714285715,0.35714285714285715,0.35714285714285715,0.35714285714285715,0.35714285714285715,0.35714285714285715,0.35714285714285715,0.35714285714285715,0.35714285714285715,0.35714285714285715,0.35714285714285715,0.35714285714285715,0.35714285714285715,0.35714285714285715,0.35714285714285715,0.35714285714285715,0.35714285714285715,0.35714285714285715,0.35714285714285715,0.35714285714285715,0.35714285714285715,0.35714285714285715,0.35714285714285715,0.35714285714285715,0.35714285714285715,0.35714285714285715,0.35714285714285715,0.35714285714285715,0.35714285714285715,0.35714285714285715,0.35714285714285715,0.35714285714285715,0.35714285714285715,0.35714285714285715,0.35714285714285715,0.35714285714285715,0.35714285714285715,0.35714285714285715,0.35714285714285715,0.35714285714285715,0.35714285714285715,0.35714285714285715,0.35714285714285715,0.35714285714285715,0.35714285714285715,0.35714285714285715,0.35714285714285715,0.35714285714285715,0.35714285714285715,0.35714285714285715,0.35714285714285715,0.35714285714285715,0.35714285714285715,0.35714285714285715,0.35714285714285715,0.35714285714285715,0.35714285714285715,0.35714285714285715,0.35714285714285715,0.35714285714285715,0.35714285714285715,0.35714285714285715,0.35714285714285715,0.35714285714285715,0.35714285714285715,0.35714285714285715,0.35714285714285715,0.35714285714285715,0.35714285714285715,0.35714285714285715,0.35714285714285715,0.35714285714285715,0.35714285714285715,0.35714285714285715,0.35714285714285715,0.35714285714285715,0.35714285714285715,0.35714285714285715,0.35714285714285715,0.35714285714285715,0.35714285714285715,0.35714285714285715,0.35714285714285715,0.35714285714285715,0.35714285714285715,0.35714285714285715,0.35714285714285715,0.35714285714285715,0.35714285714285715,0.35714285714285715,0.35714285714285715,0.35714285714285715,0.35714285714285715,0.35714285714285715,0.35714285714285715,0.3380952380952381,0.004761904761904762,-0.46190476190476193,-0.919047619047619,-1.3952380952380952,-1.8047619047619048,-2.0238095238095237,-2.2142857142857144,-2.442857142857143,-2.7285714285714286,-2.823809523809524,-2.823809523809524,-2.823809523809524,-2.8333333333333335,-2.7476190476190476,-2.6619047619047618,-2.2333333333333334,-1.9476190476190476,-1.7095238095238094,-1.4904761904761905,-1.3095238095238095,-1.223809523809524,-1.1666666666666667,-1.1476190476190475,-1.138095238095238,-1.1285714285714286,-1.1285714285714286,-1.1952380952380952,-1.2809523809523808,-1.3571428571428572,-1.4238095238095239,-1.4523809523809523,-1.5,-1.5380952380952382,-1.5571428571428572,-1.5857142857142856,-1.6428571428571428,-1.6523809523809523,-1.6714285714285715,-1.6714285714285715,-1.7095238095238094,-1.7285714285714286,-1.7380952380952381,-1.7476190476190476,-1.7476190476190476,-1.7571428571428571,-1.7571428571428571,-1.7571428571428571,-1.7571428571428571,-1.7571428571428571,-1.7571428571428571,-1.7571428571428571,-1.7571428571428571,-1.7571428571428571,-1.7571428571428571,-1.7571428571428571,-1.7571428571428571,-1.7571428571428571,-1.7571428571428571,-1.7571428571428571,-1.7476190476190476,-1.7476190476190476,-1.7476190476190476,-1.7476190476190476,-1.7380952380952381,-1.7380952380952381,-1.7380952380952381,-1.7380952380952381,-1.7380952380952381,-1.7380952380952381,-1.7095238095238094,-1.7095238095238094,-1.7,-1.680952380952381,-1.661904761904762,-1.6523809523809523,-1.6333333333333333,-1.6142857142857143,-1.6047619047619048,-1.5857142857142856,-1.5571428571428572,-1.5380952380952382,-1.480952380952381,-1.4714285714285715,-1.4523809523809523,-1.4428571428571428,-1.4428571428571428,-1.4428571428571428,-1.4428571428571428,-1.4428571428571428,-1.4428571428571428,-1.4428571428571428,-1.4428571428571428,-1.4428571428571428,-1.4428571428571428,-1.4428571428571428,-1.4428571428571428,-1.4428571428571428,-1.4428571428571428,-1.4428571428571428,-1.4428571428571428,-1.4428571428571428,-1.4428571428571428,-1.4428571428571428,-1.4428571428571428,-1.4428571428571428,-1.4428571428571428,-1.4428571428571428,-1.4428571428571428,-1.4428571428571428,-1.4428571428571428,-1.4428571428571428,-1.4428571428571428,-1.4428571428571428,-1.4428571428571428,-1.4428571428571428,-1.4428571428571428,-1.4428571428571428,-1.4428571428571428,-1.4428571428571428,-1.4428571428571428,-1.4428571428571428,-1.4428571428571428,-1.4428571428571428,-1.4428571428571428,-1.4428571428571428,-1.4428571428571428,-1.4428571428571428,-1.4428571428571428,-1.4428571428571428,-1.4428571428571428,-1.4428571428571428,-1.4428571428571428,-1.4428571428571428,-1.4428571428571428,-1.4428571428571428,-1.4428571428571428,-1.4428571428571428,-1.4428571428571428,-1.4428571428571428,-1.4428571428571428,-1.4428571428571428,-1.4428571428571428,-1.4428571428571428,-1.4428571428571428,-1.4428571428571428,-1.4428571428571428,-1.4428571428571428,-1.4428571428571428,-1.4428571428571428,-1.4428571428571428,-1.4428571428571428,-1.4428571428571428,-1.4428571428571428,-1.4428571428571428,-1.4428571428571428,-1.4428571428571428,-1.4428571428571428,-1.4428571428571428,-1.4428571428571428,-1.4428571428571428,-1.4428571428571428,-1.4428571428571428,-1.4428571428571428,-1.4428571428571428,-1.4428571428571428,-1.4428571428571428,-1.4428571428571428,-1.4428571428571428,-1.4428571428571428,-1.4428571428571428,-1.4428571428571428,-1.4428571428571428,-1.4428571428571428,-1.4428571428571428,-1.4428571428571428,-1.4428571428571428,-1.4428571428571428,-1.4428571428571428,-1.4428571428571428,-1.4428571428571428,-1.4428571428571428,-1.4428571428571428,-1.4428571428571428,-1.4428571428571428,-1.4428571428571428,-1.4428571428571428,-1.4428571428571428,-1.4428571428571428,-1.4428571428571428,-1.4428571428571428,-1.4428571428571428,-1.4428571428571428,-1.4428571428571428,-1.4428571428571428,-1.4428571428571428,-1.4428571428571428,-1.4428571428571428,-1.4428571428571428,-1.4428571428571428,-1.4428571428571428,-1.4428571428571428,-1.4428571428571428,-1.4428571428571428,-1.4428571428571428,-1.4428571428571428,-1.4428571428571428,-1.4428571428571428,-1.4428571428571428,-1.4428571428571428,-1.4428571428571428,-1.4428571428571428,-1.4428571428571428,-1.4428571428571428,-1.4428571428571428,-1.4428571428571428,-1.4428571428571428,-1.4428571428571428,-1.4428571428571428,-1.4428571428571428,-1.4428571428571428,-1.4428571428571428,-1.4428571428571428,-1.4428571428571428,-1.4428571428571428,-1.4428571428571428,-1.4428571428571428,-1.4428571428571428,-1.4428571428571428,-1.4428571428571428,-1.4428571428571428,-1.4428571428571428,-1.4428571428571428,-1.4428571428571428,-1.4428571428571428,-1.4428571428571428,-1.4428571428571428,-1.4428571428571428,-1.4428571428571428,-1.4428571428571428,-1.4428571428571428,-1.4428571428571428,-1.4428571428571428,-1.4428571428571428,-1.4428571428571428,-1.4428571428571428,-1.4428571428571428,-1.4428571428571428,-1.4428571428571428,-1.4428571428571428,-1.4428571428571428,-1.4428571428571428,-1.4428571428571428,-1.4428571428571428,-1.4428571428571428,-1.4428571428571428,-1.4428571428571428,-1.4428571428571428,-1.4428571428571428,-1.4428571428571428,-1.4428571428571428,-1.4428571428571428,-1.4428571428571428,-1.4428571428571428,-1.4428571428571428,-1.4428571428571428,-1.4428571428571428,-1.4428571428571428,-1.4428571428571428,-1.4428571428571428,-1.4428571428571428,-1.4428571428571428,-1.4428571428571428,-1.4428571428571428,-1.4428571428571428,-1.4428571428571428,-1.4428571428571428,-1.4428571428571428,-1.4428571428571428,-1.4428571428571428,-1.4428571428571428,-1.4428571428571428,-1.4428571428571428,-1.4428571428571428,-1.4428571428571428,-1.4428571428571428,-1.4428571428571428,-1.4428571428571428,-1.4428571428571428,-1.4428571428571428,-1.4428571428571428,-1.4428571428571428,-1.4428571428571428,-1.4428571428571428,-1.4428571428571428,-1.4428571428571428,-1.4428571428571428,-1.4428571428571428,-1.4428571428571428,-1.4428571428571428,-1.4428571428571428,-1.4428571428571428,-1.4428571428571428,-1.4428571428571428,-1.4428571428571428,-1.4428571428571428,-1.4428571428571428,-1.4428571428571428,-1.4428571428571428,-1.4428571428571428,-1.4428571428571428,-1.4428571428571428,-1.338095238095238,-0.9666666666666667,-0.8238095238095238,-0.7952380952380952,-0.7571428571428571,-0.719047619047619,-0.680952380952381,-0.6047619047619047,-0.5095238095238095,-0.38571428571428573,-0.2619047619047619,-0.11904761904761904,0.03333333333333333,0.24285714285714285,0.3476190476190476,0.43333333333333335,0.5095238095238095,0.5761904761904761,0.6238095238095238,0.6238095238095238,0.6238095238095238,0.6238095238095238,0.6238095238095238,0.6238095238095238,0.6238095238095238,0.6238095238095238,0.6238095238095238,0.6238095238095238,0.6238095238095238,0.6238095238095238,0.6238095238095238,0.6238095238095238,0.6238095238095238,0.6238095238095238,0.6238095238095238,0.6238095238095238,0.6238095238095238,0.6238095238095238,0.6238095238095238,0.6238095238095238,0.6238095238095238,0.6238095238095238,0.6047619047619047,0.5666666666666667,0.5190476190476191,0.5,0.46190476190476193,0.43333333333333335,0.40476190476190477,0.3761904761904762,0.3476190476190476,0.3,0.2619047619047619,0.24285714285714285,0.21428571428571427,0.18571428571428572,0.16666666666666666,0.1380952380952381,0.11904761904761904,0.11904761904761904,0.10952380952380952,0.10952380952380952,0.09047619047619047,0.07142857142857142,0.06190476190476191,0.06190476190476191,0.06190476190476191,0.06190476190476191,0.06190476190476191,0.06190476190476191,0.06190476190476191,0.06190476190476191,0.06190476190476191,0.06190476190476191,0.06190476190476191,0.06190476190476191,0.06190476190476191,0.06190476190476191,0.06190476190476191,0.06190476190476191,0.06190476190476191,0.06190476190476191,0.06190476190476191,0.06190476190476191,0.06190476190476191,0.06190476190476191,0.06190476190476191,0.06190476190476191,0.06190476190476191,0.06190476190476191,0.06190476190476191,0.06190476190476191,0.06190476190476191,0.06190476190476191,0.06190476190476191,0.06190476190476191,0.07142857142857142,0.08095238095238096,0.1,0.10952380952380952,0.1380952380952381,0.16666666666666666,0.19523809523809524,0.22380952380952382,0.2523809523809524,0.2904761904761905,0.319047619047619,0.3380952380952381,0.35714285714285715,0.38571428571428573,0.43333333333333335,0.4714285714285714,0.5571428571428572,0.6142857142857143,0.6523809523809524,0.7095238095238096,0.7571428571428571,0.7952380952380952,0.8523809523809524,0.8904761904761904,0.9095238095238095,0.9476190476190476,0.9857142857142858,1.0142857142857142,1.042857142857143,1.0714285714285714,1.0904761904761904,1.1,1.1095238095238096,1.119047619047619,1.119047619047619,1.119047619047619,1.119047619047619,1.119047619047619,1.119047619047619,1.119047619047619,1.119047619047619,1.119047619047619,1.119047619047619,1.119047619047619,1.119047619047619,1.119047619047619,1.119047619047619,1.119047619047619,1.119047619047619,1.119047619047619,1.119047619047619,1.119047619047619,1.1571428571428573,1.1666666666666667,1.1952380952380952,1.223809523809524,1.2523809523809524,1.2714285714285714,1.2809523809523808,1.2809523809523808,1.2809523809523808,1.2809523809523808,1.2809523809523808,1.3,1.3285714285714285,1.3285714285714285,1.3285714285714285,1.3285714285714285,1.3285714285714285,1.3285714285714285,1.3285714285714285,1.3285714285714285,1.3285714285714285,1.3285714285714285,1.3095238095238095,1.3,1.2714285714285714,1.2523809523809524,1.2333333333333334,1.2047619047619047,1.1952380952380952,1.1761904761904762,1.1476190476190475,1.138095238095238,1.119047619047619,1.1095238095238096,1.1,1.1,1.1,1.0904761904761904,1.0714285714285714,1.0714285714285714,1.0714285714285714,1.061904761904762,1.061904761904762,1.061904761904762,1.042857142857143,1.042857142857143,1.042857142857143,1.042857142857143,1.042857142857143,1.042857142857143,1.042857142857143,1.042857142857143,1.042857142857143,1.042857142857143,1.042857142857143,1.042857142857143,1.042857142857143,1.042857142857143,1.042857142857143,1.042857142857143,1.042857142857143,1.042857142857143,1.042857142857143,1.042857142857143,1.042857142857143,1.042857142857143,1.042857142857143,1.042857142857143,1.042857142857143,1.042857142857143,1.042857142857143,1.042857142857143,1.042857142857143,1.0333333333333334,1.042857142857143,1.0714285714285714,1.0714285714285714,1.042857142857143,0.9761904761904762,0.8809523809523809,0.8238095238095238,0.7380952380952381,0.6714285714285714,0.6523809523809524,0.6333333333333333,0.6142857142857143,0.5571428571428572,0.5190476190476191,0.46190476190476193,0.4238095238095238,0.38571428571428573,0.36666666666666664,0.32857142857142857,0.3,0.28095238095238095,0.2523809523809524,0.21428571428571427,0.19523809523809524,0.15714285714285714,0.1380952380952381,0.11904761904761904,0.1,0.07142857142857142,0.07142857142857142,0.06190476190476191,0.05238095238095238,0.05238095238095238,0.03333333333333333,0.03333333333333333,0.03333333333333333,0.023809523809523808,0.014285714285714285,0.014285714285714285,0.004761904761904762,0.004761904761904762,-0.004761904761904762,-0.004761904761904762,-0.004761904761904762,-0.004761904761904762,-0.004761904761904762,-0.004761904761904762,-0.004761904761904762,-0.004761904761904762,-0.004761904761904762,-0.004761904761904762,-0.004761904761904762,-0.004761904761904762,-0.004761904761904762,-0.004761904761904762,-0.004761904761904762,-0.014285714285714285,-0.014285714285714285,-0.004761904761904762,0.03333333333333333,0.09047619047619047,0.12857142857142856,0.18571428571428572,0.23333333333333334,0.3380952380952381,0.4238095238095238,0.4714285714285714,0.5095238095238095,0.5285714285714286,0.5571428571428572,0.5761904761904761,0.5857142857142857,0.5857142857142857,0.5761904761904761,0.5761904761904761,0.5761904761904761,0.5761904761904761,0.5666666666666667,0.5476190476190477,0.5380952380952381,0.5380952380952381,0.5190476190476191,0.5190476190476191,0.5095238095238095,0.5095238095238095,0.5095238095238095,0.5,0.5,0.5,0.5,0.5,0.5,0.5,0.49047619047619045,0.49047619047619045,0.49047619047619045,0.4714285714285714,0.4714285714285714,0.4714285714285714,0.4714285714285714,0.4714285714285714,0.4714285714285714,0.46190476190476193,0.4523809523809524,0.44285714285714284,0.44285714285714284,0.43333333333333335,0.43333333333333335,0.43333333333333335,0.43333333333333335,0.43333333333333335,0.43333333333333335,0.43333333333333335,0.43333333333333335,0.43333333333333335,0.43333333333333335,0.43333333333333335,0.43333333333333335,0.43333333333333335,0.43333333333333335,0.43333333333333335,0.43333333333333335,0.43333333333333335,0.43333333333333335,0.43333333333333335,0.43333333333333335,0.43333333333333335,0.43333333333333335,0.43333333333333335,0.43333333333333335,0.43333333333333335,0.43333333333333335,0.43333333333333335,0.43333333333333335,0.43333333333333335,0.43333333333333335,0.43333333333333335,0.43333333333333335,0.43333333333333335,0.43333333333333335,0.43333333333333335,0.43333333333333335,0.43333333333333335,0.43333333333333335,0.43333333333333335,0.43333333333333335,0.43333333333333335,0.43333333333333335,0.43333333333333335,0.43333333333333335,0.43333333333333335,0.43333333333333335,0.43333333333333335,0.43333333333333335,0.43333333333333335,0.43333333333333335,0.43333333333333335,0.43333333333333335,0.43333333333333335,0.43333333333333335,0.43333333333333335,0.43333333333333335,0.43333333333333335,0.44285714285714284,0.4714285714285714,0.48095238095238096,0.5095238095238095,0.5190476190476191,0.5571428571428572,0.6047619047619047,0.6333333333333333,0.6523809523809524,0.7,0.7285714285714285,0.7476190476190476,0.7476190476190476,0.7476190476190476,0.7476190476190476,0.7476190476190476,0.7476190476190476,0.7476190476190476,0.7476190476190476,0.7095238095238096,0.680952380952381,0.6523809523809524,0.6333333333333333,0.6047619047619047,0.5380952380952381,0.5190476190476191,0.5,0.49047619047619045,0.49047619047619045,0.49047619047619045,0.48095238095238096,0.4714285714285714,0.4523809523809524,0.4523809523809524,0.44285714285714284,0.44285714285714284,0.4238095238095238,0.4142857142857143,0.3952380952380952,0.3761904761904762,0.36666666666666664,0.3476190476190476,0.3380952380952381,0.32857142857142857,0.32857142857142857,0.319047619047619,0.319047619047619,0.319047619047619,0.319047619047619,0.319047619047619,0.319047619047619,0.319047619047619,0.319047619047619,0.319047619047619,0.319047619047619,0.319047619047619,0.319047619047619,0.319047619047619,0.319047619047619,0.319047619047619,0.319047619047619,0.319047619047619,0.319047619047619,0.319047619047619,0.319047619047619,0.319047619047619,0.319047619047619,0.319047619047619,0.319047619047619,0.319047619047619,0.319047619047619,0.319047619047619,0.319047619047619,0.30952380952380953,0.2904761904761905,0.2714285714285714,0.2714285714285714,0.2714285714285714,0.2714285714285714,0.3,0.3476190476190476,0.40476190476190477,0.48095238095238096,0.5857142857142857,0.6904761904761905,0.7952380952380952,0.9095238095238095,1.0142857142857142,1.0523809523809524,1.0904761904761904,1.1095238095238096,1.119047619047619,1.119047619047619,1.119047619047619,1.0904761904761904,1.0714285714285714,1.0523809523809524,1.042857142857143,1.0333333333333334]},"final_keyboard_state":["O","E","A","Z","B","R"],"num_clicks":6,"points":14,"cheat":false,"trial_type":"Hangman","trial_index":5,"time_elapsed":64182,"internal_node_id":"0.0-4.0","protocol_sum":"","subject_identifier":135,"subject_sum":[73,209,128,236,245,97,50,129,149,113,191,57,217,183,179,66,82,42,42,198,210,60,20,24,211,51,130,81,191,228,105,200],"subject_pair":67,"STUDY_ID":"669a702db1122fc5150a13ce","PROLIFIC_PID":"5c1942e200849900010afdcd","SESSION_ID":"669b3a6b33978b9acd1b0cfb","practice_instructions":1,"leaderboard_instructions":1,"bonus":0,"reveal_word":true,"self_rating":"3","confidence":"33"},{"view_history":"[{\"page_index\":0,\"viewing_time\":2730.89999999851},{\"page_index\":1,\"viewing_time\":13443.800000000745}]","rt":16175.199999999255,"trial_type":"instructions","trial_index":6,"time_elapsed":80358,"internal_node_id":"0.0-5.0","protocol_sum":"","subject_identifier":135,"subject_sum":[73,209,128,236,245,97,50,129,149,113,191,57,217,183,179,66,82,42,42,198,210,60,20,24,211,51,130,81,191,228,105,200],"subject_pair":67,"STUDY_ID":"669a702db1122fc5150a13ce","PROLIFIC_PID":"5c1942e200849900010afdcd","SESSION_ID":"669b3a6b33978b9acd1b0cfb","practice_instructions":1,"leaderboard_instructions":1,"bonus":0,"reveal_word":true,"self_rating":"3","confidence":"33"},{"rt":5862.799999998882,"responses":"{\"Q0\":\"...from <b>a previous session</b> that is not part of the upcoming tournament.\"}","question_order":"[0]","trial_type":"survey-multi-choice","trial_index":7,"time_elapsed":86222,"internal_node_id":"0.0-6.0","protocol_sum":"","subject_identifier":135,"subject_sum":[73,209,128,236,245,97,50,129,149,113,191,57,217,183,179,66,82,42,42,198,210,60,20,24,211,51,130,81,191,228,105,200],"subject_pair":67,"correct":true,"test_part":"multichoice_leaderboard","STUDY_ID":"669a702db1122fc5150a13ce","PROLIFIC_PID":"5c1942e200849900010afdcd","SESSION_ID":"669b3a6b33978b9acd1b0cfb","practice_instructions":1,"leaderboard_instructions":1,"bonus":0,"reveal_word":true,"self_rating":"3","confidence":"33"},{"view_history":"[{\"page_index\":0,\"viewing_time\":2563}]","rt":2563.0999999996275,"trial_type":"instructions","trial_index":8,"time_elapsed":88785,"internal_node_id":"0.0-8.0","protocol_sum":"","subject_identifier":135,"subject_sum":[73,209,128,236,245,97,50,129,149,113,191,57,217,183,179,66,82,42,42,198,210,60,20,24,211,51,130,81,191,228,105,200],"subject_pair":67,"STUDY_ID":"669a702db1122fc5150a13ce","PROLIFIC_PID":"5c1942e200849900010afdcd","SESSION_ID":"669b3a6b33978b9acd1b0cfb","practice_instructions":1,"leaderboard_instructions":1,"bonus":0,"reveal_word":true,"self_rating":"3","confidence":"33"},{"rt":4605.5,"responses":"{\"Q0\":\"...how well players did (in terms of <b>points</b>) in <b>previous games.</b>\"}","question_order":"[0]","trial_type":"survey-multi-choice","trial_index":9,"time_elapsed":93391,"internal_node_id":"0.0-9.0","protocol_sum":"","subject_identifier":135,"subject_sum":[73,209,128,236,245,97,50,129,149,113,191,57,217,183,179,66,82,42,42,198,210,60,20,24,211,51,130,81,191,228,105,200],"subject_pair":67,"correct":false,"test_part":"multichoice_tournament","STUDY_ID":"669a702db1122fc5150a13ce","PROLIFIC_PID":"5c1942e200849900010afdcd","SESSION_ID":"669b3a6b33978b9acd1b0cfb","practice_instructions":1,"leaderboard_instructions":1,"bonus":0,"reveal_word":true,"self_rating":"3","confidence":"33"},{"view_history":"[{\"page_index\":0,\"viewing_time\":2995.0999999996275}]","rt":2995.2999999988824,"trial_type":"instructions","trial_index":10,"time_elapsed":96387,"internal_node_id":"0.0-10.0-0.0","protocol_sum":"","subject_identifier":135,"subject_sum":[73,209,128,236,245,97,50,129,149,113,191,57,217,183,179,66,82,42,42,198,210,60,20,24,211,51,130,81,191,228,105,200],"subject_pair":67,"STUDY_ID":"669a702db1122fc5150a13ce","PROLIFIC_PID":"5c1942e200849900010afdcd","SESSION_ID":"669b3a6b33978b9acd1b0cfb","practice_instructions":1,"leaderboard_instructions":1,"bonus":0,"reveal_word":true,"self_rating":"3","confidence":"33"},{"rt":3525.5,"responses":"{\"Q0\":\"...players' leaderboard position (in terms of <b>points</b>) in an <b>upcoming tournament.</b>\"}","question_order":"[0]","trial_type":"survey-multi-choice","trial_index":11,"time_elapsed":99916,"internal_node_id":"0.0-10.0-1.0","protocol_sum":"","subject_identifier":135,"subject_sum":[73,209,128,236,245,97,50,129,149,113,191,57,217,183,179,66,82,42,42,198,210,60,20,24,211,51,130,81,191,228,105,200],"subject_pair":67,"correct":true,"test_part":"multichoice_tournament","STUDY_ID":"669a702db1122fc5150a13ce","PROLIFIC_PID":"5c1942e200849900010afdcd","SESSION_ID":"669b3a6b33978b9acd1b0cfb","practice_instructions":1,"leaderboard_instructions":1,"bonus":0,"reveal_word":true,"self_rating":"3","confidence":"33"},{"view_history":"[{\"page_index\":0,\"viewing_time\":19280.599999999627}]","rt":19280.699999999255,"trial_type":"instructions","trial_index":12,"time_elapsed":119197,"internal_node_id":"0.0-11.0","protocol_sum":"","subject_identifier":135,"subject_sum":[73,209,128,236,245,97,50,129,149,113,191,57,217,183,179,66,82,42,42,198,210,60,20,24,211,51,130,81,191,228,105,200],"subject_pair":67,"STUDY_ID":"669a702db1122fc5150a13ce","PROLIFIC_PID":"5c1942e200849900010afdcd","SESSION_ID":"669b3a6b33978b9acd1b0cfb","practice_instructions":1,"leaderboard_instructions":1,"bonus":0,"reveal_word":true,"self_rating":"3","confidence":"33"},{"view_history":"[{\"page_index\":0,\"viewing_time\":13709.300000000745}]","rt":13709.400000000373,"trial_type":"instructions","trial_index":13,"time_elapsed":132907,"internal_node_id":"0.0-12.0-0.0","protocol_sum":"","subject_identifier":135,"subject_sum":[73,209,128,236,245,97,50,129,149,113,191,57,217,183,179,66,82,42,42,198,210,60,20,24,211,51,130,81,191,228,105,200],"subject_pair":67,"STUDY_ID":"669a702db1122fc5150a13ce","PROLIFIC_PID":"5c1942e200849900010afdcd","SESSION_ID":"669b3a6b33978b9acd1b0cfb","practice_instructions":1,"leaderboard_instructions":1,"bonus":0,"reveal_word":true,"self_rating":"3","confidence":"33"},{"rt":6448.699999999255,"response":"Thirty Four","responses":["Thirty Four"],"trial_type":"type-this","trial_index":14,"time_elapsed":139858,"internal_node_id":"0.0-12.0-1.0","protocol_sum":"","subject_identifier":135,"subject_sum":[73,209,128,236,245,97,50,129,149,113,191,57,217,183,179,66,82,42,42,198,210,60,20,24,211,51,130,81,191,228,105,200],"subject_pair":67,"STUDY_ID":"669a702db1122fc5150a13ce","PROLIFIC_PID":"5c1942e200849900010afdcd","SESSION_ID":"669b3a6b33978b9acd1b0cfb","practice_instructions":1,"leaderboard_instructions":1,"bonus":0,"reveal_word":true,"self_rating":"3","confidence":"33"},{"word":"THIRTY FOUR","click_log":{"letter":["","E","A","I","T","H","R","Y","F","O","U"],"t":[0,4387.199999999255,8736.799999998882,17986.799999998882,24853.099999999627,26769.5,29919.39999999851,32019.39999999851,35402.59999999963,36069.29999999888,36685.89999999851],"hit":[null,0,0,1,2,1,2,1,1,1,1],"asked":["","E","EA","EAI","EAIT","EAITH","EAITHR","EAITHRY","EAITHRYF","EAITHRYFO","EAITHRYFOU"],"word_state":["______ ____","______ ____","______ ____","__I___ ____","T_I_T_ ____","THI_T_ ____","THIRT_ ___R","THIRTY ___R","THIRTY F__R","THIRTY FO_R","THIRTY FOUR"]},"hover_log":{"letter":["?","?","?","?","?","?","?","?","?","?","?","?","?","?","?","?","?","?","?","?","?","?","?","?","?","?","?","?","?","?","?","?","?","?","?","?","?","?","?","?","?","?","?","?","?","?","?","?","?","?","?","?","?","?","?","?","?","?","?","?","?","?","?","?","?","?","?","?","?","?","?","?","?","?","?","?","?","?","?","?","?","?","?","?","?","?","?","?","?","?","?","?","?","?","?","?","?","?","?","?","?","?","?","?","?","?","?","?","?","?","?","?","?","?","?","?","?","?","?","?","?","?","?","?","?","?","?","?","?","?","?","?","?","?","?","?","?","?","?","?","?","?","?","?","?","?","?","?","?","?","?","?","?","?","?","?","?","?","?","?","?","?","?","?","?","?","?","?","?","?","?","?","?","?","?","?","?","?","?","?","?","?","?","?","?","?","?","?","?","?","?","?","?","?","?","?","?","?","?","?","?","?","?","?","?","?","?","?","?","?","?","?","?","?","?","?","?","?","?","?","?","?","?","?","?","?","?","?","?","?","?","?","?","?","?","?","?","?","?","?","?","?","?","?","?","?","?","?","?","?","?","?","?","?","?","?","?","?","?","?","?","?","?","?","?","?","?","?","?","?","?","?","?","?","?","?","?","?","?","?","?","?","?","?","?","?","?","?","?","?","?","?","?","?","?","?","?","?","?","?","?","?","?","?","?","?","?","?","?","?","?","?","?","?","?","?","?","?","?","?","?","?","?","?","?","?","?","?","?","?","?","?","?","?","?","?","?","?","?","?","?","?","?","?","?","?","?","?","?","?","?","?","?","?","?","?","?","?","?","?","?","?","?","?","?","?","?","?","?","?","?","?","?","?","?","?","?","?","?","?","?","?","?","?","?","?","?","?","?","?","?","?","?","?","?","?","?","?","?","?","?","?","?","?","?","?","?","?","?","?","?","?","?","?","?","?","?","?","?","?","?","?","?","?","?","?","?","?","?","?","?","?","?","?","?","?","?","?","?","?","?","?","?","?","?","?",