[{"success":true,"trial_type":"fullscreen","trial_index":0,"time_elapsed":3296,"internal_node_id":"0.0-0.0","protocol_sum":"","subject_identifier":101,"subject_sum":[26,101,98,89,14,241,157,16,69,208,108,64,85,116,45,56,40,142,158,109,205,113,204,222,92,238,128,241,213,167,116,235],"subject_pair":50,"STUDY_ID":"669a702db1122fc5150a13ce","PROLIFIC_PID":"5e14ffee6f6c63b33cf77eb3","SESSION_ID":"669a7957d97a8f8875b56be4","practice_instructions":1,"leaderboard_instructions":0,"bonus":0,"reveal_word":true,"self_rating":"3","confidence":"66"},{"view_history":"[{\"page_index\":0,\"viewing_time\":4713.100000023842}]","rt":4713.399999976158,"trial_type":"instructions","trial_index":1,"time_elapsed":8011,"internal_node_id":"0.0-1.0","protocol_sum":"","subject_identifier":101,"subject_sum":[26,101,98,89,14,241,157,16,69,208,108,64,85,116,45,56,40,142,158,109,205,113,204,222,92,238,128,241,213,167,116,235],"subject_pair":50,"STUDY_ID":"669a702db1122fc5150a13ce","PROLIFIC_PID":"5e14ffee6f6c63b33cf77eb3","SESSION_ID":"669a7957d97a8f8875b56be4","practice_instructions":1,"leaderboard_instructions":0,"bonus":0,"reveal_word":true,"self_rating":"3","confidence":"66"},{"view_history":"[{\"page_index\":0,\"viewing_time\":15463}]","rt":15463.199999988079,"trial_type":"instructions","trial_index":2,"time_elapsed":23475,"internal_node_id":"0.0-2.0-0.0","protocol_sum":"","subject_identifier":101,"subject_sum":[26,101,98,89,14,241,157,16,69,208,108,64,85,116,45,56,40,142,158,109,205,113,204,222,92,238,128,241,213,167,116,235],"subject_pair":50,"STUDY_ID":"669a702db1122fc5150a13ce","PROLIFIC_PID":"5e14ffee6f6c63b33cf77eb3","SESSION_ID":"669a7957d97a8f8875b56be4","practice_instructions":1,"leaderboard_instructions":0,"bonus":0,"reveal_word":true,"self_rating":"3","confidence":"66"},{"rt":10439.900000035763,"responses":"{\"Q0\":\"... reveal the word with as <b>few letter guesses</b> as possible\"}","question_order":"[0]","trial_type":"survey-multi-choice","trial_index":3,"time_elapsed":33916,"internal_node_id":"0.0-2.0-1.0","protocol_sum":"","subject_identifier":101,"subject_sum":[26,101,98,89,14,241,157,16,69,208,108,64,85,116,45,56,40,142,158,109,205,113,204,222,92,238,128,241,213,167,116,235],"subject_pair":50,"correct":true,"test_part":"multichoice_nonpretend","STUDY_ID":"669a702db1122fc5150a13ce","PROLIFIC_PID":"5e14ffee6f6c63b33cf77eb3","SESSION_ID":"669a7957d97a8f8875b56be4","practice_instructions":1,"leaderboard_instructions":0,"bonus":0,"reveal_word":true,"self_rating":"3","confidence":"66"},{"view_history":"[{\"page_index\":0,\"viewing_time\":1730}]","rt":1730.1000000238419,"trial_type":"instructions","trial_index":4,"time_elapsed":35647,"internal_node_id":"0.0-3.0","protocol_sum":"","subject_identifier":101,"subject_sum":[26,101,98,89,14,241,157,16,69,208,108,64,85,116,45,56,40,142,158,109,205,113,204,222,92,238,128,241,213,167,116,235],"subject_pair":50,"STUDY_ID":"669a702db1122fc5150a13ce","PROLIFIC_PID":"5e14ffee6f6c63b33cf77eb3","SESSION_ID":"669a7957d97a8f8875b56be4","practice_instructions":1,"leaderboard_instructions":0,"bonus":0,"reveal_word":true,"self_rating":"3","confidence":"66"},{"word":"ZEBRA","click_log":{"letter":["","E","B","Z","R","A"],"t":[0,2725.7000000476837,5649.200000047684,10845.400000035763,13945.200000047684,15149.100000023842],"hit":[null,1,1,1,1,1],"asked":["","E","EB","EBZ","EBZR","EBZRA"],"word_state":["_____","_E___","_EB__","ZEB__","ZEBR_","ZEBRA"]},"hover_log":{"letter":["?","?","?","?","?","?","?","?","?","?","?","?","?","?","?","?","?","?","?","?","?","?","?","?","?","?","?","?","?","?","?","?","?","?","?","?","?","?","?","?","?","?","?","?","?","?","?","?","?","?","?","?","?","?","?","?","?","S","S","?","?","T","T","T","T","T","T","T","T","T","T","T","T","T","T","T","T","T","T","T","T","T","T","T","T","T","T","T","T","T","T","T","T","T","T","T","T","T","T","T","T","T","T","T","T","T","T","T","T","T","?","?","?","?","?","?","?","?","?","?","?","?","?","?","?","?","?","?","L","L","L","?","?","?","?","?","?","?","?","?","?","?","E","E","E","E","E","E","E","E","E","E","E","E","E","E","E","E","E","E","E","E","E","E","E","E","E","E","E","E","E","E","E","E","E","E","E","E","E","E","E","E","E","E","E","E","E","E","E","E","E","E","E","E","E","E","E","E","E","E","E","E","E","E","E","E","E","E","E","E","E","E","E","E","E","?","?","?","M","M","M","M","M","M","M","M","M","M","M","M","M","M","M","M","M","M","M","M","M","M","M","M","M","M","M","M","M","M","M","M","M","M","M","M","M","M","M","M","M","M","M","M","M","M","M","M","M","M","M","M","M","M","M","M","M","M","M","M","M","M","M","M","M","M","M","M","M","M","M","?","?","?","?","?","?","?","L","L","L","L","L","L","L","L","L","L","L","L","?","?","?","?","?","?","?","?","?","B","B","B","B","B","B","B","B","B","B","B","B","B","B","B","B","B","B","B","B","B","B","B","B","B","B","B","B","B","B","B","B","B","B","B","B","B","B","B","B","B","B","B","B","B","B","B","B","B","B","B","B","B","B","B","B","B","B","B","B","?","?","K","K","K","K","K","K","K","K","?","?","?","?","?","?","?","?","?","?","?","?","?","?","?","?","?","?","T","?","?","?","?","?","?","?","?","?","?","?","?","?","?","?","?","?","?","?","V","V","V","?","?","?","?","?","?","W","W","W","W","W","W","?","?","?","X","X","X","X","X","X","X","X","X","X","X","X","X","X","X","X","X","X","X","X","X","X","X","X","X","X","X","X","X","X","X","X","X","X","X","X","X","X","X","X","X","X","X","X","X","X","X","X","X","?","?","?","M","?","L","L","L","L","L","L","L","?","M","?","?","?","?","?","?","?","?","?","?","?","?","?","?","?","?","?","?","F","F","?","?","?","?","?","?","?","?","?","?","?","?","?","?","?","?","?","?","?","M","M","M","M","M","M","M","M","M","?","?","?","?","?","?","?","?","?","?","?","?","?","?","?","?","?","?","?","?","?","?","U","U","?","V","V","V","V","V","?","?","?","?","?","?","?","W","W","W","W","W","W","?","?","?","?","?","X","X","X","X","X","X","X","X","X","X","X","?","?","?","?","?","?","?","Y","Y","Y","?","Z","Z","Z","Z","Z","Z","Z","Z","Z","Z","Z","Z","Z","Z","Z","Z","Z","Z","Z","Z","Z","Z","Z","Z","Z","Z","Z","Z","Z","Z","Z","Z","Z","Z","Z","Z","Z","Z","Z","Z","Z","Z","Z","Z","Z","Z","Z","Z","Z","Z","Z","Z","Z","Z","?","?","?","?","?","M","M","?","L","L","L","L","L","L","L","?","?","?","?","?","?","?","?","?","?","?","?","?","?","?","?","?","?","?","?","C","C","C","C","C","C","C","C","C","?","?","?","L","L","L","L","L","L","L","L","L","L","L","L","L","L","L","L","L","?","?","?","?","?","?","?","?","?","?","L","L","L","L","L","L","L","?","M","M","M","M","?","N","O","O","?","?","P","P","P","P","P","P","P","P","P","P","P","P","P","P","P","P","P","P","P","P","?","?","?","?","?","?","?","?","Q","Q","Q","Q","Q","Q","Q","Q","Q","Q","Q","Q","Q","Q","?","?","?","R","R","R","R","R","R","R","R","R","R","R","R","R","R","R","R","R","R","R","R","R","R","R","R","R","R","R","R","R","R","R","R","?","Q","Q","?","?","?","?","?","?","?","?","?","?","?","?","?","?","?","?","B","B","B","B","B","B","B","B","?","?","A","A","A","A","A","A","A","A","A","A","A","A","A","A","A","A","A","A","A","A","A","A","A","A","A","A","A","A","A","A","A","A","A","A","A","A","A","A","A","A","A","A","A","A","A","A","A","A","A","A","A","A","A","A","A","A","A","A","A","A","A","A","A","A","A","A","A","A","A","A","A","A","A","A","A","A","A","A","A","A","A","A","A","A","A","A","A","A","A","A","A","A","?","?","K","K","K","?","?","?","?","?","?","?","?","?","?","?","?","?","?","?","?","?","?","?","?","?","?","?","?","?","?","?","?","?","?","?","?","?","?","?","?","?","?","?","?","?","?","?","?","?","?","?","?","?","?","?","?","?","?","?","?","?"],"t":[22,30,48,65,82,99,122,131,147,165,181,199,215,232,248,264,281,299,315,331,348,364,382,398,415,431,448,465,481,498,514,531,548,564,581,598,614,631,647,664,680,697,714,731,748,764,781,798,815,831,847,864,881,898,915,931,948,968,981,998,1014,1031,1048,1065,1081,1098,1114,1132,1148,1165,1182,1197,1214,1231,1248,1265,1281,1298,1315,1331,1348,1365,1381,1398,1415,1432,1448,1465,1482,1498,1514,1530,1547,1564,1581,1598,1615,1631,1649,1665,1682,1697,1715,1731,1747,1765,1782,1798,1815,1831,1848,1865,1880,1898,1914,1931,1949,1965,1981,1997,2014,2030,2048,2064,2081,2097,2115,2132,2149,2164,2181,2198,2214,2231,2247,2264,2281,2298,2314,2331,2348,2364,2381,2397,2414,2433,2448,2464,2482,2498,2514,2532,2548,2564,2582,2598,2614,2631,2647,2665,2682,2698,2715,2730,2747,2764,2780,2798,2814,2831,2848,2865,2882,2898,2915,2931,2947,2964,2981,2998,3014,3031,3048,3065,3081,3098,3114,3131,3147,3165,3181,3198,3215,3231,3248,3264,3282,3298,3314,3331,3347,3364,3381,3398,3414,3431,3448,3464,3481,3498,3515,3531,3548,3564,3581,3598,3615,3632,3649,3664,3681,3698,3714,3731,3747,3765,3781,3798,3814,3831,3848,3864,3881,3898,3914,3931,3948,3965,3981,3998,4014,4031,4048,4065,4081,4097,4115,4131,4147,4164,4181,4197,4214,4230,4247,4264,4281,4297,4314,4331,4348,4364,4380,4398,4415,4432,4447,4465,4481,4497,4515,4531,4548,4564,4582,4597,4615,4631,4648,4664,4682,4697,4714,4731,4748,4764,4781,4797,4814,4832,4848,4865,4881,4897,4914,4931,4947,4965,4981,4997,5014,5031,5048,5064,5081,5098,5114,5131,5148,5164,5181,5197,5214,5231,5248,5265,5281,5298,5314,5333,5348,5364,5381,5397,5415,5431,5448,5465,5481,5497,5515,5531,5547,5564,5581,5597,5615,5631,5648,5664,5681,5698,5715,5731,5748,5765,5781,5798,5814,5830,5847,5864,5881,5898,5914,5931,5947,5964,5982,5998,6014,6030,6048,6064,6081,6098,6114,6131,6148,6164,6181,6198,6214,6231,6248,6265,6281,6298,6314,6332,6349,6364,6381,6397,6414,6431,6447,6464,6481,6497,6514,6531,6548,6565,6581,6598,6614,6631,6648,6664,6681,6698,6714,6730,6748,6764,6781,6797,6814,6831,6847,6864,6881,6897,6915,6931,6948,6964,6981,6998,7014,7031,7047,7064,7080,7098,7115,7131,7147,7164,7181,7196,7215,7230,7248,7264,7281,7297,7315,7331,7347,7364,7381,7398,7414,7431,7448,7464,7481,7498,7515,7531,7548,7564,7581,7597,7614,7631,7648,7664,7682,7697,7715,7731,7747,7764,7782,7798,7815,7831,7848,7864,7881,7898,7914,7931,7947,7965,7981,7998,8015,8031,8048,8065,8081,8097,8114,8133,8147,8164,8181,8198,8214,8231,8247,8264,8281,8298,8314,8331,8347,8365,8380,8397,8414,8431,8449,8464,8480,8497,8514,8530,8548,8564,8581,8597,8615,8631,8648,8665,8681,8698,8714,8732,8748,8764,8780,8797,8815,8832,8850,8863,8881,8898,8914,8932,8948,8964,8981,8998,9014,9031,9047,9065,9082,9097,9114,9132,9148,9164,9181,9197,9214,9230,9247,9264,9280,9298,9314,9332,9348,9364,9381,9397,9415,9431,9447,9464,9481,9498,9514,9531,9548,9564,9580,9598,9615,9631,9647,9664,9680,9697,9715,9731,9748,9764,9781,9797,9814,9832,9848,9864,9881,9897,9914,9931,9947,9963,9980,9997,10014,10032,10048,10064,10080,10098,10114,10132,10148,10164,10181,10198,10214,10231,10247,10265,10281,10298,10314,10331,10349,10364,10380,10397,10414,10430,10447,10464,10480,10498,10514,10531,10547,10564,10580,10597,10614,10631,10648,10665,10681,10698,10714,10731,10748,10765,10781,10797,10813,10831,10847,10864,10880,10898,10914,10931,10948,10965,10981,10997,11014,11032,11048,11065,11081,11098,11113,11130,11148,11165,11181,11198,11214,11231,11247,11265,11281,11298,11315,11331,11347,11365,11381,11398,11414,11430,11447,11464,11482,11497,11514,11531,11548,11565,11581,11597,11615,11632,11647,11664,11680,11698,11714,11731,11748,11764,11781,11798,11815,11832,11848,11864,11881,11898,11914,11933,11948,11964,11981,11998,12014,12031,12047,12064,12081,12098,12115,12131,12147,12164,12180,12197,12214,12230,12247,12264,12281,12298,12315,12331,12348,12364,12380,12398,12415,12431,12448,12464,12481,12497,12515,12532,12547,12564,12580,12597,12614,12631,12647,12664,12680,12698,12714,12731,12748,12764,12781,12797,12814,12830,12847,12864,12881,12898,12914,12931,12947,12965,12981,12997,13015,13031,13048,13064,13080,13098,13115,13132,13150,13164,13181,13197,13214,13231,13248,13264,13280,13298,13315,13331,13347,13363,13381,13398,13415,13431,13448,13463,13481,13497,13515,13531,13547,13564,13581,13597,13614,13631,13647,13665,13681,13698,13714,13731,13747,13764,13781,13798,13814,13831,13848,13864,13881,13898,13915,13930,13947,13964,13980,13997,14014,14030,14048,14064,14081,14098,14115,14131,14148,14165,14182,14197,14214,14231,14248,14264,14281,14298,14315,14331,14348,14364,14382,14398,14414,14431,14447,14464,14480,14498,14515,14530,14548,14564,14581,14598,14614,14631,14647,14664,14681,14699,14715,14732,14748,14764,14781,14798,14814,14832,14848,14864,14881,14898,14914,14931,14948,14965,14981,14998,15014,15031,15048,15064,15081,15098,15115,15131,15148,15167,15180,15197,15215,15231,15248,15264,15281,15298,15315,15330,15348,15364,15382,15398,15415,15432,15449,15465,15482,15498,15515,15531,15548,15565,15581,15599,15615,15631,15648,15664,15682,15698,15715,15732,15748,15764,15781,15797,15815,15832,15848,15864,15881,15898,15915,15931,15948,15964,15980,15998,16015,16032,16048,16065,16082,16098,16114,16131,16148,16165,16181,16197,16215,16232,16247,16264,16281,16298,16314,16332,16348,16365,16382,16398,16415,16431,16448,16464,16481,16498,16515,16531,16547,16564,16582,16598,16615,16631,16648,16663,16680,16697,16714,16731,16747,16765,16781,16797,16814,16831,16848,16864,16881,16898,16915,16931,16948,16965,16982,16998,17015,17031,17048,17064,17081,17098,17115,17132,17148,17167],"hit":[null],"x":[-2.074829931972789,-2.074829931972789,-2.074829931972789,-2.074829931972789,-2.074829931972789,-2.074829931972789,-2.074829931972789,-2.074829931972789,-2.074829931972789,-2.074829931972789,-2.074829931972789,-2.074829931972789,-2.074829931972789,-2.074829931972789,-2.074829931972789,-2.074829931972789,-2.074829931972789,-2.074829931972789,-2.074829931972789,-2.074829931972789,-2.074829931972789,-2.074829931972789,-2.074829931972789,-2.074829931972789,-2.074829931972789,-2.074829931972789,-2.074829931972789,-2.074829931972789,-2.074829931972789,-2.074829931972789,-2.074829931972789,-2.074829931972789,-2.074829931972789,-2.074829931972789,-2.074829931972789,-2.074829931972789,-2.074829931972789,-2.074829931972789,-2.074829931972789,-2.074829931972789,-2.074829931972789,-2.074829931972789,-2.074829931972789,-2.074829931972789,-2.074829931972789,-2.074829931972789,-2.074829931972789,-2.074829931972789,-2.074829931972789,-2.074829931972789,-2.074829931972789,-2.074829931972789,-2.074829931972789,-2.074829931972789,-2.074829931972789,-2.074829931972789,-2.074829931972789,0.027210884353741496,0.03741496598639456,0.061224489795918366,0.0782312925170068,0.08843537414965986,0.09183673469387756,0.09863945578231292,0.09863945578231292,0.09863945578231292,0.09863945578231292,0.09863945578231292,0.10204081632653061,0.1054421768707483,0.11224489795918367,0.11564625850340136,0.11564625850340136,0.11564625850340136,0.11904761904761904,0.11904761904761904,0.11904761904761904,0.11904761904761904,0.11904761904761904,0.11904761904761904,0.11904761904761904,0.11904761904761904,0.11904761904761904,0.11904761904761904,0.11904761904761904,0.11904761904761904,0.11904761904761904,0.11904761904761904,0.11904761904761904,0.11904761904761904,0.11904761904761904,0.11904761904761904,0.11904761904761904,0.11904761904761904,0.11904761904761904,0.11904761904761904,0.11904761904761904,0.11904761904761904,0.11904761904761904,0.11904761904761904,0.11904761904761904,0.11904761904761904,0.11904761904761904,0.11904761904761904,0.11904761904761904,0.11904761904761904,0.11904761904761904,0.11904761904761904,0.12244897959183673,0.1292517006802721,0.13945578231292516,0.14625850340136054,0.14625850340136054,0.14625850340136054,0.14625850340136054,0.14625850340136054,0.14625850340136054,0.14625850340136054,0.14965986394557823,0.1564625850340136,0.1598639455782313,0.16666666666666666,0.17006802721088435,0.17006802721088435,0.17346938775510204,0.1836734693877551,0.19727891156462585,0.21428571428571427,0.23129251700680273,0.2585034013605442,0.2857142857142857,0.3197278911564626,0.35034013605442177,0.391156462585034,0.43197278911564624,0.47278911564625853,0.4931972789115646,0.4965986394557823,0.5034013605442177,0.5102040816326531,0.5136054421768708,0.5204081632653061,0.5272108843537415,0.5374149659863946,0.5476190476190477,0.5578231292517006,0.5680272108843537,0.5680272108843537,0.5680272108843537,0.5680272108843537,0.5680272108843537,0.5680272108843537,0.5680272108843537,0.5680272108843537,0.5680272108843537,0.5680272108843537,0.5680272108843537,0.5680272108843537,0.5680272108843537,0.5680272108843537,0.5680272108843537,0.5680272108843537,0.5680272108843537,0.5680272108843537,0.5680272108843537,0.5680272108843537,0.5680272108843537,0.5680272108843537,0.5680272108843537,0.5680272108843537,0.5680272108843537,0.5680272108843537,0.5680272108843537,0.5680272108843537,0.5680272108843537,0.5680272108843537,0.5680272108843537,0.5680272108843537,0.5680272108843537,0.5680272108843537,0.5680272108843537,0.5680272108843537,0.5680272108843537,0.5680272108843537,0.5680272108843537,0.5680272108843537,0.5680272108843537,0.5680272108843537,0.5680272108843537,0.5680272108843537,0.5680272108843537,0.5680272108843537,0.5680272108843537,0.5680272108843537,0.5680272108843537,0.5680272108843537,0.5680272108843537,0.5680272108843537,0.5680272108843537,0.5680272108843537,0.5680272108843537,0.5680272108843537,0.5680272108843537,0.5680272108843537,0.5680272108843537,0.5680272108843537,0.5680272108843537,0.5680272108843537,0.5680272108843537,0.5680272108843537,0.5680272108843537,0.5680272108843537,0.5680272108843537,0.564625850340136,0.5476190476190477,0.5340136054421769,0.5136054421768708,0.4965986394557823,0.48299319727891155,0.47959183673469385,0.47278911564625853,0.46938775510204084,0.46258503401360546,0.45918367346938777,0.45918367346938777,0.45918367346938777,0.45918367346938777,0.45918367346938777,0.45918367346938777,0.45918367346938777,0.45918367346938777,0.45918367346938777,0.45918367346938777,0.45918367346938777,0.45918367346938777,0.45918367346938777,0.45918367346938777,0.45918367346938777,0.45918367346938777,0.45918367346938777,0.45918367346938777,0.45918367346938777,0.45918367346938777,0.45918367346938777,0.45918367346938777,0.45918367346938777,0.45918367346938777,0.45918367346938777,0.45918367346938777,0.45918367346938777,0.45918367346938777,0.45918367346938777,0.45918367346938777,0.45918367346938777,0.45918367346938777,0.45918367346938777,0.45918367346938777,0.45918367346938777,0.45918367346938777,0.45918367346938777,0.45918367346938777,0.45918367346938777,0.45918367346938777,0.45918367346938777,0.4557823129251701,0.4523809523809524,0.4489795918367347,0.4489795918367347,0.445578231292517,0.445578231292517,0.4387755102040816,0.43197278911564624,0.42857142857142855,0.42517006802721086,0.42517006802721086,0.42517006802721086,0.4217687074829932,0.41496598639455784,0.40476190476190477,0.3979591836734694,0.391156462585034,0.391156462585034,0.3843537414965986,0.3843537414965986,0.38095238095238093,0.38095238095238093,0.38095238095238093,0.38095238095238093,0.38095238095238093,0.37755102040816324,0.3741496598639456,0.3707482993197279,0.36394557823129253,0.35714285714285715,0.35374149659863946,0.3401360544217687,0.32653061224489793,0.3163265306122449,0.3129251700680272,0.3129251700680272,0.3129251700680272,0.3129251700680272,0.30952380952380953,0.30612244897959184,0.30272108843537415,0.29591836734693877,0.282312925170068,0.25510204081632654,0.22789115646258504,0.19727891156462585,0.1870748299319728,0.1836734693877551,0.1836734693877551,0.1836734693877551,0.18027210884353742,0.17346938775510204,0.16666666666666666,0.16326530612244897,0.1598639455782313,0.1564625850340136,0.15306122448979592,0.14965986394557823,0.14625850340136054,0.14625850340136054,0.14285714285714285,0.14285714285714285,0.14285714285714285,0.1360544217687075,0.1326530612244898,0.1326530612244898,0.1326530612244898,0.1326530612244898,0.1326530612244898,0.1292517006802721,0.1292517006802721,0.1292517006802721,0.1292517006802721,0.1292517006802721,0.1292517006802721,0.1292517006802721,0.1292517006802721,0.1292517006802721,0.1292517006802721,0.1292517006802721,0.1292517006802721,0.1292517006802721,0.1292517006802721,0.1292517006802721,0.1292517006802721,0.1292517006802721,0.1292517006802721,0.1292517006802721,0.1292517006802721,0.1292517006802721,0.1292517006802721,0.1292517006802721,0.1292517006802721,0.1292517006802721,0.1292517006802721,0.1292517006802721,0.1292517006802721,0.1292517006802721,0.1292517006802721,0.1292517006802721,0.1292517006802721,0.1292517006802721,0.1292517006802721,0.1292517006802721,0.1292517006802721,0.1292517006802721,0.1292517006802721,0.1292517006802721,0.1292517006802721,0.1292517006802721,0.1292517006802721,0.1292517006802721,0.1292517006802721,0.14965986394557823,0.1598639455782313,0.16666666666666666,0.16666666666666666,0.16666666666666666,0.16666666666666666,0.16666666666666666,0.16666666666666666,0.16666666666666666,0.16666666666666666,0.16666666666666666,0.1564625850340136,0.14965986394557823,0.14965986394557823,0.14965986394557823,0.14965986394557823,0.14965986394557823,0.14965986394557823,0.14965986394557823,0.14965986394557823,0.14965986394557823,0.14285714285714285,0.1360544217687075,0.1326530612244898,0.1292517006802721,0.1292517006802721,0.1292517006802721,0.1292517006802721,0.13945578231292516,0.1598639455782313,0.18027210884353742,0.20068027210884354,0.21768707482993196,0.23809523809523808,0.25510204081632654,0.2653061224489796,0.2857142857142857,0.29931972789115646,0.3129251700680272,0.3163265306122449,0.3163265306122449,0.3163265306122449,0.3197278911564626,0.3231292517006803,0.32653061224489793,0.336734693877551,0.35374149659863946,0.3843537414965986,0.40816326530612246,0.43537414965986393,0.46598639455782315,0.4965986394557823,0.5204081632653061,0.5238095238095238,0.5238095238095238,0.5238095238095238,0.5272108843537415,0.5306122448979592,0.5374149659863946,0.5408163265306123,0.5578231292517006,0.5714285714285714,0.5952380952380952,0.6326530612244898,0.6462585034013606,0.6530612244897959,0.6632653061224489,0.6700680272108843,0.6700680272108843,0.6700680272108843,0.6700680272108843,0.6700680272108843,0.6700680272108843,0.673469387755102,0.673469387755102,0.6802721088435374,0.6836734693877551,0.6938775510204082,0.7006802721088435,0.7108843537414966,0.717687074829932,0.7244897959183674,0.7312925170068028,0.7346938775510204,0.7346938775510204,0.7380952380952381,0.7414965986394558,0.7414965986394558,0.7414965986394558,0.7414965986394558,0.7414965986394558,0.7414965986394558,0.7414965986394558,0.7414965986394558,0.7414965986394558,0.7414965986394558,0.7414965986394558,0.7414965986394558,0.7414965986394558,0.7414965986394558,0.7414965986394558,0.7414965986394558,0.7414965986394558,0.7414965986394558,0.7414965986394558,0.7414965986394558,0.7414965986394558,0.7414965986394558,0.7414965986394558,0.7414965986394558,0.7414965986394558,0.7414965986394558,0.7414965986394558,0.7278911564625851,0.6972789115646258,0.673469387755102,0.6122448979591837,0.5306122448979592,0.4523809523809524,0.36394557823129253,0.3299319727891156,0.272108843537415,0.24829931972789115,0.24489795918367346,0.25170068027210885,0.2653061224489796,0.2891156462585034,0.3401360544217687,0.4013605442176871,0.5170068027210885,0.5986394557823129,0.6700680272108843,0.7142857142857143,0.7312925170068028,0.7312925170068028,0.7312925170068028,0.7312925170068028,0.7312925170068028,0.7312925170068028,0.7312925170068028,0.7312925170068028,0.7312925170068028,0.7312925170068028,0.7312925170068028,0.7312925170068028,0.7312925170068028,0.7278911564625851,0.7108843537414966,0.6972789115646258,0.6836734693877551,0.673469387755102,0.6632653061224489,0.6462585034013606,0.6292517006802721,0.6054421768707483,0.5850340136054422,0.564625850340136,0.5544217687074829,0.54421768707483,0.5306122448979592,0.5238095238095238,0.5204081632653061,0.5136054421768708,0.5102040816326531,0.5068027210884354,0.5034013605442177,0.5,0.4897959183673469,0.48639455782312924,0.47959183673469385,0.47278911564625853,0.46258503401360546,0.4557823129251701,0.445578231292517,0.4387755102040816,0.41836734693877553,0.40816326530612246,0.391156462585034,0.38095238095238093,0.3673469387755102,0.36054421768707484,0.3435374149659864,0.3299319727891156,0.3163265306122449,0.29931972789115646,0.282312925170068,0.2755102040816326,0.2619047619047619,0.25170068027210885,0.24489795918367346,0.24149659863945577,0.23469387755102042,0.23129251700680273,0.23129251700680273,0.23129251700680273,0.23129251700680273,0.23129251700680273,0.23129251700680273,0.24149659863945577,0.2619047619047619,0.29931972789115646,0.3469387755102041,0.391156462585034,0.43197278911564624,0.46598639455782315,0.47278911564625853,0.47959183673469385,0.48299319727891155,0.48639455782312924,0.48639455782312924,0.4897959183673469,0.4931972789115646,0.4965986394557823,0.5136054421768708,0.5306122448979592,0.5510204081632653,0.5714285714285714,0.5850340136054422,0.6020408163265306,0.6156462585034014,0.6224489795918368,0.6224489795918368,0.6292517006802721,0.6394557823129252,0.6496598639455783,0.6768707482993197,0.6938775510204082,0.7074829931972789,0.717687074829932,0.7278911564625851,0.7312925170068028,0.7414965986394558,0.7482993197278912,0.7517006802721088,0.7551020408163265,0.7585034013605442,0.7619047619047619,0.7619047619047619,0.7687074829931972,0.7721088435374149,0.7789115646258503,0.7891156462585034,0.8095238095238095,0.8367346938775511,0.8537414965986394,0.8775510204081632,0.9149659863945578,0.9523809523809523,0.9829931972789115,0.9965986394557823,1.0034013605442176,1.0034013605442176,1.0034013605442176,1.0034013605442176,1.0034013605442176,1.0034013605442176,1.0034013605442176,1.0034013605442176,1.0034013605442176,1.0034013605442176,1.0034013605442176,1.0034013605442176,1.0034013605442176,1.0034013605442176,1.0034013605442176,1.0034013605442176,1.0034013605442176,1.0034013605442176,1.0034013605442176,1.0034013605442176,1.0034013605442176,1.0034013605442176,1.0034013605442176,1.0034013605442176,1.0034013605442176,1.0034013605442176,1.0034013605442176,1.0034013605442176,1.0034013605442176,1.0034013605442176,1.0034013605442176,1.0034013605442176,1.0034013605442176,1.0034013605442176,1.0034013605442176,1.0034013605442176,1.0034013605442176,1.0034013605442176,1.0034013605442176,1.0034013605442176,1.0034013605442176,1.0034013605442176,1.0034013605442176,1.0034013605442176,1.0034013605442176,1.0034013605442176,1.0034013605442176,1.0034013605442176,0.9965986394557823,0.9931972789115646,0.9795918367346939,0.9489795918367347,0.8741496598639455,0.673469387755102,0.608843537414966,0.48639455782312924,0.42517006802721086,0.37755102040816324,0.35034013605442177,0.3299319727891156,0.3299319727891156,0.32653061224489793,0.3231292517006803,0.3231292517006803,0.3231292517006803,0.3231292517006803,0.3231292517006803,0.3231292517006803,0.3231292517006803,0.3231292517006803,0.3231292517006803,0.32653061224489793,0.3333333333333333,0.3333333333333333,0.3333333333333333,0.3333333333333333,0.3333333333333333,0.3333333333333333,0.3333333333333333,0.3333333333333333,0.3333333333333333,0.3333333333333333,0.3333333333333333,0.3333333333333333,0.3299319727891156,0.32653061224489793,0.30952380952380953,0.29591836734693877,0.282312925170068,0.2755102040816326,0.2755102040816326,0.2755102040816326,0.272108843537415,0.272108843537415,0.272108843537415,0.272108843537415,0.272108843537415,0.272108843537415,0.2687074829931973,0.2585034013605442,0.25510204081632654,0.25510204081632654,0.25510204081632654,0.25510204081632654,0.25170068027210885,0.25170068027210885,0.25170068027210885,0.24829931972789115,0.24829931972789115,0.24829931972789115,0.24829931972789115,0.24829931972789115,0.24829931972789115,0.24489795918367346,0.23809523809523808,0.23469387755102042,0.23129251700680273,0.23129251700680273,0.22789115646258504,0.22789115646258504,0.22789115646258504,0.22789115646258504,0.22789115646258504,0.22789115646258504,0.23129251700680273,0.2619047619047619,0.2755102040816326,0.2925170068027211,0.30272108843537415,0.3129251700680272,0.32653061224489793,0.3401360544217687,0.36054421768707484,0.38095238095238093,0.4013605442176871,0.41836734693877553,0.4523809523809524,0.4931972789115646,0.5986394557823129,0.6836734693877551,0.7517006802721088,0.8027210884353742,0.826530612244898,0.8333333333333334,0.8367346938775511,0.8367346938775511,0.8367346938775511,0.8367346938775511,0.8367346938775511,0.8367346938775511,0.8367346938775511,0.8367346938775511,0.8367346938775511,0.8401360544217688,0.8401360544217688,0.8401360544217688,0.8401360544217688,0.8401360544217688,0.8401360544217688,0.8401360544217688,0.8401360544217688,0.8605442176870748,0.8775510204081632,0.891156462585034,0.8979591836734694,0.9047619047619048,0.9081632653061225,0.9183673469387755,0.9319727891156463,0.9387755102040817,0.9455782312925171,0.95578231292517,0.9761904761904762,0.9795918367346939,0.9897959183673469,0.9897959183673469,0.9931972789115646,0.9965986394557823,1.0068027210884354,1.0170068027210883,1.0272108843537415,1.034013605442177,1.034013605442177,1.034013605442177,1.0374149659863945,1.0578231292517006,1.0680272108843538,1.0850340136054422,1.0918367346938775,1.1020408163265305,1.1088435374149659,1.1122448979591837,1.1156462585034013,1.1156462585034013,1.1156462585034013,1.1156462585034013,1.1156462585034013,1.1156462585034013,1.1156462585034013,1.1156462585034013,1.1156462585034013,1.1156462585034013,1.1156462585034013,1.1156462585034013,1.1156462585034013,1.1156462585034013,1.1156462585034013,1.1156462585034013,1.1156462585034013,1.1156462585034013,1.1156462585034013,1.1156462585034013,1.1156462585034013,1.1088435374149659,1.1088435374149659,1.1088435374149659,1.1088435374149659,1.1054421768707483,1.1054421768707483,1.0952380952380953,1.0782312925170068,1.034013605442177,0.9829931972789115,0.9251700680272109,0.8469387755102041,0.7585034013605442,0.5986394557823129,0.4387755102040816,0.3163265306122449,0.23469387755102042,0.1836734693877551,0.18027210884353742,0.18027210884353742,0.18027210884353742,0.18027210884353742,0.17687074829931973,0.17687074829931973,0.17346938775510204,0.17006802721088435,0.16326530612244897,0.1564625850340136,0.1564625850340136,0.1564625850340136,0.15306122448979592,0.14965986394557823,0.1326530612244898,0.1054421768707483,0.08163265306122448,0.061224489795918366,0.05442176870748299,0.04421768707482993,0.030612244897959183,0.027210884353741496,0.027210884353741496,0.027210884353741496,0.023809523809523808,0.02040816326530612,0.017006802721088437,0.017006802721088437,0.017006802721088437,0.017006802721088437,0.017006802721088437,0.017006802721088437,0.013605442176870748,0.013605442176870748,0.013605442176870748,0.013605442176870748,0.013605442176870748,0.013605442176870748,0.013605442176870748,0.013605442176870748,0.013605442176870748,0.013605442176870748,0.013605442176870748,0.013605442176870748,0.013605442176870748,0.013605442176870748,0.013605442176870748,0.013605442176870748,0.013605442176870748,0.013605442176870748,0.013605442176870748,0.013605442176870748,0.013605442176870748,0.013605442176870748,0.013605442176870748,0.013605442176870748,0.013605442176870748,0.013605442176870748,0.013605442176870748,0.013605442176870748,0.013605442176870748,0.013605442176870748,0.013605442176870748,0.013605442176870748,0.013605442176870748,0.013605442176870748,0.013605442176870748,0.013605442176870748,0.013605442176870748,0.013605442176870748,0.013605442176870748,0.013605442176870748,0.013605442176870748,0.013605442176870748,0.013605442176870748,0.013605442176870748,0.013605442176870748,0.013605442176870748,0.013605442176870748,0.013605442176870748,0.013605442176870748,0.013605442176870748,0.013605442176870748,0.013605442176870748,0.013605442176870748,0.013605442176870748,0.013605442176870748,0.013605442176870748,0.013605442176870748,0.013605442176870748,0.013605442176870748,0.013605442176870748,0.013605442176870748,0.013605442176870748,0.013605442176870748,0.013605442176870748,0.013605442176870748,0.013605442176870748,0.013605442176870748,0.013605442176870748,0.013605442176870748,0.013605442176870748,0.013605442176870748,0.013605442176870748,0.013605442176870748,0.013605442176870748,0.013605442176870748,0.013605442176870748,0.02040816326530612,0.04081632653061224,0.06462585034013606,0.08503401360544217,0.10884353741496598,0.1326530612244898,0.14625850340136054,0.15306122448979592,0.15306122448979592,0.15306122448979592,0.15306122448979592,0.15306122448979592,0.15306122448979592,0.15306122448979592,0.15306122448979592,0.15306122448979592,0.15306122448979592,0.15306122448979592,0.15306122448979592,0.15306122448979592,0.15306122448979592,0.15306122448979592,0.15306122448979592,0.15306122448979592,0.15306122448979592,0.15306122448979592,0.15306122448979592,0.15306122448979592,0.15306122448979592,0.15306122448979592,0.15306122448979592,0.15306122448979592,0.15306122448979592,0.15306122448979592,0.15306122448979592,0.15306122448979592,0.15306122448979592,0.15306122448979592,0.15306122448979592,0.15306122448979592,0.15306122448979592,0.15306122448979592,0.15306122448979592,0.15306122448979592,0.15306122448979592,0.15306122448979592,0.15306122448979592,0.15306122448979592,0.15306122448979592,0.15306122448979592,0.15306122448979592,0.15306122448979592,0.15306122448979592,0.15306122448979592,0.15306122448979592,0.15306122448979592,0.15306122448979592,0.15306122448979592,0.15306122448979592,0.15306122448979592,0.15306122448979592,0.15306122448979592,0.15306122448979592,0.15306122448979592],"y":[-3.103174603174603,-3.103174603174603,-3.103174603174603,-3.103174603174603,-3.103174603174603,-3.103174603174603,-3.103174603174603,-3.103174603174603,-3.103174603174603,-3.103174603174603,-3.103174603174603,-3.103174603174603,-3.103174603174603,-3.103174603174603,-3.103174603174603,-3.103174603174603,-3.103174603174603,-3.103174603174603,-3.103174603174603,-3.103174603174603,-3.103174603174603,-3.103174603174603,-3.103174603174603,-3.103174603174603,-3.103174603174603,-3.103174603174603,-3.103174603174603,-3.103174603174603,-3.103174603174603,-3.103174603174603,-3.103174603174603,-3.103174603174603,-3.103174603174603,-3.103174603174603,-3.103174603174603,-3.103174603174603,-3.103174603174603,-3.103174603174603,-3.103174603174603,-3.103174603174603,-3.103174603174603,-3.103174603174603,-3.103174603174603,-3.103174603174603,-3.103174603174603,-3.103174603174603,-3.103174603174603,-3.103174603174603,-3.103174603174603,-3.103174603174603,-3.103174603174603,-3.103174603174603,-3.103174603174603,-3.103174603174603,-3.103174603174603,-3.103174603174603,-3.103174603174603,1.058730158730159,1.0396825396825398,1.0111111111111113,0.9825396825396827,0.9730158730158732,0.9730158730158732,0.9634920634920636,0.9634920634920636,0.9634920634920636,0.9634920634920636,0.9634920634920636,0.9539682539682541,0.9539682539682541,0.9444444444444446,0.9349206349206352,0.9253968253968256,0.9253968253968256,0.9253968253968256,0.9253968253968256,0.9253968253968256,0.9253968253968256,0.9253968253968256,0.9253968253968256,0.9253968253968256,0.9253968253968256,0.9253968253968256,0.9253968253968256,0.9253968253968256,0.9253968253968256,0.9253968253968256,0.9253968253968256,0.9253968253968256,0.9253968253968256,0.9253968253968256,0.9253968253968256,0.9253968253968256,0.9253968253968256,0.9253968253968256,0.9253968253968256,0.9253968253968256,0.9253968253968256,0.9253968253968256,0.9253968253968256,0.9253968253968256,0.9253968253968256,0.9253968253968256,0.9253968253968256,0.9253968253968256,0.9253968253968256,0.9253968253968256,0.9253968253968256,0.896825396825397,0.8682539682539684,0.8206349206349208,0.7920634920634922,0.7920634920634922,0.7920634920634922,0.7920634920634922,0.7920634920634922,0.7920634920634922,0.7920634920634922,0.7825396825396828,0.7634920634920637,0.7444444444444446,0.7063492063492065,0.696825396825397,0.6873015873015875,0.6777777777777779,0.6492063492063493,0.6015873015873018,0.5349206349206351,0.48730158730158746,0.4111111111111113,0.35396825396825415,0.315873015873016,0.2682539682539684,0.23015873015873034,0.19206349206349224,0.15396825396825414,0.1349206349206351,0.1253968253968256,0.11587301587301606,0.10634920634920653,0.09682539682539701,0.08730158730158748,0.07777777777777796,0.06825396825396843,0.03968253968253986,0.03968253968253986,0.020634920634920815,0.020634920634920815,0.020634920634920815,0.020634920634920815,0.020634920634920815,0.020634920634920815,0.020634920634920815,0.020634920634920815,0.020634920634920815,0.020634920634920815,0.020634920634920815,0.020634920634920815,0.020634920634920815,0.020634920634920815,0.020634920634920815,0.020634920634920815,0.020634920634920815,0.020634920634920815,0.020634920634920815,0.020634920634920815,0.020634920634920815,0.020634920634920815,0.020634920634920815,0.020634920634920815,0.020634920634920815,0.020634920634920815,0.020634920634920815,0.020634920634920815,0.020634920634920815,0.020634920634920815,0.020634920634920815,0.020634920634920815,0.020634920634920815,0.020634920634920815,0.020634920634920815,0.020634920634920815,0.020634920634920815,0.020634920634920815,0.020634920634920815,0.020634920634920815,0.020634920634920815,0.020634920634920815,0.020634920634920815,0.020634920634920815,0.020634920634920815,0.020634920634920815,0.020634920634920815,0.020634920634920815,0.020634920634920815,0.020634920634920815,0.020634920634920815,0.020634920634920815,0.020634920634920815,0.020634920634920815,0.020634920634920815,0.020634920634920815,0.020634920634920815,0.020634920634920815,0.020634920634920815,0.020634920634920815,0.020634920634920815,0.020634920634920815,0.020634920634920815,0.020634920634920815,0.020634920634920815,0.020634920634920815,0.020634920634920815,0.049206349206349385,0.11587301587301606,0.2111111111111113,0.315873015873016,0.4111111111111113,0.45873015873015893,0.47777777777777797,0.5063492063492065,0.515873015873016,0.5444444444444446,0.5444444444444446,0.5444444444444446,0.5444444444444446,0.5444444444444446,0.5444444444444446,0.5444444444444446,0.5444444444444446,0.5444444444444446,0.5444444444444446,0.5444444444444446,0.5444444444444446,0.5444444444444446,0.5444444444444446,0.5444444444444446,0.5444444444444446,0.5444444444444446,0.5444444444444446,0.5539682539682541,0.5539682539682541,0.5539682539682541,0.5539682539682541,0.5539682539682541,0.5539682539682541,0.5539682539682541,0.5539682539682541,0.5539682539682541,0.5539682539682541,0.5539682539682541,0.5539682539682541,0.5539682539682541,0.5539682539682541,0.5539682539682541,0.5539682539682541,0.5539682539682541,0.5539682539682541,0.5539682539682541,0.5539682539682541,0.5539682539682541,0.5539682539682541,0.5539682539682541,0.5539682539682541,0.5539682539682541,0.5539682539682541,0.5539682539682541,0.5539682539682541,0.5539682539682541,0.5539682539682541,0.5539682539682541,0.5539682539682541,0.5539682539682541,0.5634920634920637,0.5634920634920637,0.5634920634920637,0.5634920634920637,0.5634920634920637,0.5634920634920637,0.5730158730158732,0.5730158730158732,0.5730158730158732,0.5825396825396827,0.5825396825396827,0.5825396825396827,0.5825396825396827,0.5825396825396827,0.5825396825396827,0.5825396825396827,0.6015873015873018,0.6015873015873018,0.6015873015873018,0.6015873015873018,0.6015873015873018,0.6015873015873018,0.6015873015873018,0.5920634920634923,0.5730158730158732,0.5634920634920637,0.5634920634920637,0.5634920634920637,0.5634920634920637,0.5539682539682541,0.5444444444444446,0.5349206349206351,0.515873015873016,0.48730158730158746,0.4206349206349208,0.3444444444444446,0.23968253968253986,0.2111111111111113,0.2111111111111113,0.20158730158730176,0.20158730158730176,0.20158730158730176,0.19206349206349224,0.1730158730158732,0.15396825396825414,0.14444444444444463,0.14444444444444463,0.1349206349206351,0.11587301587301606,0.10634920634920653,0.10634920634920653,0.10634920634920653,0.10634920634920653,0.10634920634920653,0.10634920634920653,0.08730158730158748,0.07777777777777796,0.07777777777777796,0.07777777777777796,0.07777777777777796,0.07777777777777796,0.07777777777777796,0.07777777777777796,0.07777777777777796,0.07777777777777796,0.07777777777777796,0.07777777777777796,0.07777777777777796,0.07777777777777796,0.07777777777777796,0.07777777777777796,0.07777777777777796,0.07777777777777796,0.07777777777777796,0.07777777777777796,0.07777777777777796,0.07777777777777796,0.07777777777777796,0.07777777777777796,0.07777777777777796,0.07777777777777796,0.07777777777777796,0.07777777777777796,0.07777777777777796,0.07777777777777796,0.07777777777777796,0.07777777777777796,0.07777777777777796,0.07777777777777796,0.07777777777777796,0.07777777777777796,0.07777777777777796,0.07777777777777796,0.07777777777777796,0.07777777777777796,0.07777777777777796,0.07777777777777796,0.07777777777777796,0.07777777777777796,0.07777777777777796,0.07777777777777796,0.07777777777777796,0.07777777777777796,0.08730158730158748,0.1730158730158732,0.23015873015873034,0.35396825396825415,0.4492063492063494,0.5253968253968255,0.5349206349206351,0.5634920634920637,0.5825396825396827,0.6015873015873018,0.6396825396825399,0.6777777777777779,0.7253968253968256,0.7539682539682542,0.7634920634920637,0.7634920634920637,0.7634920634920637,0.7634920634920637,0.7634920634920637,0.7634920634920637,0.7634920634920637,0.7730158730158732,0.8015873015873017,0.8111111111111113,0.8301587301587303,0.8301587301587303,0.8301587301587303,0.8301587301587303,0.8301587301587303,0.8396825396825398,0.8396825396825398,0.8206349206349208,0.8206349206349208,0.8206349206349208,0.8206349206349208,0.8206349206349208,0.8206349206349208,0.8301587301587303,0.8301587301587303,0.8301587301587303,0.8301587301587303,0.8301587301587303,0.8301587301587303,0.8301587301587303,0.8301587301587303,0.8396825396825398,0.8396825396825398,0.8587301587301589,0.877777777777778,0.877777777777778,0.877777777777778,0.877777777777778,0.877777777777778,0.877777777777778,0.877777777777778,0.877777777777778,0.877777777777778,0.877777777777778,0.896825396825397,0.9063492063492066,0.9158730158730161,0.9349206349206352,0.9539682539682541,0.9825396825396827,1.0015873015873018,1.0206349206349208,1.0206349206349208,1.0301587301587303,1.0396825396825398,1.0396825396825398,1.0396825396825398,1.0396825396825398,1.0396825396825398,1.0396825396825398,1.0396825396825398,1.0396825396825398,1.058730158730159,1.058730158730159,1.0682539682539685,1.0682539682539685,1.0682539682539685,1.0682539682539685,1.0682539682539685,1.0682539682539685,1.0682539682539685,1.0682539682539685,1.0682539682539685,1.0682539682539685,1.0682539682539685,1.0682539682539685,1.0682539682539685,1.0682539682539685,1.0682539682539685,1.0682539682539685,1.0682539682539685,1.0682539682539685,1.0682539682539685,1.0682539682539685,1.0682539682539685,1.0682539682539685,1.0682539682539685,1.0682539682539685,1.0682539682539685,1.0682539682539685,1.0682539682539685,1.0682539682539685,1.0682539682539685,1.0682539682539685,1.0682539682539685,1.0682539682539685,1.0682539682539685,1.058730158730159,1.0111111111111113,0.9634920634920636,0.9253968253968256,0.8587301587301589,0.8206349206349208,0.7444444444444446,0.6587301587301589,0.5825396825396827,0.5253968253968255,0.48730158730158746,0.43968253968253984,0.4206349206349208,0.4206349206349208,0.4206349206349208,0.4206349206349208,0.4111111111111113,0.3920634920634922,0.35396825396825415,0.27777777777777796,0.24920634920634938,0.22063492063492082,0.2111111111111113,0.2111111111111113,0.2111111111111113,0.2111111111111113,0.2111111111111113,0.2111111111111113,0.2111111111111113,0.2111111111111113,0.2111111111111113,0.2111111111111113,0.2111111111111113,0.2111111111111113,0.2111111111111113,0.2111111111111113,0.19206349206349224,0.16349206349206366,0.14444444444444463,0.14444444444444463,0.1349206349206351,0.1349206349206351,0.1349206349206351,0.1349206349206351,0.16349206349206366,0.18253968253968272,0.22063492063492082,0.23968253968253986,0.2682539682539684,0.296825396825397,0.315873015873016,0.3253968253968256,0.35396825396825415,0.3634920634920637,0.38253968253968273,0.40158730158730177,0.4206349206349208,0.4682539682539684,0.47777777777777797,0.5063492063492065,0.5253968253968255,0.5539682539682541,0.5730158730158732,0.5920634920634923,0.6015873015873018,0.6206349206349208,0.6206349206349208,0.6396825396825399,0.6492063492063493,0.6587301587301589,0.6777777777777779,0.696825396825397,0.696825396825397,0.7063492063492065,0.7253968253968256,0.7253968253968256,0.7349206349206351,0.7444444444444446,0.7539682539682542,0.7539682539682542,0.7634920634920637,0.7730158730158732,0.7730158730158732,0.7730158730158732,0.7825396825396828,0.7920634920634922,0.8015873015873017,0.8301587301587303,0.8682539682539684,0.896825396825397,0.9063492063492066,0.9063492063492066,0.9063492063492066,0.9063492063492066,0.9063492063492066,0.9063492063492066,0.9158730158730161,0.9158730158730161,0.9158730158730161,0.9158730158730161,0.9158730158730161,0.9158730158730161,0.9158730158730161,0.9158730158730161,0.9063492063492066,0.9063492063492066,0.896825396825397,0.896825396825397,0.896825396825397,0.896825396825397,0.896825396825397,0.896825396825397,0.896825396825397,0.896825396825397,0.896825396825397,0.896825396825397,0.896825396825397,0.896825396825397,0.896825396825397,0.896825396825397,0.896825396825397,0.896825396825397,0.896825396825397,0.896825396825397,0.896825396825397,0.896825396825397,0.896825396825397,0.896825396825397,0.896825396825397,0.896825396825397,0.896825396825397,0.896825396825397,0.896825396825397,0.896825396825397,0.896825396825397,0.896825396825397,0.896825396825397,0.9158730158730161,0.9253968253968256,0.9253968253968256,0.9349206349206352,0.9349206349206352,0.9349206349206352,0.9349206349206352,0.9349206349206352,0.9349206349206352,0.9349206349206352,0.9349206349206352,0.9349206349206352,0.9349206349206352,0.9349206349206352,0.9349206349206352,0.9349206349206352,0.9349206349206352,0.9349206349206352,0.9349206349206352,0.9349206349206352,0.9349206349206352,0.9349206349206352,0.9349206349206352,0.9349206349206352,0.9349206349206352,0.9349206349206352,0.9349206349206352,0.9349206349206352,0.9349206349206352,0.9349206349206352,0.9349206349206352,0.9349206349206352,0.9349206349206352,0.9349206349206352,0.9349206349206352,0.9349206349206352,0.9349206349206352,0.9349206349206352,0.9349206349206352,0.9349206349206352,0.9349206349206352,0.9349206349206352,0.9349206349206352,0.9349206349206352,0.9349206349206352,0.9349206349206352,0.9349206349206352,0.9349206349206352,0.9349206349206352,0.9349206349206352,0.9349206349206352,0.9349206349206352,0.9349206349206352,0.9253968253968256,0.8873015873015875,0.8015873015873017,0.6873015873015875,0.6492063492063493,0.5825396825396827,0.5349206349206351,0.496825396825397,0.4682539682539684,0.4492063492063494,0.43968253968253984,0.43015873015873035,0.4206349206349208,0.4206349206349208,0.4111111111111113,0.3730158730158732,0.35396825396825415,0.3253968253968256,0.2873015873015875,0.23968253968253986,0.20158730158730176,0.16349206349206366,0.15396825396825414,0.15396825396825414,0.15396825396825414,0.15396825396825414,0.15396825396825414,0.15396825396825414,0.15396825396825414,0.15396825396825414,0.15396825396825414,0.15396825396825414,0.15396825396825414,0.1349206349206351,0.1349206349206351,0.1253968253968256,0.10634920634920653,0.09682539682539701,0.09682539682539701,0.09682539682539701,0.09682539682539701,0.09682539682539701,0.09682539682539701,0.1253968253968256,0.15396825396825414,0.2111111111111113,0.2873015873015875,0.3349206349206351,0.3920634920634922,0.45873015873015893,0.515873015873016,0.515873015873016,0.5253968253968255,0.5253968253968255,0.5253968253968255,0.5349206349206351,0.5349206349206351,0.5444444444444446,0.5444444444444446,0.5444444444444446,0.5444444444444446,0.5444444444444446,0.5444444444444446,0.5634920634920637,0.5825396825396827,0.5920634920634923,0.5920634920634923,0.6015873015873018,0.6015873015873018,0.6015873015873018,0.6015873015873018,0.6015873015873018,0.6015873015873018,0.6015873015873018,0.6015873015873018,0.5920634920634923,0.5730158730158732,0.5634920634920637,0.5539682539682541,0.5539682539682541,0.5539682539682541,0.5539682539682541,0.5539682539682541,0.5539682539682541,0.5539682539682541,0.5539682539682541,0.5444444444444446,0.5253968253968255,0.47777777777777797,0.4206349206349208,0.38253968253968273,0.3634920634920637,0.35396825396825415,0.35396825396825415,0.35396825396825415,0.35396825396825415,0.35396825396825415,0.35396825396825415,0.35396825396825415,0.35396825396825415,0.35396825396825415,0.35396825396825415,0.35396825396825415,0.3444444444444446,0.3444444444444446,0.3444444444444446,0.3444444444444446,0.3444444444444446,0.3444444444444446,0.3444444444444446,0.3444444444444446,0.3444444444444446,0.3444444444444446,0.3444444444444446,0.35396825396825415,0.35396825396825415,0.35396825396825415,0.3634920634920637,0.3634920634920637,0.3730158730158732,0.38253968253968273,0.3920634920634922,0.40158730158730177,0.4111111111111113,0.4111111111111113,0.4111111111111113,0.4111111111111113,0.4111111111111113,0.4111111111111113,0.4111111111111113,0.4111111111111113,0.4111111111111113,0.4111111111111113,0.4111111111111113,0.4111111111111113,0.4111111111111113,0.4111111111111113,0.4206349206349208,0.4206349206349208,0.4206349206349208,0.4206349206349208,0.4206349206349208,0.4206349206349208,0.4206349206349208,0.4206349206349208,0.4206349206349208,0.4206349206349208,0.4206349206349208,0.4206349206349208,0.4206349206349208,0.4206349206349208,0.4206349206349208,0.4206349206349208,0.4206349206349208,0.4206349206349208,0.4206349206349208,0.4206349206349208,0.4206349206349208,0.4206349206349208,0.4206349206349208,0.4206349206349208,0.4206349206349208,0.4206349206349208,0.4206349206349208,0.4206349206349208,0.4206349206349208,0.4206349206349208,0.4206349206349208,0.4206349206349208,0.4206349206349208,0.4111111111111113,0.40158730158730177,0.38253968253968273,0.35396825396825415,0.315873015873016,0.2873015873015875,0.2587301587301589,0.23015873015873034,0.19206349206349224,0.16349206349206366,0.15396825396825414,0.15396825396825414,0.15396825396825414,0.15396825396825414,0.15396825396825414,0.15396825396825414,0.15396825396825414,0.15396825396825414,0.15396825396825414,0.14444444444444463,0.1349206349206351,0.1349206349206351,0.1349206349206351,0.1349206349206351,0.1253968253968256,0.09682539682539701,0.049206349206349385,0.0015873015873017677,-0.046031746031745854,-0.0650793650793649,-0.08412698412698395,-0.11269841269841252,-0.11269841269841252,-0.11269841269841252,-0.11269841269841252,-0.11269841269841252,-0.11269841269841252,-0.11269841269841252,-0.11269841269841252,-0.11269841269841252,-0.11269841269841252,-0.11269841269841252,-0.11269841269841252,-0.10317460317460299,-0.08412698412698395,-0.07460317460317442,-0.05555555555555537,-0.05555555555555537,-0.05555555555555537,-0.05555555555555537,-0.05555555555555537,-0.05555555555555537,-0.05555555555555537,-0.05555555555555537,-0.05555555555555537,-0.05555555555555537,-0.05555555555555537,-0.05555555555555537,-0.05555555555555537,-0.05555555555555537,-0.05555555555555537,-0.05555555555555537,-0.05555555555555537,-0.05555555555555537,-0.05555555555555537,-0.05555555555555537,-0.05555555555555537,-0.05555555555555537,-0.05555555555555537,-0.05555555555555537,-0.05555555555555537,-0.05555555555555537,-0.05555555555555537,-0.05555555555555537,-0.05555555555555537,-0.05555555555555537,-0.05555555555555537,-0.05555555555555537,-0.05555555555555537,-0.05555555555555537,-0.05555555555555537,-0.05555555555555537,-0.05555555555555537,-0.05555555555555537,-0.05555555555555537,-0.05555555555555537,-0.05555555555555537,-0.05555555555555537,-0.05555555555555537,-0.05555555555555537,-0.05555555555555537,-0.05555555555555537,-0.05555555555555537,-0.05555555555555537,-0.05555555555555537,-0.05555555555555537,-0.05555555555555537,-0.05555555555555537,-0.05555555555555537,-0.05555555555555537,-0.05555555555555537,-0.05555555555555537,-0.05555555555555537,-0.05555555555555537,-0.05555555555555537,-0.05555555555555537,-0.05555555555555537,-0.05555555555555537,-0.05555555555555537,-0.05555555555555537,-0.05555555555555537,-0.05555555555555537,-0.05555555555555537,-0.05555555555555537,-0.05555555555555537,-0.05555555555555537,-0.05555555555555537,-0.046031746031745854,-0.03650793650793633,0.011111111111111292,0.09682539682539701,0.20158730158730176,0.3253968253968256,0.4492063492063494,0.5539682539682541,0.6396825396825399,0.6777777777777779,0.696825396825397,0.696825396825397,0.696825396825397,0.696825396825397,0.696825396825397,0.696825396825397,0.696825396825397,0.696825396825397,0.696825396825397,0.696825396825397,0.696825396825397,0.696825396825397,0.696825396825397,0.696825396825397,0.696825396825397,0.696825396825397,0.696825396825397,0.696825396825397,0.696825396825397,0.696825396825397,0.696825396825397,0.696825396825397,0.696825396825397,0.696825396825397,0.696825396825397,0.696825396825397,0.696825396825397,0.696825396825397,0.696825396825397,0.696825396825397,0.696825396825397,0.696825396825397,0.696825396825397,0.696825396825397,0.696825396825397,0.696825396825397,0.696825396825397,0.696825396825397,0.696825396825397,0.696825396825397,0.696825396825397,0.696825396825397,0.696825396825397,0.696825396825397,0.696825396825397,0.696825396825397,0.696825396825397,0.696825396825397,0.696825396825397,0.696825396825397,0.696825396825397,0.696825396825397,0.696825396825397,0.696825396825397,0.696825396825397,0.696825396825397]},"final_keyboard_state":["E","B","Z","R","A"],"num_clicks":5,"points":15,"cheat":false,"trial_type":"Hangman","trial_index":5,"time_elapsed":52819,"internal_node_id":"0.0-4.0","protocol_sum":"","subject_identifier":101,"subject_sum":[26,101,98,89,14,241,157,16,69,208,108,64,85,116,45,56,40,142,158,109,205,113,204,222,92,238,128,241,213,167,116,235],"subject_pair":50,"STUDY_ID":"669a702db1122fc5150a13ce","PROLIFIC_PID":"5e14ffee6f6c63b33cf77eb3","SESSION_ID":"669a7957d97a8f8875b56be4","practice_instructions":1,"leaderboard_instructions":0,"bonus":0,"reveal_word":true,"self_rating":"3","confidence":"66"},{"view_history":"[{\"page_index\":0,\"viewing_time\":2718.699999988079},{\"page_index\":1,\"viewing_time\":14935.5}]","rt":17654.799999952316,"trial_type":"instructions","trial_index":6,"time_elapsed":70475,"internal_node_id":"0.0-5.0","protocol_sum":"","subject_identifier":101,"subject_sum":[26,101,98,89,14,241,157,16,69,208,108,64,85,116,45,56,40,142,158,109,205,113,204,222,92,238,128,241,213,167,116,235],"subject_pair":50,"STUDY_ID":"669a702db1122fc5150a13ce","PROLIFIC_PID":"5e14ffee6f6c63b33cf77eb3","SESSION_ID":"669a7957d97a8f8875b56be4","practice_instructions":1,"leaderboard_instructions":0,"bonus":0,"reveal_word":true,"self_rating":"3","confidence":"66"},{"rt":9951.300000011921,"responses":"{\"Q0\":\"...from <b>a previous session</b> that is part of the upcoming tournament.\"}","question_order":"[0]","trial_type":"survey-multi-choice","trial_index":7,"time_elapsed":80428,"internal_node_id":"0.0-6.0","protocol_sum":"","subject_identifier":101,"subject_sum":[26,101,98,89,14,241,157,16,69,208,108,64,85,116,45,56,40,142,158,109,205,113,204,222,92,238,128,241,213,167,116,235],"subject_pair":50,"correct":false,"test_part":"multichoice_leaderboard","STUDY_ID":"669a702db1122fc5150a13ce","PROLIFIC_PID":"5e14ffee6f6c63b33cf77eb3","SESSION_ID":"669a7957d97a8f8875b56be4","practice_instructions":1,"leaderboard_instructions":0,"bonus":0,"reveal_word":true,"self_rating":"3","confidence":"66"},{"view_history":"[{\"page_index\":0,\"viewing_time\":2794.899999976158}]","rt":2795,"trial_type":"instructions","trial_index":8,"time_elapsed":83223,"internal_node_id":"0.0-7.0-0.0","protocol_sum":"","subject_identifier":101,"subject_sum":[26,101,98,89,14,241,157,16,69,208,108,64,85,116,45,56,40,142,158,109,205,113,204,222,92,238,128,241,213,167,116,235],"subject_pair":50,"STUDY_ID":"669a702db1122fc5150a13ce","PROLIFIC_PID":"5e14ffee6f6c63b33cf77eb3","SESSION_ID":"669a7957d97a8f8875b56be4","practice_instructions":1,"leaderboard_instructions":0,"bonus":0,"reveal_word":true,"self_rating":"3","confidence":"66"},{"rt":5783,"responses":"{\"Q0\":\"...from <b>a previous session</b> that is not part of the upcoming tournament.\"}","question_order":"[0]","trial_type":"survey-multi-choice","trial_index":9,"time_elapsed":89007,"internal_node_id":"0.0-7.0-1.0","protocol_sum":"","subject_identifier":101,"subject_sum":[26,101,98,89,14,241,157,16,69,208,108,64,85,116,45,56,40,142,158,109,205,113,204,222,92,238,128,241,213,167,116,235],"subject_pair":50,"correct":true,"test_part":"multichoice_leaderboard","STUDY_ID":"669a702db1122fc5150a13ce","PROLIFIC_PID":"5e14ffee6f6c63b33cf77eb3","SESSION_ID":"669a7957d97a8f8875b56be4","practice_instructions":1,"leaderboard_instructions":0,"bonus":0,"reveal_word":true,"self_rating":"3","confidence":"66"},{"view_history":"[{\"page_index\":0,\"viewing_time\":10082.600000023842}]","rt":10082.699999988079,"trial_type":"instructions","trial_index":10,"time_elapsed":99091,"internal_node_id":"0.0-8.0","protocol_sum":"","subject_identifier":101,"subject_sum":[26,101,98,89,14,241,157,16,69,208,108,64,85,116,45,56,40,142,158,109,205,113,204,222,92,238,128,241,213,167,116,235],"subject_pair":50,"STUDY_ID":"669a702db1122fc5150a13ce","PROLIFIC_PID":"5e14ffee6f6c63b33cf77eb3","SESSION_ID":"669a7957d97a8f8875b56be4","practice_instructions":1,"leaderboard_instructions":0,"bonus":0,"reveal_word":true,"self_rating":"3","confidence":"66"},{"rt":10087.5,"responses":"{\"Q0\":\"...players' leaderboard position (in terms of <b>points</b>) in an <b>upcoming tournament.</b>\"}","question_order":"[0]","trial_type":"survey-multi-choice","trial_index":11,"time_elapsed":109179,"internal_node_id":"0.0-9.0","protocol_sum":"","subject_identifier":101,"subject_sum":[26,101,98,89,14,241,157,16,69,208,108,64,85,116,45,56,40,142,158,109,205,113,204,222,92,238,128,241,213,167,116,235],"subject_pair":50,"correct":true,"test_part":"multichoice_tournament","STUDY_ID":"669a702db1122fc5150a13ce","PROLIFIC_PID":"5e14ffee6f6c63b33cf77eb3","SESSION_ID":"669a7957d97a8f8875b56be4","practice_instructions":1,"leaderboard_instructions":0,"bonus":0,"reveal_word":true,"self_rating":"3","confidence":"66"},{"view_history":"[{\"page_index\":0,\"viewing_time\":9171}]","rt":9171.199999988079,"trial_type":"instructions","trial_index":12,"time_elapsed":118351,"internal_node_id":"0.0-11.0","protocol_sum":"","subject_identifier":101,"subject_sum":[26,101,98,89,14,241,157,16,69,208,108,64,85,116,45,56,40,142,158,109,205,113,204,222,92,238,128,241,213,167,116,235],"subject_pair":50,"STUDY_ID":"669a702db1122fc5150a13ce","PROLIFIC_PID":"5e14ffee6f6c63b33cf77eb3","SESSION_ID":"669a7957d97a8f8875b56be4","practice_instructions":1,"leaderboard_instructions":0,"bonus":0,"reveal_word":true,"self_rating":"3","confidence":"66"},{"view_history":"[{\"page_index\":0,\"viewing_time\":27867.400000035763}]","rt":27867.600000023842,"trial_type":"instructions","trial_index":13,"time_elapsed":146219,"internal_node_id":"0.0-12.0-0.0","protocol_sum":"","subject_identifier":101,"subject_sum":[26,101,98,89,14,241,157,16,69,208,108,64,85,116,45,56,40,142,158,109,205,113,204,222,92,238,128,241,213,167,116,235],"subject_pair":50,"STUDY_ID":"669a702db1122fc5150a13ce","PROLIFIC_PID":"5e14ffee6f6c63b33cf77eb3","SESSION_ID":"669a7957d97a8f8875b56be4","practice_instructions":1,"leaderboard_instructions":0,"bonus":0,"reveal_word":true,"self_rating":"3","confidence":"66"},{"rt":9086.899999976158,"response":"kentucky","responses":["kentucky"],"trial_type":"type-this","trial_index":14,"time_elapsed":155808,"internal_node_id":"0.0-12.0-1.0","protocol_sum":"","subject_identifier":101,"subject_sum":[26,101,98,89,14,241,157,16,69,208,108,64,85,116,45,56,40,142,158,109,205,113,204,222,92,238,128,241,213,167,116,235],"subject_pair":50,"STUDY_ID":"669a702db1122fc5150a13ce","PROLIFIC_PID":"5e14ffee6f6c63b33cf77eb3","SESSION_ID":"669a7957d97a8f8875b56be4","practice_instructions":1,"leaderboard_instructions":0,"bonus":0,"reveal_word":true,"self_rating":"3","confidence":"66"},{"word":"KENTUCKY","click_log":{"letter":["","E","N","T","K","C","U","Y"],"t":[0,1986,4819.199999988079,7251.899999976158,10052.300000011921,11851.800000011921,14569.199999988079,16002],"hit":[null,1,1,1,2,1,1,1],"asked":["","E","EN","ENT","ENTK","ENTKC","ENTKCU","ENTKCUY"],"word_state":["________","_E______","_EN_____","_ENT____","KENT__K_","KENT_CK_","KENTUCK_","KENTUCKY"]},"hover_log":{"letter":["?","?","?","?","?","?","?","?","?","?","?","?","?","?","?","?","?","?","?","?","?","?","?","?","?","?","?","?","?","?","?","?","?","?","?","?","?","?","?","?","?","?","?","?","?","?","?","?","?","?","?","?","?","?","?","?","?","?","?","?","?","?","?","?","?","?","?","?","?","?","?","?","?","?","?","?","?","?","?","?","?","?","?","?","?","?","?","?","?","?","?","?","?","?","?","?","?","?","?","?","?","?","?","?","?","?","?","?","?","?","?","?","?","?","?","?","?","?","?","?","?","?","?","?","?","?","?","?","?","?","?","?","?","?","?","?","?","?","?","?","?","?","?","?","?","?","?","?","?","?","?","?","?","?","?","?","?","?","?","?","?","?","?","?","?","?","?","?","?","?","?","?","?","?","?","?","?","?","?","?","?","?","?","?","?","?","?","?","?","?","?","?","?","?","?","?","?","?","?","?","?","?","?","?","?","?","?","?","?","?","?","?","?","?","?","?","?","?","?","?","?","?","?","?","?","?","?","?","?","?","?","?","?","?","?","?","?","?","?","?","?","?","?","?","?","?","?","?","?","?","?","?","?","?","?","?","?","?","?","?","?","?","?","?","?","?","?","?","?","?","?","?","?","?","?","?","?","?","?","?","?","?","?","?","?","?","?","?","?","?","?","?","?","?","?","?","?","?","?","?","?","?","?","?","?","?","?","?","?","?","?","?","?","?","?","?","?","?","?","?","?","?","?","?","?","?","?","?","?","?","?","?","?","?","?","?","?","?","?","?","?","?","?","?","?","?","?","?","?","?","?","?","?","?","?","?","?","?","?","?","?","?","?","?","?","?","?","?","?","?","?","?","?","?","?","?","?","?","?","?","?","?","?","?","?","?","?","?","?","?","?","?","?","?","?","?","?","?","?","?","?","?","?","?","?","?","?","?","?","?","?","?","?","?","?","?","?","?","?","?","?","?","?","?","?","?","?","?","?","?","?","?","?","?","?","?","?","?","?","?","?","?","?","?","?","?","?","?","?","?","?","?","?","?","?","?","?","?","?","?","?","?","?","?","?","?","?","?","?","?","?","?","?","?","?","?","?","?","?","?","?","?","?","?","?","?","?","?","?","?","?","?","?","?","?","?","?","?","?","?","?","?","?","?","?","?","?","?","?","?","?","?","?","?","?","?","?","?","?","?","?","?","?","?","?","?","?","?","?","?","?","?","?","?","?","?","?","?","?","?","?","?","?","?","?","?","?","?","?","?","?","?","?","?","?","?","?","?","?","?","?","?","?","?","?","?","?","?","?","?","?","?","?","?","?","?","?","?","?","?","?","?","?","?","?","?","?","?","?","?","?","?","?","?","?","?","?","?","?","?","?","?","?","?","?","?","?","?","?","?","?","?","?","?","?","?","?","?","?","?","?","?","?","?","?","?","?","?","?","?","?","?","?","?","?","?","?","?","?","?","?","?","?","?","?","?","?","?","?","?","?","?","?","?","?","?","?","?","?","?","?","?","?","?","?","?","?","?","?","?","?","?","?","?","?","?","?","?","?","?","?","?","?","?","?","?","?","?","?","?","?","?","?","?","?","?","?","?","?","?","?","?","?","?","?","?","?","?","?","?","?","?","?","?","?","?","?","?","?","?","?","?","?","?","?","?","?","?","?","?","?","?","?","?","?","?","?","?","?","?","?","?","?","?","?","?","?","?","?","?","?","?","?","?","?","?","?","?","?","?","?","?","?","?","?","?","?","?","?","?","?","?","?","?","?","?","?","?","?","?","?","?","?","?","?","?","?","?","?","?","?","?","?","?","?","?","?","?","?","?","?","?","?","?","?","?","?","?","?","?","?","?","?","?","?","?","?","?","?","?","?","?","?","?","?","?","?","?","?","?","?","?","?","?","?","?","?","?","?","?","?","?","?","?","?","?","?","?","?","?","?","?","?","?","?","?","?","?","?","?","?","?","?","?","?","?","?","?","?","?","?","?","?","?","?","?","?","?","?","?","?","?","?","?","?","?","?","?","?","?","?","?","?","?","?","?","?","?","?","?","?","?","?","?","?","?","?","?","?","?","?","?","?","?","?","?","?","?","?","?","?","?","?","?","?","?","?","?","?","?","?","?","?","?","?","?","?","?","?","?","?","?","?","?","?","?","?","?","?","?","?","?","?","?","?","?","?","?","?","?","?","?","?","?","?","?","?","?","?","?","?","?","?","?","?","?","?","?","?","?","?","?","?","?","?","?","?","?","?","?","?","?","?","?","?","?","?","?","?","?","?","?","?","?","?","?","?","?","?","?","?","?","?","?","?","?","?","?","?","?","?","?","?","?","?","?","?","?","?","?","?","?","?","?","?","?","?","?","?","?","?","?","?","?","?","?","?","?","?","?","?","?","?","?","?","?","?","?","?","?","?","?","?","?","?","?","?","?","?","?","?","?","?","?","?","?","?","?","?","?","?","?","?","?","?","?","?","?","?","?","?","?","?","?","?","?","?","?","?","?","?","?","?","?","?","?","?","?","?","?","?","?","?","?","?","?","?","?","?","?","?","?","?","?","?","?","?","?","?","?","?","?","?","?","?","?","?","?","?","?","?","?","?","?","?","?","?","?","?","?","?","?","?","?","?","?","?","?","?","?","?","?","?","?","?","?","?","?","?","?","?","?","?","?","?","?","?","?","?","?","?","?","?","?","?","?","?","?","?","?","?","?","?","?","?","?","?","?","?","?","?","?","?","?","?","?","?","?","?","?","?","?","?","?","?","?","?","?","?","?","?","?","?","?","?","?","?","?","?","?","?","?","?","?","?","?","?","?","?","?","?","?","?","?","?","?","?","?","?","?","?","?","?","?","?","?","?","?","?","?","?","?","?","?","?","?","?","?","?","?","?","?","?","?","?","?","?","?","?","?","?","?","?","?","?","?","?","?","?","?","?","?","?","?","?","?","?","?","?","?","?","?","?","?","?","?","?","?","?","?","?","?","?","?","?","?","?","?","?","?","?","?","?","?","?","?","?","?","?","?","?","?","?","?","?","?","?","?","?","?","?","?","?","?","?","?","?","?","?","?","?","?","?","?","?","?","?","?","?","?","?","?","?","?","?","?","?","?","?","?","?","?","?","?","?","?","?","?","?","?","?","?","?","?","?","?","?","?","?","?","?","?","?","?","?","?","?","?","?","?","?","?","?","?","?","?","?","?","?","?","?","?","?","?","?","?","?","?","?","?","?","?","?","?","?","?","?","?","?","?","?","?","?","?","?","?","?","?","?","?","?","?","?","?","?","?","?","?","?","?","?","?","?","?","?","?","?","?","?","?","?","?","?","?","?","?","?","?","?","?","?","?","?","?","?","?","?","?","?","?","?","?","?","?","?","?","?","?","?","?","?","?","?","?","?","?","?","?","?","?","?","?","?","?","?","?","?","?","?","?","?","?","?","?","?","?","?","?","?","?","?","?","?","?","?","?","?","?","?","?","?","?","?","?","?","?","?","?","?","?","?","?","?","?","?","?","?","?","?","?","?","?","?","?","?","?","?","?","?","?","?","?","?","?","?","?","?","?","?","?","?","?","?","?","?","?","?","?","?","?","?","?","?","?","?","?","?","?","?","?","?","?","?","?","?","?","?","?","?","?","?","?","?","?","?","?","?","?","?","?","?","?","?","?","?","?","?","?","?","?","?","?","?","?","?","?","?","?","?","?","?","?","?","?","?","?","?","?","?","?","?","?","?","?","?","?","?","?","?","?","?","?","?","?","?","?","?","?","?","?","?","?","?","?","?","?","?","?","?","?","?","?","?","?","?","?","?","?","?","?","?","?","?","?","?","?","?","?","?","?","?","?","?","?","?","?","?","?","?","?","?","?","?","?","?","?","?","?","?","?","?","?","?","?","?","?","?","?","?","?","?","?","?","?","?","?","?","?","?","?","?","?","?","?","?","?","?","?","?","?","?","?","?","?","?","?","?","?","?","?","?","?","?","?","?","?","?","?","?","?","?","?","?","?","?","?","?","?","?","?","?","?","?","?","?","?","?","?","?","?","?","?","?","?","?","?","?","?","?","?","?","?","?","?","?","?","?","?","?","?","?","?","?","?","?","?","?","?","?","?","?","?","?","?","?","?","?","?","?","?","?","?","?","?","?","?","?","?","?","?","?","?","?","?","?","?","?","?","?","?","?","?","?","?","?","?","?","?","?","?","?","?","?","?","?","?","?","?","?","?","?","?","?","?","?","?","?","?","?","?","?","?","?","?","?","?","?","?","?","?","?","?","?","?","?","?","?","?","?","?","?","?","?","?","?","?","?","?","?","?","?","?","?","?","?","?","?","?","?","?","?","?","?","?","?","?","?","?","?","?","?","?","?","?","?","?","?","?","?","?","?","?","?","?","?","?","?","?","?","?","?","?","?","?","?","?","?","?","?","?","?","?","?","?","?","?","?","?","?","?","?","?","?","?","?","?","?","?","?","?","?","?","?","?","?","?","?","?","?","?","?","?","?","?","?","?","?","?","?","?","?","?","?","?","?","?","?","?","?","?","?","?","?","?","?","?","?","?","?","?","?","?","?","?","?","?","?","?","?","?","?","?","?","?","?","?","?","?","?","?","?","?","?","?","?","?","?","?","?","?","?","?","?","?","?","?","?","?","?","?","?","?","?","?","?","?","?","?","?","?","?","?","?","?","?","?","?","?","?","?","?","?","?","?","?","?","?","?","?","?","?","?","?","?","?","?","?","?","?","?","?","?","?","?","?","?","?","?","?","?","?","?","?","?","?","?","?","?","?","?","?","?","?","?","?","?","?","?","?","?","?","?","?","?","?","?","?","?","?","?","?","?","?","?","?","?","?","?","?","?","?","?","?","?","?","?","?","?","?","?","?","?","?","?","?","?","?","?","?","?","?","?","?","?","?","?","?","?","?","?","?","?","?","?","?","?","?","?","?","?","?","?","?","?","?","?","?","?","?","?","?","?","?","?","?","?","?","?","?","?","?","?","?","?","?","?","?","?","?","?","?","?","?","?","?","?","?","?","?","?","?","?","?","?","?","?","?","?","?","?","?","?","?","?","?","?","?","?","?","?","?","?","?","?","?","?","?","?","?","?","?","?","?","?","?","?","?","?","?","?","?","?","?","?","?","?","?","?","?","?","?","?","?","?","?","?","?","?","?","?","?","?","?","?","?","?","?","?","?","?","?","?","?","?","?","?","?","?","?","?","?","?","?","?","?","?","?","?","?","?","?","?","?","?","?","?","?","?","?","?","?","?","?","?","?","?","?","?","?","?","?","?","?","?","?","?","?","?","?","?","?","?","?","?","?","?","?","?","?","?","?","?","?","?","?","?","?","?","?","?","?","?","?","?","?","?","?","?","?","?","?","?","?","?","?","?","?","?","?","?","?","?","?","?","?","?","?","?","?","?","?","?","?","?","?","?","?","?","?","?","?","?","?","?","?","?","?","?","?","?","?","?","?","?","?","?","?","?","?","?","?","?","?","?","?","?","?","?","?","?","?","?","?","?","?","?","?","?","?","?","?","?","?","?","?","?","?","?","?","?","?","?","?","?","?","?","?","?","?","?","?","?","?","?","?","?","?","?","?","?","?","?","?","?","?","?","?","?","?","?","?","?","?","?","?","?","?","?","?","?","?","?","?","?","?","?","?","?","?","?","?","?","?","?","?","?","?","?","?","?","?","?","?","?","?","?","?","?","?","?","?","?","?","?","?","?","?","?","?","?","?","?","?","?","?","?","?","?","?","?","?","?","?","?","?","?","?","?","?","?","?","?","?","?","?","?","?","?","?","?","?","?","?","?","?","?","?","?","?","?","?","?","?","?","?","?","?","?","?","?","?","?","?","?","?","?","?","?","?","?","?","?","?","?","?","?","?","?","?","?","?","?","?","?","?","?","?","?","?","?","?","?","?","?","?","?","?","?","?","?","?","?","?","?","?","?","?","?","?","?","?","?","?","?","?","?","?","?","?","?","?","?","?","?","?","?","?","?","?","?","?","?","?","?","?","?","?","?","?","?","?","?","?","?","?","?","?","?","?","?","?","?","?","?","?","?","?","?","?","?","?","?","?","?","?","?","?","?","?","?","?","?","?","?","?","?","?","?","?","?","?","?","?","?","?","?","?","?","?","?","?","?","?","?","?","?","?","?","?","?","?","?","?","?","?","?","?","?","?","?","?","?","?","?","?","?","?","?","?","?","?","?","?","?","?","?","?","?","?","?","?","?","?","?","?","?","?","?","?","?","?","?","?","?","?","?","?","?","?","?","?","?","?","?","?","?","?","?","?","?","?","?","?","?","?","?","?","?","?","?","?","?","?","?","?","?","?","?","?","?","?","?","?","?","?","?","?","?","?","?","?","?","?","?","?","?","?","?","?","?","?","?","?","?","?","?","?","?","?","?","?","?","?","?","?","?","?","?","?","?","?","?","?","?","?","?","?","?","?","?","?","?","?","?","?","?","?","?","?","?","?","?","?","?","?","?","?","?","?","?","?","?","?","?","?","?","?","?","?","?","?","?","?","?","?","?","?","?","?","?","?","?","?","?","?","?","?","?","?","?","?","?","?","?","?","?","?","?","?","?","?","?","?","?","?","?","?","?","?","?","?","?","?","?","?","?","?","?","?","?","?","?","?","?","?","?","?","?","?","?","?","?","?","?","?","?","?","?","?","?","?","?","?","?","?","?","?","?","?","?","?","?","?","?","?","?","?","?","?","?","?","?","?","?","?","?","?","?","?","?","?","?","?","?","?","?","?","?","?","?","?","?","?","?","?","?","?","?","?","?","?","?","?","?","?","?","?","?","?","?","?","?","?","?","?","?","?","?","?","?","?","?","?","?","?","?","?","?","?","?","?","?","?","?","?","?","?","?","?","?","?","?","?","?","?","?","?","?","?","?","?","?","?","?","?","?","?","?","?","?","?","?","?","?","?","?","?","?","?","?","?","?","?","?","?","?","?","?","?","?","?","?","?","?","?","?","?","?","?","?","?","?","?","?","?","?","?","?","?","?","?","?","?","?","?","?","?","?","?","?","?","?","?","?","?","?","?","?","?","?","?","?","?","?","?","?","?","?","?","?","?","?","?","?","?","?","?","?","?","?","?","?","?","?","?","?","?","?","?","?","?","?","?","?","?","?","?","?","?","?","?","?","?","?","?","?","?","?","?","?","?","?","?","?","?","?","?","?","?","?","?","?","?","?","?","?","?","?","?","?","?","?","?","?","?","?","?","?","?","?","?","?","?","?","?","?","?","?","?","?","?","?","?","?","?","?","?","?","?","?","?","?","?","?","?","?","?","?","?","?","?","?","?","?","?","?","?","?","?","?","?","?","?","?","?","?","?","?","?","?","?","?","?","?","?","?","?","?","?","?","?","?","?","?","?","?","?","?","?","?","?","?","?","?","?","?","?","?","?","?","?","?","?","?","?","?","?","?","?","?","?","?","?","?","?","?","?","?","?","?","?","?","?","?","?","?","?","?","?","?","?","?","?","?","?","?","?","?","?","?","?","?","?","?","?","?","?","?","?","?","?","?","?","?","?","?","?","?","?","?","?","?","?","?","?","?","?","?","?","?","?","?","?","?","?","?","?","?","?","?","?","?","?","?","?","?","?","?","?","?","?","?","?","?","?","?","?","?","?","?","?","?","?","?","?","?","?","?","?","?","?","?","?","?","?","?","?","?","?","?","?","?","?","?","?","?","?","?","?","?","?","?","?","?","?","?","?","?","?","?","?","?","?","?","?","?","?","?","?","?","?","?","?","?","?","?","?","?","?","?","?","?","?","?","?","?","?","?","?","?","?","?","?","?","?","?","?","?","?","?","?","?","?","?","?","?","?","?","?","?","?","?","?","?","?","?","?","?","?","?","?","?","?","?","?","?","?","?","?","?","?","?","?","?","?","?","?","?","?","?","?","?","?","?","?","?","?","?","?","?","?","?","?","?","?","?","?","?","?","?","?","?","?","?","?","?","?","?","?","?","?","?","?","?","?","?","?","?","?","?","?","?","?","?","?","?","?","?","?","?","?","?","?","?","?","?","?","?","?","?","?","?","?","?","?","?","?","?","?","?","?","?","?","?","?","?","?","?","?","?","?","?","?","?","?","?","?","?","?","?","?","?","?","?","?","?","?","?","?","?","?","?","?","?","?","?","?","?","?","?","?","?","?","?","?","?","?","?","?","?","?","?","?","?","?","?","?","?","?","?","?","?","?","?","?","?","?","?","?","?","?","?","?","?","?","?","?","?","?","?","?","?","?","?","?","?","?","?","?","?","?","?","?","?","?","?","?","?","?","?","?","?","?","?","?","?","?","?","?","?","?","?","?","?","?","?","?","?","?","?","?","?","?","?","?","?","?","?","?","?","?","?","?","?","?","?","?","?","?","?","?","?","?","?","?","?","?","?","?","?","?","?","?","?","?","?","?","?","?","?","?","?","?","?","?","?","?","?","?","?","?","?","?","?","?","?","?","?","?","?","?","?","?","?","?","?","?","?","?","?","?","?","?","?","?","?","?","?","?","?","?","?","?","?","?","?","?","?","?","?","?","?","?","?","?","?","?","?","?","?","?","?","?","?","?","?","?","?","?","?","?","?","?","?","?","?","?","?","?","?","?","?","?","?","?","?","?","?","?","?","?","?","?","?","?","?","?","?","?","?","?","?","?","?","?","?","?","?","?","?","?","?","?","?","?","?","?","?","?","?","?","?","?","?","?","?","?","?","?","?","?","?","?","?","?","?","?","?","?","?","?","?","?","?","?","?","?","?","?","?","?","?","?","?","?","?","?","?","?","?","?","?","?","?","?","?","?","?","?","?","?","?","?","?","?","?","?","?","?","?","?","?","?","?","?","?","?","?","?","?","?","?","?","?","?","?","?","?","?","?","?","?","?","?","?","?","?","?","?","?","?","?","?","?","?","?","?","?","?","?","?","?","?","?","?","?","?","?","?","?","?","?","?","?","?","?","?","?","?","?","?","?","?","?","?","?","?","?","?","?","?","?","?","?","?","?","?","?","?","?","?","?","?","?","?","?","?","?","?","?","?","?","?","?","?","?","?","?","?","?","?","?","?","?","?","?","?","?","?","?","?","?","?","?","?","?","?","?","?","?","?","?","?","?","?","?","?","?","?","?","?","?","?","?","?","?","?","?","?","?","?","?","?","?","?","?","?","?","?","?","?","?","?","?","?","?","?","?","?","?","?","?","?","?","?","?","?","?","?","?","?","?","?","?","?","?","?","?","?","?","?","?","?","?","?","?","?","?","?","?","?","?","?","?","?","?","?","?","?","?","?","?","?","?","?","?","?","?","?","?","?","?","?","?","?","?","?","?","?","?","?","?","?","?","?","?","?","?","?","?","?","?","?","?","?","?","?","?","?","?","?","?","?","?","?","?","?","?","?","?","?","?","?","?","?","?","?","?","?","?","?","?","?","?","?","?","?","?","?","?","?","?","?","?","?","?","?","?","?","?","?","?","?","?","?","?","?","?","?","?","?","?","?","?","?","?","?","?","?","?","?","?","?","?","?","?","?","?","?","?","?","?","?","?","?","?","?","?","?","?","?","?","?","?","?","?","?","?","?","?","?","?","?","?","?","?","?","?","?","?","?","?","?","?","?","?","?","?","?","?","?","?","?","?","?","?","?","?","?","?","?","?","?","?","?","?","?","?","?","?","?","?","?","?","?","?","?","?","?","?","?","?","?","?","?","?","?","?","?","?","?","?","?","?","?","?","?","?","?","?","?","?","?","?","?","?","?","?","?","?","?","?","?","?","?","?","?","?","?","?","?","?","?","?","?","?","?","?","?","?","?","?","?","?","?","?","?","?","?","?","?","?","?","?","?","?","?","?","?","?","?","?","?","?","?","?","?","?","?","?","?","?","?","?","?","?","?","?","?","?","?","?","?","?","?","?","?","?","?","?","?","?","?","?","?","?","?","?","?","?","?","?","?","?","?","?","?","?","?","?","?","?","?","?","?","?","?","?","?","?","?","?","?","?","?","?","?","?","?","?","?","?","?","?","?","?","?","?","?","?","?","?","?","?","?","?","?","?","?","?","?","?","?","?","?","?","?","?","?","?","?","?","?","?","?","?","?","?","?","?","?","?","?","?","?","?","?","?","?","?","?","?","?","?","?","?","?","?","?","?","?","?","?","?","?","?","?","?","?","?","?","?","?","?","?","?","?","?","?","?","?","?","?","?","?","?","?","?","?","?","?","?","?","?","?","?","?","?","?","?","?","?","?","?","?","?","?","?","?","?","?","?","?","?","?","?","?","?","?","?","?","?","?","?","?","?","?","?","?","?","?","?","?","?","?","?","?","?","?","?","?","?","?","?","?","?","?","?","?","?","?","?","?","?","?","?","?","?","?","?","?","?","?","?","?","?","?","?","?","?","?","?","?","?","?","?","?","?","?","?","?","?","?","?","?","?","?","?","?","?","?","?","?","?","?","?","?","?","?","?","?","?","?","?","?","?","?","?","?","?","?","?","?","?","?","?","?","?","?","?","?","?","?","?","?","?","?","?","?","?","?","?","?","?","?","?","?","?","?","?","?","?","?","?","?","?","?","?","?","?","?","?","?","?","?","?","?","?","?","?","?","?","?","?","?","?","?","?","?","?","?","?","?","?","?","?","?","?","?","?","?","?","?","?","?","?","?","?","?","?","?","?","?","?","?","?","?","?","?","?","?","?","?","?","?","?","?","?","?","?","?","?","?","?","?","?","?","?","?","?","?","?","?","?","?","?","?","?","?","?","?","?","?","?","?","?","?","?","?","?","?","?","?","?","?","?","?","?","?","?","?","?","?","?","?","?","?","?","?","?","?","?","?","?","?","?","?","?","?","?","?","?","?","?","?","?","?","?","?","?","?","?","?","?","?","?","?","?","?","?","?","?","?","?","?","?","?","?","?","?","?","?","?","?","?","?","?","?","?","?","?","?","?","?","?","?","?","?","?","?","?","?","?","?","?","?","?","?","?","?","?","?","?","?","?","?","?","?","?","?","?","?","?","?","?","?","?","?","?","?","?","?","?","?","?","?","?","?","?","?","?","?","?","?","?","?","?","?","?","?","?","?","?","?","?","?","?","?","?","?","?","?","?","?","?","?","?","?","?","?","?","?","?","?","?","?","?","?","?","?","?","?","?","?","?","?","?","?","?","?","?","?","?","?","?","?","?","?","?","?","?","?","?","?","?","?","?","?","?","?","?","?","?","?","?","?","?","?","?","?","?","?","?","?","?","?","?","?","?","?","?","?","?","?","?","?","?","?","?","?","?","?","?","?","?","?","?","?","?","?","?","?","?","?","?","?","?","?","?","?","?","?","?","?","?","?","?","?","?","?","?","?","?","?","?","?","?","?","?","?","?","?","?","?","?","?","?","?","?","?","?","?","?","?","?","?","?","?","?","?","?","?","?","?","?","?","?","?","?","?","?","?","?","?","?","?","?","?","?","?","?","?","?","?","?","?","?","?","?","?","?","?","?","?","?","?","?","?","?","?","?","?","?","?","?","?","?","?","?","?","?","?","?","?","?","?","?","?","?","?","?","?","?","?","?","?","?","?","?","?","?","?","?","?","?","?","?","?","?","?","?","?","?","?","?","?","?","?","?","?","?","?","?","?","?","?","?","?","?","?","?","?","?","?","?","?","?","?","?","?","?","?","?","?","?","?","?","?","?","?","?","?","?","?","?","?","?","?","?","?","?","?","?","?","?","?","?","?","?","?","?","?","?","?","?","?","?","?","?","?","?","?","?","?","?","?","?","?","?","?","?","?","?","?","?","?","?","?","?","?","?","?","?","?","?","?","?","?","?","?","?","?","?","?","?","?","?","?","?","?","?","?","?","?","?","?","?","?","?","?","?","?","?","?","?","?","?","?","?","?","?","?","?","?","?","?","?","?","?","?","?","?","?","?","?","?","?","?","?","?","?","?","?","?","?","?","?","?","?","?","?","?","?","?","?","?","?","?","?","?","?","?","?","?","?","?","?","?","?","?","?","?","?","?","?","?","?","?","?","?","?","?","?","?","?","?","?","?","?","?","?","?","?","?","?","?","?","?","?","?","?","?","?","?","?","?","?","?","?","?","?","?","?","?","?","?","?","?","?","?","?","?","?","?","?","?","?","?","?","?","?","?","?","?","?","?","?","?","?","?","?","?","?","?","?","?","?","?","?","?","?","?","?","?","?","?","?","?","?","?","?","?","?","?","?","?","?","?","?","?","?","?","?","?","?","?","?","?","?","?","?","?","?","?","?","?","?","?","?","?","?","?","?","?","?","?","?","?","?","?","?","?","?","?","?","?","?","?","?","?","?","?","?","?","?","?","?","?","?","?","?","?","?","?","?","?","?","?","?","?","?","?","?","?","?","?","?","?","?","?","?","?","?","?","?","?","?","?","?","?","?","?","?","?","?","?","?","?","?","?","?","?","?","?","?","?","?","?","?","?","?","?","?","?","?","?","?","?","?","?","?","?","?","?","?","?","?","?","?","?","?","?","?","?","?","?","?","?","?","?","?","?","?","?","?","?","?","?","?","?","?","?","?","?","?","?","?","?","?","?","?","?","?","?","?","?","?","?","?","?","?","?","?","?","?","?","?","?","?","?","?","?","?","?","?","?","?","?","?","?","?","?","?","?","?","?","?","?","?","?","?","?","?","?","?","?","?","?","?","?","?","?","?","?","?","?","?","?","?","?","?","?","?","?","?","?","?","?","?","?","?","?","?","?","?","?","?","?","?","?","?","?","?","?","?","?","?","?","?","?","?","?","?","?","?","?","?","?","?","?","?","?","?","?","?","?","?","?","?","?","?","?","?","?","?","?","?","?","?","?","?","?","?","?","?","?","?","?","?","?","?","?","?","?","?","?","?","?","?","?","?","?","?","?","?","?","?","?","?","?","?","?","?","?","?","?","?","?","?","?","?","?","?","?","?","?","?","?","?","?","?","?","?","?","?","?","?","?","?","?","?","?","?","?","?","?","?","?","?","?","?","?","?","?","?","?","?","?","?","?","?","?","?","?","?","?","?","?","?","?","?","?","?","?","?","?","?","?","?","?","?","?","?","?","?","?","?","?","?","?","?","?","?","?","?","?","?","?","?","?","?","?","?","?","?","?","?","?","?","?","?","?","?","?","?","?","?","?","?","?","?","?","?","?","?","?","?","?","?","?","?","?","?","?","?","?","?","?","?","?","?","?","?","?","?","?","?","?","?","?","?","?","?","?","?","?","?","?","?","?","?","?","?","?","?","?","?","?","?","?","?","?","?","?","?","?","?","?","?","?","?","?","?","?","?","?","?","?","?","?","?","?","?","?","?","?","?","?","?","?","?","?","?","?","?","?","?","?","?","?","?","?","?","?","?","?","?","?","?","?","?","?","?","?","?","?","?","?","?","?","?","?","?","?","?","?","?","?","?","?","?","?","?","?","?","?","?","?","?","?","?","?","?","?","?","?","?","?","?","?","?","?","?","?","?","?","?","?","?","?","?","?","?","?","?","?","?","?","?","?","?","?","?","?","?","?","?","?","?","?","?","?","?","?","?","?","?","?","?","?","?","?","?","?","?","?","?","?","?","?","?","?","?","?","?","?","?","?","?","?","?","?","?","?","?","?","?","?","?","?","?","?","?","?","?","?","?","?","?","?","?","?","?","?","?","?","?","?","?","?","?","?","?","?","?","?","?","?","?","?","?","?","?","?","?","?","?","?","?","?","?","?","?","?","?","?","?","?","?","?","?","?","?","?","?","?","?","?","?","?","?","?","?","?","?","?","?","?","?","?","?","?","?","?","?","?","?","?","?","?","?","?","?","?","?","?","?","?","?","?","?","?","?","?","?","?","?","?","?","?","?","?","?","?","?","?","?","?","?","?","?","?","?","?","?","?","?","?","?","?","?","?","?","?","?","?","?","?","?","?","?","?","?","?","?","?","?","?","?","?","?","?","?","?","?","?","?","?","?","?","?","?","?","?","?","?","?","?","?","?","?","?","?","?","?","?","?","?","?","?","?","?","?","?","?","?","?","?","?","?","?","?","?","?","?","?","?","?","?","?","?","?","?","?","?","?","?","?","?","?","?","?","?","?","?","?","?","?","?","?","?","?","?","?","?","?","?","?","?","?","?","?","?","?","?","?","?","?","?","?","?","?","?","?","?","?","?","?","?","?","?","?","?","?","?","?","?","?","?","?","?","?","?","?","?","?","?","?","?","?","?","?","?","?","?","?","?","?","?","?","?","?","?","?","?","?","?","?","?","?","?","?","?","?","?","?","?","?","?","?","?","?","?","?","?","?","?","?","?","?","?","?","?","?","?","?","?","?","?","?","?","?","?","?","?","?","?","?","?","?","?","?","?","?","?","?","?","?","?","?","?","?","?","?","?","?","?","?","?","?","?","?","?","?","?","?","?","?","?","?","?","?","?","?","?","?","?","?","?","?","?","?","?","?","?","?","?","?","?","?","?","?","?","?","?","?","?","?","?","?","?","?","?","?","?","?","?","?","?","?","?","?","?","?","?","?","?","?","?","?","?","?","?","?","?","?","?","?","?","?","?","?","?","?","?","?","?","?","?","?","?","?","?","?","?","?","?","?","?","?","?","?","?","?","?","?","?","?","?","?","?","?","?","?","?","?","?","?","?","?","?","?","?","?","?","?","?","?","?","?","?","?","?","?","?","?","?","?","?","?","?","?","?","?","?","?","?","?","?","?","?","?","?","?","?","?","?","?","?","?","?","?","?","?","?","?","?","?","?","?","?","?","?","?","?","?","?","?","?","?","?","?","?","?","?","?","?","?","?","?","?","?","?","?","?","?","?","?","?","?","?","?","?","?","?","?","?","?","?","?","?","?","?","?","?","?","?","?","?","?","?","?","?","?","?","?","?","?","?","?","?","?","?","?","?","?","?","?","?","?","?","?","?","?","?","?","?","?","?","?","?","?","?","?","?","?","?","?","?","?","?","?","?","?","?","?","?","?","?","?","?","?","?","?","?","?","?","?","?","?","?","?","?","?","?","?","?","?","?","?","?","?","?","?","?","?","?","?","?","?","?","?","?","?","?","?","?","?","?","?","?","?","?","?","?","?","?","?","?","?","?","?","?","?","?","?","?","?","?","?","?","?","?","?","?","?","?","?","?","?","?","?","?","?","?","?","?","?","?","?","?","?","?","?","?","?","?","?","?","?","?","?","?","?","?","?","?","?","?","?","?","?","?","?","?","?","?","?","?","?","?","?","?","?","?","?","?","?","?","?","?","?","?","?","?","?","?","?","?","?","?","?","?","?","?","?","?","?","?","?","?","?","?","?","?","?","?","?","?","?","?","?","?","?","?","?","?","?","?","?","?","?","?","?","?","?","?","?","?","?","?","?","?","?","?","?","?","?","?","?","?","?","?","?","?","?","?","?","?","?","?","?","?","?","?","?","?","?","?","?","?","?","?","?","?","?","?","?","?","?","?","?","?","?","?","?","?","?","?","?","?","?","?","?","?","?","?","?","?","?","?","?","?","?","?","?","?","?","?","?","?","?","?","?","?","?","?","?","?","?","?","?","?","?","?","?","?","?","?","?","?","?","?","?","?","?","?","?","?","?","?","?","?","?","?","?","?","?","?","?","?","?","?","?","?","?","?","?","?","?","?","?","?","?","?","?","?","?","?","?","?","?","?","?","?","?","?","?","?","?","?","?","?","?","?","?","?","?","?","?","?","?","?","?","?","?","?","?","?","?","?","?","?","?","?","?","?","?","?","?","?","?","?","?","?","?","?","?","?","?","?","?","?","?","?","?","?","?","?","?","?","?","?","?","?","?","?","?","?","?","?","?","?","?","?","?","?","?","?","?","?","?","?","?","?","?","?","?","?","?","?","?","?","?","?","?","?","?","?","?","?","?","?","?","?","?","?","?","?","?","?","?","?","?","?","?","?","?","?","?","?","?","?","?","?","?","?","?","?","?","?","?","?","?","?","?","?","?","?","?","?","?","?","?","?","?","?","?","?","?","?","?","?","?","?","?","?","?","?","?","?","?","?","?","?","?","?","?","?","?","?","?","?","?","?","?","?","?","?","?","?","?","?","?","?","?","?","?","?","?","?","?","?","?","?","?","?","?","?","?","?","?","?","?","?","?","?","?","?","?","?","?","?","?","?","?","?","?","?","?","?","?","?","?","?","?","?","?","?","?","?","?","?","?","?","?","?","?","?","?","?","?","?","?","?","?","?","?","?","?","?","?","?","?","?","?","?","?","?","?","?","?","?","?","?","?","?","?","?","?","?","?","?","?","?","?","?","?","?","?","?","?","?","?","?","?","?","?","?","?","?","?","?","?","?","?","?","?","?","?","?","?","?","?","?","?","?","?","?","?","?","?","?","?","?","?","?","?","?","?","?","?","?","?","?","?","?","?","?","?","?","?","?","?","?","?","?","?","?","?","?","?","?","?","?","?","?","?","?","?","?","?","?","?","?","?","?","?","?","?","?","?","?","?","?","?","?","?","?","?","?","?","?","?","?","?","?","?","?","?","?","?","?","?","?","?","?","?","?","?","?","?","?","?","?","?","?","?","?","?","?","?","?","?","?","?","?","?","?","?","?","?","?","?","?","?","?","?","?","?","?","?","?","?","?","?","?","?","?","?","?","?","?","?","?","?","?","?","?","?","?","?","?","?","?","?","?","?","?","?","?","?","?","?","?","?","?","?","?","?","?","?","?","?","?","?","?","?","?","?","?","?","?","?","?","?","?","?","?","?","?","?","?","?","?","?","?","?","?","?","?","?","?","?","?","?","?","?","?","?","?","?","?","?","?","?","?","?","?","?","?","?","?","?","?","?","?","?","?","?","?","?","?","?","?","?","?","?","?","?","?","?","?","?","?","?","?","?","?","?","?","?","?","?","?","?","?","?","?","?","?","?","?","?","?","?","?","?","?","?","?","?","?","?","?","?","?","?","?","?","?","?","?","?","?","?","?","?","?","?","?","?","?","?","?","?","?","?","?","?","?","?","?","?","?","?","?","?","?","?","?","?","?","?","?","?","?","?","?","?","?","?","?","?","?","?","?","?","?","?","?","?","?","?","?","?","?","?","?","?","?","?","?","?","?","?","?","?","?","?","?","?","?","?","?","?","?","?","?","?","?","?","?","?","?","?","?","?","?","?","?","?","?","?","?","?","?","?","?","?","?","?","?","?","?","?","?","?","?","?","?","?","?","?","?","?","?","?","?","?","?","?","?","?","?","?","?","?","?","?","?","?","?","?","?","?","?","?","?","?","?","?","?","?","?","?","?","?","?","?","?","?","?","?","?","?","?","?","?","?","?","?","?","?","?","?","?","?","?","?","?","?","?","?","?","?","?","?","?","?","?","?","?","?","?","?","?","?","?","?","?","?","?","?","?","?","?","?","?","?","?","?","?","?","?","?","?","?","?","?","?","?","?","?","?","?","?","?","?","?","?","?","?","?","?","?","?","?","?","?","?","?","?","?","?","?","?","?","?","?","?","?","?","?","?","?","?","?","?","?","?","?","?","?","?","?","?","?","?","?","?","?","?","?","?","?","?","?","?","?","?","?","?","?","?","?","?","?","?","?","?","?","?","?","?","?","?","?","?","?","?","?","?","?","?","?","?","?","?","?","?","?","?","?","?","?","?","?","?","?","?","?","?","?","?","?","?","?","?","?","?","?","?","?","?","?","?","?","?","?","?","?","?","?","?","?","?","?","?","?","?","?","?","?","?","?","?","?","?","?","?","?","?","?","?","?","?","?","?","?","?","?","?","?","?","?","?","?","?","?","?","?","?","?","?","?","?","?","?","?","?","?","?","?","?","?","?","?","?","?","?","?","?","?","?","?","?","?","?","?","?","?","?","?","?","?","?","?","?","?","?","?","?","?","?","?","?","?","?","?","?","?","?","?","?","?","?","?","?","?","?","?","?","?","?","?","?","?","?","?","?","?","?","?","?","?","?","?","?","?","?","?","?","?","?","?","?","?","?","?","?","?","?","?","?","?","?","?","?","?","?","?","?","?","?","?","?","?","?","?","?","?","?","?","?","?","?","?","?","?","?","?","?","?","?","?","?","?","?","?","?","?","?","?","?","?","?","?","?","?","?","?","?","?","?","?","?","?","?","?","?","?","?","?","?","?","?","?","?","?","?","?","?","?","?","?","?","?","?","?","?","?","?","?","?","?","?","?","?","?","?","?","?","?","?","?","?","?","?","?","?","?","?","?","?","?","?","?","?","?","?","?","?","?","?","?","?","?","?","?","?","?","?","?","?","?","?","?","?","?","?","?","?","?","?","?","?","?","?","?","?","?","?","?","?","?","?","?","?","?","?","?","?","?","?","?","?","?","?","?","?","?","?","?","?","?","?","?","?","?","?","?","?","?","?","?","?","?","?","?","?","?","?","?","?","?","?","?","?","?","?","?","?","?","?","?","?","?","?","?","?","?","?","?","?","?","?","?","?","?","?","?","?","?","?","?","?","?","?","?","?","?","?","?","?","?","?","?","?","?","?","?","?","?","?","?","?","?","?","?","?","?","?","?","?","?","?","?","?","?","?","?","?","?","?","?","?","?","?","?","?","?","?","?","?","?","?","?","?","?","?","?","?","?","?","?","?","?","?","?","?","?","?","?","?","?","?","?","?","?","?","?","?","?","?","?","?","?","?","?","?","?","?","?","?","?","?","?","?","?","?","?","?","?","?","?","?","?","?","?","?","?","?","?","?","?","?","?","?","?","?","?","?","?","?","?","?","?","?","?","?","?","?","?","?","?","?","?","?","?","?","?","?","?","?","?","?","?","?","?","?","?","?","?","?","?","?","?","?","?","?","?","?","?","?","?","?","?","?","?","?","?","?","?","?","?","?","?","?","?","?","?","?","?","?","?","?","?","?","?","?","?","?","?","?","?","?","?","?","?","?","?","?","?","?","?","?","?","?","?","?","?","?","?","?","?","?","?","?","?","?","?","?","?","?","?","?","?","?","?","?","?","?","?","?","?","?","?","?","?","?","?","?","?","?","?","?","?","?","?","?","?","?","?","?","?","?","?","?","?","?","?","?","?","?","?","?","?","?","?","?","?","?","?","?","?","?","?","?","?","?","?","?","?","?","?","?","?","?","?","?","?","?","?","?","?","?","?","?","?","?","?","?","?","?","?","?","?","?","?","?","?","?","?","?","?","?","?","?","?","?","?","?","?","?","?","?","?","?","?","?","?","?","?","?","?","?","?","?","?","?","?","?","?","?","?","?","?","?","?","?","?","?","?","?","?","?","?","?","?","?","?","?","?","?","?","?","?","?","?","?","?","?","?","?","?","?","?","?","?","?","?","?","?","?","?","?","?","?","?","?","?","?","?","?","?","?","?","?","?","?","?","?","?","?","?","?","?","?","?","?","?","?","?","?","?","?","?","?","?","?","?","?","?","?","?","?","?","?","?","?","?","?","?","?","?","?","?","?","?","?","?","?","?","?","?","?","?","?","?","?","?","?","?","?","?","?","?","?","?","?","?","?","?","?","?","?","?","?","?","?","?","?","?","?","?","?","?","?","?","?","?","?","?","?","?","?","?","?","?","?","?","?","?","?","?","?","?","?","?","?","?","?","?","?","?","?","?","?","?","?","?","?","?","?","?","?","?","?","?","?","?","?","?","?","?","?","?","?","?","?","?","?","?","?","?","?","?","?","?","?","?","?","?","?","?","?","?","?","?","?","?","?","?","?","?","?","?","?","?","?","?","?","?","?","?","?","?","?","?","?","?","?","?","?","?","?","?","?","?","?","?","?","?","?","?","?","?","?","?","?","?","?","?","?","?","?","?","?","?","?","?","?","?","?","?","?","?","?","?","?","?","?","?","?","?","?","?","?","?","?","?","?","?","?","?","?","?","?","?","?","?","?","?","?","?","?","?","?","?","?","?","?","?","?","?","?","?","?","?","?","?","?","?","?","?","?","?","?","?","?","?","?","?","?","?","?","?","?","?","?","?","?","?","?","?","?","?","?","?","?","?","?","?","?","?","?","?","?","?","?","?","?","?","?","?","?","?","?","?","?","?","?","?","?","?","?","?","?","?","?","?","?","?","?","?","?","?","?","?","?","?","?","?","?","?","?","?","?","?","?","?","?","?","?","?","?","?","?","?","?","?","?","?","?","?","?","?","?","?","?","?","?","?","?","?","?","?","?","?","?","?","?","?","?","?","?","?","?","?","?","?","?","?","?","?","?","?","?","?","?","?","?","?","?","?","?","?","?","?","?","?","?","?","?","?","?","?","?","?","?","?","?","?","?","?","?","?","?","?","?","?","?","?","?","?","?","?","?","?","?","?","?","?","?","?","?","?","?","?","?","?","?","?","?","?","?","?","?","?","?","?","?","?","?","?","?","?","?","?","?","?","?","?","?","?","?","?","?","?","?","?","?","?","?","?","?","?","?","?","?","?","?","?","?","?","?","?","?","?","?","?","?","?","?","?","?","?","?","?","?","?","?","?","?","?","?","?","?","?","?","?","?","?","?","?","?","?","?","?","?","?","?","?","?","?","?","?","?","?","?","?","?","?","?","?","?","?","?","?","?","?","?","?","?","?","?","?","?","?","?","?","?","?","?","?","?","?","?","?","?","?","?","?","?","?","?","?","?","?","?","?","?","?","?","?","?","?","?","?","?","?","?","?","?","?","?","?","?","?","?","?","?","?","?","?","?","?","?","?","?","?","?","?","?","?","?","?","?","?","?","?","?","?","?","?","?","?","?","?","?","?","?","?","?","?","?","?","?","?","?","?","?","?","?","?","?","?","?","?","?","?","?","?","?","?","?","?","?","?","?","?","?","?","?","?","?","?","?","?","?","?","?","?","?","?","?","?","?","?","?","?","?","?","?","?","?","?","?","?","?","?","?","?","?","?","?","?","?","?","?","?","?","?","?","?","?","?","?","?","?","?","?","?","?","?","?","?","?","?","?","?","?","?","?","?","?","?","?","?","?","?","?","?","?","?","?","?","?","?","?","?","?","?","?","?","?","?","?","?","?","?","?","?","?","?","?","?","?","?","?","?","?","?","?","?","?","?","?","?","?","?","?","?","?","?","?","?","?","?","?","?","?","?","?","?","?","?","?","?","?","?","?","?","?","?","?","?","?","?","?","?","?","?","?","?","?","?","?","?","?","?","?","?","?","?","?","?","?","?","?","?","?","?","?","?","?","?","?","?","?","?","?","?","?","?","?","?","?","?","?","?","?","?","?","?","?","?","?","?","?","?","?","?","?","?","?","?","?","?","?","?","?","?","?","?","?","?","?","?","?","?","?","?","?","?","?","?","?","?","?","?","?","?","?","?","?","?","?","?","?","?","?","?","?","?","?","?","?","?","?","?","?","?","?","?","?","?","?","?","?","?","?","?","?","?","?","?","?","?","?","?","?","?","?","?","?","?","?","?","?","?","?","?","?","?","?","?","?","?","?","?","?","?","?","?","?","?","?","?","?","?","?","?","?","?","?","?","?","?","?","?","?","?","?","?","?","?","?","?","?","?","?","?","?","?","?","?","?","?","?","?","?","?","?","?","?","?","?","?","?","?","?","?","?","?","?","?","?","?","?","?","?","?","?","?","?","?","?","?","?","?","?","?","?","?","?","?","?","?","?","?","?","?","?","?","?","?","?","?","?","?","?","?","?","?","?","?","?","?","?","?","?","?","?","?","?","?","?","?","?","?","?","?","?","?","?","?","?","?","?","?","?","?","?","?","?","?","?","?","?","?","?","?","?","?","?","?","?","?","?","?","?","?","?","?","?","?","?","?","?","?","?","?","?","?","?","?","?","?","?","?","?","?","?","?","?","?","?","?","?","?","?","?","?","?","?","?","?","?","?","?","?","?","?","?","?","?","?","?","?","?","?","?","?","?","?","?","?","?","?","?","?","?","?","?","?","?","?","?","?","?","?","?","?","?","?","?","?","?","?","?","?","?","?","?","?","?","?","?","?","?","?","?","?","?","?","?","?","?","?","?","?","?","?","?","?","?","?","?","?","?","?","?","?","?","?","?","?","?","?","?","?","?","?","?","?","?","?","?","?","?","?","?","?","?","?","?","?","?","?","?","?","?","?","?","?","?","?","?","?","?","?","?","?","?","?","?","?","?","?","?","?","?","?","?","?","?","?","?","?","?","?","?","?","?","?","?","?","?","?","?","?","?","?","?","?","?","?","?","?","?","?","?","?","?","?","?","?","?","?","?","?","?","?","?","?","?","?","?","?","?","?","?","?","?","?","?","?","?","?","?","?","?","?","?","?","?","?","?","?","?","?","?","?","?","?","?","?","?","?","?","?","?","?","?","?","?","?","?","?","?","?","?","?","?","?","?","?","?","?","?","?","?","?","?","?","?","?","?","?","?","?","?","?","?","?","?","?","?","?","?","?","?","?","?","?","?","?","?","?","?","?","?","?","?","?","?","?","?","?","?","?","?","?","?","?","?","?","?","?","?","?","?","?","?","?","?","?","?","?","?","?","?","?","?","?","?","?","?","?","?","?","?","?","?","?","?","?","?","?","?","?","?","?","?","?","?","?","?","?