[{"success":true,"trial_type":"fullscreen","trial_index":0,"time_elapsed":16237,"internal_node_id":"0.0-0.0","protocol_sum":"","subject_identifier":418,"subject_sum":[131,248,20,247,169,46,54,92,189,121,249,173,220,238,209,133,118,26,141,56,160,106,45,67,80,187,31,228,183,99,43,52],"subject_pair":209,"STUDY_ID":"66a22c0758a3d5c9d26873c6","PROLIFIC_PID":"6544d818cdf50c46906dbf07","SESSION_ID":"66a29f1759f27a70b71fb556","practice_instructions":1,"leaderboard_instructions":0,"bonus":0,"reveal_word":false,"self_rating":"4","confidence":"52"},{"view_history":"[{\"page_index\":0,\"viewing_time\":10955.89999999106}]","rt":10956.59999999404,"trial_type":"instructions","trial_index":1,"time_elapsed":27195,"internal_node_id":"0.0-1.0","protocol_sum":"","subject_identifier":418,"subject_sum":[131,248,20,247,169,46,54,92,189,121,249,173,220,238,209,133,118,26,141,56,160,106,45,67,80,187,31,228,183,99,43,52],"subject_pair":209,"STUDY_ID":"66a22c0758a3d5c9d26873c6","PROLIFIC_PID":"6544d818cdf50c46906dbf07","SESSION_ID":"66a29f1759f27a70b71fb556","practice_instructions":1,"leaderboard_instructions":0,"bonus":0,"reveal_word":false,"self_rating":"4","confidence":"52"},{"view_history":"[{\"page_index\":0,\"viewing_time\":176580.39999999106}]","rt":176580.79999999702,"trial_type":"instructions","trial_index":2,"time_elapsed":203777,"internal_node_id":"0.0-2.0-0.0","protocol_sum":"","subject_identifier":418,"subject_sum":[131,248,20,247,169,46,54,92,189,121,249,173,220,238,209,133,118,26,141,56,160,106,45,67,80,187,31,228,183,99,43,52],"subject_pair":209,"STUDY_ID":"66a22c0758a3d5c9d26873c6","PROLIFIC_PID":"6544d818cdf50c46906dbf07","SESSION_ID":"66a29f1759f27a70b71fb556","practice_instructions":1,"leaderboard_instructions":0,"bonus":0,"reveal_word":false,"self_rating":"4","confidence":"52"},{"rt":29609.59999999404,"responses":"{\"Q0\":\"... reveal the word with as <b>few letter guesses</b> as possible\"}","question_order":"[0]","trial_type":"survey-multi-choice","trial_index":3,"time_elapsed":233389,"internal_node_id":"0.0-2.0-1.0","protocol_sum":"","subject_identifier":418,"subject_sum":[131,248,20,247,169,46,54,92,189,121,249,173,220,238,209,133,118,26,141,56,160,106,45,67,80,187,31,228,183,99,43,52],"subject_pair":209,"correct":true,"test_part":"multichoice_nonpretend","STUDY_ID":"66a22c0758a3d5c9d26873c6","PROLIFIC_PID":"6544d818cdf50c46906dbf07","SESSION_ID":"66a29f1759f27a70b71fb556","practice_instructions":1,"leaderboard_instructions":0,"bonus":0,"reveal_word":false,"self_rating":"4","confidence":"52"},{"view_history":"[{\"page_index\":0,\"viewing_time\":2519.2000000029802}]","rt":2519.5,"trial_type":"instructions","trial_index":4,"time_elapsed":235910,"internal_node_id":"0.0-3.0","protocol_sum":"","subject_identifier":418,"subject_sum":[131,248,20,247,169,46,54,92,189,121,249,173,220,238,209,133,118,26,141,56,160,106,45,67,80,187,31,228,183,99,43,52],"subject_pair":209,"STUDY_ID":"66a22c0758a3d5c9d26873c6","PROLIFIC_PID":"6544d818cdf50c46906dbf07","SESSION_ID":"66a29f1759f27a70b71fb556","practice_instructions":1,"leaderboard_instructions":0,"bonus":0,"reveal_word":false,"self_rating":"4","confidence":"52"},{"word":"ZEBRA","click_log":{"letter":["","S","N","A","L","H","W","F","Q","C","X","Z","E","B","R"],"t":[0,66902.59999999404,84567.29999999702,90401.29999999702,109052.09999999404,126739.90000000596,135400.59999999404,139737.59999999404,166671.90000000596,169574.5,174991.90000000596,177394.59999999404,180093.09999999404,185772.59999999404,189618.09999999404],"hit":[null,0,0,1,0,0,0,0,0,0,0,1,1,1,1],"asked":["","S","SN","SNA","SNAL","SNALH","SNALHW","SNALHWF","SNALHWFQ","SNALHWFQC","SNALHWFQCX","SNALHWFQCXZ","SNALHWFQCXZE","SNALHWFQCXZEB","SNALHWFQCXZEBR"],"word_state":["_____","_____","_____","____A","____A","____A","____A","____A","____A","____A","____A","Z___A","ZE__A","ZEB_A","ZEBRA"]},"hover_log":{"letter":["?","?","?","?","?","?","?","?","?","?","?","?","?","?","?","?","?","?","?","?","?","?","?","?","?","?","?","?","?","?","?","?","?","?","?","?","?","?","?","?","?","?","?","?","?","?","?","?","?","?","?","?","?","?","?","?","?","?","?","?","?","?","?","?","?","?","?","?","?","?","?","?","?","?","?","?","?","?","?","?","?","?","?","?","?","?","?","?","?","?","?","?","?","?","?","?","?","?","?","?","?","?","?","?","?","?","?","?","?","?","?","?","?","?","?","?","?","?","?","?","?","?","?","?","?","?","?","?","?","?","?","?","?","?","?","?","?","?","?","?","?","?","?","?","?","?","?","?","?","?","?","?","?","?","?","?","?","?","?","?","?","?","?","?","?","?","?","?","?","?","?","?","?","?","?","?","?","?","?","?","?","?","?","?","?","?","?","?","?","?","?","?","?","?","?","?","?","?","?","?","?","?","?","?","?","?","?","?","?","?","?","?","?","?","?","?","?","?","?","?","?","?","?","?","?","?","?","?","?","?","?","?","?","?","?","?","?","?","?","?","?","?","?","?","?","?","?","?","?","?","?","?","?","?","?","?","?","?","?","?","?","?","?","?","?","?","?","?","?","?","?","?","?","?","?","?","?","?","?","?","?","?","?","?","?","?","?","?","?","?","?","?","?","?","?","?","?","?","?","?","?","?","?","?","?","?","?","?","?","?","?","?","?","?","?","?","?","?","?","?","?","?","?","?","?","?","?","?","?","?","?","?","?","?","?","?","?","?","?","?","?","?","?","?","?","?","?","?","?","?","?","?","?","?","?","?","?","?","?","?","?","?","?","?","?","?","?","?","?","?","?","?","?","?","?","?","?","?","?","?","?","?","?","?","?","?","?","?","?","?","?","?","?","?","?","?","?","?","?","?","?","?","?","?","?","?","?","?","?","?","?","?","?","?","?","?","?","?","?","?","?","?","?","?","?","?","?","?","?","?","?","?","?","?","?","?","?","?","?","?","?","?","?","?","?","?","?","?","?","?","?","?","?","?","?","?","?","?","?","?","?","?","?","?","?","?","?","?","?","?","?","?","?","?","?","?","?","?","?","?","?","?","?","?","?","?","?","?","?","?","?","?","?","?","?","?","?","?","?","?","?","?","?","?","?","?","?","?","?","?","?","?","?","?","?","?","?","?","?","?","?","?","?","?","?","?","?","?","?","?","?","?","?","?","?","?","?","?","?","?","?","?","?","?","?","?","?","?","?","?","?","?","?","?","?","?","?","?","?","?","?","?","?","?","?","?","?","?","?","?","?","?","?","?","?","?","?","?","?","?","?","?","?","?","?","?","?","?","?","?","?","?","?","?","?","?","?","?","?","?","?","?","?","?","?","?","?","?","?","?","?","?","?","?","?","?","?","?","?","?","?","?","?","?","?","?","?","?","?","?","?","?","?","?","?","?","?","?","?","?","?","?","?","?","?","?","?","?","?","?","?","?","?","?","?","?","?","?","?","?","?","?","?","?","?","?","?","?","?","?","?","?","?","?","?","?","?","?","?","?","?","?","?","?","?","?","?","?","?","?","?","?","?","?","?","?","?","?","?","?","?","?","?","?","?","?","?","?","?","?","?","?","?","?","?","?","?","?","?","?","?","?","?","?","?","?","?","?","?","?","?","?","?","?","?","?","?","?","?","?","?","?","?","?","?","?","?","?","?","?","?","?","?","?","?","?","?","?","?","?","?","?","?","?","?","?","?","?","?","?","?","?","?","?","?","?","?","?","?","?","?","?","?","?","?","?","?","?","?","?","?","?","?","?","?","?","?","?","?","?","?","?","?","?","?","?","?","?","?","?","?","?","?","?","?","?","?","?","?","?","?","?","?","?","?","?","?","?","?","?","?","?","?","?","?","?","?","?","?","?","?","?","?","?","?","?","?","?","?","?","?","?","?","?","?","?","?","?","?","?","?","?","?","?","?","?","?","?","?","?","?","?","?","?","?","?","?","?","?","?","?","?","?","?","?","?","?","?","?","?","?","?","?","?","?","?","?","?","?","?","?","?","?","?","?","?","?","?","?","?","?","?","?","?","?","?","?","?","?","?","?","?","?","?","?","?","?","?","?","?","?","?","?","?","?","?","?","?","?","?","?","?","?","?","?","?","?","?","?","?","?","?","?","?","?","?","?","?","?","?","?","?","?","?","?","?","?","?","?","?","?","?","?","?","?","?","?","?","?","?","?","?","?","?","?","?","?","?","?","?","?","?","?","?","?","?","?","?","?","?","?","?","?","?","?","?","?","?","?","?","?","?","?","?","?","?","?","?","?","?","?","?","?","?","?","?","?","?","?","?","?","?","?","?","?","?","?","?","?","?","?","?","?","?","?","?","?","?","?","?","?","?","?","?","?","?","?","?","?","?","?","?","?","?","?","?","?","?","?","?","?","?","?","?","?","?","?","?","?","?","?","?","?","?","?","?","?","?","?","?","?","?","?","?","?","?","?","?","?","?","?","?","?","?","?","?","?","?","?","?","?","?","?","?","?","?","?","?","?","?","?","?","?","?","?","?","?","?","?","?","?","?","?","?","?","?","?","?","?","?","?","?","?","?","?","?","?","?","?","?","?","?","?","?","?","?","?","?","?","?","?","?","?","?","?","?","?","?","?","?","?","?","?","?","?","?","?","?","?","?","?","?","?","?","?","?","?","?","?","?","?","?","?","?","?","?","?","?","?","?","?","?","?","?","?","?","?","?","?","?","?","?","?","?","?","?","?","?","?","?","?","?","?","?","?","?","?","?","?","?","?","?","?","?","?","?","?","?","?","?","?","?","?","?","?","?","?","?","?","?","?","?","?","?","?","?","?","?","?","?","?","?","?","?","?","?","?","?","?","?","?","?","?","?","?","?","?","?","?","?","?","?","?","?","?","?","?","?","?","?","?","?","?","?","?","?","?","?","?","?","?","?","?","?","?","?","?","?","?","?","?","?","?","?","?","?","?","?","?","?","?","?","?","?","?","?","?","?","?","?","?","?","?","?","?","?","?","?","?","?","?","?","?","?","?","?","?","?","?","?","?","?","?","?","?","?","?","?","?","?","?","?","?","?","?","?","?","?","?","?","?","?","?","?","?","?","?","?","?","?","?","?","?","?","?","?","?","?","?","?","?","?","?","?","?","?","?","?","?","?","?","?","?","?","?","?","?","?","?","?","?","?","?","?","?","?","?","?","?","?","?","?","?","?","?","?","?","?","?","?","?","?","?","?","?","?","?","?","?","?","?","?","?","?","?","?","?","?","?","?","?","?","?","?","?","?","?","?","?","?","?","?","?","?","?","?","?","?","?","?","?","?","?","?","?","?","?","?","?","?","?","?","?","?","?","?","?","?","?","?","?","?","?","?","?","?","?","?","?","?","?","?","?","?","?","?","?","?","?","?","?","?","?","?","?","?","?","?","?","?","?","?","?","?","?","?","?","?","?","?","?","?","?","?","?","?","?","?","?","?","?","?","?","?","?","?","?","?","?","?","?","?","?","?","?","?","?","?","?","?","?","?","?","?","?","?","?","?","?","?","?","?","?","?","?","?","?","?","?","?","?","?","?","?","?","?","?","?","?","?","?","?","?","?","?","?","?","?","?","?","?","?","?","?","?","?","?","?","?","?","?","?","?","?","?","?","?","?","?","?","?","?","?","?","?","?","?","?","?","?","?","?","?","?","?","?","?","?","?","?","?","?","?","?","?","?","?","?","?","?","?","?","?","?","?","?","?","?","?","?","?","?","?","?","?","?","?","?","?","?","?","?","?","?","?","?","?","?","?","?","?","?","?","?","?","?","?","?","?","?","?","?","?","?","?","?","?","?","?","?","?","?","?","?","?","?","?","?","?","?","?","?","?","?","?","?","?","?","?","?","?","?","?","?","?","?","?","?","?","?","?","?","?","?","?","?","?","?","?","?","?","?","?","?","?","?","?","?","?","?","?","?","?","?","?","?","?","?","?","?","?","?","?","?","?","?","?","?","?","?","?","?","?","?","?","?","?","?","?","?","?","?","?","?","?","?","?","?","?","?","?","?","?","?","?","?","?","?","?","?","?","?","?","?","?","?","?","?","?","?","?","?","?","?","?","?","?","?","?","?","?","?","?","?","?","?","?","?","?","?","?","?","?","?","?","?","?","?","?","?","?","?","?","?","?","?","?","?","?","?","?","?","?","?","?","?","?","?","?","?","?","?","?","?","?","?","?","?","?","?","?","?","?","?","?","?","?","?","?","?","?","?","?","?","?","?","?","?","?","?","?","?","?","?","?","?","?","?","?","?","?","?","?","?","?","?","?","?","?","?","?","?","?","?","?","?","?","?","?","?","?","?","?","?","?","?","?","?","?","?","?","?","?","?","?","?","?","?","?","?","?","?","?","?","?","?","?","?","?","?","?","?","?","?","?","?","?","?","?","?","?","?","?","?","?","?","?","?","?","?","?","?","?","?","?","?","?","?","?","?","?","?","?","?","?","?","?","?","?","?","?","?","?","?","?","?","?","?","?","?","?","?","?","?","?","?","?","?","?","?","?","?","?","?","?","?","?","?","?","?","?","?","?","?","?","?","?","?","?","?","?","?","?","?","?","?","?","?","?","?","?","?","?","?","?","?","?","?","?","?","?","?","?","?","?","?","?","?","?","?","?","?","?","?","?","?","?","?","?","?","?","?","?","?","?","?","?","?","?","?","?","?","?","?","?","?","?","?","?","?","?","?","?","?","?","?","?","?","?","?","?","?","?","?","?","?","?","?","?","?","?","?","?","?","?","?","?","?","?","?","?","?","?","?","?","?","?","?","?","?","?","?","?","?","?","?","?","?","?","?","?","?","?","?","?","?","?","?","?","?","?","?","?","?","?","?","?","?","?","?","?","?","?","?","?","?","?","?","?","?","?","?","?","?","?","?","?","?","?","?","?","?","?","?","?","?","?","?","?","?","?","?","?","?","?","?","?","?","?","?","?","?","?","?","?","?","?","?","?","?","?","?","?","?","?","?","?","?","?","?","?","?","?","?","?","?","?","?","?","?","?","?","?","?","?","?","?","?","?","?","?","?","?","?","?","?","?","?","?","?","?","?","?","?","?","?","?","?","?","?","?","?","?","?","?","?","?","?","?","?","?","?","?","?","?","?","?","?","?","?","?","?","?","?","?","?","?","?","?","?","?","?","?","?","?","?","?","?","?","?","?","?","?","?","?","?","?","?","?","?","?","?","?","?","?","?","?","?","?","?","?","?","?","?","?","?","?","?","?","?","?","?","?","?","?","?","?","?","?","?","?","?","?","?","?","?","?","?","?","?","?","?","?","?","?","?","?","?","?","?","?","?","?","?","?","?","?","?","?","?","?","?","?","?","?","?","?","?","?","?","?","?","?","?","?","?","?","?","?","?","?","?","?","?","?","?","?","?","?","?","?","?","?","?","?","?","?","?","?","?","?","?","?","?","?","?","?","?","?","?","?","?","?","?","?","?","?","?","?","?","?","?","?","?","?","?","?","?","?","?","?","?","?","?","?","?","?","?","?","?","?","?","?","?","?","?","?","?","?","?","?","?","?","?","?","?","?","?","?","?","?","?","?","?","?","?","?","?","?","?","?","?","?","?","?","?","?","?","?","?","?","?","?","?","?","?","?","?","?","?","?","?","?","?","?","?","?","?","?","?","?","?","?","?","?","?","?","?","?","?","?","?","?","?","?","?","?","?","?","?","?","?","?","?","?","?","?","?","?","?","?","?","?","?","?","?","?","?","?","?","?","?","?","?","?","?","?","?","?","?","?","?","?","?","?","?","?","?","?","?","?","?","?","?","?","?","?","?","?","?","?","?","?","?","?","?","?","?","?","?","?","?","?","?","?","?","?","?","?","?","?","?","?","?","?","?","?","?","?","?","?","?","?","?","?","?","?","?","?","?","?","?","?","?","?","?","?","?","?","?","?","?","?","?","?","?","?","?","?","?","?","?","?","?","?","?","?","?","?","?","?","?","?","?","?","?","?","?","?","?","?","?","?","?","?","?","?","?","?","?","?","?","?","?","?","?","?","?","?","?","?","?","?","?","?","?","?","?","?","?","?","?","?","?","?","?","?","?","?","?","?","?","?","?","?","?","?","?","?","?","?","?","?","?","?","?","?","?","?","?","?","?","?","?","?","?","?","?","?","?","?","?","?","?","?","?","?","?","?","?","?","?","?","?","?","?","?","?","?","?","?","?","?","?","?","?","?","?","?","?","?","?","?","?","?","?","?","?","?","?","?","?","?","?","?","?","?","?","?","?","?","?","?","?","?","?","?","?","?","?","?","?","?","?","?","?","?","?","?","?","?","?","?","?","?","?","?","?","?","?","?","?","?","?","?","?","?","?","?","?","?","?","?","?","?","?","?","?","?","?","?","?","?","?","?","?","?","?","?","?","?","?","?","?","?","?","?","?","?","?","?","?","?","?","?","?","?","?","?","?","?","?","?","?","?","?","?","?","?","?","?","?","?","?","?","?","?","?","?","?","?","?","?","?","?","?","?","?","?","?","?","?","?","?","?","?","?","?","?","?","?","?","?","?","?","?","?","?","?","?","?","?","?","?","?","?","?","?","?","?","?","?","?","?","?","?","?","?","?","?","?","?","?","?","?","?","?","?","?","?","?","?","?","?","?","?","?","?","?","?","?","?","?","?","?","?","?","?","?","?","?","?","?","?","?","?","?","?","?","?","?","?","?","?","?","?","?","?","?","?","?","?","?","?","?","?","?","?","?","?","?","?","?","?","?","?","?","?","?","?","?","?","?","?","?","?","?","?","?","?","?","?","?","?","?","?","?","?","?","?","?","?","?","?","?","?","?","?","?","?","?","?","?","?","?","?","?","?","?","?","?","?","?","?","?","?","?","?","?","?","?","?","?","?","?","?","?","?","?","?","?","?","?","?","?","?","?","?","?","?","?","?","?","?","?","?","?","?","?","?","?","?","?","?","?","?","?","?","?","?","?","?","?","?","?","?","?","?","?","?","?","?","?","?","?","?","?","?","?","?","?","?","?","?","?","?","?","?","?","?","?","?","?","?","?","?","?","?","?","?","?","?","?","?","?","?","?","?","?","?","?","?","?","?","?","?","?","?","?","?","?","?","?","?","?","?","?","?","?","?","?","?","?","?","?","?","?","?","?","?","?","?","?","?","?","?","?","?","?","?","?","?","?","?","?","?","?","?","?","?","?","?","?","?","?","?","?","?","?","?","?","?","?","?","?","?","?","?","?","?","?","?","?","?","?","?","?","?","?","?","?","?","?","?","?","?","?","?","?","?","?","?","?","?","?","?","?","?","?","?","?","?","?","?","?","?","?","?","?","?","?","?","?","?","?","?","?","?","?","?","?","?","?","?","?","?","?","?","?","?","?","?","?","?","?","?","?","?","?","?","?","?","?","?","?","?","?","?","?","?","?","?","?","?","?","?","?","?","?","?","?","?","?","?","?","?","?","?","?","?","?","?","?","?","?","?","?","?","?","?","?","?","?","?","?","?","?","?","?","?","?","?","?","?","?","?","?","?","?","?","?","?","?","?","?","?","?","?","?","?","?","?","?","?","?","?","?","?","?","?","?","?","?","?","?","?","?","?","?","?","?","?","?","?","?","?","?","?","?","?","?","?","?","?","?","?","?","?","?","?","?","?","?","?","?","?","?","?","?","?","?","?","?","?","?","?","?","?","?","?","?","?","?","?","?","?","?","?","?","?","?","?","?","?","?","?","?","?","?","?","?","?","?","?","?","?","?","?","?","?","?","?","?","?","?","?","?","?","?","?","?","?","?","?","?","?","?","?","?","?","?","?","?","?","?","?","?","?","?","?","?","?","?","?","?","?","?","?","?","?","?","?","?","?","?","?","?","?","?","?","?","?","?","?","?","?","?","?","?","?","?","?","?","?","?","?","?","?","?","?","?","?","?","?","?","?","?","?","?","?","?","?","?","?","?","?","?","?","?","?","?","?","?","?","?","?","?","?","?","?","?","?","?","?","?","?","?","?","?","?","?","?","?","?","?","?","?","?","?","?","?","?","?","?","?","?","?","?","?","?","?","?","?","?","?","?","?","?","?","?","?","?","?","?","?","?","?","?","?","?","?","?","?","?","?","?","?","?","?","?","?","?","?","?","?","?","?","?","?","?","?","?","?","?","?","?","?","?","?","?","?","?","?","?","?","?","?","?","?","?","?","?","?","?","?","?","?","?","?","?","?","?","?","?","?","?","?","?","?","?","?","?","?","?","?","?","?","?","?","?","?","?","?","?","?","?","?","?","?","?","?","?","?","?","?","?","?","?","?","?","?","?","?","?","?","?","?","?","?","?","?","?","?","?","?","?","?","?","?","?","?","?","?","?","?","?","?","?","?","?","?","?","?","?","?","?","?","?","?","?","?","?","?","?","?","?","?","?","?","?","?","?","?","?","?","?","?","?","?","?","?","?","?","?","?","?","?","?","?","?","?","?","?","?","?","?","?","?","?","?","?","?","?","?","?","?","?","?","?","?","?","?","?","?","?","?","?","?","?","?","?","?","?","?","?","?","?","?","?","?","?","?","?","?","?","?","?","?","?","?","?","?","?","?","?","?","?","?","?","?","?","?","?","?","?","?","?","?","?","?","?","?","?","?","?","?","?","?","?","?","?","?","?","?","?","?","?","?","?","?","?","?","?","?","?","?","?","?","?","?","?","?","?","?","?","?","?","?","?","?","?","?","?","?","?","?","?","?","?","?","?","?","?","?","?","?","?","?","?","?","?","?","?","?","?","?","?","?","?","?","?","?","?","?","?","?","?","?","?","?","?","?","?","?","?","?","?","?","?","B","B","B","?","?","?","?","?","?","K","K","K","K","K","K","K","K","K","K","K","?","?","?","?","?","?","?","?","?","?","?","?","K","K","K","?","?","?","?","?","?","?","?","?","?","?","?","?","?","?","?","?","?","?","?","S","S","S","S","S","S","S","S","S","S","S","S","S","S","S","S","S","S","S","S","S","S","S","S","S","S","S","S","S","S","S","S","S","S","S","S","S","S","S","S","S","S","S","S","S","S","S","S","S","S","S","S","S","S","S","S","S","S","S","S","S","S","S","S","S","S","S","S","S","S","S","S","S","S","S","S","S","S","S","S","S","S","S","S","S","S","S","S","S","S","S","S","S","S","S","S","S","S","S","S","S","S","S","S","S","S","S","S","S","S","S","S","S","S","S","S","S","S","S","S","S","S","S","S","S","S","S","S","S","S","S","S","S","S","S","S","S","S","S","S","S","S","S","S","S","S","S","S","S","S","S","S","S","S","S","S","S","S","S","S","S","S","S","S","S","S","S","S","S","S","S","S","S","S","S","S","S","S","S","S","S","S","S","S","S","S","S","S","S","S","S","S","S","?","?","?","?","?","?","?","?","?","?","?","?","?","?","?","?","?","?","?","?","?","?","?","?","?","?","?","?","?","?","?","?","?","?","?","?","?","?","?","?","?","?","?","?","?","?","?","?","?","?","?","?","?","?","?","?","?","?","?","?","?","?","?","?","?","?","?","?","?","?","?","?","?","?","?","?","?","?","?","?","?","?","?","?","?","?","?","?","?","?","?","?","?","?","?","?","?","?","?","?","?","?","?","?","?","?","?","?","?","?","?","?","?","?","?","?","?","?","?","?","?","?","?","?","?","?","?","?","?","?","?","?","?","?","?","?","?","?","?","?","?","?","?","?","?","?","?","?","?","?","?","?","?","?","?","?","?","?","?","?","?","?","?","?","?","?","?","?","?","?","?","?","?","?","?","?","?","?","?","?","?","?","?","?","?","?","?","?","?","?","?","?","?","?","?","?","?","?","?","?","?","?","?","?","?","?","?","?","?","?","?","?","?","?","?","?","?","?","?","?","?","?","?","?","?","?","?","?","?","?","?","?","?","?","?","?","?","?","?","?","?","?","?","?","?","?","?","?","?","?","?","?","?","?","?","?","?","?","?","?","?","?","?","?","?","?","?","?","?","?","?","?","?","?","?","?","?","?","?","?","?","?","?","?","?","?","?","?","?","?","?","?","?","?","?","?","?","?","?","?","?","?","?","?","?","?","?","?","?","?","?","?","?","?","?","?","?","?","?","?","?","?","?","?","?","?","?","?","?","?","?","?","?","?","?","?","?","?","?","?","?","?","?","?","?","?","?","?","?","?","?","?","?","?","?","?","?","?","?","?","?","?","?","?","?","?","?","?","?","?","?","?","?","?","?","?","?","?","?","?","?","?","?","?","?","?","?","?","?","?","?","?","?","?","?","?","?","?","?","?","?","?","?","?","?","?","?","?","?","?","?","?","?","?","?","?","?","?","?","?","?","?","?","?","?","?","?","?","?","?","?","?","?","?","?","?","?","?","?","?","?","?","?","?","?","?","?","?","?","?","?","?","?","?","?","?","?","?","?","?","?","?","?","?","?","?","?","?","?","?","?","?","?","?","?","?","?","?","?","?","?","?","?","?","?","?","?","?","?","?","?","?","?","?","?","?","?","?","?","?","?","?","?","?","?","?","?","?","?","?","?","?","?","?","?","?","?","?","?","?","?","?","?","?","?","?","?","?","?","?","?","?","?","?","?","?","?","?","?","?","?","?","?","?","?","?","?","?","?","?","?","?","?","?","?","?","?","?","?","?","?","?","?","?","U","U","?","?","V","?","?","?","?","?","?","?","?","?","?","?","?","?","?","?","?","?","?","?","?","?","?","?","?","?","?","O","O","O","O","O","O","O","O","O","O","O","?","?","?","?","?","X","X","?","?","?","W","W","W","W","W","W","W","W","W","W","W","?","?","?","?","?","P","P","P","P","P","P","P","P","P","P","P","P","P","P","P","P","P","P","P","P","?","?","?","O","O","O","O","O","O","O","O","O","O","O","O","O","O","O","O","O","O","O","O","O","O","O","O","O","O","O","O","O","O","?","N","?","?","?","?","?","?","?","?","?","?","?","?","?","?","?","?","?","?","?","?","?","?","?","?","?","?","?","?","D","D","D","D","D","D","?","?","?","M","M","M","?","?","?","?","?","?","?","?","?","?","?","?","?","?","?","?","?","?","?","?","?","?","?","?","?","?","V","V","V","W","W","W","W","W","W","W","W","W","W","W","W","W","W","W","?","X","X","X","X","X","X","X","X","X","?","?","?","?","?","?","?","?","?","?","?","?","?","?","?","?","?","?","?","?","?","?","?","?","?","?","?","?","?","?","?","?","?","?","?","O","O","O","O","N","?","?","?","?","?","?","?","?","?","?","?","?","?","?","?","?","?","?","?","?","?","?","?","?","?","?","?","?","?","?","M","M","M","M","M","M","M","M","?","N","N","N","N","N","N","N","N","N","N","N","N","N","N","N","N","N","N","N","N","N","N","N","N","N","N","N","N","N","N","N","N","N","N","N","N","N","N","N","N","N","N","N","N","N","N","N","N","N","N","N","N","N","N","N","N","N","N","N","N","N","N","N","N","N","N","N","N","N","N","N","N","N","N","N","N","N","N","N","N","N","N","N","N","N","N","N","N","N","N","N","N","N","N","N","N","N","N","N","N","N","N","N","N","N","N","N","N","N","N","N","N","N","N","N","N","N","N","N","N","N","N","N","N","N","N","N","N","N","N","N","N","N","N","N","N","N","N","N","N","N","N","N","N","N","N","N","N","N","N","N","N","N","N","N","N","N","N","N","N","N","N","N","N","N","N","N","N","N","N","N","N","N","N","N","N","N","N","N","N","N","N","N","N","N","N","N","N","N","N","N","N","N","N","N","N","N","N","N","N","N","N","N","N","N","N","N","N","N","N","N","N","N","N","N","N","N","N","N","N","N","N","N","N","N","N","N","N","N","N","N","N","N","N","N","N","N","N","N","N","N","N","N","N","N","N","N","N","N","N","N","N","N","N","N","N","N","N","N","N","N","N","N","N","N","N","N","M","M","M","M","?","?","?","?","L","L","L","L","L","L","L","L","L","L","L","L","L","L","L","L","L","L","L","L","L","K","K","?","?","?","?","?","?","?","?","A","A","A","A","A","A","A","A","A","A","A","A","A","A","A","A","A","A","A","A","A","A","A","A","A","A","A","A","A","A","A","A","A","A","A","A","A","A","A","A","A","A","A","A","A","A","A","A","A","A","A","A","A","A","A","A","A","A","A","A","A","A","A","A","A","A","A","A","A","A","A","A","A","A","A","A","A","A","A","A","A","A","A","A","A","A","A","A","A","A","A","A","A","A","A","A","A","A","A","A","A","A","A","A","A","A","A","A","A","A","A","A","A","A","A","A","A","A","A","A","A","A","A","A","A","A","A","A","A","A","A","A","A","A","A","A","A","A","A","A","A","A","A","A","A","A","A","A","A","A","A","A","A","A","A","A","A","A","A","A","A","A","A","A","A","A","A","A","A","A","A","A","A","A","A","A","A","A","A","A","A","A","A","A","A","A","A","A","A","A","A","A","A","A","A","A","A","A","A","A","A","A","A","A","A","A","A","A","A","A","A","A","A","A","A","A","A","A","A","A","A","A","A","A","A","A","A","A","A","A","A","A","A","A","A","A","A","A","A","A","A","A","A","A","A","A","A","A","A","A","A","A","A","A","A","A","A","A","A","A","A","A","A","A","A","A","A","A","A","A","A","A","A","A","A","A","A","A","A","A","A","A","A","A","A","A","A","A","A","A","A","A","A","A","A","A","A","A","A","A","A","A","A","A","A","A","A","A","A","A","A","A","A","A","A","A","A","A","A","A","A","A","A","A","A","A","A","A","A","A","A","A","A","A","A","A","A","A","A","A","A","A","A","A","A","A","A","A","A","A","A","A","A","A","A","A","A","A","A","A","A","A","A","A","A","A","A","A","A","A","A","A","A","A","A","A","A","A","A","A","A","A","A","A","A","A","A","A","A","A","A","A","A","A","A","A","A","A","A","A","A","A","A","A","A","A","A","A","A","A","A","A","A","A","A","A","A","A","A","A","A","A","A","A","A","A","A","A","A","A","A","A","A","A","A","A","A","A","A","A","A","A","A","A","A","A","A","A","A","A","A","A","A","A","A","A","A","A","A","A","A","A","A","A","A","A","A","A","A","A","A","A","A","A","A","A","A","A","A","A","A","A","A","A","A","A","A","A","A","A","A","A","A","A","A","A","A","A","A","A","A","A","A","A","A","A","A","A","A","A","A","A","A","A","A","A","A","A","A","A","A","A","A","A","A","A","A","A","A","A","A","A","A","A","A","A","A","A","A","A","A","A","A","A","A","A","A","A","A","A","A","A","A","A","A","A","A","A","A","A","A","A","A","A","A","A","A","A","A","A","A","A","A","A","A","A","A","A","A","A","A","A","A","A","A","A","A","A","A","A","A","A","A","A","A","A","A","A","A","A","A","A","A","A","A","A","A","A","A","A","A","A","A","A","A","A","A","A","A","A","A","A","A","A","A","A","A","A","A","A","A","A","A","A","A","A","A","A","A","A","A","A","A","A","A","A","A","A","A","A","A","A","A","A","A","A","A","A","A","A","A","A","A","A","A","A","A","A","A","A","A","A","A","A","A","A","A","A","A","A","A","A","A","A","A","A","A","A","A","A","A","A","A","A","A","A","A","A","A","A","A","A","A","A","A","A","A","A","A","A","A","A","A","A","A","A","A","A","A","A","A","B","B","?","?","?","?","O","?","?","?","?","?","?","?","?","?","?","?","?","?","?","?","?","?","?","?","?","?","?","?","?","?","?","?","?","?","?","?","?","?","?","?","?","?","?","?","?","Y","Y","Y","Y","Y","Y","Y","Y","Y","Y","Y","Y","Y","Y","Y","Y","Y","?","?","?","?","?","?","?","P","P","P","P","P","P","P","P","P","P","P","P","P","P","P","P","P","P","P","P","P","P","P","P","P","P","P","P","P","P","P","P","P","P","P","P","P","P","P","P","P","P","P","P","P","P","P","P","P","P","P","P","P","P","P","P","P","P","P","P","P","P","P","P","P","P","P","P","P","P","P","P","P","P","P","P","P","P","P","P","P","P","P","P","P","P","P","P","P","P","P","P","P","P","P","P","P","P","P","P","P","P","P","P","P","P","P","P","P","P","P","P","P","P","P","P","P","P","P","P","P","P","P","P","P","P","P","P","P","P","P","P","P","P","P","P","P","P","P","P","P","P","P","P","P","P","P","P","P","P","P","P","P","P","P","P","P","P","P","P","P","P","P","P","P","P","P","P","P","P","P","P","P","P","P","P","P","P","P","P","P","P","P","P","P","P","P","P","P","P","P","P","P","P","P","P","P","P","P","P","P","P","P","P","P","P","P","P","P","P","Q","Q","Q","Q","Q","Q","Q","Q","Q","Q","Q","?","?","?","?","?","?","?","?","O","O","O","O","O","O","O","O","O","O","O","O","O","?","?","?","?","?","?","?","?","?","?","?","?","?","?","?","?","?","?","?","?","?","P","?","?","?","?","I","I","I","I","I","I","I","I","I","I","I","?","?","Q","?","P","?","?","?","X","?","W","W","W","W","W","W","W","W","W","W","W","W","W","W","W","W","W","W","W","W","W","W","W","W","W","W","W","W","W","W","W","W","?","V","V","V","V","?","?","?","?","?","?","?","?","?","?","?","?","?","?","?","?","?","?","?","?","?","?","?","?","?","?","L","L","L","L","L","L","L","L","L","L","L","L","L","L","L","L","L","L","L","L","L","L","L","L","L","L","L","L","L","L","L","L","L","L","L","L","L","L","L","L","L","L","L","L","L","L","L","L","L","L","L","L","L","L","L","L","L","L","L","L","L","L","L","L","L","L","L","L","L","L","L","L","L","L","L","L","L","L","L","L","L","L","L","L","L","L","L","L","L","L","L","L","L","L","L","L","L","L","L","L","L","L","L","L","L","L","L","L","L","L","L","L","L","L","L","L","L","L","L","L","L","L","L","L","L","L","L","L","L","L","L","L","L","L","L","L","L","L","L","L","L","L","L","L","L","L","L","L","L","L","L","L","L","L","L","L","L","L","L","L","L","L","L","L","L","L","L","L","L","L","L","L","L","L","L","L","L","L","L","L","L","L","L","L","L","L","L","L","L","L","L","L","L","L","L","L","L","L","L","L","L","L","L","L","L","L","L","L","L","L","L","L","L","L","L","L","L","L","L","L","L","L","L","L","L","L","L","L","L","L","L","L","L","L","L","L","L","L","L","L","L","L","L","L","L","L","L","L","L","L","L","L","L","L","L","L","L","L","L","L","L","L","L","L","L","L","L","L","L","L","L","L","L","L","L","L","L","L","L","L","L","L","L","L","L","L","L","L","L","L","L","L","L","L","L","L","L","L","L","L","L","L","L","L","L","L","L","L","L","L","L","L","L","L","L","L","L","L","L","L","L","L","L","L","L","L","L","L","L","L","L","L","L","L","L","L","L","L","L","L","L","L","L","L","L","L","L","L","L","L","L","L","L","L","L","L","L","L","L","L","L","L","L","L","L","L","L","L","L","L","L","L","L","L","L","L","L","L","L","L","L","L","L","L","L","L","L","L","L","L","L","L","L","L","L","L","L","L","L","L","L","L","L","L","L","L","L","L","L","L","L","L","L","L","L","L","L","L","L","L","L","L","L","L","L","L","L","L","L","L","L","L","L","L","L","L","L","L","L","L","L","L","L","L","L","L","L","L","L","L","L","L","L","L","L","L","L","L","L","L","L","L","L","L","L","L","L","L","L","L","L","L","L","L","L","L","L","L","L","L","L","L","L","L","L","L","L","L","L","L","L","L","L","L","L","L","L","L","L","L","L","L","L","L","L","L","L","L","L","L","L","L","L","L","L","L","L","L","L","L","L","L","L","L","L","L","L","L","L","L","L","L","L","L","L","L","L","L","L","L","L","L","L","L","L","L","L","L","L","L","L","L","L","L","L","L","L","L","L","L","L","L","L","L","L","L","L","L","L","L","L","L","L","L","L","L","L","L","L","L","L","L","L","L","L","L","L","L","L","L","L","L","L","L","L","L","L","L","L","L","L","L","L","L","L","L","L","L","L","L","L","L","L","L","L","L","L","L","L","L","L","L","L","L","L","L","L","L","L","L","L","L","L","L","L","L","L","L","L","L","L","L","L","L","L","L","L","L","L","L","L","L","L","L","L","L","L","L","L","L","L","L","L","L","L","L","L","L","L","L","L","L","L","L","L","L","M","M","?","?","?","?","?","?","?","?","?","?","?","?","?","?","?","?","?","?","?","?","?","?","?","?","W","W","W","W","W","?","?","?","?","?","?","?","?","?","?","?","?","?","?","?","X","X","Y","Y","Y","Y","Y","Y","Y","Y","Y","Y","Y","Y","Y","Y","Y","Y","Y","Y","Y","Y","Y","Y","Y","Y","Y","Y","Y","Y","Y","Y","Y","Y","Y","Y","Y","Y","Y","Y","Y","Y","Y","Y","Y","Y","Y","?","?","?","?","?","?","?","?","?","?","?","?","?","?","?","?","?","?","?","?","?","?","?","?","?","?","P","P","P","?","?","?","?","?","?","?","?","?","?","?","?","?","?","?","?","?","?","?","?","?","?","?","?","?","?","?","?","?","?","?","?","?","?","?","?","?","?","?","?","?","?","?","?","?","?","?","?","?","?","?","?","?","?","?","?","?","?","?","?","?","?","?","?","?","?","?","?","?","?","?","?","P","P","P","P","P","P","P","P","P","P","P","P","P","P","P","P","P","P","P","P","P","P","P","P","P","P","P","P","P","P","P","P","P","P","P","P","P","P","P","P","P","P","?","?","?","?","?","?","G","G","G","G","G","G","G","G","G","G","G","G","G","G","G","G","G","G","G","G","G","G","G","G","G","G","G","G","G","G","G","G","G","G","G","G","G","G","G","G","G","G","G","G","G","G","G","G","G","G","G","G","G","G","G","G","G","G","G","G","G","G","G","G","G","G","G","G","G","G","G","G","G","G","G","G","G","G","G","G","G","G","G","G","G","G","G","G","G","G","G","G","G","G","G","G","G","G","G","G","G","G","G","G","G","G","G","G","G","G","G","G","G","G","G","G","G","?","?","?","?","?","?","?","H","H","H","H","H","H","H","H","H","H","H","H","H","H","H","H","H","H","H","H","H","H","H","H","H","H","H","H","H","H","H","H","H","H","H","H","H","H","H","H","H","H","H","H","H","H","H","H","H","H","H","H","H","H","H","H","H","H","H","H","H","H","H","H","H","H","H","H","H","H","H","H","H","H","H","H","H","H","H","H","H","H","H","H","H","H","H","H","H","H","H","H","H","H","H","H","H","H","H","H","H","H","H","H","H","H","H","H","H","H","H","H","H","H","H","H","H","H","H","H","H","H","H","H","H","H","H","H","H","H","H","H","H","H","H","H","H","H","H","H","H","H","H","H","H","H","H","H","H","H","H","H","H","H","H","H","H","H","H","H","H","H","H","H","H","H","H","H","H","H","H","H","H","H","H","H","H","H","H","H","H","H","H","H","H","H","H","H","H","H","H","H","H","H","H","H","H","H","H","H","H","H","H","H","H","H","H","H","H","H","H","H","H","H","H","H","H","H","H","H","H","H","H","H","H","H","H","H","H","H","H","H","H","H","H","H","H","H","H","H","H","H","H","H","H","H","H","H","H","H","H","H","H","H","H","H","H","H","H","H","H","H","H","H","H","H","H","H","H","H","H","H","H","H","H","H","H","H","H","H","H","H","H","H","H","H","H","H","H","H","H","H","H","H","H","H","H","?","?","?","R","R","R","R","R","R","R","R","R","R","R","R","R","R","R","R","R","R","R","R","R","R","R","R","R","R","R","R","R","R","R","R","R","R","R","R","R","R","R","R","R","R","R","?","Q","Q","Q","?","P","P","P","P","P","P","P","P","P","P","P","P","P","P","P","P","P","P","P","P","P","P","P","P","P","P","P","?","O","?","?","?","?","D","D","D","D","D","D","D","D","D","D","D","D","D","D","D","D","D","D","D","D","D","D","D","D","D","D","D","D","D","D","D","D","D","D","D","D","D","D","D","D","D","D","D","D","D","D","D","D","D","D","D","D","D","D","D","D","D","D","D","D","D","D","D","D","D","D","D","D","D","D","D","D","D","D","D","D","D","D","D","D","D","D","D","D","D","D","D","D","?","?","?","M","M","?","?","V","V","V","V","V","V","V","V","V","V","V","V","V","V","V","V","V","V","V","V","V","V","V","V","V","V","?","W","W","W","W","W","W","W","W","W","W","W","W","W","W","W","W","W","W","W","W","W","W","W","W","W","W","W","W","W","W","W","W","W","W","W","W","W","W","W","W","W","W","W","W","W","W","W","W","W","W","W","W","W","W","W","W","W","W","W","W","W","W","W","W","W","W","W","W","W","W","W","W","W","W","W","W","W","W","W","W","W","W","W","W","W","W","W","W","W","W","W","W","W","W","W","W","W","W","W","W","W","W","W","W","W","W","W","W","W","W","W","W","W","W","W","W","W","W","W","W","W","W","W","W","W","W","W","W","W","W","W","W","W","W","W","W","W","W","W","W","W","W","W","W","W","W","W","W","W","W","W","W","W","W","W","W","W","W","W","W","W","W","W","W","W","W","W","W","W","W","W","W","W","W","W","W","W","W","W","W","W","W","W","W","W","W","W","W","W","W","W","W","W","W","W","W","W","W","W","W","W","W","W","W","W","W","W","W","W","W","W","W","W","W","W","W","W","W","W","W","W","W","W","W","W","W","W","W","W","W","W","W","W","W","W","W","W","W","W","W","W","W","W","W","W","W","W","W","?","?","N","N","N","?","?","?","?","?","F","F","F","F","F","F","F","F","F","F","F","F","F","F","F","F","F","F","F","F","F","F","F","F","F","F","F","F","F","F","F","F","F","F","F","F","F","F","F","F","F","F","F","F","F","F","F","F","F","F","F","F","F","F","F","F","F","F","F","F","F","F","F","F","F","F","F","F","F","F","F","F","F","F","F","F","F","F","F","F","F","F","F","F","F","F","F","F","F","F","F","F","F","F","F","F","F","F","F","F","F","F","F","F","F","F","F","F","F","F","F","F","F","F","F","F","F","F","F","F","F","F","F","F","F","F","F","F","F","F","F","F","F","F","F","F","F","F","F","F","F","F","F","F","F","F","F","F","F","F","F","F","F","F","F","F","F","F","F","F","F","F","F","F","F","F","F","F","F","F","F","F","F","F","F","F","F","F","F","F","F","F","F","F","F","F","F","F","F","F","F","F","F","F","F","F","F","F","F","F","F","F","F","F","F","F","F","F","F","F","F","F","F","F","F","F","F","F","F","F","F","F","F","F","F","F","F","F","F","F","F","F","F","F","F","F","F","F","F","F","F","F","F","F","F","F","F","F","F","F","F","F","F","F","F","F","F","F","F","F","F","F","F","F","F","F","F","F","F","F","F","F","F","F","F","F","F","F","F","F","F","F","F","F","F","F","F","F","F","F","F","F","F","F","F","F","F","F","F","F","F","F","F","F","F","F","F","F","F","F","F","F","F","F","F","F","F","F","F","F","F","F","F","F","F","F","F","F","F","F","F","F","F","F","F","F","F","F","F","F","F","F","F","F","F","F","F","F","F","F","F","F","F","F","F","F","F","F","F","F","F","F","F","F","F","F","F","F","F","F","F","F","F","F","F","F","F","F","F","F","F","F","F","F","F","F","F","F","F","F","F","F","F","F","F","F","F","F","F","F","F","F","F","F","F","F","F","F","F","F","F","F","F","F","F","F","F","F","F","F","F","F","F","F","F","F","F","F","F","F","F","F","F","F","F","F","F","F","F","F","F","F","F","F","F","F","F","F","F","F","F","F","F","F","F","F","F","F","F","F","F","F","F","F","F","F","F","F","F","F","F","F","F","F","F","F","F","F","F","F","F","F","F","F","F","F","F","F","F","F","F","F","F","F","F","F","F","F","F","F","F","F","F","F","F","F","F","F","F","F","F","F","F","F","F","F","F","F","F","F","F","F","F","F","F","F","F","F","F","F","F","F","F","F","F","F","F","F","F","F","F","F","F","F","F","F","F","F","F","F","F","F","F","F","F","F","F","F","F","F","F","F","F","F","F","F","F","F","F","F","F","F","F","F","F","F","F","F","F","F","F","F","F","F","F","F","F","F","F","F","F","F","F","F","F","F","F","F","F","F","F","F","F","F","F","F","F","F","F","F","F","F","F","F","F","F","F","F","F","F","F","F","F","F","F","F","F","F","F","F","F","F","F","F","F","F","F","F","F","F","F","F","F","F","F","F","F","F","F","F","F","F","F","F","F","F","F","F","F","F","F","F","F","F","F","F","F","F","F","F","F","F","F","F","F","F","F","F","F","F","F","F","F","F","F","F","F","F","F","F","F","F","F","F","F","F","F","F","F","F","F","F","F","F","F","F","F","F","F","F","F","F","F","F","F","F","F","F","F","F","F","F","F","F","F","F","F","F","F","F","F","F","F","F","F","F","F","F","F","F","F","F","F","F","F","F","F","F","F","F","F","F","F","F","F","F","F","F","F","F","F","F","F","F","F","F","F","F","F","F","F","F","F","F","F","F","F","F","F","F","F","F","F","F","F","F","F","F","F","F","F","F","F","F","F","F","F","F","F","F","F","F","F","F","F","F","F","F","F","F","F","F","F","F","F","F","F","F","F","F","F","F","F","F","F","F","F","F","F","F","F","F","F","F","F","F","F","F","F","F","F","F","F","F","F","F","F","F","F","F","F","F","F","F","F","F","F","F","F","F","F","F","F","F","F","F","F","F","F","F","F","F","F","F","F","F","F","F","F","F","F","F","F","F","F","F","F","F","F","F","F","F","F","F","F","F","F","F","F","F","F","F","F","F","F","F","F","F","F","F","F","F","F","F","F","F","F","F","F","F","F","F","F","F","F","F","F","F","F","F","F","F","F","F","F","F","F","F","F","F","F","F","F","F","F","F","F","F","F","F","F","F","F","F","F","F","F","F","F","F","F","F","F","F","F","F","F","F","F","F","F","F","F","F","F","F","F","F","F","F","F","F","F","F","F","F","F","F","F","F","F","F","F","F","F","F","F","F","F","F","F","F","F","F","F","F","F","F","F","F","F","F","F","F","F","F","F","F","F","F","F","F","F","F","F","F","F","F","F","F","F","F","F","F","F","F","F","F","F","F","F","F","F","F","F","F","F","F","F","F","F","F","F","F","F","F","F","F","F","F","F","F","F","F","F","F","F","F","F","F","F","F","F","F","F","F","F","F","F","F","F","F","F","F","F","F","F","F","F","F","F","F","F","F","F","F","F","F","F","F","F","F","F","F","F","F","F","F","F","F","F","F","F","F","F","F","F","F","F","F","F","F","F","F","F","F","F","F","F","F","F","F","F","F","F","F","F","F","F","F","F","F","F","F","F","F","F","F","F","F","F","F","F","F","F","F","F","F","F","F","F","F","F","F","F","F","F","F","F","F","F","F","F","F","F","F","F","F","F","F","F","F","F","F","F","F","F","F","F","F","F","F","F","F","F","F","F","F","F","F","F","F","F","F","F","F","F","F","F","F","F","F","F","F","F","F","F","F","F","F","F","F","F","F","F","F","F","F","F","F","F","F","F","F","F","F","F","F","F","F","F","F","F","F","F","F","F","F","F","F","F","F","F","F","F","F","F","F","F","F","F","F","F","F","F","F","F","F","F","F","F","F","F","F","F","F","F","F","F","F","F","F","F","F","F","F","F","F","F","F","F","F","F","F","F","F","F","F","F","F","F","F","F","F","F","F","F","F","F","F","F","F","F","F","F","F","F","F","F","F","F","F","F","F","F","F","F","F","F","F","F","F","F","F","F","F","F","F","F","F","F","F","F","F","F","F","F","F","F","F","F","F","F","F","F","F","F","F","F","F","F","F","F","F","F","F","F","F","F","F","F","F","F","F","F","F","F","F","F","F","F","F","F","F","F","F","F","F","F","F","F","F","F","F","F","F","F","F","F","F","F","F","F","F","F","F","F","F","F","F","F","F","F","F","F","F","F","F","F","F","F","F","F","F","F","F","F","F","F","F","F","F","F","F","F","F","F","F","F","F","F","F","F","F","F","F","F","F","F","F","F","F","F","F","F","F","F","F","F","F","F","F","F","F","F","F","F","F","F","F","F","F","F","F","F","F","F","F","F","F","F","F","F","F","F","F","F","F","F","F","F","F","F","F","F","F","F","F","F","F","F","F","F","F","F","F","F","F","F","F","F","F","F","F","F","F","F","F","F","F","F","F","F","F","F","F","F","F","F","F","F","F","F","F","F","F","F","F","F","F","F","F","F","F","F","F","F","?","E","E","E","E","E","E","E","E","E","E","E","E","E","F","F","F","F","F","?","?","?","?","G","G","G","G","G","G","G","G","G","?","?","?","?","?","?","?","?","?","?","?","?","?","?","?","?","?","?","?","?","?","?","?","?","?","?","?","?","?","P","?","?","?","?","?","?","?","?","?","?","?","?","?","?","?","?","?","?","?","?","?","?","?","Q","Q","Q","Q","Q","Q","Q","Q","Q","Q","Q","Q","Q","Q","Q","Q","Q","Q","Q","Q","Q","Q","Q","Q","Q","Q","Q","Q","Q","Q","Q","Q","Q","Q","Q","Q","Q","Q","Q","Q","Q","Q","Q","Q","Q","Q","Q","Q","Q","Q","Q","Q","Q","Q","Q","Q","Q","Q","Q","Q","Q","Q","Q","Q","Q","Q","Q","Q","Q","Q","Q","Q","Q","Q","Q","Q","Q","Q","Q","Q","Q","Q","Q","Q","Q","Q","Q","Q","Q","Q","Q","Q","Q","Q","Q","Q","Q","Q","Q","Q","Q","Q","Q","Q","Q","Q","Q","Q","Q","Q","Q","Q","Q","Q","Q","Q","Q","Q","Q","Q","Q","Q","Q","Q","Q","Q","Q","Q","Q","Q","Q","Q","Q","Q","Q","Q","Q","Q","Q","Q","Q","Q","Q","Q","Q","Q","Q","Q","Q","Q","Q","Q","Q","Q","Q","Q","Q","Q","Q","Q","Q","Q","Q","Q","Q","Q","Q","Q","Q","Q","Q","Q","Q","Q","Q","Q","Q","Q","Q","Q","Q","Q","P","?","?","E","E","?","D","?","?","?","?","?","?","?","?","?","?","?","?","?","?","?","?","?","?","?","?","?","?","?","?","?","?","?","?","C","C","C","C","C","C","C","C","C","C","C","C","C","C","C","C","C","C","C","C","C","C","C","C","C","C","C","C","C","C","C","C","C","C","C","C","C","C","C","C","C","C","C","C","C","C","C","C","C","C","C","C","C","C","C","C","C","C","C","C","C","C","C","C","C","C","C","C","C","C","C","C","C","C","C","C","C","C","C","C","C","C","C","C","C","C","C","C","C","C","C","C","C","C","C","C","C","C","C","C","C","C","C","C","C","C","C","C","C","C","C","C","C","C","C","C","C","C","C","C","C","C","C","C","C","C","C","C","C","C","C","C","C","C","C","C","C","C","C","C","C","C","C","C","C","C","C","C","C","C","C","C","C","C","C","C","C","C","C","C","C","C","C","C","C","C","C","C","C","C","C","C","C","C","C","C","C","C","C","C","C","C","C","C","C","C","C","C","C","C","C","C","C","D","?","?","?","?","?","N","N","N","N","N","N","N","N","N","N","N","N","N","N","N","N","N","N","?","O","O","O","O","O","O","O","O","O","O","O","O","O","O","O","?","?","?","?","?","?","?","?","?","?","P","P","P","P","P","P","P","P","P","P","P","P","P","P","P","P","P","P","P","P","P","P","P","P","P","P","P","P","P","P","P","P","P","P","P","P","P","P","P","P","P","P","P","P","P","P","P","P","P","P","P","P","?","?","?","Y","Y","Y","Y","Y","Y","Y","Y","Y","Y","Y","Y","Y","Y","Y","Y","Y","Y","Y","Y","Y","Y","Y","Y","Y","Y","Y","Y","Y","Y","Y","Y","Y","Y","Y","?","X","X","X","X","X","X","X","X","X","X","X","X","X","X","X","X","X","X","X","X","X","X","X","X","X","X","X","X","X","X","X","X","X","X","X","X","X","X","X","X","X","X","X","X","X","X","X","X","X","X","X","X","X","X","X","X","X","X","X","X","X","X","X","X","X","X","X","X","X","X","X","X","X","X","X","X","X","X","X","X","X","X","X","X","X","X","X","X","X","X","X","X","X","X","X","X","X","X","X","X","X","X","X","X","X","X","X","X","X","X","X","X","X","X","X","X","X","X","X","X","X","X","Y","?","Z","?","?","?","?","?","?","?","?","?","?","?","?","?","?","?","?","?","?","?","Z","Z","Z","Z","Z","Z","Z","Z","Z","Z","Z","Z","Z","Z","Z","Z","Z","Z","Z","Z","Z","Z","Z","Z","Z","Z","Z","Z","Z","Z","Z","Z","Z","Z","Z","Z","Z","Z","Z","Z","Z","Z","Z","Z","Z","Z","Z","Z","Z","Z","Z","Z","Z","Z","Z","Z","Z","Z","Z","Z","Z","Z","Z","Z","Z","Z","Z","Z","Z","Z","Z","Z","Z","Z","Z","Z","Z","Z","Z","Z","Z","Z","Z","Z","Z","Z","Z","Z","Z","Z","Z","Z","Z","Z","Z","Z","Z","Z","Z","Z","Z","Z","Z","Z","Z","Z","Z","Z","Z","Z","Z","Z","Z","Z","Z","Z","Z","Z","Z","Z","Z","Z","Z","Z","Z","Z","Z","Z","Z","Z","?","?","P","P","?","?","?","?","?","?","?","?","?","?","?","?","?","?","?","?","?","?","?","?","?","F","?","?","E","E","E","E","E","E","E","E","E","E","E","E","E","E","E","E","E","E","E","E","E","E","E","E","E","E","E","E","E","E","E","E","E","E","E","E","E","E","E","E","E","E","E","E","E","E","E","E","E","E","E","E","E","E","E","E","E","E","E","E","E","E","E","E","E","E","E","E","E","E","E","E","E","E","E","E","E","E","E","E","E","E","E","E","E","E","E","E","E","E","E","E","E","E","E","E","E","D","D","D","?","?","?","?","?","?","?","?","K","K","K","K","K","K","K","K","K","K","K","K","K","K","K","K","K","K","K","K","K","K","L","L","M","N","N","N","?","?","?","?","?","?","?","?","?","?","?","?","?","?","?","?","?","?","?","?","?","?","?","N","N","?","O","?","?","?","?","?","?","?","?","?","?","?","?","?","?","?","?","?","?","?","?","?","?","?","?","?","?","?","?","?","?","?","?","?","?","N","?","?","O","O","O","O","O","O","O","O","O","O","O","O","O","O","O","O","O","O","O","O","O","O","O","O","O","O","O","O","O","O","O","O","O","O","?","?","?","N","N","N","N","N","N","N","N","N","N","N","N","N","N","N","N","N","N","N","N","N","N","N","N","N","N","N","N","N","N","N","N","N","N","N","N","N","N","N","N","N","N","N","N","N","N","N","N","N","N","N","N","N","N","N","N","N","N","N","N","N","N","N","N","N","N","N","N","N","N","N","N","N","N","N","N","N","N","N","M","M","?","?","?","?","?","?","?","?","?","?","?","?","?","?","?","?","?","?","?","?","?","?","?","?","?","?","?","?","B","B","B","B","B","B","B","B","B","B","B","B","B","B","B","B","B","B","B","B","B","B","B","B","B","B","B","B","B","B","B","B","B","B","B","B","B","B","B","B","B","B","B","B","B","B","B","B","B","B","B","B","B","B","B","B","B","B","B","B","B","B","B","B","B","B","B","B","B","B","B","B","B","B","B","B","B","B","B","B","B","B","B","B","B","B","B","B","B","B","B","B","B","B","B","B","B","B","B","B","B","B","B","B","B","B","B","B","?","?","?","?","?","K","K","K","K","K","K","K","K","?","?","L","L","L","L","L","L","L","L","L","L","L","L","L","L","L","L","L","L","?","M","M","?","N","N","N","N","N","N","N","N","N","N","N","N","N","N","N","N","N","N","N","N","N","N","N","N","N","N","N","N","N","?","O","O","?","?","?","?","?","?","?","?","?","?","Q","Q","Q","Q","Q","Q","Q","Q","Q","Q","Q","Q","Q","Q","Q","Q","Q","Q","Q","Q","Q","Q","Q","Q","Q","Q","?","?","R","R","R","R","R","R","R","R","R","R","R","R","R","R","R","R","R","R","R","R","R","R","R","R","R","R","R","R","R","R","R","R","R","R","R","R","R","R","R","R","R","R","R","R","R","R","R","R","R","R","R","R","R","R","R","R","R","R","R","R","R","R","R","R","R","R","R","R","R","R","R","R","R","R","R","R","R","R","R","R","R","R","R","R","R","R","R","R","R","R","R","R","R","R","R","R","R","R","R","R","R","R","R","R","R","R","R","R","R","R","R","R","R","R","R","R","R","R","R","R","R","R","R","R","R","R","R","R","R","R","R","R","R","R","R","R","R","R","R","R","R","R","R","R","R","R","R","R","R","R","R","R","R","R","R","R","R","R","R","R","R","R","R","R","R","R","R","R","R","R","R","R","R","R","R","R","R","R","R","R","R","R","R","R","R","R","R","R","R"],"t":[35,47,67,84,101,117,134,151,167,184,200,217,233,250,267,283,300,317,334,350,367,384,400,416,433,450,467,483,500,517,533,549,567,583,600,616,632,650,666,683,699,716,733,750,767,783,803,817,833,850,866,882,900,916,932,950,966,983,999,1016,1032,1049,1066,1083,1099,1116,1133,1149,1166,1182,1199,1216,1232,1250,1266,1282,1299,1316,1332,1349,1366,1383,1399,1415,1432,1449,1466,1483,1499,1515,1532,1549,1566,1582,1599,1616,1632,1649,1666,1682,1698,1716,1732,1749,1765,1781,1798,1816,1832,1849,1866,1882,1899,1916,1932,1949,1965,1982,1999,2015,2032,2049,2065,2082,2099,2115,2132,2149,2165,2182,2199,2215,2231,2248,2265,2282,2298,2315,2331,2348,2365,2381,2398,2415,2432,2448,2465,2482,2498,2515,2531,2547,2564,2582,2598,2614,2631,2648,2664,2681,2698,2715,2731,2747,2765,2781,2798,2815,2831,2848,2864,2881,2898,2914,2931,2948,2965,2981,2997,3014,3031,3048,3064,3081,3097,3114,3131,3147,3164,3181,3197,3214,3230,3248,3264,3281,3297,3314,3331,3347,3364,3380,3397,3414,3430,3447,3464,3481,3497,3514,3531,3547,3565,3582,3597,3613,3630,3647,3663,3680,3697,3713,3730,3747,3763,3780,3797,3813,3830,3847,3864,3880,3897,3914,3930,3947,3963,3980,3997,4014,4030,4046,4063,4080,4096,4113,4130,4146,4163,4180,4196,4213,4230,4246,4264,4280,4296,4313,4330,4346,4363,4379,4396,4413,4429,4447,4463,4479,4496,4513,4529,4546,4563,4580,4596,4612,4630,4646,4663,4679,4696,4713,4729,4746,4762,4779,4796,4812,4829,4846,4862,4879,4896,4912,4929,4946,4962,4979,4996,5013,5029,5046,5062,5079,5096,5112,5129,5146,5162,5179,5196,5212,5229,5245,5262,5279,5296,5312,5329,5345,5362,5379,5395,5412,5429,5445,5462,5479,5495,5512,5529,5545,5562,5579,5595,5612,5628,5646,5665,5679,5696,5712,5728,5746,5762,5779,5795,5812,5829,5845,5862,5878,5895,5911,5928,5945,5961,5978,5995,6011,6028,6045,6061,6078,6095,6112,6129,6147,6162,6178,6195,6212,6228,6245,6261,6278,6295,6312,6328,6345,6362,6378,6395,6411,6428,6445,6461,6478,6495,6511,6528,6545,6561,6578,6594,6612,6628,6645,6661,6678,6695,6711,6728,6745,6761,6779,6794,6812,6828,6845,6862,6878,6894,6911,6928,6944,6961,6978,6995,7012,7028,7044,7062,7078,7094,7111,7128,7144,7161,7177,7194,7210,7227,7244,7261,7277,7294,7311,7328,7344,7360,7378,7394,7410,7427,7444,7460,7477,7494,7511,7527,7544,7561,7577,7593,7611,7627,7644,7660,7677,7694,7710,7727,7744,7760,7777,7793,7811,7827,7843,7861,7877,7893,7910,7927,7944,7960,7977,7994,8010,8026,8043,8060,8077,8093,8110,8127,8143,8160,8177,8193,8210,8227,8243,8260,8276,8293,8310,8326,8343,8360,8376,8393,8410,8427,8443,8459,8476,8493,8510,8527,8544,8560,8576,8593,8609,8626,8643,8659,8676,8693,8709,8726,8743,8759,8776,8793,8809,8826,8843,8859,8876,8892,8909,8926,8942,8959,8976,8993,9009,9026,9042,9059,9076,9092,9109,9126,9142,9159,9176,9192,9209,9226,9243,9259,9276,9292,9309,9326,9342,9359,9375,9392,9409,9426,9442,9459,9475,9492,9509,9526,9542,9559,9575,9592,9609,9625,9642,9659,9675,9692,9709,9725,9742,9758,9775,9792,9808,9825,9842,9858,9875,9892,9908,9925,9942,9958,9975,9992,10008,10025,10042,10058,10075,10092,10108,10125,10142,10159,10175,10191,10208,10225,10242,10258,10275,10292,10308,10325,10342,10358,10375,10392,10408,10425,10442,10458,10474,10491,10508,10525,10541,10558,10574,10591,10608,10625,10641,10658,10674,10691,10708,10724,10741,10758,10774,10791,10808,10825,10841,10858,10874,10891,10908,10925,10941,10957,10974,10991,11008,11024,11041,11057,11074,11091,11107,11124,11141,11157,11174,11191,11208,11224,11241,11257,11274,11291,11307,11324,11340,11357,11374,11390,11407,11426,11441,11458,11474,11490,11508,11524,11540,11557,11574,11590,11607,11624,11641,11657,11674,11691,11707,11723,11740,11757,11773,11790,11807,11823,11840,11857,11874,11890,11907,11923,11940,11957,11974,11990,12007,12023,12040,12057,12073,12090,12107,12123,12140,12156,12173,12190,12207,12224,12240,12256,12273,12289,12306,12324,12341,12357,12373,12390,12407,12424,12440,12456,12474,12490,12507,12523,12540,12556,12574,12590,12606,12623,12640,12656,12674,12690,12706,12723,12740,12757,12773,12789,12806,12823,12840,12856,12874,12890,12906,12923,12939,12956,12972,12989,13006,13022,13039,13056,13072,13089,13106,13122,13139,13156,13173,13189,13206,13223,13239,13256,13272,13289,13306,13322,13339,13356,13372,13389,13405,13422,13439,13455,13472,13489,13506,13522,13539,13555,13572,13588,13606,13622,13638,13655,13672,13688,13705,13721,13739,13755,13772,13788,13805,13822,13839,13855,13872,13888,13905,13922,13938,13955,13972,13988,14005,14022,14039,14055,14072,14089,14105,14122,14138,14155,14172,14188,14205,14221,14238,14255,14271,14288,14305,14322,14338,14355,14371,14388,14405,14422,14438,14454,14471,14488,14505,14522,14538,14555,14571,14588,14605,14621,14638,14654,14671,14688,14705,14721,14738,14754,14771,14787,14805,14821,14838,14854,14871,14888,14904,14921,14937,14954,14971,14988,15004,15021,15037,15054,15071,15088,15104,15121,15137,15154,15171,15188,15204,15221,15237,15254,15271,15287,15304,15321,15338,15354,15370,15388,15404,15421,15437,15454,15471,15487,15504,15521,15537,15554,15570,15587,15604,15621,15637,15654,15671,15687,15703,15720,15737,15754,15771,15787,15804,15820,15837,15853,15870,15887,15903,15920,15937,15953,15970,15987,16004,16020,16037,16053,16070,16087,16103,16120,16136,16153,16170,16186,16203,16220,16236,16253,16270,16286,16303,16320,16336,16353,16370,16387,16403,16420,16436,16453,16470,16486,16503,16520,16537,16553,16569,16586,16603,16619,16636,16653,16669,16686,16703,16719,16736,16753,16769,16786,16803,16819,16836,16853,16869,16886,16903,16919,16936,16952,16969,16986,17003,17019,17036,17053,17069,17086,17102,17119,17136,17153,17169,17186,17203,17219,17236,17252,17269,17286,17302,17319,17336,17353,17369,17386,17403,17419,17435,17452,17469,17485,17503,17519,17536,17552,17569,17585,17602,17619,17635,17652,17669,17685,17702,17719,17735,17752,17768,17786,17802,17819,17835,17852,17868,17885,17902,17919,17936,17952,17969,17986,18002,18019,18035,18051,18069,18085,18102,18118,18135,18151,18168,18185,18202,18218,18235,18252,18269,18285,18302,18318,18335,18352,18368,18385,18402,18419,18435,18452,18469,18484,18502,18519,18535,18551,18568,18585,18601,18618,18635,18652,18668,18685,18701,18718,18734,18751,18769,18784,18801,18818,18834,18851,18868,18885,18901,18918,18934,18951,18968,18984,19001,19017,19034,19051,19067,19084,19101,19117,19134,19150,19167,19184,19201,19217,19234,19251,19267,19284,19301,19318,19334,19350,19367,19384,19401,19417,19434,19451,19467,19484,19500,19518,19534,19550,19567,19584,19601,19617,19634,19651,19667,19683,19700,19717,19733,19750,19767,19784,19800,19817,19834,19850,19867,19883,19900,19917,19934,19950,19967,19984,20000,20017,20033,20050,20066,20083,20100,20116,20134,20150,20167,20184,20200,20217,20233,20250,20267,20283,20300,20316,20333,20350,20366,20383,20400,20417,20433,20450,20466,20483,20500,20516,20533,20549,20566,20583,20600,20616,20634,20651,20667,20683,20700,20716,20733,20749,20766,20783,20800,20816,20833,20850,20866,20883,20900,20916,20933,20949,20966,20983,20999,21016,21033,21049,21066,21082,21099,21116,21133,21149,21166,21183,21199,21216,21233,21249,21266,21283,21299,21315,21333,21349,21366,21382,21399,21416,21433,21449,21466,21483,21499,21516,21536,21549,21565,21582,21599,21616,21632,21649,21665,21682,21699,21715,21732,21749,21765,21782,21799,21815,21832,21848,21865,21882,21899,21915,21932,21949,21965,21982,21999,22015,22032,22049,22065,22082,22098,22115,22132,22148,22165,22182,22200,22215,22231,22248,22265,22282,22298,22315,22331,22353,22365,22382,22399,22416,22432,22448,22466,22482,22499,22515,22532,22548,22566,22582,22599,22615,22632,22648,22665,22682,22699,22715,22732,22749,22765,22782,22798,22814,22832,22849,22865,22881,22898,22914,22931,22948,22965,22981,22998,23014,23031,23048,23065,23081,23098,23115,23131,23148,23164,23181,23198,23214,23231,23247,23264,23281,23298,23314,23331,23348,23364,23381,23398,23414,23431,23447,23464,23481,23497,23514,23531,23547,23564,23581,23597,23614,23631,23647,23664,23681,23697,23714,23730,23747,23764,23781,23797,23814,23830,23847,23864,23881,23897,23914,23930,23947,23964,23980,23997,24013,24031,24047,24064,24080,24097,24114,24130,24147,24163,24180,24197,24213,24230,24247,24263,24280,24297,24314,24330,24347,24363,24380,24397,24413,24431,24447,24463,24480,24497,24513,24530,24547,24564,24580,24596,24613,24630,24646,24663,24680,24696,24713,24729,24747,24763,24779,24796,24813,24830,24846,24863,24879,24896,24913,24930,24946,24963,24980,24996,25013,25030,25046,25063,25079,25096,25112,25129,25146,25163,25179,25196,25213,25229,25246,25262,25279,25296,25312,25329,25346,25362,25379,25395,25412,25429,25446,25462,25479,25496,25512,25529,25546,25562,25579,25595,25613,25629,25645,25662,25678,25696,25712,25729,25745,25762,25779,25796,25812,25829,25846,25862,25879,25895,25912,25929,25946,25962,25979,25996,26012,26028,26046,26062,26079,26095,26112,26129,26146,26162,26178,26196,26211,26229,26246,26262,26279,26295,26312,26329,26345,26362,26378,26395,26412,26428,26445,26461,26478,26495,26512,26529,26545,26562,26578,26595,26611,26628,26645,26661,26678,26695,26711,26728,26745,26761,26778,26795,26811,26828,26845,26861,26878,26894,26911,26928,26944,26961,26978,26994,27011,27028,27044,27062,27077,27095,27111,27128,27145,27161,27178,27194,27211,27227,27244,27261,27277,27294,27311,27327,27344,27361,27377,27394,27411,27427,27444,27461,27477,27494,27511,27527,27544,27561,27577,27594,27611,27628,27644,27661,27678,27693,27710,27728,27744,27760,27777,27794,27811,27827,27844,27861,27877,27894,27910,27927,27944,27961,27977,27994,28010,28027,28043,28061,28077,28094,28111,28127,28144,28161,28176,28193,28210,28227,28244,28260,28277,28294,28310,28327,28343,28360,28376,28394,28410,28427,28443,28460,28477,28496,28511,28527,28543,28560,28576,28593,28610,28626,28643,28660,28677,28693,28710,28727,28743,28760,28776,28793,28809,28827,28843,28859,28877,28893,28910,28926,28943,28959,28976,28993,29009,29026,29043,29060,29076,29093,29111,29127,29143,29159,29176,29193,29209,29226,29243,29259,29276,29293,29310,29326,29343,29359,29376,29393,29409,29426,29443,29459,29476,29494,29510,29526,29543,29560,29576,29592,29609,29626,29643,29659,29676,29692,29709,29726,29743,29759,29776,29793,29809,29826,29842,29859,29876,29892,29909,29926,29942,29959,29976,29992,30009,30025,30042,30059,30075,30092,30109,30125,30142,30159,30175,30194,30208,30225,30242,30258,30275,30292,30308,30325,30342,30358,30375,30392,30409,30425,30442,30458,30475,30492,30508,30525,30541,30558,30575,30591,30608,30624,30641,30658,30675,30691,30708,30724,30742,30759,30776,30794,30808,30825,30841,30858,30875,30891,30909,30925,30942,30958,30975,30992,31008,31025,31041,31058,31074,31091,31108,31125,31141,31158,31174,31191,31208,31224,31241,31258,31274,31291,31308,31324,31341,31358,31374,31391,31408,31424,31441,31458,31474,31491,31507,31524,31541,31557,31574,31591,31607,31624,31641,31657,31674,31691,31707,31724,31741,31757,31774,31790,31807,31824,31840,31857,31874,31891,31907,31925,31940,31957,31973,31991,32007,32023,32041,32057,32073,32091,32107,32123,32141,32159,32174,32190,32207,32223,32240,32257,32274,32291,32309,32323,32341,32357,32373,32390,32407,32423,32440,32457,32474,32490,32507,32524,32540,32557,32573,32590,32606,32624,32640,32657,32673,32690,32707,32723,32740,32757,32773,32790,32806,32823,32840,32857,32873,32890,32906,32923,32940,32956,32973,32990,33006,33023,33039,33057,33073,33090,33106,33123,33139,33156,33172,33190,33206,33222,33240,33256,33273,33289,33306,33323,33339,33356,33373,33389,33406,33422,33439,33456,33472,33489,33506,33522,33539,33556,33573,33589,33606,33623,33639,33655,33672,33689,33705,33722,33739,33756,33772,33789,33805,33822,33839,33855,33872,33889,33906,33922,33939,33956,33972,33989,34005,34022,34039,34056,34072,34089,34106,34122,34139,34156,34172,34189,34206,34222,34238,34256,34272,34289,34306,34322,34339,34355,34372,34389,34405,34422,34438,34455,34472,34489,34505,34522,34539,34555,34572,34588,34605,34621,34638,34655,34671,34688,34705,34722,34738,34754,34771,34788,34805,34821,34838,34855,34871,34888,34905,34921,34938,34954,34972,34988,35004,35022,35038,35054,35072,35088,35105,35121,35138,35154,35171,35188,35205,35221,35238,35254,35271,35288,35304,35321,35338,35354,35371,35388,35405,35421,35437,35454,35471,35488,35504,35521,35538,35554,35570,35587,35604,35621,35637,35654,35671,35688,35704,35721,35738,35754,35771,35787,35804,35820,35837,35854,35870,35887,35904,35920,35937,35954,35970,35987,36004,36021,36037,36054,36070,36087,36104,36120,36137,36154,36171,36187,36203,36221,36237,36253,36271,36287,36303,36320,36337,36353,36370,36387,36403,36420,36436,36453,36470,36487,36503,36520,36536,36553,36570,36586,36604,36620,36637,36653,36670,36688,36704,36720,36737,36753,36770,36787,36803,36819,36836,36853,36869,36886,36903,36920,36936,36953,36970,36986,37003,37019,37036,37053,37069,37086,37103,37120,37136,37152,37170,37186,37203,37219,37236,37253,37270,37286,37302,37319,37336,37352,37369,37386,37403,37419,37438,37453,37469,37486,37503,37519,37536,37553,37569,37586,37603,37619,37636,37652,37669,37685,37702,37719,37735,37752,37769,37785,37803,37819,37836,37852,37869,37885,37902,37919,37935,37952,37969,37985,38002,38019,38036,38052,38069,38086,38102,38119,38136,38152,38168,38185,38202,38218,38235,38252,38268,38285,38302,38318,38335,38352,38368,38385,38402,38419,38435,38452,38468,38485,38501,38519,38535,38552,38569,38585,38601,38618,38635,38652,38668,38685,38702,38718,38735,38751,38768,38786,38804,38819,38836,38852,38869,38888,38902,38918,38934,38951,38968,38984,39002,39018,39035,39051,39068,39085,39101,39118,39135,39151,39168,39184,39201,39218,39235,39251,39268,39284,39301,39317,39335,39351,39367,39384,39401,39418,39434,39451,39467,39484,39501,39518,39534,39551,39567,39584,39601,39617,39634,39651,39667,39684,39701,39718,39734,39751,39767,39784,39801,39817,39834,39850,39867,39884,39901,39917,39934,39951,39967,39984,40002,40017,40034,40050,40067,40084,40101,40117,40133,40150,40167,40184,40200,40217,40234,40251,40267,40283,40300,40317,40334,40350,40367,40383,40400,40417,40434,40451,40467,40484,40500,40517,40534,40550,40566,40583,40600,40617,40634,40650,40666,40684,40700,40716,40733,40750,40767,40783,40800,40816,40833,40850,40867,40883,40900,40916,40933,40949,40966,40983,41000,41016,41033,41050,41066,41082,41099,41116,41133,41150,41166,41183,41199,41216,41233,41249,41266,41283,41300,41316,41333,41349,41366,41382,41400,41416,41432,41450,41466,41482,41499,41516,41532,41549,41566,41582,41599,41616,41632,41650,41667,41683,41700,41716,41733,41749,41765,41782,41799,41815,41832,41850,41866,41882,41900,41916,41932,41949,41966,41983,41999,42016,42033,42049,42066,42082,42099,42116,42132,42148,42166,42182,42198,42216,42233,42248,42265,42282,42299,42315,42332,42349,42365,42382,42399,42415,42431,42448,42465,42481,42499,42515,42532,42548,42565,42582,42599,42615,42632,42649,42665,42682,42698,42716,42732,42749,42765,42781,42799,42815,42832,42848,42865,42881,42899,42915,42932,42949,42965,42982,42998,43015,43031,43048,43065,43081,43098,43114,43131,43148,43165,43182,43198,43215,43231,43248,43264,43281,43298,43314,43331,43348,43365,43381,43398,43414,43431,43448,43465,43481,43497,43514,43531,43548,43564,43581,43598,43614,43631,43648,43664,43681,43697,43714,43731,43748,43764,43781,43798,43814,43831,43848,43864,43880,43897,43914,43931,43947,43964,43980,43997,44014,44030,44047,44064,44080,44097,44114,44130,44147,44164,44180,44197,44213,44230,44247,44264,44280,44297,44314,44330,44347,44364,44381,44397,44414,44430,44447,44464,44480,44497,44513,44530,44546,44563,44580,44596,44613,44630,44646,44663,44680,44696,44713,44730,44746,44763,44780,44797,44813,44830,44847,44863,44880,44896,44913,44930,44946,44963,44980,44996,45014,45030,45047,45063,45080,45097,45113,45129,45146,45163,45180,45196,45213,45229,45246,45263,45279,45296,45313,45329,45346,45363,45380,45396,45412,45429,45446,45462,45480,45496,45512,45529,45546,45563,45579,45596,45612,45629,45646,45663,45679,45696,45712,45729,45746,45762,45779,45796,45812,45829,45845,45862,45879,45896,45912,45929,45946,45962,45979,45995,46012,46029,46046,46062,46079,46096,46112,46129,46146,46162,46179,46195,46212,46228,46246,46261,46279,46295,46312,46328,46345,46361,46378,46395,46412,46429,46445,46462,46478,46495,46513,46529,46545,46562,46579,46595,46611,46628,46645,46662,46678,46695,46711,46729,46745,46761,46778,46795,46811,46828,46845,46861,46878,46895,46912,46928,46945,46962,46978,46995,47011,47028,47044,47061,47078,47095,47111,47128,47144,47162,47178,47194,47212,47228,47245,47261,47278,47295,47311,47328,47345,47361,47378,47394,47411,47428,47445,47461,47478,47494,47511,47528,47545,47561,47580,47595,47611,47628,47644,47661,47678,47694,47710,47728,47744,47761,47777,47794,47811,47827,47844,47861,47878,47894,47911,47927,47944,47961,47978,47994,48011,48027,48044,48061,48077,48093,48111,48127,48144,48161,48177,48194,48210,48227,48244,48261,48277,48294,48311,48327,48344,48361,48377,48393,48410,48427,48444,48461,48477,48494,48510,48527,48544,48560,48576,48593,48610,48627,48643,48660,48677,48694,48710,48726,48744,48760,48777,48793,48810,48827,48843,48860,48877,48894,48910,48927,48943,48960,48977,48993,49010,49026,49043,49060,49077,49094,49110,49126,49143,49160,49176,49193,49210,49226,49243,49260,49276,49293,49309,49327,49343,49360,49376,49393,49409,49426,49443,49460,49476,49493,49510,49526,49543,49560,49576,49593,49609,49626,49642,49659,49676,49692,49709,49726,49742,49759,49776,49793,49809,49826,49842,49859,49876,49892,49909,49926,49942,49959,49975,49992,50009,50026,50042,50059,50076,50092,50109,50126,50142,50159,50175,50192,50209,50225,50242,50260,50275,50292,50309,50325,50342,50359,50375,50392,50409,50425,50442,50459,50475,50492,50509,50525,50542,50559,50575,50592,50608,50625,50642,50658,50675,50692,50709,50725,50742,50758,50775,50792,50808,50825,50841,50858,50875,50892,50908,50925,50942,50958,50975,50991,51008,51025,51042,51058,51075,51091,51108,51124,51141,51158,51175,51191,51208,51225,51241,51258,51274,51291,51308,51324,51341,51358,51375,51391,51408,51424,51441,51457,51474,51491,51508,51524,51541,51558,51574,51591,51608,51624,51641,51658,51674,51691,51708,51724,51741,51757,51774,51790,51807,51824,51841,51857,51874,51891,51907,51925,51941,51957,51973,51991,52007,52024,52041,52057,52074,52090,52107,52124,52140,52157,52174,52190,52207,52224,52240,52257,52274,52290,52307,52324,52340,52357,52373,52390,52407,52424,52440,52457,52474,52491,52507,52523,52540,52557,52573,52590,52606,52623,52640,52656,52673,52690,52706,52723,52740,52757,52773,52790,52806,52823,52840,52857,52873,52890,52906,52923,52940,52956,52973,52990,53006,53023,53040,53056,53073,53090,53106,53123,53140,53156,53173,53189,53206,53223,53240,53256,53273,53289,53306,53324,53339,53356,53373,53389,53406,53423,53439,53456,53472,53489,53506,53523,53539,53556,53573,53589,53606,53622,53639,53656,53673,53689,53706,53722,53739,53756,53772,53789,53806,53823,53839,53856,53872,53889,53906,53923,53939,53956,53972,53989,54006,54022,54039,54055,54072,54089,54105,54122,54139,54155,54172,54189,54205,54222,54239,54256,54272,54289,54305,54322,54339,54355,54372,54389,54405,54422,54439,54455,54472,54488,54505,54522,54539,54555,54572,54589,54605,54622,54638,54655,54672,54688,54705,54722,54739,54755,54772,54788,54805,54822,54839,54855,54871,54888,54905,54922,54939,54955,54972,54988,55005,55021,55038,55055,55072,55088,55105,55121,55138,55154,55171,55188,55204,55221,55238,55254,55271,55288,55305,55321,55338,55355,55371,55388,55405,55421,55437,55454,55471,55488,55506,55521,55537,55554,55571,55588,55604,55621,55638,55654,55670,55687,55704,55721,55737,55754,55770,55789,55804,55822,55837,55854,55872,55888,55904,55921,55938,55955,55971,55987,56005,56020,56038,56054,56071,56087,56104,56121,56137,56154,56171,56187,56204,56220,56237,56254,56270,56287,56304,56320,56337,56354,56371,56388,56404,56420,56437,56453,56470,56487,56503,56520,56537,56553,56570,56587,56604,56620,56637,56654,56670,56687,56704,56721,56737,56753,56770,56787,56803,56820,56837,56853,56870,56887,56905,56921,56937,56953,56970,56987,57003,57020,57037,57053,57070,57087,57103,57120,57137,57153,57170,57187,57203,57220,57237,57254,57270,57287,57303,57320,57337,57354,57370,57386,57403,57420,57437,57453,57470,57486,57503,57519,57536,57553,57569,57586,57602,57619,57636,57654,57669,57687,57703,57719,57736,57753,57770,57786,57803,57822,57837,57853,57869,57886,57902,57920,57936,57952,57969,57986,58003,58019,58036,58053,58070,58086,58103,58119,58136,58153,58170,58186,58203,58220,58236,58253,58270,58286,58303,58319,58336,58353,58369,58386,58403,58419,58436,58453,58469,58486,58502,58519,58536,58552,58569,58586,58602,58619,58636,58652,58669,58685,58702,58719,58735,58752,58768,58785,58802,58818,58835,58852,58868,58885,58902,58918,58935,58952,58968,58985,59002,59018,59035,59051,59068,59085,59102,59118,59135,59151,59168,59185,59202,59218,59235,59251,59268,59285,59301,59318,59334,59351,59368,59385,59402,59418,59434,59452,59468,59484,59501,59518,59535,59551,59568,59584,59601,59617,59634,59651,59668,59684,59701,59717,59734,59751,59767,59784,59801,59817,59834,59851,59868,59884,59901,59917,59934,59951,59967,59984,60001,60017,60034,60051,60068,60084,60101,60117,60134,60150,60167,60184,60200,60217,60234,60251,60267,60284,60301,60321,60335,60351,60367,60384,60401,60417,60434,60451,60467,60484,60500,60517,60533,60550,60568,60584,60600,60617,60634,60651,60667,60684,60701,60717,60733,60750,60767,60784,60800,60817,60833,60850,60867,60883,60900,60917,60934,60950,60967,60984,61001,61017,61033,61050,61066,61083,61100,61116,61133,61150,61166,61183,61200,61217,61233,61250,61267,61283,61300,61316,61333,61350,61366,61383,61400,61416,61433,61450,61466,61483,61500,61516,61533,61550,61566,61583,61599,61617,61633,61649,61666,61683,61699,61718,61736,61753,61771,61784,61800,61817,61834,61851,61867,61884,61900,61917,61934,61950,61967,61983,62000,62018,62033,62050,62066,62082,62100,62116,62133,62149,62166,62183,62201,62217,62232,62250,62266,62283,62300,62315,62333,62349,62365,62382,62399,62415,62432,62449,62466,62483,62499,62515,62532,62549,62565,62582,62599,62615,62632,62648,62665,62682,62698,62716,62732,62749,62766,62782,62798,62816,62832,62849,62865,62882,62899,62915,62932,62949,62965,62982,62999,63016,63032,63049,63066,63081,63099,63115,63132,63148,63165,63182,63199,63215,63232,63249,63265,63282,63299,63315,63332,63349,63365,63381,63398,63415,63431,63448,63465,63482,63498,63515,63532,63548,63565,63582,63597,63614,63631,63648,63664,63681,63697,63714,63731,63748,63764,63781,63798,63814,63831,63848,63865,63881,63897,63914,63931,63948,63964,63981,63998,64014,64031,64047,64064,64081,64098,64114,64131,64147,64164,64180,64197,64214,64231,64248,64264,64281,64297,64314,64331,64348,64364,64380,64397,64414,64431,64447,64464,64481,64497,64514,64531,64547,64564,64581,64597,64614,64630,64647,64664,64681,64697,64714,64731,64747,64764,64781,64797,64814,64831,64847,64863,64880,64897,64913,64930,64947,64963,64981,64997,65014,65030,65046,65063,65080,65096,65113,65136,65147,65164,65181,65197,65213,65230,65247,65264,65280,65297,65314,65330,65347,65364,65380,65396,65413,65430,65447,65463,65480,65496,65513,65530,65546,65563,65580,65597,65613,65629,65646,65663,65680,65696,65713,65729,65746,65763,65779,65796,65813,65830,65847,65863,65879,65896,65913,65929,65946,65963,65980,65996,66013,66029,66046,66063,66079,66097,66113,66129,66146,66163,66180,66196,66213,66229,66246,66263,66280,66296,66312,66329,66346,66362,66379,66396,66412,66429,66446,66462,66479,66496,66512,66529,66546,66563,66579,66596,66612,66629,66646,66662,66679,66695,66712,66729,66745,66761,66779,66795,66812,66828,66845,66862,66879,66895,66912,66929,66945,66962,66978,66995,67012,67028,67046,67062,67079,67095,67112,67128,67146,67162,67178,67195,67212,67228,67245,67261,67278,67295,67312,67329,67345,67362,67379,67395,67412,67428,67445,67461,67478,67495,67512,67528,67546,67562,67578,67594,67611,67628,67644,67662,67678,67695,67711,67728,67745,67762,67778,67795,67812,67828,67844,67861,67878,67895,67912,67928,67944,67961,67978,67994,68011,68027,68044,68061,68077,68095,68111,68128,68144,68161,68177,68194,68211,68228,68244,68261,68277,68294,68311,68327,68344,68361,68377,68394,68411,68428,68443,68461,68477,68494,68510,68528,68544,68560,68577,68594,68611,68627,68644,68661,68677,68694,68710,68727,68744,68760,68777,68793,68810,68827,68844,68860,68877,68894,68910,68927,68944,68960,68976,68994,69010,69027,69044,69060,69076,69093,69110,69126,69143,69160,69176,69193,69210,69227,69244,69261,69278,69293,69310,69327,69344,69360,69377,69394,69410,69427,69443,69459,69476,69493,69510,69526,69543,69560,69576,69593,69610,69626,69643,69659,69676,69692,69709,69726,69743,69760,69776,69794,69809,69826,69843,69860,69876,69893,69910,69926,69943,69959,69976,69992,70009,70026,70043,70059,70076,70093,70109,70126,70143,70159,70176,70192,70209,70225,70242,70259,70276,70292,70309,70325,70342,70359,70376,70392,70409,70425,70442,70459,70475,70492,70509,70525,70542,70558,70576,70592,70609,70625,70642,70659,70677,70692,70709,70725,70742,70759,70776,70792,70808,70825,70842,70858,70875,70892,70908,70925,70941,70958,70975,70992,71008,71025,71042,71058,71075,71092,71108,71125,71142,71158,71175,71192,71209,71225,71242,71258,71275,71292,71308,71325,71341,71358,71375,71392,71408,71425,71441,71458,71475,71492,71508,71524,71541,71558,71575,71592,71608,71624,71641,71658,71674,71692,71708,71725,71741,71758,71774,71792,71808,71825,71841,71858,71875,71891,71907,71924,71941,71958,71974,71991,72007,72024,72041,72057,72074,72091,72107,72124,72141,72158,72175,72192,72208,72224,72241,72258,72275,72291,72307,72324,72341,72358,72374,72390,72408,72424,72440,72457,72474,72490,72507,72524,72540,72557,72574,72590,72607,72624,72641,72657,72674,72690,72707,72724,72740,72757,72774,72790,72807,72824,72841,72857,72873,72891,72907,72924,72942,72957,72973,72990,73007,73024,73040,73057,73074,73090,73107,73123,73140,73157,73173,73189,73206,73223,73240,73256,73274,73290,73307,73323,73340,73356,73373,73390,73406,73423,73440,73457,73473,73490,73506,73523,73539,73557,73574,73589,73607,73623,73639,73657,73674,73691,73707,73724,73742,73756,73773,73790,73806,73823,73839,73856,73873,73889,73906,73923,73939,73956,73973,73989,74006,74023,74039,74056,74073,74090,74107,74123,74140,74157,74173,74189,74206,74223,74239,74256,74273,74289,74306,74323,74339,74356,74372,74389,74406,74423,74439,74456,74472,74489,74507,74522,74539,74556,74572,74589,74606,74622,74639,74655,74672,74689,74706,74722,74739,74756,74771,74788,74805,74822,74839,74855,74872,74889,74905,74922,74938,74955,74972,74989,75005,75022,75038,75055,75072,75088,75105,75122,75139,75155,75172,75188,75205,75222,75238,75254,75272,75288,75305,75321,75338,75355,75372,75388,75405,75421,75438,75455,75471,75488,75504,75521,75538,75555,75572,75588,75604,75622,75638,75654,75672,75688,75704,75721,75738,75754,75771,75788,75805,75821,75838,75854,75871,75888,75904,75922,75939,75956,75971,75988,76004,76021,76037,76054,76071,76087,76104,76121,76138,76154,76171,76187,76204,76221,76238,76254,76271,76287,76304,76321,76338,76354,76371,76387,76404,76420,76437,76454,76470,76487,76505,76520,76538,76554,76570,76587,76604,76621,76637,76654,76670,76687,76704,76720,76737,76754,76770,76787,76803,76820,76837,76854,76870,76887,76903,76920,76937,76953,76970,76987,77003,77020,77037,77053,77070,77086,77104,77120,77137,77154,77170,77186,77203,77220,77237,77254,77270,77286,77304,77321,77338,77354,77373,77386,77403,77420,77436,77453,77470,77486,77503,77520,77536,77553,77570,77586,77603,77619,77637,77653,77669,77687,77703,77719,77736,77753,77770,77786,77803,77820,77836,77853,77870,77886,77902,77919,77936,77953,77969,77986,78003,78020,78036,78053,78070,78086,78102,78119,78136,78153,78169,78186,78202,78221,78237,78252,78269,78286,78302,78320,78336,78352,78370,78386,78402,78419,78436,78453,78469,78486,78503,78519,78536,78552,78569,78585,78603,78620,78635,78656,78670,78686,78703,78719,78736,78752,78769,78785,78803,78819,78835,78852,78868,78885,78902,78918,78936,78952,78968,78985,79002,79019,79035,79051,79068,79085,79102,79119,79136,79152,79169,79186,79202,79219,79235,79252,79269,79285,79302,79319,79335,79352,79369,79385,79401,79419,79436,79452,79468,79485,79502,79519,79535,79551,79568,79585,79602,79618,79635,79652,79668,79685,79701,79718,79735,79752,79768,79785,79802,79818,79835,79851,79868,79885,79901,79918,79934,79951,79967,79984,80001,80018,80034,80051,80068,80084,80101,80118,80134,80151,80168,80184,80201,80218,80236,80251,80268,80284,80301,80317,80334,80351,80368,80384,80401,80417,80434,80451,80467,80484,80501,80517,80534,80550,80567,80584,80600,80617,80634,80650,80668,80685,80701,80718,80734,80750,80768,80784,80801,80818,80834,80851,80868,80883,80900,80917,80934,80950,80967,80984,81001,81017,81034,81051,81067,81083,81100,81117,81134,81150,81167,81184,81200,81217,81233,81250,81267,81284,81300,81317,81334,81350,81367,81383,81400,81417,81433,81450,81467,81483,81500,81517,81533,81550,81567,81583,81599,81617,81633,81650,81666,81683,81700,81717,81733,81749,81766,81783,81800,81817,81833,81850,81867,81883,81900,81916,81933,81950,81966,81983,82000,82016,82034,82050,82066,82083,82100,82116,82133,82150,82167,82183,82200,82217,82233,82249,82266,82283,82299,82316,82332,82349,82366,82383,82399,82416,82433,82449,82466,82483,82499,82516,82533,82549,82565,82582,82599,82616,82633,82649,82667,82683,82699,82716,82733,82749,82766,82782,82799,82816,82832,82849,82866,82882,82899,82916,82932,82949,82966,82982,82999,83015,83033,83049,83065,83083,83099,83115,83132,83149,83165,83181,83198,83215,83232,83248,83265,83282,83298,83315,83331,83348,83365,83382,83398,83416,83432,83448,83465,83482,83499,83515,83532,83548,83565,83582,83598,83615,83632,83648,83665,83681,83698,83715,83731,83748,83765,83782,83798,83815,83831,83848,83865,83881,83898,83915,83931,83948,83965,83981,83998,84014,84031,84048,84064,84081,84098,84114,84131,84148,84165,84181,84198,84215,84231,84248,84265,84281,84298,84314,84331,84347,84364,84381,84397,84414,84431,84448,84464,84480,84497,84515,84530,84547,84569,84581,84598,84614,84630,84647,84664,84681,84697,84714,84731,84747,84764,84780,84797,84814,84830,84847,84864,84880,84897,84913,84930,84947,84964,84980,84997,85014,85031,85047,85063,85080,85097,85113,85130,85147,85164,85180,85197,85213,85230,85247,85264,85280,85297,85313,85330,85347,85363,85380,85396,85413,85430,85446,85463,85480,85497,85513,85530,85546,85563,85580,85596,85613,85630,85646,85663,85680,85696,85713,85730,85746,85763,85779,85796,85813,85829,85846,85863,85879,85896,85913,85929,85946,85963,85979,85996,86013,86029,86046,86063,86079,86096,86113,86129,86146,86163,86180,86196,86213,86229,86246,86263,86279,86296,86312,86329,86346,86362,86379,86395,86412,86429,86446,86462,86479,86496,86512,86529,86546,86562,86579,86595,86612,86629,86646,86662,86679,86695,86713,86729,86746,86762,86779,86795,86812,86829,86845,86862,86879,86895,86912,86929,86945,86961,86979,86995,87012,87028,87045,87062,87078,87095,87112,87128,87146,87162,87178,87195,87212,87229,87245,87262,87279,87295,87312,87329,87345,87361,87378,87395,87412,87428,87445,87462,87478,87495,87511,87528,87545,87561,87578,87595,87611,87628,87645,87662,87678,87694,87711,87728,87747,87761,87779,87795,87812,87828,87844,87862,87879,87896,87911,87928,87945,87961,87978,87994,88012,88029,88044,88062,88078,88094,88111,88128,88144,88162,88178,88194,88211,88228,88244,88261,88278,88294,88311,88327,88344,88361,88377,88394,88411,88427,88444,88461,88478,88495,88511,88528,88544,88561,88577,88594,88611,88628,88644,88660,88678,88694,88711,88728,88745,88761,88777,88794,88811,88827,88844,88861,88877,88893,88910,88927,88944,88960,88977,88994,89010,89027,89043,89061,89077,89094,89110,89127,89144,89160,89177,89194,89210,89228,89243,89260,89277,89294,89313,89327,89343,89360,89377,89393,89410,89427,89444,89460,89477,89493,89510,89526,89543,89560,89576,89593,89610,89627,89643,89660,89677,89693,89710,89726,89743,89760,89776,89793,89810,89826,89843,89859,89876,89893,89909,89926,89943,89959,89976,89993,90010,90026,90043,90059,90076,90093,90109,90126,90143,90160,90176,90193,90209,90226,90247,90260,90276,90293,90310,90326,90343,90359,90375,90393,90413,90426,90443,90460,90476,90493,90510,90526,90542,90560,90576,90593,90609,90626,90643,90660,90676,90693,90709,90726,90743,90759,90776,90792,90809,90825,90842,90859,90876,90892,90909,90926,90942,90959,90975,90992,91009,91026,91042,91058,91075,91091,91109,91125,91142,91158,91175,91192,91209,91225,91242,91259,91276,91292,91309,91325,91342,91359,91375,91391,91409,91425,91442,91459,91475,91492,91508,91525,91541,91558,91575,91592,91608,91625,91641,91658,91675,91691,91708,91725,91741,91758,91775,91791,91808,91825,91842,91858,91874,91891,91908,91924,91942,91958,91975,91991,92008,92024,92041,92058,92074,92091,92108,92124,92141,92158,92174,92191,92208,92224,92241,92258,92274,92291,92308,92324,92341,92357,92375,92391,92408,92424,92441,92457,92474,92491,92508,92524,92541,92558,92574,92591,92608,92624,92641,92658,92674,92691,92707,92724,92741,92757,92774,92790,92807,92824,92841,92857,92874,92890,92907,92924,92940,92957,92974,92991,93007,93023,93041,93057,93073,93090,93109,93124,93140,93157,93174,93191,93207,93224,93240,93257,93274,93290,93307,93324,93340,93356,93374,93390,93406,93424,93440,93456,93475,93491,93508,93524,93542,93557,93573,93590,93607,93624,93640,93657,93673,93690,93706,93723,93740,93757,93774,93790,93807,93823,93840,93856,93874,93890,93906,93923,93940,93956,93973,93990,94006,94023,94039,94057,94073,94090,94106,94123,94139,94156,94175,94189,94206,94223,94239,94256,94273,94290,94306,94322,94339,94356,94373,94389,94406,94422,94440,94456,94473,94489,94508,94523,94539,94556,94572,94589,94606,94623,94639,94656,94672,94689,94706,94723,94739,94755,94772,94789,94805,94822,94839,94855,94872,94889,94905,94922,94939,94955,94972,94989,95006,95022,95039,95056,95072,95088,95105,95122,95138,95155,95172,95188,95206,95222,95239,95255,95271,95290,95306,95322,95338,95355,95372,95388,95405,95421,95438,95455,95472,95489,95506,95522,95538,95555,95572,95588,95605,95622,95638,95655,95671,95688,95705,95722,95738,95755,95771,95788,95805,95821,95838,95855,95871,95888,95907,95921,95938,95955,95972,95988,96004,96022,96038,96054,96071,96088,96104,96121,96138,96155,96171,96188,96204,96221,96238,96254,96271,96288,96304,96321,96337,96355,96371,96387,96404,96421,96438,96454,96471,96487,96505,96521,96538,96554,96571,96587,96604,96621,96637,96654,96671,96687,96704,96721,96737,96754,96771,96787,96804,96820,96837,96854,96871,96887,96904,96920,96937,96953,96970,96987,97004,97022,97037,97054,97070,97087,97104,97121,97137,97154,97170,97187,97203,97220,97237,97254,97271,97287,97303,97320,97337,97353,97370,97387,97403,97421,97437,97454,97470,97487,97503,97520,97537,97553,97570,97586,97603,97620,97637,97653,97670,97687,97703,97720,97737,97753,97770,97786,97803,97820,97836,97853,97870,97889,97903,97921,97937,97953,97970,97987,98003,98020,98036,98052,98070,98086,98103,98119,98136,98153,98170,98186,98203,98219,98237,98253,98269,98286,98303,98319,98336,98353,98370,98386,98402,98419,98436,98452,98470,98486,98502,98519,98536,98553,98569,98586,98602,98619,98636,98652,98669,98686,98702,98719,98736,98752,98769,98786,98802,98819,98836,98852,98869,98886,98903,98919,98936,98952,98969,98985,99002,99019,99036,99052,99069,99085,99102,99119,99135,99152,99169,99185,99202,99219,99235,99252,99269,99285,99302,99319,99335,99352,99368,99385,99402,99418,99435,99452,99468,99485,99502,99518,99535,99551,99568,99585,99601,99618,99635,99651,99669,99685,99701,99718,99735,99751,99768,99785,99801,99818,99835,99851,99868,99885,99901,99918,99934,99951,99968,99985,100004,100018,100034,100051,100068,100085,100101,100118,100135,100151,100168,100185,100202,100218,100234,100251,100268,100285,100301,100318,100334,100351,100367,100385,100401,100418,100435,100451,100467,100484,100501,100518,100535,100551,100567,100585,100601,100617,100634,100651,100669,100685,100701,100718,100735,100751,100768,100784,100801,100818,100834,100851,100867,100884,100901,100917,100934,100951,100967,100984,101000,101017,101034,101050,101067,101083,101100,101117,101134,101150,101167,101185,101201,101217,101234,101251,101267,101284,101301,101317,101334,101350,101367,101384,101400,101417,101433,101450,101468,101483,101500,101517,101534,101550,101566,101584,101602,101616,101633,101650,101667,101683,101701,101717,101733,101750,101767,101783,101800,101817,101834,101850,101866,101884,101900,101917,101933,101950,101966,101983,102000,102016,102033,102050,102066,102083,102100,102117,102133,102149,102166,102183,102199,102216,102233,102249,102266,102283,102299,102316,102333,102350,102366,102383,102399,102416,102432,102449,102466,102483,102499,102516,102532,102550,102566,102583,102599,102615,102632,102649,102666,102683,102699,102716,102732,102749,102766,102782,102799,102816,102832,102849,102865,102882,102899,102915,102933,102949,102965,102982,102999,103015,103032,103049,103065,103082,103099,103115,103132,103148,103166,103181,103198,103215,103232,103249,103265,103282,103299,103316,103332,103349,103365,103382,103398,103415,103432,103449,103465,103482,103499,103515,103531,103549,103565,103582,103599,103615,103632,103649,103665,103682,103698,103715,103732,103748,103765,103782,103798,103815,103832,103848,103865,103882,103898,103917,103933,103950,103965,103981,103998,104015,104032,104048,104064,104081,104098,104114,104131,104148,104164,104181,104198,104216,104232,104248,104265,104282,104299,104315,104331,104348,104365,104381,104398,104415,104431,104448,104465,104481,104498,104514,104531,104548,104564,104581,104597,104614,104631,104648,104664,104681,104697,104714,104731,104747,104764,104781,104797,104814,104831,104848,104864,104881,104898,104914,104931,104947,104964,104980,104997,105014,105030,105047,105064,105080,105097,105114,105130,105147,105164,105181,105197,105214,105230,105247,105263,105280,105297,105314,105331,105347,105364,105381,105398,105414,105431,105447,105463,105480,105497,105514,105530,105547,105563,105581,105597,105614,105631,105647,105664,105680,105697,105714,105730,105747,105763,105781,105796,105813,105830,105848,105864,105880,105897,105913,105930,105946,105963,105979,105996,106013,106030,106047,106063,106080,106096,106113,106130,106146,106163,106180,106197,106213,106229,106247,106264,106280,106297,106313,106330,106346,106364,106380,106396,106413,106430,106446,106463,106480,106496,106512,106529,106547,106563,106580,106597,106613,106630,106647,106663,106680,106697,106713,106729,106746,106763,106779,106796,106812,106829,106845,106863,106879,106896,106912,106929,106946,106962,106979,106996,107013,107029,107046,107063,107079,107095,107112,107129,107145,107163,107179,107196,107212,107230,107246,107262,107279,107296,107312,107329,107346,107362,107378,107395,107412,107429,107445,107462,107479,107496,107512,107528,107545,107562,107578,107595,107611,107629,107646,107663,107678,107695,107712,107729,107746,107762,107779,107795,107812,107828,107845,107862,107878,107896,107911,107928,107946,107962,107978,107995,108011,108028,108044,108061,108078,108094,108111,108128,108145,108161,108178,108194,108212,108229,108245,108261,108278,108295,108311,108328,108344,108361,108378,108394,108412,108428,108445,108461,108477,108495,108511,108528,108545,108561,108577,108595,108611,108628,108644,108661,108677,108694,108711,108727,108744,108761,108778,108795,108810,108828,108844,108861,108878,108894,108911,108928,108944,108960,108977,108994,109010,109027,109045,109061,109077,109094,109111,109127,109144,109160,109177,109193,109210,109227,109244,109260,109277,109294,109311,109327,109344,109360,109377,109393,109410,109427,109444,109460,109477,109494,109510,109527,109543,109561,109577,109593,109610,109627,109643,109660,109677,109693,109710,109727,109743,109760,109777,109793,109810,109827,109843,109860,109877,109894,109910,109927,109943,109960,109976,109993,110010,110026,110043,110060,110076,110093,110110,110126,110143,110160,110176,110193,110210,110226,110243,110260,110276,110293,110310,110326,110343,110360,110376,110393,110410,110426,110443,110460,110476,110492,110509,110526,110543,110559,110576,110592,110609,110626,110642,110660,110676,110693,110710,110726,110743,110759,110776,110793,110809,110825,110842,110859,110876,110893,110909,110926,110942,110959,110976,110993,111009,111025,111042,111059,111075,111092,111109,111126,111143,111159,111176,111192,111209,111225,111242,111258,111275,111292,111309,111325,111342,111359,111375,111392,111409,111425,111442,111459,111475,111492,111509,111525,111542,111558,111575,111592,111608,111625,111642,111658,111675,111692,111709,111725,111742,111758,111775,111792,111808,111825,111841,111858,111875,111892,111910,111925,111942,111958,111975,111991,112008,112025,112041,112058,112075,112091,112108,112124,112141,112158,112175,112192,112208,112225,112241,112258,112275,112291,112308,112324,112341,112358,112374,112391,112408,112424,112441,112458,112474,112491,112508,112524,112541,112558,112574,112591,112608,112624,112641,112658,112674,112691,112707,112724,112741,112757,112774,112791,112808,112824,112841,112857,112874,112891,112907,112924,112941,112957,112974,112991,113007,113024,113040,113058,113074,113091,113108,113124,113140,113157,113174,113190,113207,113224,113240,113257,113274,113291,113307,113324,113340,113357,113373,113390,113407,113424,113441,113457,113473,113491,113507,113524,113540,113557,113574,113590,113607,113623,113640,113657,113673,113690,113706,113723,113740,113757,113774,113790,113807,113824,113840,113857,113874,113890,113906,113923,113940,113956,113974,113990,114006,114023,114040,114056,114073,114090,114107,114123,114139,114156,114173,114190,114207,114223,114240,114257,114273,114290,114307,114323,114340,114357,114373,114390,114407,114423,114440,114457,114472,114490,114506,114522,114539,114556,114573,114589,114606,114623,114640,114656,114673,114689,114706,114723,114740,114756,114773,114790,114806,114823,114839,114856,114873,114889,114906,114923,114939,114956,114972,114989,115005,115023,115039,115055,115072,115089,115105,115122,115139,115155,115172,115189,115206,115222,115239,115255,115272,115289,115305,115322,115339,115355,115372,115389,115405,115422,115438,115455,115472,115489,115505,115521,115539,115556,115572,115588,115605,115622,115639,115655,115672,115689,115706,115722,115738,115755,115772,115788,115805,115821,115839,115855,115871,115888,115905,115922,115939,115955,115971,115988,116005,116021,116038,116055,116071,116088,116104,116121,116138,116155,116171,116188,116204,116221,116238,116255,116271,116288,116304,116321,116338,116355,116372,116388,116404,116421,116438,116455,116471,116488,116504,116521,116537,116554,116571,116588,116604,116621,116637,116654,116671,116687,116705,116721,116737,116754,116771,116787,116804,116821,116837,116854,116871,116887,116904,116921,116937,116954,116971,116988,117004,117021,117037,117054,117071,117087,117104,117121,117137,117154,117170,117187,117204,117221,117237,117254,117270,117287,117304,117320,117337,117354,117370,117387,117403,117420,117437,117453,117470,117487,117505,117521,117537,117553,117571,117587,117603,117620,117637,117654,117670,117687,117704,117720,117737,117753,117770,117787,117804,117820,117837,117854,117870,117887,117904,117920,117936,117953,117970,117986,118003,118020,118036,118053,118070,118087,118103,118120,118137,118153,118170,118187,118203,118220,118236,118253,118270,118286,118303,118319,118337,118353,118370,118386,118403,118420,118436,118453,118469,118486,118503,118520,118536,118553,118570,118586,118603,118619,118636,118652,118669,118686,118703,118720,118736,118752,118769,118786,118802,118820,118836,118853,118869,118886,118902,118919,118935,118952,118969,118986,119003,119019,119036,119052,119069,119086,119102,119119,119135,119152,119169,119186,119202,119219,119235,119252,119269,119286,119302,119319,119335,119352,119369,119385,119402,119419,119436,119452,119469,119486,119502,119519,119535,119552,119569,119585,119602,119618,119635,119652,119668,119685,119702,119719,119735,119752,119768,119786,119802,119819,119835,119852,119869,119885,119901,119918,119935,119952,119968,119985,120001,120018,120035,120052,120068,120085,120101,120118,120134,120151,120168,120185,120202,120218,120235,120251,120268,120285,120302,120318,120334,120351,120368,120385,120401,120418,120435,120451,120468,120485,120502,120518,120534,120551,120568,120584,120601,120618,120635,120651,120668,120684,120701,120718,120735,120751,120768,120784,120801,120817,120834,120851,120868,120884,120901,120918,120934,120951,120968,120984,121001,121017,121034,121051,121067,121084,121101,121118,121134,121151,121167,121184,121201,121217,121233,121251,121267,121284,121301,121317,121333,121350,121367,121384,121400,121417,121433,121450,121467,121484,121500,121517,121534,121550,121567,121583,121600,121617,121633,121650,121667,121683,121700,121717,121733,121750,121767,121783,121800,121817,121834,121850,121867,121883,121900,121916,121934,121950,121967,121983,122000,122016,122033,122050,122067,122083,122100,122116,122133,122149,122166,122183,122201,122217,122233,122250,122267,122284,122300,122317,122333,122349,122366,122383,122400,122416,122433,122450,122467,122483,122500,122516,122533,122550,122567,122583,122599,122616,122633,122650,122666,122683,122700,122717,122732,122749,122767,122782,122799,122817,122833,122849,122866,122883,122900,122916,122932,122949,122966,122982,123000,123016,123032,123050,123066,123083,123100,123116,123132,123149,123165,123182,123199,123216,123233,123249,123265,123282,123299,123316,123332,123349,123365,123382,123399,123415,123432,123449,123466,123482,123499,123516,123531,123549,123566,123582,123598,123615,123632,123648,123665,123682,123699,123715,123732,123749,123766,123782,123799,123815,123831,123848,123865,123882,123898,123915,123932,123949,123965,123982,123999,124015,124031,124048,124065,124082,124098,124115,124132,124148,124165,124181,124198,124215,124231,124248,124265,124282,124298,124315,124331,124348,124365,124381,124398,124414,124431,124448,124465,124482,124498,124514,124531,124548,124565,124581,124598,124614,124631,124647,124665,124681,124698,124715,124731,124748,124764,124781,124797,124814,124831,124847,124864,124881,124898,124914,124931,124947,124965,124981,124997,125015,125031,125048,125064,125081,125098,125115,125131,125148,125164,125181,125198,125214,125230,125248,125264,125281,125298,125314,125330,125347,125364,125381,125397,125414,125431,125447,125464,125481,125497,125514,125531,125547,125563,125580,125597,125614,125631,125647,125664,125680,125697,125714,125730,125747,125763,125780,125796,125814,125830,125847,125863,125880,125897,125913,125930,125947,125964,125980,125996,126013,126030,126047,126063,126080,126097,126113,126130,126146,126163,126180,126197,126213,126230,126247,126263,126279,126297,126313,126329,126347,126363,126379,126396,126413,126429,126447,126463,126479,126496,126513,126530,126547,126563,126579,126597,126613,126629,126646,126662,126680,126696,126713,126729,126746,126762,126779,126796,126812,126829,126846,126863,126879,126896,126913,126929,126946,126963,126979,126996,127012,127030,127046,127062,127079,127096,127112,127129,127146,127162,127179,127195,127212,127229,127247,127262,127279,127296,127312,127328,127345,127362,127379,127395,127412,127428,127445,127462,127479,127495,127512,127529,127545,127562,127579,127595,127612,127628,127645,127662,127678,127696,127712,127728,127745,127762,127778,127795,127812,127828,127845,127862,127878,127895,127912,127928,127945,127961,127978,127995,128012,128028,128045,128062,128078,128095,128111,128128,128145,128161,128178,128195,128212,128228,128245,128261,128278,128295,128312,128328,128344,128362,128378,128394,128411,128428,128445,128461,128478,128494,128511,128528,128544,128561,128578,128594,128612,128628,128645,128661,128678,128695,128711,128728,128744,128761,128778,128794,128811,128827,128844,128861,128878,128894,128911,128927,128944,128961,128977,128994,129011,129028,129044,129061,129078,129094,129111,129128,129144,129161,129177,129194,129210,129227,129244,129260,129278,129294,129311,129327,129344,129360,129377,129394,129410,129427,129444,129460,129477,129494,129511,129527,129544,129560,129577,129593,129610,129627,129643,129661,129677,129693,129711,129727,129744,129760,129777,129793,129810,129827,129843,129860,129877,129893,129910,129926,129944,129960,129976,129994,130010,130027,130044,130060,130077,130094,130110,130127,130144,130160,130177,130194,130210,130226,130244,130260,130276,130293,130310,130327,130343,130360,130377,130393,130410,130427,130443,130459,130477,130493,130510,130526,130543,130559,130577,130593,130610,130626,130643,130660,130676,130693,130710,130726,130743,130760,130777,130793,130810,130826,130843,130860,130876,130894,130910,130926,130943,130959,130976,130992,131009,131026,131042,131059,131076,131092,131110,131126,131143,131159,131176,131192,131209,131226,131242,131259,131276,131292,131309,131326,131343,131359,131376,131392,131409,131426,131443,131459,131475,131492,131509,131526,131542,131559,131576,131592,131608,131625,131642,131658,131676,131692,131709,131725,131741,131758,131775,131792,131808,131826,131842,131859,131875,131891,131909,131925,131941,131958,131975,131992,132009,132025,132042,132059,132075,132091,132108,132125,132141,132159,132175,132191,132208,132225,132241,132258,132275,132291,132308,132325,132341,132358,132375,132392,132408,132425,132442,132458,132474,132492,132508,132524,132541,132558,132574,132591,132608,132624,132642,132658,132674,132691,132708,132725,132741,132759,132775,132791,132808,132824,132841,132857,132874,132892,132908,132925,132941,132958,132975,132992,133008,133025,133041,133057,133074,133092,133107,133124,133141,133157,133174,133191,133207,133226,133244,133259,133275,133291,133308,133325,133341,133358,133375,133391,133408,133425,133442,133458,133474,133491,133509,133524,133540,133558,133574,133591,133607,133624,133640,133658,133673,133691,133707,133723,133741,133757,133774,133791,133807,133824,133840,133857,133873,133890,133907,133924,133940,133957,133974,133990,134007,134024,134040,134056,134073,134091,134106,134123,134141,134157,134173,134190,134207,134223,134240,134257,134273,134290,134307,134324,134340,134356,134373,134390,134406,134423,134440,134456,134473,134490,134506,134523,134539,134556,134573,134590,134607,134623,134640,134656,134673,134689,134706,134723,134739,134756,134773,134789,134806,134822,134839,134856,134873,134889,134907,134922,134939,134956,134972,134989,135006,135022,135039,135056,135