[{"success":true,"trial_type":"fullscreen","trial_index":0,"time_elapsed":4568,"internal_node_id":"0.0-0.0","protocol_sum":"","subject_identifier":517,"subject_sum":[163,15,78,244,33,118,210,143,14,34,147,83,60,95,83,46,156,156,86,150,198,136,19,179,83,21,209,126,220,68,246,177],"subject_pair":258,"STUDY_ID":"66a3ed3c5d10d0e7d8a6b9da","PROLIFIC_PID":"6630fac492718fc11f67ca05","SESSION_ID":"66a4380556c9adc15e9f7f9d","practice_instructions":1,"leaderboard_instructions":1,"bonus":0,"reveal_word":true,"self_rating":"3","confidence":"53"},{"view_history":"[{\"page_index\":0,\"viewing_time\":9900.200000047684}]","rt":9901.200000047684,"trial_type":"instructions","trial_index":1,"time_elapsed":14471,"internal_node_id":"0.0-1.0","protocol_sum":"","subject_identifier":517,"subject_sum":[163,15,78,244,33,118,210,143,14,34,147,83,60,95,83,46,156,156,86,150,198,136,19,179,83,21,209,126,220,68,246,177],"subject_pair":258,"STUDY_ID":"66a3ed3c5d10d0e7d8a6b9da","PROLIFIC_PID":"6630fac492718fc11f67ca05","SESSION_ID":"66a4380556c9adc15e9f7f9d","practice_instructions":1,"leaderboard_instructions":1,"bonus":0,"reveal_word":true,"self_rating":"3","confidence":"53"},{"view_history":"[{\"page_index\":0,\"viewing_time\":35355.799999952316}]","rt":35356.299999952316,"trial_type":"instructions","trial_index":2,"time_elapsed":49829,"internal_node_id":"0.0-2.0-0.0","protocol_sum":"","subject_identifier":517,"subject_sum":[163,15,78,244,33,118,210,143,14,34,147,83,60,95,83,46,156,156,86,150,198,136,19,179,83,21,209,126,220,68,246,177],"subject_pair":258,"STUDY_ID":"66a3ed3c5d10d0e7d8a6b9da","PROLIFIC_PID":"6630fac492718fc11f67ca05","SESSION_ID":"66a4380556c9adc15e9f7f9d","practice_instructions":1,"leaderboard_instructions":1,"bonus":0,"reveal_word":true,"self_rating":"3","confidence":"53"},{"rt":18304,"responses":"{\"Q0\":\"... reveal the word with as <b>few letter guesses</b> as possible\"}","question_order":"[0]","trial_type":"survey-multi-choice","trial_index":3,"time_elapsed":68136,"internal_node_id":"0.0-2.0-1.0","protocol_sum":"","subject_identifier":517,"subject_sum":[163,15,78,244,33,118,210,143,14,34,147,83,60,95,83,46,156,156,86,150,198,136,19,179,83,21,209,126,220,68,246,177],"subject_pair":258,"correct":true,"test_part":"multichoice_nonpretend","STUDY_ID":"66a3ed3c5d10d0e7d8a6b9da","PROLIFIC_PID":"6630fac492718fc11f67ca05","SESSION_ID":"66a4380556c9adc15e9f7f9d","practice_instructions":1,"leaderboard_instructions":1,"bonus":0,"reveal_word":true,"self_rating":"3","confidence":"53"},{"view_history":"[{\"page_index\":0,\"viewing_time\":4102.700000047684}]","rt":4102.900000095367,"trial_type":"instructions","trial_index":4,"time_elapsed":72240,"internal_node_id":"0.0-3.0","protocol_sum":"","subject_identifier":517,"subject_sum":[163,15,78,244,33,118,210,143,14,34,147,83,60,95,83,46,156,156,86,150,198,136,19,179,83,21,209,126,220,68,246,177],"subject_pair":258,"STUDY_ID":"66a3ed3c5d10d0e7d8a6b9da","PROLIFIC_PID":"6630fac492718fc11f67ca05","SESSION_ID":"66a4380556c9adc15e9f7f9d","practice_instructions":1,"leaderboard_instructions":1,"bonus":0,"reveal_word":true,"self_rating":"3","confidence":"53"},{"word":"ZEBRA","click_log":{"letter":["","L","I","A","P","B","C","S","N","R","Z","E"],"t":[0,7673.599999904633,9591.700000047684,14900.700000047684,38824.40000009537,58844.90000009537,63423.200000047684,93500.09999990463,101827.90000009537,141691.09999990463,148276.70000004768,150249.90000009537],"hit":[null,0,0,1,0,1,0,0,0,1,1,1],"asked":["","L","LI","LIA","LIAP","LIAPB","LIAPBC","LIAPBCS","LIAPBCSN","LIAPBCSNR","LIAPBCSNRZ","LIAPBCSNRZE"],"word_state":["_____","_____","_____","____A","____A","__B_A","__B_A","__B_A","__B_A","__BRA","Z_BRA","ZEBRA"]},"hover_log":{"letter":["?","?","?","?","?","?","?","?","?","?","?","?","?","?","?","?","?","?","?","?","?","?","?","?","?","?","?","?","?","?","?","?","?","?","?","?","?","?","?","?","?","?","?","?","?","?","?","?","?","?","?","?","?","?","?","?","?","?","?","?","?","?","?","?","?","?","?","?","?","J","?","?","?","?","?","?","?","?","?","?","?","?","?","?","?","?","?","?","?","?","?","?","?","?","?","?","?","?","?","?","?","?","?","?","?","?","?","?","?","?","?","?","?","?","D","D","D","D","D","D","D","D","D","?","?","?","?","?","?","?","?","?","?","?","L","L","L","L","L","L","L","L","L","L","L","L","L","L","L","L","L","L","L","L","L","L","L","L","L","L","L","L","L","L","L","L","L","L","L","L","L","L","L","L","L","L","L","L","L","L","L","L","L","L","L","L","L","L","L","L","L","L","L","L","L","L","L","L","L","?","?","?","?","?","?","?","?","?","?","?","?","?","?","?","?","?","?","?","?","?","?","?","?","?","?","?","?","?","?","?","?","?","?","?","?","?","?","?","?","?","?","?","?","?","?","?","?","?","?","?","?","?","?","?","?","?","?","?","?","?","?","?","?","?","?","?","?","?","L","M","?","N","?","?","?","?","?","?","?","?","?","?","?","?","?","?","?","?","?","?","?","?","?","?","?","?","?","?","?","?","?","?","?","?","?","?","?","?","?","?","?","?","?","?","?","?","?","?","?","?","?","?","?","?","?","?","?","?","?","?","?","?","?","?","?","?","?","?","?","?","?","?","?","?","?","?","?","?","?","?","?","?","?","?","?","?","?","?","?","?","?","?","?","?","?","?","?","?","?","?","?","?","?","?","?","?","?","?","?","?","?","?","?","?","?","?","?","?","?","?","N","N","N","?","M","M","M","M","M","M","M","M","M","M","M","M","?","?","?","?","?","?","?","?","?","?","L","L","L","L","L","L","L","L","L","L","L","L","L","L","L","L","L","L","L","L","L","L","L","L","L","L","L","L","L","L","L","L","L","L","L","L","L","L","L","L","L","L","L","L","L","L","L","L","L","L","L","L","L","L","L","L","L","L","L","L","L","L","L","L","L","L","L","L","L","L","L","L","L","L","L","L","L","L","L","L","L","L","?","N","O","?","?","?","?","?","?","?","?","?","?","?","?","?","?","?","?","?","?","?","?","?","?","?","?","?","?","I","I","I","I","I","I","I","I","I","I","I","I","I","I","I","I","I","I","I","I","I","I","I","I","I","I","I","I","I","I","I","I","I","I","I","I","I","I","I","I","I","I","I","I","I","I","I","I","I","I","I","I","I","I","I","I","I","I","I","I","I","I","I","I","I","I","I","I","I","I","I","I","I","I","I","I","I","I","I","I","I","I","I","I","I","I","I","I","I","I","I","I","I","I","I","I","I","I","I","I","I","H","?","?","?","O","N","N","N","N","N","N","N","N","N","N","N","N","N","N","N","N","N","N","N","N","N","N","N","N","N","N","N","N","N","N","N","?","?","?","?","?","?","?","?","?","?","?","?","?","?","?","?","?","?","?","?","?","?","?","?","?","?","?","?","?","?","N","N","N","N","N","N","N","N","N","N","N","N","N","N","N","N","N","N","N","N","N","N","N","N","N","N","N","N","N","N","N","N","N","N","N","N","N","N","N","N","N","N","N","N","N","N","N","N","N","N","N","N","N","N","N","N","N","N","N","N","N","N","N","?","?","?","?","?","O","O","O","O","O","O","O","O","O","O","O","O","O","O","O","O","O","O","O","O","O","O","O","O","O","O","O","O","O","O","O","O","O","O","O","O","O","O","O","O","O","O","O","O","O","O","O","O","O","O","O","O","O","O","O","O","O","O","O","?","?","E","E","E","E","?","?","?","?","?","?","?","?","?","?","?","?","?","?","?","?","?","?","?","?","A","A","A","A","A","A","A","A","A","A","A","A","A","A","A","A","A","A","A","A","A","A","A","A","A","A","A","A","A","A","A","A","A","A","A","A","A","A","A","A","A","A","A","A","A","A","A","A","A","A","A","A","A","A","A","A","A","A","A","A","A","A","A","A","A","A","A","A","A","A","A","A","A","A","A","A","A","A","A","A","A","A","A","A","A","A","A","A","A","A","A","A","A","A","A","A","A","A","A","A","A","A","A","?","?","?","?","?","?","?","Q","Q","Q","Q","Q","?","?","?","?","?","?","?","?","?","?","?","?","?","?","?","?","?","?","?","?","?","?","?","?","?","?","?","?","?","?","?","?","?","?","?","?","?","?","?","?","?","?","?","?","?","?","?","?","?","?","?","?","?","?","?","?","?","?","?","?","?","?","?","?","?","?","?","?","?","?","?","?","?","?","?","?","?","?","?","?","?","P","P","P","P","P","P","P","P","P","P","P","P","P","P","P","P","P","P","P","P","P","P","P","P","P","P","P","P","P","P","P","P","P","P","P","P","P","P","P","P","P","P","P","P","P","P","P","P","?","?","W","?","V","V","V","V","V","?","?","U","U","U","U","U","?","?","?","?","L","L","L","L","?","?","?","M","M","?","?","N","N","N","N","N","N","N","N","N","N","N","N","N","N","N","N","N","N","N","N","N","N","N","N","N","N","N","N","N","N","N","N","N","N","N","N","N","N","N","N","N","N","N","N","N","N","N","N","N","N","N","N","N","N","N","N","N","N","N","N","N","N","N","N","N","N","N","?","?","?","O","O","O","O","O","O","O","O","O","O","O","O","O","O","O","O","O","O","O","O","O","O","O","O","O","O","O","O","O","O","O","O","O","O","O","O","O","O","O","O","O","O","O","O","O","O","O","O","O","O","O","O","O","O","O","O","O","O","O","O","O","O","O","O","O","O","O","O","O","O","O","O","O","O","O","O","O","O","O","O","O","O","O","O","O","O","O","O","O","O","O","O","O","O","O","O","O","O","O","O","O","O","O","O","O","O","O","O","O","O","O","O","O","O","O","O","O","O","O","O","O","O","O","O","O","O","O","O","O","O","O","O","O","O","O","O","O","O","O","O","O","O","O","O","O","O","O","O","O","O","O","O","O","O","O","O","O","O","O","O","O","O","O","O","O","O","O","O","O","O","O","O","O","O","O","O","O","O","O","O","O","O","O","O","O","O","O","O","O","O","O","O","O","O","O","O","O","O","O","O","O","O","O","O","O","O","O","O","O","O","O","O","O","O","O","O","O","O","O","O","O","O","O","O","O","O","O","O","O","O","O","O","O","O","O","O","O","O","O","O","O","O","O","O","O","O","O","O","O","O","O","O","O","O","O","O","O","O","O","O","O","O","O","O","O","O","O","O","O","O","O","O","O","O","O","O","O","O","O","O","O","O","O","O","O","O","O","O","O","O","O","O","O","O","O","O","O","O","O","O","O","O","O","O","O","O","O","O","O","O","O","O","O","O","O","O","O","O","O","O","O","O","O","O","O","O","O","O","O","O","O","O","O","O","O","O","O","O","O","O","O","O","O","O","O","O","O","O","O","O","O","O","O","O","O","O","O","O","O","O","O","O","O","O","O","O","O","O","O","O","O","O","O","O","O","O","O","O","O","O","O","O","O","O","O","O","O","O","O","O","O","O","O","O","O","O","O","O","O","O","O","O","O","O","O","O","O","O","O","O","O","O","O","O","O","O","O","O","O","O","O","O","O","O","O","O","O","O","O","O","O","O","O","O","O","O","O","O","O","O","O","O","O","O","O","O","O","O","O","O","O","O","O","O","O","O","O","O","O","O","O","O","O","O","O","O","O","W","V","?","?","?","?","?","?","?","?","?","?","?","?","?","?","?","U","M","?","E","?","?","?","?","?","?","?","?","?","?","?","?","?","?","?","?","?","?","?","?","?","?","?","?","?","?","?","?","?","?","?","?","?","?","?","?","?","?","?","B","?","K","?","?","?","?","?","?","?","?","?","?","?","?","?","?","?","?","?","?","?","?","T","T","T","T","T","T","T","T","T","T","T","T","T","T","T","?","?","?","?","?","?","U","U","U","U","U","U","U","U","U","U","U","U","U","U","U","U","U","U","U","U","U","U","U","U","U","U","U","U","U","U","U","U","U","U","U","U","U","U","U","?","?","O","P","Q","?","R","?","?","?","?","?","?","?","?","?","?","?","?","?","?","?","?","?","?","?","?","?","?","?","?","?","?","?","?","?","?","?","?","?","?","?","?","?","?","?","?","?","?","?","?","?","?","?","?","?","?","?","?","?","?","?","?","?","?","?","?","?","?","?","?","?","?","?","?","?","?","N","N","N","N","N","N","N","N","N","N","N","N","N","N","N","N","N","N","N","N","N","N","N","N","?","?","M","M","M","?","?","?","?","?","?","?","?","?","?","?","?","?","?","?","?","?","?","?","?","?","?","?","?","?","?","?","?","?","?","?","?","?","?","?","?","?","?","?","?","?","?","?","?","?","?","?","?","?","?","?","?","?","?","?","?","?","?","?","?","?","?","?","?","?","?","?","?","?","?","?","?","?","?","?","?","?","?","?","?","?","?","?","?","L","L","U","U","?","?","?","?","?","?","?","?","?","?","?","?","?","?","?","?","?","?","?","?","?","?","?","?","?","?","?","?","?","?","?","?","?","?","?","?","?","?","?","?","?","?","?","?","?","?","?","?","?","?","?","?","?","?","?","?","?","?","?","?","?","?","?","?","?","?","?","?","?","?","?","?","?","?","?","?","?","?","?","?","?","?","?","?","?","?","?","?","?","?","?","?","?","?","?","?","?","?","?","?","?","?","?","?","?","?","?","?","?","?","?","?","?","?","?","?","?","?","?","?","?","?","?","?","?","?","?","?","?","?","?","?","?","?","?","?","?","?","?","?","?","?","?","?","?","?","?","?","?","?","?","?","?","?","?","?","?","?","?","?","?","?","?","?","?","?","?","?","?","?","?","?","?","?","?","?","?","?","?","?","?","?","?","?","?","?","?","?","?","?","?","?","?","?","?","?","?","?","?","?","?","?","?","?","?","?","?","?","?","?","?","?","?","?","?","?","?","?","?","?","?","?","?","?","?","?","?","?","?","?","?","?","?","?","?","?","?","?","?","?","?","?","?","?","?","?","?","?","?","?","?","?","W","?","L","?","?","B","B","B","B","B","B","B","B","?","?","?","?","?","?","?","?","?","G","G","G","G","G","G","?","?","?","?","?","?","?","?","?","?","?","?","P","P","P","P","P","P","P","P","P","P","P","P","P","P","P","P","P","P","P","P","P","P","P","P","P","P","P","P","P","P","P","P","P","P","P","P","P","P","P","P","P","P","P","P","P","P","P","P","P","P","P","P","P","P","P","P","P","P","P","P","P","P","P","P","P","P","P","P","P","P","P","P","P","P","P","P","P","P","P","P","P","P","P","P","P","P","P","P","P","P","P","P","P","P","P","P","P","P","P","P","P","P","P","P","P","P","P","O","?","W","?","V","V","V","V","?","?","?","?","?","?","?","?","?","?","?","?","?","?","?","?","?","?","?","?","?","?","?","?","?","?","?","V","V","V","V","V","?","?","?","?","?","?","?","?","?","?","?","?","?","?","?","?","?","?","?","?","?","?","?","?","?","?","?","?","?","?","?","?","?","?","?","?","?","V","?","M","M","M","?","?","?","D","D","D","D","D","D","D","D","D","D","D","D","D","D","D","D","D","D","D","D","D","D","D","D","D","D","D","D","D","D","D","D","D","D","D","D","D","D","D","D","D","D","D","D","D","D","D","D","D","D","D","D","D","D","D","D","D","D","D","D","D","D","D","D","D","D","D","D","D","D","D","D","D","D","D","D","D","D","D","D","D","D","D","D","D","D","D","D","D","D","D","D","D","D","D","D","D","D","D","D","D","D","D","D","D","D","D","D","D","D","D","D","D","D","D","D","D","D","D","D","D","D","D","D","D","D","D","D","D","D","D","D","D","D","D","D","D","D","D","D","D","D","D","D","D","D","D","D","D","D","D","D","D","D","D","D","D","D","D","D","D","D","D","D","D","D","D","D","D","D","D","D","D","D","D","D","D","D","D","D","D","D","D","D","D","D","D","D","D","D","D","D","D","D","D","D","D","D","D","D","D","D","D","D","D","D","D","D","D","D","D","D","D","D","D","D","D","D","D","D","D","D","D","D","D","D","D","D","D","D","D","D","D","D","D","D","D","D","D","D","D","D","D","D","D","D","D","D","D","D","D","D","D","D","D","D","D","D","D","D","D","D","D","D","D","D","D","D","D","D","D","D","D","D","D","D","D","D","D","D","D","D","D","D","D","D","D","D","D","D","D","D","D","D","D","D","D","D","D","D","D","D","D","D","D","D","D","D","D","D","D","D","D","D","D","D","D","D","D","D","D","D","D","D","D","D","D","D","D","D","D","D","D","D","D","D","D","D","D","D","D","D","D","D","D","D","D","D","D","D","D","D","D","D","D","D","D","D","D","D","D","D","D","D","D","D","D","D","D","D","D","D","D","D","D","D","D","D","D","D","D","D","D","D","D","D","D","D","D","D","E","?","F","G","H","?","?","?","?","?","?","?","?","?","?","?","?","?","?","?","?","?","?","?","?","?","?","W","W","W","?","?","?","N","N","N","N","?","?","?","?","?","?","?","?","?","?","?","?","?","?","?","?","?","?","?","?","?","?","?","F","F","F","F","F","F","F","F","F","F","F","F","F","F","F","F","F","F","F","F","F","F","F","F","F","F","F","F","F","F","F","F","F","F","F","F","F","F","F","F","F","F","F","F","F","F","F","F","F","F","F","F","F","F","F","F","F","F","F","F","F","F","F","F","F","F","F","F","F","F","F","F","F","F","F","F","F","F","F","F","F","F","F","F","F","F","F","F","F","F","F","F","F","F","F","F","F","F","F","F","F","F","F","F","F","F","F","F","F","F","F","F","F","F","F","F","F","F","F","F","F","F","F","F","F","F","F","F","F","F","F","F","F","F","F","F","F","F","F","F","F","F","F","F","F","F","F","F","F","F","F","F","F","F","F","F","F","F","F","F","F","F","F","F","F","F","F","F","F","F","F","F","F","F","F","F","F","F","F","F","F","F","F","F","F","F","F","F","F","F","F","F","F","F","F","F","F","F","F","F","F","F","F","F","F","F","F","F","F","F","F","F","F","F","F","F","F","F","F","F","F","F","F","F","F","F","F","F","F","F","F","F","F","F","F","F","F","F","F","F","F","F","F","F","F","F","F","F","F","F","F","F","F","F","F","F","F","F","F","F","F","F","F","F","F","F","F","F","F","F","F","F","F","F","F","F","F","F","F","F","F","F","F","F","F","F","F","F","F","F","F","F","F","F","F","F","F","F","F","F","F","F","F","F","F","F","F","F","F","F","F","F","F","F","F","F","F","F","F","F","F","F","F","F","F","F","F","F","F","F","F","F","F","F","F","F","F","F","F","F","F","F","F","F","F","F","F","F","F","F","?","?","E","E","D","D","D","?","C","C","C","C","C","C","C","C","C","C","C","C","C","C","C","C","C","C","C","C","C","C","C","C","C","C","D","D","D","D","D","D","?","?","?","?","?","?","?","E","E","E","E","E","E","E","E","E","E","E","E","E","E","E","E","E","E","E","E","E","E","E","E","E","E","E","E","E","E","E","E","E","E","E","D","D","D","D","D","?","?","?","?","?","?","?","?","?","?","?","?","?","?","?","?","?","?","?","?","?","?","?","?","?","?","?","?","?","?","?","?","?","?","?","?","?","?","?","?","?","?","?","?","?","C","C","C","C","C","C","C","C","?","?","?","?","?","?","?","?","?","?","?","?","?","?","?","?","?","?","?","?","?","?","?","?","?","?","?","?","?","?","?","?","?","?","?","?","?","?","?","?","?","?","?","?","?","?","?","?","?","?","?","?","?","?","?","?","?","?","?","?","?","?","?","?","?","?","?","?","?","B","B","B","B","B","B","B","B","B","B","B","B","B","B","B","B","B","B","B","B","B","B","B","B","B","B","B","B","B","B","B","B","B","B","B","B","B","B","B","B","B","B","B","B","B","B","B","B","B","B","B","B","B","B","B","B","B","B","B","B","B","B","B","B","B","B","B","B","B","B","B","B","B","B","B","B","B","B","B","B","B","B","B","B","B","B","B","B","B","B","B","B","B","B","B","B","B","B","B","B","B","B","B","B","B","B","B","B","B","B","B","B","B","B","B","B","B","B","B","B","B","B","B","B","B","B","B","B","B","B","B","B","B","B","B","B","B","B","B","B","B","B","B","B","B","B","B","B","B","B","B","B","B","B","B","B","B","B","B","B","B","B","B","B","B","B","B","B","B","B","B","B","B","B","B","B","B","B","B","B","B","B","B","B","B","B","B","B","B","B","B","B","B","B","B","B","B","B","B","B","B","B","B","B","B","B","B","B","B","B","B","B","B","B","B","B","B","B","B","B","B","B","B","B","B","B","B","B","B","B","B","B","B","B","B","B","B","B","B","B","B","B","B","B","B","B","B","B","B","B","B","B","B","B","B","B","B","B","B","B","B","B","B","B","B","B","B","B","B","B","?","?","?","C","C","C","C","C","C","C","C","C","C","C","C","C","C","C","C","C","C","C","C","C","C","C","C","C","C","C","C","C","C","C","C","C","C","C","C","C","C","C","C","C","C","C","C","C","C","C","C","C","C","C","C","C","C","C","C","C","C","C","C","C","C","C","C","C","C","C","C","C","C","C","C","C","C","C","C","C","C","C","C","C","C","C","C","C","C","C","C","C","C","C","C","C","C","C","C","C","C","C","C","C","C","C","C","C","C","C","C","C","C","C","C","C","C","C","C","C","C","C","C","C","C","C","C","C","C","C","C","C","C","C","C","C","C","C","C","C","C","C","C","C","C","C","C","C","C","C","C","C","C","C","C","C","C","C","C","C","C","C","C","C","C","C","C","C","C","C","C","C","C","C","C","C","C","C","C","C","C","C","C","C","C","C","C","C","C","C","C","C","C","C","C","C","C","C","C","C","C","C","C","C","C","C","C","C","C","C","C","C","C","C","C","C","C","C","C","C","C","C","C","C","C","C","C","C","C","C","C","C","C","C","C","C","C","C","C","C","C","C","C","C","C","C","C","C","C","C","C","C","C","C","C","C","C","C","C","C","C","C","C","C","C","C","C","C","C","C","C","C","C","C","C","C","C","C","C","C","C","C","C","C","C","C","C","C","C","C","C","C","C","C","C","C","C","C","C","C","C","C","C","C","C","C","C","C","C","C","C","C","C","C","C","C","C","C","C","C","C","C","C","C","C","C","C","C","C","C","C","C","C","C","C","C","C","C","C","C","C","C","C","C","C","C","C","C","C","C","C","C","C","C","C","C","C","C","C","C","C","C","C","C","C","C","C","C","C","C","C","C","C","C","C","C","C","C","C","C","C","C","C","C","C","C","C","C","C","C","C","C","C","C","C","C","C","C","C","C","C","C","C","C","C","C","C","C","C","C","C","C","C","C","C","C","C","C","C","C","C","C","C","C","C","C","C","C","C","C","C","C","C","C","B","?","?","?","?","?","?","?","?","?","?","?","?","?","?","?","?","?","?","?","?","?","?","?","?","?","?","?","?","?","?","?","?","?","?","?","?","?","?","?","?","?","?","?","?","?","?","?","?","?","?","?","?","?","?","?","?","?","?","?","?","?","?","?","?","?","?","?","?","?","?","?","?","?","?","?","?","?","?","?","?","?","?","?","?","?","?","?","?","?","?","?","?","?","?","?","?","?","?","?","?","?","?","?","?","?","?","?","?","?","?","?","?","?","?","?","?","?","?","?","?","?","?","?","?","?","?","?","?","?","?","?","?","?","?","?","?","?","?","?","?","?","?","?","?","?","?","?","?","?","?","?","?","?","?","?","?","?","?","?","?","?","?","?","?","?","?","?","?","?","?","?","?","?","?","?","?","?","?","?","?","?","?","?","?","?","?","?","?","?","?","?","?","?","?","?","?","?","?","?","?","?","?","?","?","?","?","?","?","?","?","?","?","?","?","?","?","?","?","?","?","?","?","?","?","?","?","?","?","?","?","?","?","?","?","?","?","?","?","?","?","?","?","?","?","?","?","?","?","?","?","?","?","?","?","?","?","?","?","?","?","?","?","?","?","?","?","?","?","?","?","?","?","?","?","?","?","?","?","?","?","?","?","?","?","?","?","?","?","?","?","?","?","?","?","?","?","?","?","?","?","?","?","?","?","?","?","?","?","?","?","?","?","?","?","?","?","?","?","?","?","?","?","?","?","?","?","?","?","?","?","?","?","?","?","?","?","?","?","?","?","?","?","?","?","?","?","?","?","?","?","?","?","?","?","?","?","?","?","?","?","?","?","?","?","?","?","?","?","?","?","?","?","?","?","?","?","?","?","?","?","?","?","?","?","?","?","?","?","?","?","?","?","?","?","?","?","?","?","?","?","?","?","?","?","?","?","?","?","?","?","?","?","?","?","?","?","?","?","?","?","?","?","?","?","?","?","?","?","?","?","?","?","?","?","?","?","?","?","?","?","?","?","?","?","?","?","?","?","?","?","?","?","?","?","?","?","?","?","?","?","?","?","?","?","?","?","?","?","?","?","?","?","?","?","?","?","?","?","?","?","?","?","?","?","?","?","?","?","?","?","?","?","?","?","?","?","?","?","?","?","?","?","?","?","?","?","?","?","?","?","?","?","?","?","?","?","?","?","?","?","?","?","?","?","?","?","?","?","?","?","?","?","?","?","?","?","?","?","?","?","?","?","?","?","?","?","?","?","?","?","?","?","?","?","?","?","?","?","?","F","F","?","G","G","G","G","G","G","G","G","G","G","G","G","?","?","?","?","?","?","?","?","?","?","?","?","?","?","?","?","?","?","?","?","?","?","?","?","?","?","?","?","?","?","?","?","?","?","?","?","E","E","E","E","E","E","E","E","?","?","?","?","?","?","?","?","?","?","G","G","G","G","G","G","G","G","G","G","G","G","?","O","?","?","V","V","?","?","?","?","?","?","?","?","?","?","?","?","?","?","?","?","?","?","?","?","?","?","?","?","?","?","?","?","?","?","?","?","?","?","?","?","?","?","?","?","?","?","?","?","T","?","?","L","?","C","?","?","?","?","?","?","?","?","?","?","?","?","?","?","?","?","?","?","?","?","B","?","?","J","J","J","J","J","J","J","J","J","?","?","?","?","?","?","?","?","?","?","?","?","?","?","?","?","?","?","?","?","?","?","?","?","?","?","?","?","?","?","?","?","?","?","?","?","?","?","?","?","?","?","?","?","?","?","?","?","?","?","?","?","K","C","?","D","?","?","?","?","?","?","?","?","?","?","?","?","?","?","?","?","H","H","H","H","?","?","O","O","O","O","O","O","O","O","O","O","O","O","O","O","O","O","?","?","?","?","?","?","?","?","?","?","?","?","?","?","?","?","?","?","O","O","O","O","O","O","O","O","O","?","?","?","?","?","?","?","?","?","?","O","O","O","O","?","?","?","?","?","?","?","Q","Q","Q","Q","Q","Q","?","?","?","?","?","?","?","?","?","?","?","?","?","?","?","?","?","?","?","?","?","?","?","?","?","?","?","?","?","?","?","?","?","?","Q","?","?","X","?","W","W","V","?","U","?","?","?","?","?","?","?","D","?","?","?","?","?","?","?","?","?","?","?","?","?","?","?","?","?","?","?","?","?","H","H","?","?","?","?","?","?","?","?","?","?","?","?","?","?","?","?","?","?","?","?","?","?","?","?","?","?","?","?","?","?","?","?","?","?","?","?","?","?","?","?","?","?","?","?","?","D","D","D","D","D","D","D","D","D","D","D","D","D","D","D","D","D","D","D","D","D","D","D","D","D","D","D","D","D","D","D","D","D","D","D","D","D","D","D","D","D","D","D","D","D","D","D","D","D","D","D","D","D","D","D","D","D","D","D","D","D","D","?","E","?","F","F","F","F","F","?","?","?","G","G","G","G","G","G","G","G","G","?","?","?","?","?","?","?","?","O","O","O","O","O","O","O","O","O","O","O","O","O","O","O","O","O","O","O","O","O","O","O","O","O","O","O","O","O","O","O","O","O","O","O","O","O","O","O","O","O","O","O","O","O","O","O","O","O","O","O","O","O","O","O","O","?","?","W","W","W","?","?","?","?","?","?","?","?","?","?","?","?","?","?","?","?","?","?","?","?","?","?","?","?","?","?","?","?","?","?","?","?","?","?","?","?","?","?","?","?","?","?","?","?","?","?","?","?","?","?","?","?","?","?","?","?","?","?","?","?","?","?","?","?","?","?","?","?","?","?","?","?","?","?","?","?","?","?","?","?","?","?","?","?","?","?","?","?","?","?","?","?","?","?","?","?","?","?","?","?","?","?","?","?","?","?","?","?","?","?","?","?","?","?","?","?","?","?","?","?","?","?","?","?","?","?","?","?","?","?","?","?","?","?","?","?","?","?","T","T","T","T","T","T","T","T","T","T","T","T","T","T","T","T","T","T","T","T","T","T","T","T","T","T","T","T","T","T","T","T","T","T","T","T","T","?","?","?","?","K","K","K","K","K","K","K","K","K","K","K","?","?","?","?","?","?","?","J","J","J","?","?","?","?","?","?","?","?","?","?","?","?","?","?","?","?","?","?","?","?","?","?","?","?","?","S","S","S","S","S","S","S","S","S","S","S","S","S","S","S","S","S","S","S","S","S","S","S","S","S","S","S","S","S","S","S","S","S","S","S","S","S","S","S","S","S","S","S","S","S","S","S","S","S","S","S","S","S","S","S","S","S","S","S","S","S","S","S","S","S","S","S","S","S","S","S","S","S","S","S","S","S","S","S","S","S","S","S","S","S","S","S","S","S","S","S","S","S","?","?","L","M","M","N","?","?","?","?","?","?","G","G","G","G","G","G","G","G","G","G","G","G","G","G","G","G","G","G","G","G","G","G","G","G","G","G","G","G","?","F","F","F","F","F","F","F","F","F","F","F","F","F","F","F","?","?","?","G","G","G","G","G","G","G","G","G","G","G","?","?","?","?","?","?","?","?","?","?","?","?","?","?","?","?","?","?","?","?","?","?","?","?","?","?","?","?","?","?","?","?","?","?","?","?","?","?","?","?","?","?","?","?","?","?","?","?","?","?","?","?","?","?","?","?","?","?","?","?","?","?","?","?","?","?","?","?","?","?","?","?","?","?","?","?","?","?","?","?","?","?","?","?","?","?","?","?","?","?","?","?","?","?","?","?","?","?","?","?","?","?","?","?","?","?","?","?","?","?","?","?","?","?","?","?","?","?","?","O","?","N","N","N","N","N","N","N","N","N","N","N","N","N","N","N","N","N","N","N","N","N","N","N","N","N","N","N","N","N","N","N","N","N","N","N","N","N","N","N","?","?","E","E","E","E","E","?","?","?","?","?","?","?","?","?","?","?","?","?","?","?","?","?","?","?","?","F","F","F","F","F","F","F","F","F","F","F","F","F","F","F","F","F","F","F","F","F","F","F","F","F","F","F","F","F","F","F","F","F","F","F","F","F","F","F","F","F","F","F","F","F","F","F","F","F","F","F","F","F","F","F","F","F","F","F","F","F","F","F","F","F","F","F","F","?","?","M","M","M","M","?","?","?","?","?","?","?","?","?","?","?","?","?","M","M","M","M","M","M","M","M","M","M","?","?","?","?","?","?","?","?","?","?","N","N","N","N","N","N","N","N","N","N","N","N","N","N","N","N","N","N","N","N","N","N","N","N","N","N","N","N","N","N","N","N","N","N","N","N","N","N","N","N","N","N","N","N","N","N","N","N","N","N","N","N","N","N","N","N","N","N","N","N","N","N","N","N","N","N","N","N","N","N","N","N","N","N","N","N","N","N","N","N","N","N","N","N","N","N","N","N","N","N","N","N","N","N","N","N","N","N","N","N","N","N","N","N","N","N","N","N","N","N","N","N","N","N","N","N","N","N","N","N","N","N","N","N","N","N","N","N","N","N","N","N","N","N","N","N","N","N","N","N","N","N","N","N","N","N","N","?","?","?","H","I","?","?","?","?","?","?","?","?","?","?","?","?","?","?","?","?","?","?","?","?","?","?","?","?","?","?","?","?","?","?","?","?","?","?","?","?","?","?","?","?","?","?","?","?","?","?","?","?","?","?","?","?","?","?","?","?","?","?","?","?","?","?","?","?","?","?","?","?","?","?","?","?","?","?","?","?","?","?","?","?","?","?","?","?","?","?","?","?","?","?","?","?","?","?","?","?","?","?","?","?","?","?","?","?","?","?","?","?","?","?","?","?","?","?","?","?","?","?","?","?","?","?","?","?","?","?","?","?","?","?","?","?","?","?","?","?","?","?","?","?","?","?","?","?","?","?","?","?","?","?","?","?","?","?","?","?","?","?","?","?","?","?","?","?","?","?","?","?","?","?","?","?","?","?","?","?","?","?","?","?","?","?","?","?","?","?","?","?","?","?","?","?","?","?","?","?","?","?","?","?","?","?","?","?","?","?","?","?","?","?","?","?","?","?","?","?","?","?","?","?","?","?","?","?","?","?","?","?","?","?","?","?","?","?","?","?","?","?","?","?","?","?","?","?","?","?","?","?","?","?","?","?","?","?","?","?","?","?","?","?","?","?","?","?","?","?","?","?","?","?","?","?","?","?","?","?","?","?","?","?","?","?","?","?","?","?","?","?","?","?","?","?","?","?","?","?","?","?","?","?","?","?","?","?","?","?","?","?","?","?","?","?","?","?","?","?","?","?","?","?","?","?","?","?","?","?","?","?","?","?","?","?","?","?","?","?","?","?","?","?","?","?","?","?","?","?","?","?","?","?","?","?","?","?","?","?","?","?","?","?","?","?","?","?","?","?","?","?","?","?","?","?","?","?","?","?","?","?","?","?","?","?","?","?","?","?","?","?","?","?","?","?","?","?","?","?","?","?","?","?","?","?","?","?","?","?","?","?","?","?","?","?","?","?","?","?","?","?","?","?","?","?","?","?","?","?","?","?","?","?","?","?","?","?","?","?","?","?","?","?","?","?","?","?","?","?","?","?","?","?","?","?","?","?","?","?","?","?","?","?","?","?","?","?","?","?","?","?","?","?","?","?","?","?","?","?","?","?","?","?","?","?","?","?","?","?","?","?","?","?","?","?","?","?","?","?","?","?","?","?","?","?","?","?","?","?","?","?","?","?","?","?","?","?","?","?","?","?","?","?","?","?","?","?","?","?","?","?","?","?","?","?","?","?","?","?","?","?","?","?","?","?","?","?","?","?","?","?","?","?","?","?","?","?","?","?","?","?","?","?","?","?","?","?","?","?","?","?","?","?","?","?","?","?","?","?","?","?","?","?","?","?","?","?","?","?","?","?","?","?","?","?","?","?","?","?","?","?","?","?","?","?","?","?","?","?","?","?","?","?","?","?","?","?","?","?","?","?","?","?","?","?","?","?","?","?","?","?","?","?","?","?","?","?","?","?","?","?","?","?","?","?","?","?","?","?","?","?","?","?","?","?","?","?","?","?","?","?","?","?","?","?","?","?","?","?","?","?","?","?","?","?","?","?","?","?","?","?","?","?","?","?","?","?","?","?","?","?","?","?","?","?","?","?","?","?","?","?","?","?","?","?","?","?","?","?","?","?","?","?","?","?","?","?","?","?","?","?","?","?","?","?","?","?","?","?","?","?","?","?","?","?","?","?","?","?","?","?","?","?","?","?","?","?","?","?","?","?","?","?","?","?","?","?","?","?","?","?","?","?","?","?","?","?","?","?","?","?","?","?","?","?","?","?","?","?","?","?","?","?","?","?","?","?","?","?","?","?","?","?","?","?","?","?","?","?","?","?","?","?","?","?","?","?","?","?","?","?","?","?","?","?","?","?","?","?","?","?","?","?","?","?","?","?","?","?","?","?","?","?","?","?","?","?","?","?","?","?","?","?","?","?","?","?","?","?","?","?","?","?","?","?","?","?","?","?","?","?","?","?","?","?","?","?","?","?","?","?","?","?","?","?","?","?","?","?","?","?","?","?","?","?","?","?","?","?","?","?","?","?","?","?","?","?","?","?","?","?","?","?","?","?","?","?","?","?","?","?","?","?","?","?","?","?","?","?","?","?","?","?","?","?","?","?","?","?","?","?","?","?","?","?","?","?","?","?","?","?","?","?","?","?","?","?","?","?","?","?","?","?","?","?","?","?","?","?","?","?","?","?","?","?","?","?","?","?","?","?","?","?","?","?","?","?","?","?","?","?","?","?","?","?","?","?","?","?","?","?","?","?","?","?","?","?","?","?","?","?","?","?","?","?","?","?","?","?","?","?","?","?","?","?","?","?","?","?","?","?","?","?","?","?","?","?","?","?","?","?","?","?","?","?","?","?","?","?","?","?","?","?","?","?","?","?","?","?","?","?","?","?","?","?","?","?","?","?","?","?","?","?","?","?","?","?","?","?","?","?","?","?","?","?","?","?","?","?","?","?","?","?","?","?","?","?","?","?","?","?","?","?","?","?","?","?","?","?","?","?","?","?","?","?","?","?","?","?","?","?","?","?","?","?","?","?","?","?","?","?","?","?","?","?","?","?","?","?","?","?","?","?","?","?","?","?","?","?","?","?","?","?","?","?","?","?","?","?","?","?","?","?","?","?","?","?","?","?","?","?","?","?","?","?","?","?","?","?","?","?","?","?","?","?","?","?","?","?","?","?","?","?","?","?","?","?","?","?","?","?","?","?","?","?","?","?","?","?","?","?","?","?","?","?","?","?","?","?","?","?","?","?","?","?","?","?","?","?","?","?","?","?","?","?","?","?","?","?","?","?","?","?","?","?","?","?","?","?","?","?","?","?","?","?","?","?","?","?","?","?","?","?","?","?","?","?","?","?","?","?","?","?","?","?","?","?","?","?","?","?","?","?","?","?","?","?","?","?","?","?","?","?","?","?","?","?","?","?","?","?","?","?","?","?","?","?","?","?","?","?","?","?","?","?","?","?","?","?","?","?","?","?","?","?","?","?","?","?","?","?","?","?","?","?","?","?","?","?","?","?","?","?","?","?","?","?","?","?","?","?","?","?","?","?","?","?","?","?","?","?","?","?","?","?","?","?","?","?","?","?","?","?","?","?","?","?","?","?","?","?","?","?","?","?","?","?","?","?","?","?","?","?","?","?","?","?","?","?","?","?","?","?","?","?","?","?","?","?","?","?","?","?","?","?","?","?","?","?","?","?","?","?","?","?","?","?","?","?","?","?","?","?","?","?","?","?","?","?","?","?","?","?","?","?","?","?","?","?","?","?","?","?","?","?","?","?","?","?","?","?","?","?","?","?","?","?","?","?","?","?","?","?","?","?","?","?","?","?","?","?","?","?","?","?","?","?","?","?","?","?","?","?","?","?","?","?","?","?","?","?","?","?","?","?","?","?","?","?","?","?","?","?","?","?","?","?","?","?","?","?","?","?","?","?","?","?","?","?","?","?","?","?","?","?","?","?","?","?","?","?","?","?","?","?","?","?","?","?","?","?","?","?","?","?","?","?","?","?","?","?","?","?","?","?","?","?","?","?","?","?","?","?","?","?","?","?","?","?","?","?","?","?","?","?","?","?","?","?","?","?","?","?","?","?","?","?","?","?","?","?","?","?","?","?","?","?","?","?","?","?","?","?","?","?","?","?","?","?","?","?","?","?","?","?","?","?","?","?","?","?","?","?","?","?","?","?","?","?","?","?","?","?","?","?","?","?","?","?","?","?","?","?","?","?","?","?","?","?","?","?","?","?","?","?","?","?","?","?","?","?","?","?","?","?","?","?","?","?","?","?","?","?","?","?","?","?","?","?","?","?","?","?","?","?","?","?","?","?","?","?","?","?","?","?","?","?","?","?","?","?","?","?","?","?","?","?","?","?","?","?","?","?","?","?","?","?","?","?","?","?","?","?","?","?","?","?","?","?","?","?","?","?","?","?","?","?","?","?","?","?","?","?","?","?","?","?","?","?","?","?","?","?","?","?","?","?","?","?","?","?","?","?","?","?","?","?","?","?","?","?","?","?","?","?","?","?","?","?","?","?","?","?","?","?","?","?","?","?","?","?","?","?","?","?","?","?","?","?","?","?","?","?","?","?","?","?","?","?","?","?","?","?","?","?","?","?","?","?","?","?","?","?","?","?","?","?","?","?","?","?","?","?","?","?","?","?","?","?","?","?","?","?","?","?","?","?","?","?","?","?","?","?","?","?","?","?","?","?","?","?","?","?","?","?","?","?","?","?","?","?","?","Q","H","?","?","?","?","?","?","?","?","?","?","?","?","?","?","?","?","?","?","?","?","?","?","?","?","?","?","?","?","?","?","?","?","?","?","?","?","?","?","?","?","?","?","?","?","?","?","?","?","?","?","?","?","?","?","?","?","?","?","?","?","?","?","?","?","?","?","?","?","?","?","?","?","?","?","?","?","?","?","?","?","?","?","H","?","?","?","?","?","?","?","?","?","?","?","?","?","?","?","?","?","?","?","?","?","Q","Q","Q","?","P","P","P","P","?","?","?","?","?","?","?","?","?","?","?","?","O","O","O","O","O","O","O","O","O","O","O","O","O","O","O","O","O","O","O","O","O","O","O","O","O","O","O","O","O","O","O","O","O","O","O","O","O","O","O","O","O","O","O","O","O","O","O","O","O","O","O","O","O","O","O","O","O","O","O","O","O","O","O","O","O","O","O","O","O","O","O","O","O","?","W","W","V","V","V","V","V","V","V","V","V","V","V","?","?","?","U","U","T","T","T","T","T","T","T","T","T","T","T","T","?","?","T","T","T","U","?","V","V","?","?","?","?","?","?","?","?","?","?","?","?","?","V","V","V","V","V","V","V","V","V","V","V","V","V","V","V","V","V","?","?","?","?","?","?","?","M","?","?","B","B","B","B","B","B","B","B","?","?","?","?","?","?","?","?","?","?","?","?","K","K","K","K","K","K","K","K","K","K","K","K","K","K","K","K","K","K","K","K","K","?","E","?","?","?","?","?","?","?","?","?","?","?","?","?","?","?","H","H","?","P","P","O","O","N","N","N","?","?","M","M","M","M","M","M","M","?","?","E","E","?","F","F","G","G","?","?","?","?","?","Z","Z","Z","Z","Z","Z","Z","Z","Z","Z","Z","Z","Z","Z","Z","Z","Z","Z","Z","Z","Z","Z","Z","Z","Z","Z","Z","Z","Z","Z","Z","Z","Z","Z","?","?","?","?","?","R","R","R","R","R","R","R","R","R","R","R","R","R","R","R","R","R","R","R","R","R","R","R","R","R","R","R","R","R","R","R","R","R","R","R","R","R","R","R","R","R","R","R","R","R","R","R","R","R","R","R","R","R","R","R","R","R","R","R","R","R","R","R","R","R","R","R","R","R","R","R","R","R","R","R","R","R","R","R","R","R","R","R","R","R","R","R","R","R","R","R","R","R","R","R","R","R","R","R","R","R","R","R","R","R","R","R","R","R","R","R","R","R","R","R","R","R","R","R","R","R","R","R","R","R","R","R","R","R","R","R","R","R","R","R","R","R","R","R","R","R","R","R","R","R","R","R","R","R","R","R","R","R","R","R","R","R","R","R","R","R","R","R","R","R","R","R","R","R","R","R","R","R","R","R","R","R","R","R","R","R","R","R","R","R","R","R","R","R","R","R","R","R","R","R","R","R","R","R","R","R","R","R","R","R","R","R","R","R","R","R","R","R","R","R","R","R","R","R","R","R","R","R","R","R","R","R","R","R","R","R","R","R","R","R","R","R","R","R","R","R","R","R","R","R","R","R","R","R","R","R","R","R","R","R","R","R","R","R","R","R","R","R","R","R","R","R","R","R","R","R","R","R","R","R","R","R","R","R","R","R","R","R","R","R","R","R","R","R","R","R","R","R","R","R","R","R","R","R","R","R","R","R","R","R","R","R","R","R","R","R","R","R","R","R","R","R","R","R","R","R","R","R","R","R","R","R","R","R","R","R","R","R","R","R","R","R","R","R","R","R","R","R","R","R","R","R","R","R","P","O","?","?","?","?","?","?","?","?","?","?","?","?","?","?","?","?","?","V","V","V","?","?","?","?","?","?","?","?","?","?","?","?","?","?","?","?","?","?","?","?","?","?","?","?","Z","Z","Z","Z","Z","Z","Z","Z","Z","Z","Z","Z","Z","Z","Z","Z","Z","Z","Z","Z","Z","Z","Z","Z","Z","Z","Z","Z","Z","Z","Z","Z","Z","Z","Z","Z","Z","Z","Z","Z","Z","Z","Z","Z","Z","Z","Z","Z","Z","Z","Z","Z","Z","Z","Z","Z","Z","Z","Z","Z","Z","Z","Z","Z","Z","Z","Z","Z","Z","Z","Z","Z","Z","Z","Z","Z","Z","Z","Z","Z","Z","Z","Z","Z","Z","Z","?","?","?","?","?","N","N","N","?","?","E","E","?","?","?","?","?","?","?","?","?","?","?","?","?","?","?","?","?","?","?","?","?","?","?","?","E","E","E","E","E","E","E","E","E","E","E","E","E","E","E","E","E","E","E","E","E","E","E","E","E","E","E","E","E","E","E","E","E","E","E","E","E","E","E","E","E","E","E","E","E","E","E","E","E","E","E","E","E","E","E","E","E","E","E","E","E","E","E","E","E","E","E","E","E","E","E","E","E","E","E","E","E","E","E","E","E","E","E","E","E","E","E","E","E","E","E","E","E","E","E","E","E","?","?","?","?","?","?","?","?","?","?","?","?","?","?","?","?","?","?","?","?","?","?","?","?","?","?","?","?","?","?","?","?","?","?","?","?","?","?","?","?","?","?","?","?","?","?","?","?","?","?","?","?","?","?","?","?","?","?","?","?","?","?","?","?","?","?","?","?"],"t":[19,31,47,63,80,98,122,131,147,165,181,198,217,231,248,265,282,298,315,332,348,365,382,398,415,431,448,465,481,499,515,531,548,565,581,598,614,631,648,665,682,698,714,731,747,764,780,798,814,832,847,865,881,899,914,931,948,964,981,998,1016,1031,1047,1064,1081,1098,1114,1131,1148,1165,1182,1197,1215,1230,1247,1264,1280,1297,1313,1331,1347,1363,1380,1398,1414,1430,1447,1464,1481,1497,1513,1530,1548,1564,1580,1597,1614,1630,1647,1663,1680,1698,1713,1730,1747,1763,1779,1797,1814,1830,1847,1864,1881,1897,1914,1930,1948,1964,1980,1997,2014,2031,2047,2063,2082,2098,2114,2131,2147,2164,2181,2197,2214,2230,2248,2264,2281,2296,2314,2330,2347,2365,2380,2397,2414,2431,2447,2464,2482,2497,2515,2531,2548,2564,2581,2597,2614,2631,2648,2665,2681,2698,2714,2731,2748,2764,2780,2797,2814,2830,2847,2864,2881,2898,2914,2931,2947,2964,2982,2998,3015,3031,3048,3064,3081,3098,3114,3131,3148,3164,3181,3197,3214,3231,3247,3264,3281,3297,3314,3331,3348,3363,3381,3398,3414,3431,3447,3464,3480,3497,3515,3530,3547,3564,3580,3596,3614,3630,3647,3663,3680,3697,3714,3730,3747,3764,3781,3797,3813,3830,3847,3864,3881,3897,3915,3930,3948,3964,3980,3997,4013,4030,4048,4063,4080,4096,4113,4130,4147,4163,4180,4196,4213,4230,4247,4263,4280,4297,4313,4330,4347,4364,4380,4397,4414,4430,4447,4463,4480,4497,4514,4532,4546,4564,4580,4597,4614,4630,4646,4664,4680,4697,4714,4731,4747,4764,4780,4797,4814,4830,4847,4863,4880,4897,4914,4931,4947,4963,4980,4997,5013,5030,5047,5064,5080,5098,5113,5131,5146,5163,5180,5196,5213,5230,5247,5264,5280,5296,5313,5330,5347,5364,5380,5396,5413,5430,5447,5463,5480,5496,5514,5529,5546,5563,5579,5597,5613,5630,5646,5663,5680,5696,5713,5730,5747,5763,5780,5797,5814,5831,5847,5864,5880,5896,5913,5930,5947,5963,5980,5996,6013,6030,6046,6063,6081,6097,6113,6130,6146,6163,6180,6196,6213,6230,6246,6263,6280,6296,6313,6330,6346,6364,6380,6397,6413,6430,6446,6464,6480,6497,6513,6530,6546,6564,6580,6596,6614,6630,6647,6663,6680,6696,6713,6731,6747,6764,6780,6796,6813,6830,6847,6863,6880,6897,6913,6930,6947,6963,6980,6997,7013,7030,7046,7063,7080,7097,7114,7131,7148,7164,7181,7197,7215,7231,7248,7264,7281,7298,7315,7330,7348,7366,7381,7397,7414,7431,7448,7465,7481,7498,7515,7531,7546,7564,7582,7598,7614,7632,7649,7666,7682,7698,7716,7732,7749,7765,7782,7798,7817,7832,7848,7865,7882,7898,7915,7931,7948,7964,7981,7998,8015,8030,8048,8064,8081,8099,8115,8131,8148,8165,8180,8198,8216,8232,8247,8264,8281,8297,8314,8330,8347,8365,8380,8396,8413,8430,8447,8463,8480,8498,8514,8530,8547,8563,8581,8597,8614,8631,8647,8664,8680,8697,8715,8731,8748,8764,8782,8799,8814,8830,8847,8864,8881,8898,8914,8932,8947,8964,8980,8997,9014,9030,9047,9064,9080,9098,9114,9131,9148,9165,9182,9198,9215,9232,9248,9266,9281,9298,9314,9331,9347,9366,9381,9398,9415,9431,9449,9465,9481,9498,9515,9530,9548,9565,9582,9598,9614,9631,9648,9665,9682,9698,9715,9731,9748,9765,9781,9798,9815,9831,9848,9864,9881,9897,9914,9931,9948,9965,9982,9998,10015,10031,10048,10065,10081,10097,10115,10132,10148,10164,10182,10198,10215,10231,10249,10264,10281,10298,10315,10331,10349,10364,10381,10398,10415,10433,10449,10464,10481,10497,10513,10530,10547,10565,10581,10598,10614,10631,10647,10664,10681,10697,10714,10731,10748,10764,10781,10797,10814,10830,10847,10864,10881,10897,10914,10931,10947,10964,10981,10997,11014,11030,11047,11063,11080,11098,11113,11131,11148,11165,11180,11197,11214,11230,11247,11264,11281,11297,11314,11330,11347,11364,11380,11398,11414,11431,11447,11464,11480,11497,11514,11530,11548,11564,11581,11597,11614,11631,11647,11664,11680,11697,11714,11731,11747,11763,11780,11797,11814,11830,11848,11865,11880,11897,11915,11931,11947,11966,11981,11998,12014,12031,12047,12063,12081,12097,12114,12130,12147,12164,12180,12197,12213,12231,12247,12264,12280,12297,12313,12330,12347,12363,12380,12397,12414,12430,12447,12464,12481,12498,12514,12532,12548,12563,12581,12597,12615,12630,12647,12664,12681,12697,12714,12731,12747,12765,12780,12797,12814,12831,12848,12865,12881,12898,12915,12931,12949,12965,12982,12998,13014,13031,13048,13065,13081,13097,13114,13131,13148,13164,13181,13198,13214,13231,13248,13265,13282,13300,13315,13332,13348,13364,13381,13397,13415,13431,13448,13465,13482,13498,13514,13531,13548,13564,13580,13597,13613,13630,13647,13664,13680,13697,13714,13730,13747,13764,13781,13797,13814,13830,13847,13864,13880,13898,13913,13930,13947,13964,13980,13997,14014,14030,14048,14063,14080,14097,14113,14130,14147,14164,14180,14198,14214,14231,14247,14264,14281,14298,14314,14330,14348,14364,14381,14398,14415,14431,14448,14465,14482,14498,14515,14531,14548,14563,14581,14599,14614,14630,14647,14664,14680,14697,14715,14732,14748,14764,14782,14798,14815,14832,14847,14864,14882,14898,14918,14931,14947,14964,14980,14998,15015,15032,15048,15065,15082,15098,15115,15132,15149,15165,15182,15198,15214,15232,15248,15265,15282,15298,15315,15331,15348,15364,15381,15399,15415,15431,15448,15465,15480,15499,15515,15531,15548,15565,15582,15598,15615,15630,15647,15664,15682,15698,15714,15732,15747,15765,15780,15797,15814,15830,15848,15866,15881,15898,15914,15930,15949,15965,15981,15997,16014,16031,16047,16064,16081,16096,16113,16131,16147,16163,16179,16197,16214,16230,16247,16264,16280,16297,16315,16331,16346,16364,16380,16397,16413,16430,16446,16464,16480,16497,16514,16530,16547,16563,16580,16597,16614,16631,16647,16664,16680,16698,16713,16730,16747,16764,16781,16797,16814,16830,16847,16863,16880,16897,16913,16930,16946,16963,16980,16997,17014,17030,17048,17064,17081,17097,17115,17131,17147,17164,17180,17198,17214,17231,17247,17264,17281,17297,17314,17331,17348,17363,17381,17397,17413,17430,17447,17464,17480,17497,17514,17531,17548,17564,17581,17597,17615,17631,17648,17664,17680,17697,17714,17731,17747,17765,17781,17797,17814,17831,17847,17864,17882,17897,17914,17930,17946,17964,17980,17997,18013,18031,18047,18064,18080,18097,18114,18131,18148,18163,18180,18198,18215,18231,18248,18265,18280,18297,18314,18330,18347,18363,18382,18397,18414,18431,18448,18464,18480,18498,18514,18531,18547,18564,18580,18597,18616,18632,18648,18664,18683,18698,18713,18730,18748,18765,18780,18797,18814,18831,18848,18863,18882,18897,18914,18930,18947,18964,18981,18997,19014,19030,19047,19063,19080,19097,19114,19131,19147,19164,19181,19198,19215,19232,19248,19264,19281,19298,19314,19331,19348,19365,19381,19398,19414,19431,19448,19463,19480,19497,19515,19530,19548,19564,19580,19599,19614,19630,19646,19664,19680,19698,19714,19730,19746,19763,19781,19797,19814,19831,19847,19865,19881,19897,19914,19933,19948,19963,19980,19998,20014,20031,20048,20064,20081,20096,20113,20130,20147,20164,20180,20197,20213,20230,20246,20263,20280,20297,20315,20330,20347,20363,20381,20397,20414,20430,20450,20463,20480,20496,20514,20531,20547,20563,20580,20597,20613,20630,20647,20663,20681,20698,20715,20731,20748,20765,20781,20798,20815,20831,20849,20864,20880,20898,20915,20931,20948,20965,20982,20997,21014,21032,21048,21065,21082,21099,21115,21132,21148,21165,21181,21198,21214,21231,21248,21265,21281,21298,21315,21332,21349,21364,21381,21397,21413,21431,21447,21465,21480,21497,21514,21531,21548,21567,21581,21597,21615,21631,21648,21665,21681,21698,21714,21732,21748,21765,21781,21798,21815,21832,21848,21865,21881,21898,21915,21931,21948,21965,21981,21998,22015,22031,22048,22065,22082,22098,22115,22132,22148,22165,22181,22197,22213,22230,22247,22263,22281,22298,22314,22331,22349,22365,22380,22397,22414,22430,22447,22466,22481,22497,22514,22530,22547,22565,22582,22597,22615,22631,22647,22664,22680,22698,22714,22732,22748,22764,22781,22797,22814,22831,22848,22865,22882,22898,22915,22932,22947,22964,22981,22998,23015,23031,23048,23065,23082,23098,23115,23131,23149,23165,23182,23198,23215,23232,23248,23265,23281,23299,23315,23333,23348,23365,23381,23398,23415,23431,23447,23463,23480,23497,23513,23530,23547,23564,23581,23598,23614,23631,23648,23665,23681,23698,23715,23731,23748,23765,23781,23798,23816,23831,23848,23865,23881,23898,23915,23931,23949,23965,23981,23999,24015,24031,24048,24063,24079,24097,24113,24130,24148,24165,24182,24198,24215,24230,24248,24265,24281,24297,24315,24332,24348,24365,24381,24398,24414,24432,24448,24464,24482,24498,24513,24530,24548,24564,24582,24598,24615,24631,24648,24666,24681,24698,24714,24731,24749,24766,24781,24798,24815,24831,24848,24865,24882,24898,24915,24931,24948,24965,24982,24998,25015,25031,25048,25064,25081,25098,25115,25131,25148,25165,25181,25198,25215,25230,25247,25265,25281,25298,25315,25331,25349,25364,25381,25398,25415,25432,25448,25465,25483,25499,25514,25530,25546,25563,25581,25597,25614,25632,25648,25665,25681,25698,25715,25732,25748,25765,25781,25798,25814,25831,25848,25864,25882,25898,25915,25931,25948,25965,25981,25998,26015,26032,26049,26065,26081,26098,26115,26131,26148,26165,26182,26197,26215,26231,26248,26265,26281,26298,26314,26331,26348,26364,26381,26397,26414,26431,26447,26465,26480,26498,26514,26530,26547,26565,26581,26598,26614,26632,26648,26665,26681,26698,26715,26731,26748,26764,26781,26798,26815,26832,26849,26865,26881,26898,26916,26931,26948,26965,26981,26998,27015,27032,27048,27065,27081,27098,27114,27131,27147,27163,27180,27196,27214,27230,27246,27264,27281,27298,27314,27331,27347,27363,27381,27398,27414,27432,27448,27465,27481,27498,27515,27530,27546,27564,27581,27598,27614,27631,27647,27664,27681,27697,27714,27730,27747,27763,27780,27799,27814,27830,27848,27865,27880,27897,27914,27930,27947,27964,27981,27997,28015,28030,28047,28064,28080,28097,28113,28131,28147,28164,28180,28197,28214,28231,28250,28264,28280,28297,28314,28330,28347,28365,28380,28398,28414,28431,28447,28464,28481,28497,28515,28531,28548,28563,28580,28597,28614,28631,28646,28664,28680,28698,28713,28731,28748,28764,28781,28797,28814,28831,28847,28864,28881,28898,28914,28932,28947,28964,28982,28998,29014,29030,29048,29063,29081,29097,29114,29130,29147,29165,29181,29198,29214,29231,29247,29264,29282,29297,29314,29330,29347,29364,29380,29397,29413,29430,29447,29464,29480,29497,29514,29530,29547,29564,29581,29596,29614,29630,29647,29663,29680,29696,29714,29730,29747,29765,29781,29797,29813,29830,29847,29864,29881,29897,29913,29930,29946,29963,29980,29997,30014,30030,30047,30063,30080,30097,30115,30130,30149,30163,30181,30197,30214,30230,30247,30265,30280,30296,30314,30330,30347,30364,30382,30399,30414,30432,30446,30464,30480,30497,30513,30529,30547,30564,30581,30598,30614,30632,30648,30663,30680,30697,30714,30730,30748,30763,30780,30798,30814,30831,30847,30863,30880,30897,30913,30931,30947,30966,30980,30998,31013,31032,31047,31063,31080,31097,31115,31130,31147,31164,31181,31198,31214,31230,31247,31264,31280,31298,31315,31331,31348,31364,31381,31397,31414,31430,31447,31464,31480,31497,31514,31531,31547,31564,31581,31597,31614,31630,31648,31663,31681,31697,31713,31730,31747,31764,31780,31797,31813,31831,31848,31864,31881,31897,31914,31930,31947,31964,31980,31997,32013,32031,32047,32065,32080,32097,32115,32130,32147,32163,32180,32197,32214,32231,32247,32264,32281,32298,32314,32331,32346,32363,32380,32397,32414,32430,32448,32464,32481,32498,32515,32532,32549,32564,32581,32598,32615,32632,32648,32665,32681,32698,32715,32732,32748,32764,32782,32798,32813,32831,32847,32864,32885,32897,32914,32931,32948,32964,32981,32998,33014,33031,33048,33064,33081,33098,33115,33131,33147,33166,33181,33198,33213,33231,33247,33264,33280,33297,33315,33330,33347,33364,33380,33397,33414,33430,33447,33464,33481,33497,33514,33531,33547,33563,33581,33597,33614,33630,33647,33663,33680,33697,33713,33731,33747,33764,33781,33797,33814,33830,33848,33864,33881,33896,33914,33930,33947,33964,33980,33997,34013,34030,34048,34065,34081,34098,34115,34132,34148,34165,34181,34198,34215,34232,34248,34265,34281,34297,34314,34331,34348,34365,34381,34398,34415,34432,34447,34464,34481,34499,34514,34531,34548,34564,34581,34599,34615,34631,34648,34663,34681,34699,34714,34732,34748,34766,34781,34798,34816,34831,34848,34865,34882,34898,34915,34932,34948,34965,34981,34998,35015,35031,35049,35064,35081,35098,35115,35131,35149,35164,35182,35198,35215,35231,35248,35265,35282,35298,35315,35332,35347,35364,35381,35398,35416,35431,35448,35464,35480,35498,35515,35531,35548,35565,35582,35598,35615,35632,35648,35665,35681,35698,35715,35731,35748,35765,35781,35798,35814,35830,35847,35864,35881,35898,35915,35931,35948,35965,35980,35998,36015,36032,36048,36064,36081,36099,36115,36133,36148,36165,36180,36197,36213,36231,36247,36264,36281,36298,36315,36331,36347,36364,36382,36398,36415,36431,36448,36464,36481,36498,36513,36531,36548,36565,36582,36598,36615,36631,36648,36665,36681,36698,36714,36731,36749,36764,36781,36797,36814,36830,36847,36865,36880,36896,36913,36930,36946,36963,36981,36998,37014,37031,37050,37064,37082,37097,37116,37131,37148,37165,37181,37198,37215,37232,37248,37264,37282,37298,37315,37332,37348,37364,37380,37397,37414,37431,37447,37464,37481,37498,37515,37531,37547,37564,37580,37599,37614,37630,37647,37663,37681,37697,37714,37730,37747,37763,37780,37797,37813,37830,37847,37863,37880,37897,37914,37930,37948,37964,37981,37997,38013,38031,38047,38064,38080,38097,38113,38131,38147,38164,38180,38197,38214,38230,38247,38264,38281,38298,38315,38330,38347,38364,38381,38397,38415,38431,38448,38464,38482,38498,38514,38531,38548,38564,38581,38598,38613,38631,38648,38664,38681,38698,38715,38731,38748,38764,38782,38798,38814,38832,38847,38864,38881,38898,38915,38931,38948,38965,38982,38998,39015,39032,39048,39065,39081,39099,39114,39131,39148,39164,39181,39200,39215,39232,39248,39264,39281,39297,39313,39331,39348,39365,39382,39398,39414,39431,39447,39465,39481,39498,39514,39532,39548,39564,39581,39598,39615,39632,39648,39665,39682,39698,39715,39732,39748,39765,39782,39798,39813,39830,39848,39864,39881,39898,39915,39931,39948,39964,39981,39997,40014,40030,40047,40064,40080,40097,40113,40130,40147,40164,40181,40196,40213,40230,40248,40264,40281,40297,40314,40331,40347,40364,40380,40397,40414,40431,40448,40464,40481,40497,40514,40530,40546,40563,40580,40597,40613,40631,40647,40664,40681,40697,40714,40731,40747,40764,40781,40798,40814,40830,40847,40864,40881,40898,40914,40931,40948,40964,40982,40997,41014,41031,41048,41064,41080,41097,41113,41131,41147,41164,41181,41198,41214,41231,41247,41263,41280,41297,41314,41330,41347,41364,41380,41396,41414,41431,41447,41465,41481,41497,41513,41531,41548,41564,41581,41597,41615,41631,41648,41664,41680,41699,41714,41731,41747,41765,41780,41797,41814,41831,41848,41864,41881,41897,41915,41931,41947,41965,41981,41998,42014,42031,42048,42064,42080,42097,42115,42130,42147,42164,42181,42198,42215,42231,42248,42265,42281,42298,42314,42331,42348,42369,42397,42414,42431,42448,42465,42482,42498,42515,42532,42547,42564,42581,42598,42614,42631,42648,42664,42681,42698,42715,42731,42748,42764,42781,42798,42814,42831,42848,42864,42881,42898,42915,42931,42948,42965,42982,42998,43014,43031,43048,43064,43081,43098,43115,43131,43148,43164,43181,43199,43214,43231,43247,43264,43281,43298,43314,43331,43348,43365,43381,43398,43414,43431,43448,43465,43482,43498,43515,43531,43548,43565,43581,43598,43614,43631,43648,43665,43680,43698,43714,43731,43748,43765,43781,43798,43815,43831,43848,43865,43881,43898,43915,43931,43948,43964,43981,43998,44015,44031,44047,44064,44081,44098,44114,44131,44148,44165,44180,44198,44213,44230,44247,44264,44281,44298,44314,44331,44348,44364,44381,44397,44415,44431,44447,44464,44481,44498,44515,44532,44548,44565,44582,44598,44614,44632,44648,44664,44681,44698,44715,44731,44747,44764,44781,44798,44813,44830,44847,44865,44881,44897,44914,44930,44946,44963,44981,44997,45015,45031,45047,45064,45080,45098,45115,45131,45148,45164,45181,45198,45215,45231,45248,45264,45282,45299,45315,45332,45348,45364,45381,45398,45414,45431,45448,45464,45481,45498,45514,45531,45548,45564,45581,45598,45614,45631,45648,45664,45681,45698,45714,45730,45748,45764,45781,45798,45814,45831,45848,45864,45881,45898,45915,45931,45948,45965,45981,45998,46013,46031,46048,46065,46081,46098,46114,46131,46148,46164,46181,46198,46215,46231,46248,46264,46281,46298,46314,46332,46348,46365,46381,46397,46414,46431,46448,46465,46481,46498,46514,46531,46548,46564,46581,46598,46615,46630,46647,46664,46681,46697,46715,46732,46748,46764,46782,46799,46814,46831,46848,46864,46881,46897,46914,46931,46948,46965,46980,46997,47014,47032,47048,47064,47081,47098,47115,47131,47148,47164,47181,47197,47214,47231,47248,47264,47281,47298,47315,47331,47346,47364,47381,47399,47415,47431,47448,47464,47481,47497,47514,47532,47548,47565,47582,47598,47615,47631,47647,47664,47680,47698,47715,47732,47748,47766,47781,47797,47814,47830,47847,47864,47881,47897,47913,47930,47946,47963,47980,47996,48013,48030,48046,48064,48080,48096,48114,48130,48148,48164,48181,48197,48214,48230,48246,48263,48281,48298,48314,48331,48347,48364,48380,48396,48413,48430,48448,48463,48480,48497,48513,48530,48547,48564,48580,48598,48613,48630,48646,48663,48680,48696,48714,48730,48747,48763,48780,48797,48813,48831,48847,48864,48880,48897,48914,48930,48947,48964,48980,48997,49015,49031,49047,49064,49080,49097,49114,49131,49147,49164,49180,49196,49214,49230,49246,49264,49281,49297,49314,49331,49347,49364,49380,49398,49414,49432,49447,49464,49481,49499,49514,49530,49548,49564,49581,49597,49616,49630,49648,49665,49681,49697,49714,49731,49747,49763,49780,49797,49814,49830,49847,49863,49880,49897,49913,49931,49947,49964,49980,49998,50014,50031,50047,50064,50081,50097,50114,50130,50147,50164,50181,50197,50214,50231,50247,50264,50281,50297,50314,50330,50347,50364,50381,50397,50413,50431,50447,50465,50480,50498,50514,50531,50547,50564,50581,50597,50614,50632,50648,50664,50681,50698,50714,50731,50748,50764,50781,50798,50815,50830,50847,50863,50881,50897,50914,50930,50948,50965,50982,50998,51015,51032,51048,51065,51082,51098,51115,51131,51148,51164,51181,51198,51217,51230,51248,51265,51281,51297,51314,51331,51347,51364,51381,51398,51415,51431,51448,51464,51479,51496,51514,51530,51548,51564,51581,51597,51615,51631,51648,51664,51681,51699,51715,51731,51748,51764,51781,51798,51813,51831,51848,51865,51881,51897,51914,51931,51948,51963,51981,51998,52014,52031,52048,52065,52081,52098,52115,52131,52148,52165,52181,52198,52214,52231,52246,52263,52281,52298,52315,52331,52348,52363,52381,52398,52414,52432,52448,52464,52481,52498,52515,52531,52548,52564,52581,52598,52615,52631,52648,52665,52681,52698,52715,52731,52748,52765,52781,52798,52815,52830,52847,52864,52881,52898,52914,52931,52948,52965,52981,52998,53015,53031,53048,53064,53081,53098,53115,53132,53148,53165,53181,53198,53214,53231,53248,53265,53281,53298,53314,53330,53348,53365,53381,53398,53414,53431,53448,53465,53481,53498,53515,53531,53547,53565,53581,53598,53614,53631,53649,53664,53681,53697,53714,53732,53749,53764,53781,53798,53815,53831,53849,53864,53881,53898,53915,53931,53948,53964,53983,53998,54014,54031,54048,54064,54081,54098,54115,54131,54147,54165,54181,54197,54214,54231,54248,54264,54281,54298,54314,54331,54347,54363,54380,54398,54415,54431,54447,54465,54481,54498,54515,54532,54548,54565,54580,54597,54615,54631,54647,54664,54680,54697,54714,54730,54747,54764,54781,54797,54814,54830,54847,54864,54880,54897,54913,54930,54947,54963,54980,54997,55014,55030,55047,55063,55080,55096,55113,55130,55147,55164,55181,55197,55214,55230,55247,55264,55281,55297,55313,55330,55346,55363,55380,55396,55413,55430,55447,55463,55480,55496,55513,55530,55547,55563,55580,55596,55613,55630,55646,55663,55680,55696,55713,55730,55746,55763,55780,55796,55814,55830,55847,55864,55880,55898,55914,55930,55947,55963,55980,55997,56013,56030,56047,56063,56081,56097,56114,56130,56147,56163,56181,56197,56213,56231,56246,56263,56280,56296,56313,56330,56347,56364,56381,56397,56413,56430,56447,56464,56481,56498,56513,56531,56547,56564,56581,56597,56615,56631,56647,56664,56680,56696,56714,56731,56747,56764,56781,56797,56814,56830,56847,56864,56882,56897,56914,56930,56947,56964,56980,56997,57014,57030,57047,57063,57081,57097,57114,57130,57147,57163,57180,57197,57214,57230,57247,57264,57280,57297,57314,57332,57347,57363,57380,57397,57414,57430,57447,57463,57481,57497,57514,57530,57546,57564,57580,57597,57614,57631,57647,57663,57681,57697,57714,57730,57747,57764,57780,57797,57813,57830,57847,57863,57880,57897,57914,57931,57948,57964,57981,57997,58014,58031,58048,58064,58080,58098,58113,58130,58147,58163,58181,58197,58214,58230,58247,58264,58280,58297,58314,58332,58347,58364,58381,58398,58414,58431,58448,58464,58481,58496,58515,58531,58548,58564,58580,58597,58614,58630,58647,58665,58681,58698,58714,58731,58748,58766,58781,58798,58815,58831,58847,58864,58881,58898,58915,58931,58948,58964,58981,58998,59015,59032,59048,59064,59081,59096,59116,59131,59148,59164,59181,59198,59214,59231,59248,59265,59281,59297,59314,59331,59348,59365,59382,59397,59414,59431,59448,59465,59482,59498,59514,59531,59547,59565,59582,59597,59614,59632,59646,59664,59681,59698,59714,59731,59748,59765,59782,59798,59815,59831,59848,59865,59881,59897,59914,59931,59948,59964,59981,59998,60015,60031,60048,60064,60081,60097,60114,60131,60148,60165,60181,60198,60215,60230,60246,60264,60280,60296,60313,60331,60347,60364,60381,60398,60414,60430,60448,60464,60481,60497,60514,60531,60548,60565,60581,60598,60613,60631,60648,60663,60680,60697,60715,60731,60748,60765,60782,60798,60814,60832,60848,60865,60881,60897,60915,60931,60948,60965,60981,60998,61015,61031,61048,61065,61082,61097,61114,61131,61147,61165,61181,61198,61215,61231,61248,61265,61281,61298,61315,61331,61348,61364,61381,61398,61415,61432,61447,61465,61481,61498,61515,61531,61548,61565,61582,61598,61614,61631,61647,61665,61681,61697,61715,61733,61747,61764,61781,61797,61814,61829,61846,61864,61883,61897,61913,61931,61947,61963,61981,61998,62014,62031,62047,62065,62081,62098,62115,62131,62148,62164,62180,62197,62215,62231,62248,62264,62281,62298,62314,62331,62347,62364,62380,62397,62414,62431,62447,62465,62481,62498,62514,62531,62548,62564,62580,62597,62614,62631,62648,62664,62681,62697,62713,62730,62746,62764,62780,62797,62813,62831,62847,62865,62880,62897,62914,62931,62947,62963,62980,62997,63014,63031,63048,63064,63081,63097,63114,63130,63147,63164,63180,63197,63214,63231,63248,63265,63281,63298,63314,63331,63348,63364,63381,63398,63418,63430,63447,63464,63480,63498,63515,63531,63548,63565,63581,63598,63615,63631,63648,63664,63681,63698,63714,63731,63748,63765,63782,63797,63815,63831,63848,63865,63881,63898,63914,63931,63948,63965,63982,63998,64015,64031,64048,64065,64081,64098,64115,64131,64148,64164,64181,64198,64214,64231,64248,64266,64281,64297,64313,64331,64348,64365,64381,64398,64415,64431,64447,64464,64481,64498,64515,64531,64548,64565,64581,64598,64615,64631,64648,64664,64681,64698,64713,64731,64748,64764,64781,64797,64814,64832,64848,64865,64882,64898,64914,64931,64948,64965,64981,64998,65014,65031,65048,65065,65081,65098,65114,65131,65148,65164,65181,65198,65215,65231,65248,65265,65281,65298,65315,65331,65348,65365,65381,65398,65415,65431,65448,65465,65481,65498,65514,65531,65548,65565,65581,65598,65614,65631,65647,65664,65681,65698,65715,65731,65747,65764,65781,65799,65815,65830,65847,65865,65881,65898,65914,65932,65948,65965,65981,65998,66014,66031,66048,66065,66081,66098,66115,66131,66148,66165,66181,66198,66214,66230,66247,66264,66282,66298,66315,66331,66347,66364,66381,66398,66415,66431,66446,66464,66481,66498,66514,66531,66548,66564,66581,66598,66614,66631,66648,66664,66680,66698,66714,66731,66747,66765,66781,66798,66814,66830,66847,66864,66881,66898,66915,66931,66948,66963,66981,66997,67015,67031,67048,67064,67081,67098,67114,67130,67147,67164,67181,67197,67215,67231,67248,67264,67281,67298,67315,67331,67348,67363,67380,67397,67414,67431,67448,67465,67481,67498,67514,67530,67548,67565,67580,67597,67615,67631,67648,67665,67681,67698,67715,67732,67748,67765,67781,67797,67814,67831,67848,67865,67882,67898,67914,67931,67948,67965,67982,67998,68014,68031,68048,68065,68081,68098,68115,68131,68148,68165,68181,68198,68215,68231,68248,68265,68281,68298,68313,68330,68346,68363,68380,68396,68413,68430,68446,68463,68480,68496,68513,68530,68546,68563,68580,68596,68613,68630,68646,68663,68680,68697,68713,68730,68747,68763,68780,68797,68814,68831,68848,68865,68881,68898,68915,68931,68948,68964,68981,68998,69014,69032,69048,69065,69082,69098,69115,69131,69147,69165,69180,69197,69214,69231,69248,69265,69281,69298,69314,69331,69349,69365,69381,69397,69415,69431,69448,69465,69481,69498,69515,69531,69548,69565,69581,69598,69615,69631,69647,69664,69681,69698,69714,69731,69748,69765,69782,69797,69814,69830,69847,69864,69880,69897,69914,69930,69947,69963,69980,69997,70013,70030,70046,70064,70080,70097,70113,70130,70146,70163,70180,70196,70213,70230,70247,70263,70280,70296,70313,70330,70346,70363,70380,70398,70413,70430,70447,70463,70480,70497,70514,70531,70547,70564,70581,70598,70615,70631,70648,70664,70681,70698,70715,70732,70747,70765,70781,70798,70814,70831,70849,70864,70881,70898,70914,70931,70948,70964,70981,70998,71014,71031,71048,71065,71081,71098,71114,71131,71148,71164,71181,71198,71215,71231,71248,71264,71281,71298,71315,71332,71348,71363,71381,71398,71415,71431,71448,71465,71481,71498,71514,71531,71547,71565,71581,71598,71615,71631,71648,71665,71681,71698,71713,71730,71748,71765,71782,71798,71814,71832,71848,71864,71881,71898,71914,71931,71948,71965,71980,71998,72015,72031,72048,72065,72081,72098,72115,72131,72148,72165,72181,72197,72215,72231,72248,72265,72282,72298,72313,72330,72346,72363,72381,72398,72415,72431,72448,72465,72481,72498,72515,72531,72548,72565,72581,72598,72615,72631,72648,72664,72682,72697,72715,72731,72748,72764,72781,72798,72814,72831,72848,72865,72881,72898,72915,72931,72947,72964,72981,72998,73015,73032,73048,73064,73080,73096,73113,73130,73147,73163,73180,73196,73214,73230,73246,73263,73280,73297,73313,73331,73347,73364,73380,73396,73413,73430,73447,73463,73481,73497,73513,73529,73546,73563,73580,73598,73613,73630,73647,73663,73680,73697,73714,73730,73747,73763,73780,73797,73813,73830,73848,73864,73881,73898,73915,73931,73948,73965,73981,73998,74014,74031,74048,74065,74081,74098,74115,74131,74148,74165,74182,74198,74215,74231,74248,74264,74281,74298,74315,74332,74348,74365,74381,74398,74415,74431,74447,74465,74482,74499,74515,74531,74548,74565,74581,74598,74615,74631,74648,74665,74681,74698,74715,74732,74748,74765,74781,74798,74814,74831,74848,74865,74881,74898,74915,74931,74949,74966,74981,74998,75014,75031,75049,75065,75082,75098,75115,75131,75147,75165,75182,75198,75214,75231,75248,75265,75281,75298,75314,75331,75348,75364,75381,75398,75415,75432,75448,75464,75481,75498,75515,75531,75547,75564,75581,75598,75615,75631,75648,75664,75681,75698,75714,75731,75748,75766,75781,75798,75814,75832,75848,75865,75881,75898,75915,75931,75948,75965,75980,75998,76015,76031,76048,76065,76081,76098,76115,76131,76148,76165,76181,76198,76215,76231,76247,76265,76281,76298,76315,76331,76348,76363,76380,76397,76414,76431,76448,76464,76480,76497,76514,76531,76548,76565,76582,76598,76615,76631,76648,76665,76680,76697,76715,76731,76747,76764,76781,76798,76815,76831,76847,76864,76881,76898,76915,76931,76948,76965,76981,76997,77015,77032,77047,77065,77081,77098,77115,77131,77148,77165,77180,77197,77214,77232,77248,77265,77281,77298,77315,77332,77348,77365,77380,77398,77414,77431,77448,77465,77481,77498,77515,77531,77548,77565,77581,77598,77615,77631,77648,77664,77681,77698,77714,77731,77748,77765,77781,77798,77813,77831,77848,77865,77882,77898,77914,77932,77950,77964,77981,77997,78015,78032,78048,78064,78081,78098,78115,78131,78148,78164,78181,78197,78215,78231,78248,78265,78279,78297,78313,78330,78348,78365,78382,78397,78414,78431,78448,78464,78481,78497,78515,78530,78547,78563,78580,78597,78614,78631,78647,78663,78680,78697,78713,78730,78747,78764,78780,78797,78814,78830,78847,78863,78880,78897,78914,78930,78947,78964,78980,78997,79014,79030,79047,79063,79081,79097,79114,79130,79147,79164,79180,79197,79214,79230,79247,79264,79280,79296,79314,79330,79347,79363,79381,79397,79414,79430,79447,79464,79480,79498,79513,79531,79547,79563,79580,79597,79614,79630,79648,79663,79680,79697,79713,79730,79746,79764,79780,79797,79813,79830,79847,79863,79881,79896,79914,79930,79947,79964,79980,79998,80013,80031,80047,80065,80080,80097,80114,80130,80147,80163,80181,80197,80214,80230,80247,80264,80280,80297,80313,80330,80347,80363,80380,80396,80413,80430,80447,80463,80480,80497,80513,80530,80547,80564,80580,80596,80614,80630,80647,80663,80681,80696,80713,80730,80746,80763,80780,80797,80813,80831,80847,80864,80881,80898,80914,80930,80947,80963,80981,80998,81015,81031,81048,81065,81081,81098,81115,81131,81148,81164,81181,81198,81215,81230,81248,81263,81281,81297,81314,81331,81348,81364,81380,81397,81414,81430,81448,81464,81481,81498,81514,81530,81547,81564,81580,81597,81614,81631,81647,81666,81681,81697,81714,81730,81748,81763,81781,81797,81813,81831,81847,81864,81880,81897,81914,81930,81948,81963,81981,81997,82015,82030,82047,82063,82080,82097,82113,82130,82147,82164,82180,82197,82215,82230,82248,82264,82280,82297,82313,82330,82347,82365,82380,82398,82414,82431,82448,82465,82481,82498,82515,82531,82547,82564,82582,82598,82615,82631,82647,82665,82681,82698,82715,82732,82748,82765,82781,82798,82814,82830,82848,82864,82882,82897,82915,82931,82947,82964,82980,82997,83013,83030,83046,83063,83081,83097,83114,83130,83147,83163,83180,83197,83214,83231,83247,83264,83280,83298,83314,83330,83347,83363,83380,83396,83413,83431,83447,83464,83480,83497,83514,83531,83547,83563,83580,83597,83614,83630,83648,83663,83680,83696,83713,83730,83746,83764,83780,83798,83813,83830,83847,83863,83880,83897,83914,83931,83947,83963,83980,83998,84013,84031,84047,84064,84080,84097,84113,84130,84147,84164,84181,84196,84213,84230,84246,84264,84281,84297,84313,84331,84347,84365,84380,84396,84413,84430,84448,84463,84481,84497,84513,84530,84547,84563,84580,84597,84614,84631,84648,84665,84681,84698,84715,84731,84748,84764,84781,84798,84814,84831,84848,84865,84881,84898,84914,84931,84948,84965,84980,84997,85013,85031,85047,85064,85081,85097,85114,85130,85147,85163,85180,85197,85213,85230,85247,85264,85281,85296,85313,85330,85349,85364,85381,85397,85414,85430,85447,85465,85480,85497,85514,85530,85547,85564,85580,85598,85614,85630,85648,85665,85681,85697,85715,85730,85747,85764,85780,85798,85813,85831,85847,85863,85880,85896,85913,85930,85947,85963,85981,85997,86013,86030,86047,86064,86080,86098,86114,86131,86147,86164,86181,86197,86214,86230,86247,86264,86281,86297,86313,86331,86347,86364,86380,86397,86413,86430,86447,86464,86481,86497,86514,86530,86547,86564,86580,86597,86614,86631,86647,86663,86680,86697,86713,86730,86747,86764,86781,86797,86813,86830,86847,86864,86880,86897,86914,86930,86947,86964,86981,86997,87014,87030,87048,87064,87081,87097,87114,87131,87147,87164,87181,87198,87215,87231,87248,87266,87281,87298,87315,87332,87348,87363,87381,87398,87415,87431,87448,87465,87481,87498,87514,87530,87546,87564,87580,87597,87613,87630,87646,87663,87680,87697,87714,87730,87746,87763,87780,87797,87814,87830,87846,87864,87880,87897,87913,87930,87948,87963,87980,87997,88013,88031,88047,88063,88080,88098,88113,88131,88147,88163,88180,88197,88214,88230,88248,88264,88280,88297,88314,88331,88347,88364,88380,88398,88413,88430,88447,88463,88480,88496,88514,88530,88547,88563,88580,88597,88614,88631,88647,88665,88680,88697,88714,88730,88747,88764,88780,88797,88814,88830,88847,88864,88880,88897,88913,88931,88947,88964,88980,88996,89014,89030,89047,89063,89080,89096,89114,89131,89147,89164,89180,89198,89214,89231,89247,89263,89280,89296,89314,89330,89347,89363,89380,89396,89413,89431,89446,89465,89481,89497,89514,89531,89547,89564,89581,89599,89614,89630,89648,89664,89680,89697,89713,89730,89747,89764,89780,89797,89814,89830,89848,89863,89880,89897,89914,89930,89947,89964,89980,89996,90014,90030,90047,90064,90081,90097,90115,90131,90147,90164,90180,90197,90214,90231,90247,90264,90281,90298,90315,90331,90346,90363,90380,90396,90413,90430,90447,90464,90481,90498,90514,90530,90548,90565,90582,90598,90614,90631,90648,90665,90681,90698,90715,90731,90748,90765,90781,90798,90814,90831,90847,90863,90880,90896,90913,90931,90947,90963,90982,90997,91013,91030,91047,91064,91081,91097,91114,91131,91148,91164,91182,91198,91214,91230,91248,91264,91280,91297,91313,91331,91347,91365,91380,91397,91414,91430,91447,91463,91481,91497,91514,91530,91548,91564,91580,91597,91613,91630,91646,91664,91680,91697,91714,91730,91747,91764,91780,91797,91813,91830,91847,91864,91881,91899,91914,91930,91947,91965,91981,91997,92014,92030,92048,92064,92080,92097,92114,92131,92147,92165,92180,92197,92214,92231,92248,92263,92281,92297,92314,92330,92347,92363,92380,92397,92413,92430,92446,92463,92480,92496,92513,92530,92547,92563,92581,92597,92613,92630,92647,92664,92680,92698,92713,92731,92747,92763,92781,92797,92814,92830,92847,92864,92880,92897,92913,92930,92947,92964,92980,92998,93015,93031,93048,93065,93081,93098,93115,93131,93148,93165,93182,93198,93215,93230,93248,93264,93280,93297,93314,93331,93350,93363,93381,93396,93413,93430,93447,93464,93480,93498,93515,93532,93548,93565,93582,93598,93615,93631,93648,93664,93682,93697,93715,93731,93747,93764,93781,93799,93814,93831,93848,93864,93881,93898,93915,93931,93948,93965,93981,93998,94015,94032,94048,94064,94080,94098,94115,94131,94148,94165,94181,94198,94214,94231,94247,94265,94280,94297,94314,94330,94348,94364,94381,94397,94414,94430,94447,94463,94480,94497,94513,94530,94546,94563,94580,94597,94613,94630,94647,94663,94681,94697,94714,94731,94747,94764,94780,94798,94814,94830,94847,94864,94881,94896,94913,94930,94948,94964,94981,94997,95014,95031,95047,95065,95080,95097,95113,95130,95147,95163,95180,95196,95214,95230,95247,95263,95280,95297,95313,95330,95347,95364,95380,95397,95414,95430,95447,95463,95481,95497,95515,95531,95547,95564,95580,95598,95614,95631,95647,95664,95681,95697,95715,95730,95748,95764,95781,95797,95813,95830,95846,95864,95880,95897,95914,95930,95947,95964,95981,95998,96015,96031,96048,96064,96081,96098,96115,96131,96148,96164,96181,96198,96215,96230,96247,96265,96283,96298,96315,96331,96348,96365,96381,96398,96415,96431,96446,96463,96481,96498,96515,96531,96547,96564,96581,96598,96614,96631,96648,96665,96681,96698,96715,96731,96748,96765,96781,96799,96814,96831,96848,96864,96881,96898,96915,96931,96947,96964,96981,96997,97013,97032,97048,97064,97081,97098,97115,97131,97148,97165,97181,97198,97215,97231,97248,97265,97281,97298,97315,97331,97348,97364,97380,97397,97414,97431,97447,97463,97480,97497,97514,97530,97547,97563,97580,97596,97613,97631,97648,97664,97680,97697,97714,97731,97748,97765,97782,97797,97814,97830,97847,97864,97880,97897,97914,97931,97947,97964,97980,97997,98014,98031,98047,98064,98080,98096,98114,98131,98147,98164,98180,98197,98213,98230,98247,98264,98281,98297,98314,98330,98348,98364,98381,98397,98415,98431,98447,98464,98481,98498,98513,98530,98547,98563,98581,98596,98613,98630,98648,98663,98680,98697,98713,98730,98746,98763,98780,98797,98813,98830,98847,98863,98881,98897,98914,98930,98947,98964,98981,98998,99014,99031,99048,99064,99081,99097,99114,99130,99147,99164,99181,99197,99214,99231,99247,99264,99283,99297,99315,99332,99347,99364,99381,99398,99414,99431,99448,99465,99481,99497,99517,99531,99548,99565,99582,99598,99615,99631,99647,99664,99681,99698,99715,99730,99747,99764,99781,99797,99817,99830,99847,99864,99880,99898,99914,99930,99947,99965,99981,99998,100014,100032,100047,100063,100081,100097,100114,100130,100146,100163,100180,100196,100213,100231,100247,100264,100280,100297,100314,100330,100347,100364,100381,100397,100413,100430,100447,100463,100480,100497,100514,100531,100547,100564,100580,100597,100615,100630,100647,100664,100681,100697,100714,100731,100748,100764,100780,100798,100813,100830,100847,100864,100880,100897,100914,100930,100947,100963,100980,100997,101014,101032,101047,101065,101080,101097,101114,101130,101148,101163,101180,101197,101213,101231,101247,101264,101281,101297,101315,101332,101348,101365,101381,101398,101414,101432,101448,101465,101481,101498,101515,101530,101548,101564,101580,101597,101614,101631,101648,101664,101680,101699,101715,101732,101748,101765,101782,101798,101814,101831,101847,101865,101881,101898,101913,101929,101947,101964,101981,101998,102015,102031,102047,102063,102081,102099,102115,102131,102148,102165,102181,102198,102215,102231,102248,102265,102281,102298,102315,102331,102348,102365,102380,102397,102415,102431,102448,102465,102481,102497,102515,102531,102547,102563,102580,102597,102615,102631,102648,102665,102681,102697,102714,102731,102747,102764,102781,102798,102813,102831,102847,102864,102880,102897,102913,102930,102948,102964,102981,102997,103014,103031,103047,103065,103081,103098,103113,103130,103146,103163,103180,103197,103213,103230,103247,103264,103281,103297,103315,103331,103348,103366,103381,103398,103414,103431,103448,103465,103481,103498,103515,103531,103548,103565,103581,103598,103615,103631,103647,103665,103681,103698,103715,103731,103748,103765,103781,103798,103815,103831,103847,103864,103882,103898,103915,103930,103948,103965,103982,103997,104015,104031,104048,104065,104082,104098,104115,104131,104147,104164,104180,104197,104214,104231,104247,104264,104281,104297,104314,104330,104347,104364,104381,104397,104413,104430,104447,104465,104480,104496,104514,104533,104548,104564,104580,104598,104616,104630,104647,104664,104681,104698,104714,104731,104747,104764,104780,104797,104814,104830,104847,104864,104881,104897,104913,104930,104948,104965,104981,104998,105015,105031,105049,105064,105081,105098,105115,105131,105148,105164,105181,105198,105214,105231,105248,105265,105281,105298,105315,105331,105348,105365,105381,105397,105414,105432,105448,105465,105481,105498,105515,105532,105548,105565,105581,105598,105615,105631,105648,105666,105681,105697,105715,105731,105748,105766,105782,105798,105814,105832,105848,105866,105881,105897,105915,105931,105948,105964,105981,105998,106015,106031,106048,106065,106081,106098,106115,106132,106148,106165,106181,106198,106215,106231,106248,106264,106281,106298,106315,106331,106348,106365,106382,106398,106415,106432,106448,106465,106481,106498,106515,106531,106548,106565,106581,106597,106615,106631,106648,106665,106681,106697,106714,106731,106748,106765,106783,106797,106814,106831,106847,106864,106881,106898,106914,106931,106948,106965,106981,106997,107014,107031,107048,107065,107081,107098,107115,107131,107148,107166,107182,107197,107215,107232,107248,107265,107281,107298,107314,107331,107348,107363,107381,107398,107414,107431,107448,107465,107481,107498,107515,107531,107548,107564,107581,107598,107615,107632,107648,107664,107681,107697,107714,107731,107748,107764,107781,107798,107814,107831,107848,107865,107881,107898,107915,107932,107947,107963,107980,107997,108015,108031,108048,108065,108081,108097,108114,108131,108148,108165,108181,108198,108215,108231,108248,108265,108281,108298,108315,108331,108349,108365,108381,108398,108415,108432,108448,108465,108481,108496,108514,108531,108547,108565,108580,108597,108615,108631,108648,108663,108680,108698,108715,108731,108748,108765,108781,108798,108814,108831,108848,108864,108881,108898,108914,108931,108948,108965,108981,108998,109015,109031,109047,109064,109081,109097,109114,109131,109148,109165,109180,109197,109214,109231,109247,109265,109281,109298,109314,109331,109348,109364,109381,109398,109415,109432,109447,109465,109481,109498,109515,109531,109548,109565,109581,109598,109615,109631,109647,109664,109681,109698,109714,109731,109746,109765,109782,109798,109814,109832,109848,109865,109882,109898,109914,109931,109948,109966,109981,109998,110015,110032,110048,110065,110081,110098,110115,110131,110148,110165,110181,110197,110215,110231,110247,110264,110282,110298,110315,110331,110348,110365,110381,110397,110414,110431,110448,110465,110482,110498,110515,110531,110548,110565,110581,110598,110614,110631,110648,110665,110682,110698,110714,110731,110748,110765,110781,110798,110815,110831,110848,110865,110881,110898,110915,110932,110948,110965,110981,110998,111015,111031,111048,111065,111082,111098,111114,111131,111148,111165,111181,111197,111214,111231,111248,111265,111281,111297,111315,111332,111348,111365,111382,111400,111414,111432,111448,111465,111482,111498,111515,111532,111548,111565,111581,111598,111614,111631,111648,111665,111680,111697,111715,111731,111748,111765,111781,111798,111814,111831,111847,111865,111881,111898,111914,111931,111948,111965,111981,111998,112014,112031,112048,112064,112081,112098,112115,112131,112148,112165,112181,112198,112215,112232,112248,112264,112281,112298,112313,112330,112347,112365,112381,112398,112415,112431,112447,112465,112481,112498,112513,112530,112547,112564,112581,112598,112615,112631,112648,112663,112680,112698,112715,112731,112748,112765,112782,112798,112814,112831,112848,112865,112882,112898,112915,112931,112948,112965,112982,112998,113015,113031,113048,113064,113081,113098,113115,113131,113148,113165,113181,113198,113215,113231,113248,113265,113281,113298,113315,113331,113347,113365,113381,113398,113415,113431,113447,113465,113481,113498,113515,113531,113549,113565,113581,113598,113615,113631,113648,113664,113681,113698,113715,113731,113748,113765,113782,113797,113815,113830,113847,113863,113880,113897,113914,113930,113948,113964,113981,113999,114015,114030,114048,114063,114080,114098,114113,114130,114147,114165,114181,114197,114215,114231,114247,114265,114281,114298,114315,114332,114348,114365,114382,114396,114414,114431,114448,114465,114481,114498,114515,114532,114548,114565,114581,114598,114614,114631,114648,114664,114680,114698,114715,114731,114747,114764,114781,114798,114814,114831,114848,114865,114883,114898,114914,114931,114947,114963,114982,114998,115014,115031,115048,115065,115081,115097,115114,115132,115148,115165,115181,115197,115214,115231,115247,115264,115281,115298,115315,115331,115348,115365,115382,115398,115415,115431,115448,115464,115481,115498,115515,115532,115548,115565,115582,115598,115615,115631,115648,115665,115681,115697,115714,115731,115747,115763,115780,115796,115813,115830,115846,115863,115880,115896,115913,115930,115947,115963,115980,115997,116013,116030,116046,116063,116080,116097,116113,116130,116146,116163,116181,116198,116214,116232,116248,116265,116282,116298,116316,116332,116348,116365,116381,116398,116416,116431,116448,116465,116481,116498,116515,116530,116547,116564,116581,116598,116615,116630,116647,116665,116681,116697,116715,116731,116748,116766,116781,116798,116815,116832,116849,116865,116881,116898,116915,116932,116947,116965,116981,116997,117014,117032,117048,117065,117081,117098,117115,117132,117148,117165,117181,117198,117215,117231,117248,117265,117281,117298,117315,117331,117347,117365,117381,117398,117415,117431,117447,117464,117481,117498,117515,117532,117548,117565,117581,117598,117615,117631,117648,117665,117681,117698,117715,117731,117749,117765,117781,117798,117814,117832,117849,117865,117882,117899,117915,117932,117948,117964,117982,117997,118015,118031,118048,118065,118081,118098,118115,118131,118148,118164,118180,118198,118215,118232,118248,118265,118282,118298,118315,118331,118348,118364,118381,118398,118415,118432,118448,118465,118481,118498,118515,118531,118548,118565,118582,118598,118615,118631,118647,118664,118681,118698,118715,118731,118748,118765,118781,118798,118815,118831,118848,118865,118882,118897,118914,118932,118948,118965,118981,118998,119015,119031,119048,119065,119081,119098,119115,119131,119148,119165,119182,119198,119215,119231,119248,119265,119283,119298,119315,119332,119348,119364,119381,119398,119414,119431,119447,119465,119481,119498,119515,119532,119548,119565,119581,119598,119615,119632,119648,119665,119681,119698,119714,119731,119748,119765,119780,119798,119814,119832,119848,119865,119882,119898,119915,119932,119948,119965,119981,119998,120014,120031,120048,120065,120082,120098,120115,120131,120148,120165,120182,120197,120214,120231,120248,120265,120281,120298,120314,120331,120348,120365,120381,120398,120415,120431,120448,120465,120482,120498,120514,120531,120547,120563,120580,120598,120614,120631,120648,120664,120682,120698,120715,120731,120748,120765,120781,120798,120815,120832,120848,120865,120881,120899,120914,120931,120948,120965,120982,120998,121015,121031,121047,121064,121080,121097,121114,121130,121148,121164,121181,121197,121215,121231,121248,121265,121281,121298,121315,121332,121348,121365,121381,121398,121414,121432,121447,121465,121481,121498,121515,121531,121548,121565,121582,121598,121615,121631,121648,121665,121681,121698,121715,121732,121748,121764,121781,121798,121814,121831,121847,121863,121881,121898,121915,121931,121949,121964,121981,121998,122015,122032,122049,122063,122080,122096,122113,122130,122147,122164,122180,122196,122213,122232,122248,122265,122282,122298,122315,122332,122348,122363,122381,122397,122415,122432,122448,122464,122482,122498,122515,122532,122548,122563,122581,122598,122614,122632,122647,122664,122681,122698,122715,122731,122748,122763,122780,122797,122813,122831,122847,122865,122882,122898,122915,122931,122948,122964,122981,122997,123015,123031,123048,123064,123081,123098,123115,123132,123148,123165,123181,123197,123215,123231,123248,123265,123281,123297,123315,123331,123348,123365,123381,123398,123414,123432,123448,123465,123480,123498,123514,123532,123548,123565,123582,123598,123615,123631,123648,123664,123681,123698,123714,123732,123748,123765,123781,123797,123813,123831,123848,123866,123881,123897,123914,123930,123947,123964,123981,123998,124015,124031,124050,124063,124081,124097,124115,124131,124148,124164,124181,124199,124214,124231,124248,124265,124281,124298,124315,124331,124348,124364,124381,124398,124414,124431,124448,124466,124481,124498,124515,124532,124548,124565,124580,124597,124614,124631,124648,124665,124682,124698,124715,124732,124748,124765,124781,124797,124815,124831,124848,124865,124881,124897,124915,124931,124948,124965,124981,124998,125015,125030,125047,125065,125081,125098,125115,125132,125149,125164,125181,125198,125215,125232,125248,125265,125281,125298,125315,125331,125348,125365,125382,125398,125415,125431,125447,125465,125481,125498,125515,125531,125548,125565,125581,125598,125615,125632,125647,125665,125681,125698,125715,125731,125748,125765,125781,125798,125814,125831,125848,125865,125881,125898,125915,125931,125948,125965,125981,125998,126015,126031,126048,126065,126082,126098,126115,126131,126148,126165,126181,126198,126215,126231,126248,126265,126281,126298,126315,126331,126349,126365,126381,126397,126415,126432,126448,126465,126482,126498,126515,126531,126548,126565,126581,126598,126615,126631,126648,126664,126681,126698,126715,126731,126748,126764,126781,126798,126815,126831,126848,126864,126880,126897,126913,126930,126948,126964,126981,126998,127015,127031,127048,127065,127081,127098,127114,127132,127148,127165,127181,127197,127214,127231,127248,127264,127281,127298,127315,127331,127348,127364,127381,127399,127415,127432,127448,127465,127481,127498,127515,127531,127548,127565,127581,127598,127615,127631,127648,127664,127681,127698,127715,127731,127747,127765,127781,127798,127815,127832,127848,127865,127882,127898,127915,127932,127948,127965,127981,127998,128015,128031,128048,128065,128082,128098,128115,128132,128148,128164,128180,128197,128215,128231,128248,128265,128282,128297,128315,128332,128348,128365,128381,128399,128415,128431,128448,128465,128482,128498,128515,128531,128548,128565,128581,128596,128613,128630,128647,128665,128681,128697,128714,128731,128747,128765,128782,128798,128814,128831,128848,128865,128881,128898,128915,128931,128948,128965,128983,128998,129015,129031,129048,129065,129081,129098,129116,129131,129148,129165,129182,129198,129215,129232,129248,129265,129281,129298,129315,129331,129348,129365,129381,129398,129415,129431,129448,129465,129483,129498,129515,129532,129548,129565,129581,129598,129614,129631,129648,129665,129682,129698,129714,129730,129747,129764,129781,129797,129814,129830,129847,129864,129880,129898,129914,129931,129947,129964,129980,129997,130014,130030,130047,130064,130081,130097,130114,130130,130146,130163,130180,130197,130213,130230,130247,130263,130280,130297,130314,130330,130347,130363,130381,130397,130413,130430,130447,130464,130480,130497,130513,130530,130547,130564,130581,130598,130615,130631,130648,130664,130680,130697,130714,130731,130747,130764,130781,130797,130814,130831,130848,130863,130881,130897,130914,130931,130947,130964,130980,130998,131014,131031,131047,131064,131080,131097,131114,131130,131148,131164,131180,131197,131214,131231,131247,131266,131281,131298,131314,131330,131347,131365,131381,131397,131415,131430,131447,131463,131481,131497,131514,131531,131547,131564,131580,131598,131614,131630,131647,131664,131681,131697,131714,131731,131747,131764,131780,131798,131814,131831,131847,131864,131880,131897,131913,131930,131948,131963,131980,131997,132014,132031,132048,132065,132081,132097,132113,132130,132148,132164,132181,132197,132215,132231,132248,132264,132281,132297,132314,132332,132347,132365,132380,132397,132414,132430,132447,132464,132482,132497,132514,132531,132547,132564,132580,132597,132613,132630,132647,132663,132680,132697,132714,132730,132747,132764,132780,132797,132813,132830,132847,132864,132880,132897,132913,132930,132947,132963,132981,132997,133014,133030,133047,133064,133080,133097,133113,133131,133147,133164,133180,133197,133214,133230,133247,133263,133280,133297,133314,133332,133347,133364,133380,133397,133414,133431,133447,133464,133481,133497,133514,133530,133547,133563,133580,133597,133614,133631,133647,133665,133680,133697,133713,133730,133747,133763,133780,133797,133814,133830,133847,133864,133880,133897,133914,133931,133946,133963,133980,133997,134014,134030,134047,134063,134081,134097,134114,134131,134147,134164,134181,134198,134214,134231,134247,134264,134281,134297,134314,134330,134347,134363,134381,134396,134413,134430,134447,134464,134480,134497,134513,134530,134547,134563,134581,134597,134614,134630,134647,134664,134680,134697,134714,134730,134747,134764,134780,134797,134814,134830,134847,134863,134881,134897,134913,134930,134947,134963,134980,134997,135014,135030,135047,135064,135081,135098,135115,135132,135148,135165,135181,135198,135215,135231,135248,135265,135282,135297,135314,135331,135347,135364,135381,135397,135415,135431,135447,135463,135480,135497,135514,135531,135547,135564,135580,135597,135614,135630,135647,135663,135680,135696,135714,135731,135746,135764,135781,135797,135814,135831,135847,135864,135880,135897,135914,135930,135948,135963,135980,135996,136014,136030,136047,136064,136080,136097,136114,136131,136147,136163,136180,136197,136214,136230,136247,136264,136282,136298,136315,136332,136348,136365,136381,136398,136415,136432,136448,136465,136482,136498,136515,136531,136548,136565,136581,136598,136615,136630,136647,136665,136681,136698,136714,136732,136748,136765,136781,136799,136814,136831,136848,136865,136881,136898,136915,136931,136947,136963,136980,136998,137014,137032,137048,137065,137081,137098,137115,137132,137148,137165,137181,137198,137214,137231,137248,137265,137281,137298,137314,137331,137348,137364,137380,137397,137415,137430,137448,137463,137481,137497,137514,137531,137547,137564,137580,137598,137613,137630,137647,137663,137681,137697,137715,137730,137747,137764,137780,137798,137813,137831,137847,137864,137880,137897,137913,137930,137947,137964,137981,137997,138014,138030,138047,138064,138080,138098,138113,138131,138147,138164,138181,138197,138214,138231,138248,138264,138280,138297,138314,138331,138348,138365,138381,138397,138414,138431,138447,138465,138481,138497,138514,138530,138547,138564,138580,138597,138613,138631,138647,138664,138680,138697,138714,138730,138747,138764,138781,138797,138814,138831,138847,138864,138880,138897,138914,138930,138947,138964,138980,138997,139014,139030,139048,139063,139080,139097,139113,139130,139147,139163,139180,139198,139214,139230,139247,139263,139281,139297,139315,139330,139348,139364,139380,139397,139414,139431,139447,139463,139480,139497,139514,139530,139547,139563,139581,139597,139613,139631,139647,139664,139680,139697,139714,139730,139747,139765,139781,139797,139814,139830,139846,139863,139880,139897,139914,139931,139947,139964,139980,139997,140014,140030,140049,140063,140081,140097,140114,140130,140147,140164,140180,140197,140213,140231,140247,140264,140280,140297,140313,140330,140347,140364,140381,140397,140414,140430,140447,140464,140481,140497,140514,140531,140547,140564,140581,140597,140614,140631,140647,140663,140680,140697,140713,140730,140747,140764,140780,140797,140814,140830,140847,140864,140881,140897,140913,140930,140947,140964,140981,140997,141014,141031,141047,141064,141080,141098,141114,141130,141148,141164,141181,141198,141214,141231,141248,141265,141281,141298,141315,141331,141348,141365,141381,141397,141414,141430,141447,141464,141480,141497,141515,141532,141548,141565,141583,141598,141615,141631,141648,141665,141682,141698,141714,141731,141748,141764,141782,141798,141815,141832,141848,141865,141881,141898,141915,141931,141947,141965,141982,141998,142016,142031,142048,142065,142081,142098,142115,142131,142148,142165,142182,142198,142215,142231,142248,142265,142282,142298,142315,142331,142347,142365,142381,142398,142415,142431,142448,142465,142481,142498,142515,142531,142548,142564,142581,142598,142614,142631,142648,142665,142681,142698,142714,142730,142747,142765,142781,142798,142814,142831,142848,142865,142882,142898,142914,142932,142948,142965,142981,142998,143015,143031,143047,143064,143082,143098,143115,143131,143147,143165,143182,143198,143215,143231,143248,143265,143281,143298,143314,143332,143348,143364,143382,143398,143415,143431,143448,143465,143482,143498,143515,143531,143548,143565,143582,143598,143615,143632,143648,143665,143681,143698,143715,143731,143748,143764,143781,143798,143815,143831,143848,143865,143881,143898,143915,143932,143948,143965,143981,143997,144014,144031,144048,144065,144082,144098,144115,144131,144148,144165,144182,144198,144215,144232,144248,144265,144281,144298,144315,144331,144348,144365,144381,144398,144415,144432,144448,144464,144481,144498,144515,144531,144547,144564,144581,144598,144615,144631,144648,144663,144680,144697,144715,144732,144748,144763,144781,144798,144814,144832,144848,144865,144882,144898,144915,144931,144948,144965,144982,144998,145015,145031,145048,145065,145082,145098,145115,145132,145148,145165,145181,145198,145215,145231,145248,145265,145282,145298,145315,145330,145348,145365,145382,145398,145415,145432,145448,145465,145481,145499,145515,145531,145548,145565,145582,145598,145615,145631,145648,145665,145681,145698,145715,145731,145748,145764,145781,145798,145814,145831,145848,145865,145882,145898,145915,145931,145948,145965,145981,145998,146015,146031,146048,146065,146081,146098,146115,146131,146148,146165,146181,146198,146215,146231,146248,146265,146281,146298,146315,146332,146348,146365,146382,146398,146415,146431,146448,146464,146481,146498,146515,146531,146548,146565,146581,146598,146614,146630,146647,146664,146682,146697,146715,146730,146747,146765,146781,146797,146814,146830,146847,146864,146881,146898,146915,146931,146948,146963,146981,146997,147015,147031,147047,147064,147080,147098,147114,147131,147147,147164,147181,147197,147214,147230,147247,147263,147280,147297,147314,147331,147347,147364,147380,147397,147413,147430,147447,147463,147481,147497,147513,147530,147547,147564,147580,147597,147614,147631,147647,147663,147680,147697,147714,147730,147748,147764,147781,147798,147815,147832,147848,147865,147881,147898,147915,147932,147948,147964,147981,147997,148013,148030,148047,148064,148081,148098,148115,148132,148148,148165,148180,148198,148215,148231,148247,148265,148281,148298,148315,148332,148348,148365,148381,148398,148415,148431,148448,148465,148482,148498,148515,148531,148548,148565,148582,148598,148615,148631,148648,148665,148681,148697,148715,148732,148749,148765,148782,148798,148815,148832,148848,148864,148881,148897,148914,148931,148947,148964,148980,148997,149014,149030,149047,149064,149081,149097,149114,149130,149148,149164,149180,149198,149214,149231,149247,149264,149280,149298,149313,149330,149347,149364,149381,149398,149414,149431,149447,149464,149480,149497,149514,149532,149547,149564,149581,149597,149615,149631,149647,149664,149681,149698,149714,149732,149747,149763,149780,149798,149815,149830,149847,149864,149881,149898,149914,149931,149947,149964,149981,149997,150014,150031,150047,150065,150082,150098,150115,150132,150148,150165,150181,150198,150214,150232,150249,150266,150281,150299,150315,150332,150348,150365,150382,150398,150415,150432,150447,150464,150481,150498,150518,150531,150547,150565,150582,150598,150615,150632,150649,150665,150682,150698,150715,150731,150748,150765,150782,150798,150817,150831,150848,150865,150881,150898,150915,150931,150947,150965,150981,150997,151015,151031,151048,151066,151081,151098,151114,151132,151148,151164,151181,151197,151214,151231,151247,151264,151280,151297,151314,151330,151347,151363,151381,151397,151414,151430,151448,151465,151482,151498,151515,151532,151548,151565,151582,151598,151615,151632,151648,151665,151682,151698,151715,151732,151749,151764,151780,151798,151815,151832,151849,151864,151882,151898,151916,151931,151948,151965,151981,151998,152015,152032,152048,152065,152081,152099,152115,152132,152148,152164,152182,152198,152215,152231,152248,152267],"hit":[null],"x":[-2.0408163265306123,-2.0408163265306123,-2.0408163265306123,-2.0408163265306123,-2.0408163265306123,-2.0408163265306123,-2.0408163265306123,-2.0408163265306123,-2.0408163265306123,-2.0408163265306123,-2.0408163265306123,-2.0408163265306123,-2.0408163265306123,-2.0408163265306123,-2.0408163265306123,-2.0408163265306123,-2.0408163265306123,-2.0408163265306123,-2.0408163265306123,-2.0408163265306123,-2.0408163265306123,-2.0408163265306123,-2.0408163265306123,-2.0408163265306123,-2.0408163265306123,-2.0408163265306123,-2.0408163265306123,-2.0408163265306123,-2.0408163265306123,-2.0408163265306123,-2.0408163265306123,-2.0408163265306123,-2.0408163265306123,-2.0408163265306123,-2.0408163265306123,-2.0408163265306123,-2.0408163265306123,-2.0408163265306123,-2.0408163265306123,-2.0408163265306123,-2.0408163265306123,-2.0408163265306123,-2.0408163265306123,-2.0408163265306123,-2.0408163265306123,-2.0408163265306123,-2.0408163265306123,-2.0408163265306123,-2.0408163265306123,-2.0408163265306123,-2.0408163265306123,-2.0408163265306123,-2.0408163265306123,-2.0408163265306123,-2.0408163265306123,-2.0408163265306123,-2.0408163265306123,-2.0408163265306123,-2.0408163265306123,-2.0408163265306123,-2.0408163265306123,-2.0408163265306123,-2.0408163265306123,-2.0408163265306123,-2.0408163265306123,-2.0408163265306123,-2.0408163265306123,-2.0408163265306123,0.06802721088435375,-0.003401360544217687,-0.16326530612244897,-0.29931972789115646,-0.36394557823129253,-0.46598639455782315,-0.54421768707483,-0.6190476190476191,-0.6462585034013606,-0.6666666666666666,-0.6802721088435374,-0.6870748299319728,-0.6972789115646258,-0.6972789115646258,-0.6598639455782312,-0.6122448979591837,-0.5714285714285714,-0.4931972789115646,-0.4217687074829932,-0.29931972789115646,-0.19047619047619047,-0.1360544217687075,-0.030612244897959183,0.08163265306122448,0.1564625850340136,0.24149659863945577,0.3401360544217687,0.3945578231292517,0.47619047619047616,0.5204081632653061,0.54421768707483,0.5748299319727891,0.5884353741496599,0.5952380952380952,0.5952380952380952,0.5986394557823129,0.5986394557823129,0.5986394557823129,0.5986394557823129,0.5986394557823129,0.5952380952380952,0.5884353741496599,0.5714285714285714,0.5578231292517006,0.5170068027210885,0.4965986394557823,0.47619047619047616,0.46258503401360546,0.4523809523809524,0.445578231292517,0.43537414965986393,0.43197278911564624,0.42517006802721086,0.4217687074829932,0.41496598639455784,