[{"success":true,"trial_type":"fullscreen","trial_index":0,"time_elapsed":3125,"internal_node_id":"0.0-0.0","protocol_sum":"","subject_identifier":128,"subject_sum":[166,139,65,44,66,130,85,95,21,84,108,246,225,252,66,137,59,126,7,242,113,85,124,235,2,24,33,9,141,214,108,27],"subject_pair":64,"STUDY_ID":"669a702db1122fc5150a13ce","PROLIFIC_PID":"65b549c67c7791499c09f8a2","SESSION_ID":"669b231f9e48b4e677c1021c","practice_instructions":1,"leaderboard_instructions":0,"bonus":0,"reveal_word":false,"self_rating":"2","confidence":"74"},{"view_history":"[{\"page_index\":0,\"viewing_time\":2481.2999999523163}]","rt":2481.6999999284744,"trial_type":"instructions","trial_index":1,"time_elapsed":5607,"internal_node_id":"0.0-1.0","protocol_sum":"","subject_identifier":128,"subject_sum":[166,139,65,44,66,130,85,95,21,84,108,246,225,252,66,137,59,126,7,242,113,85,124,235,2,24,33,9,141,214,108,27],"subject_pair":64,"STUDY_ID":"669a702db1122fc5150a13ce","PROLIFIC_PID":"65b549c67c7791499c09f8a2","SESSION_ID":"669b231f9e48b4e677c1021c","practice_instructions":1,"leaderboard_instructions":0,"bonus":0,"reveal_word":false,"self_rating":"2","confidence":"74"},{"view_history":"[{\"page_index\":0,\"viewing_time\":9216.199999928474}]","rt":9216.600000023842,"trial_type":"instructions","trial_index":2,"time_elapsed":14825,"internal_node_id":"0.0-2.0-0.0","protocol_sum":"","subject_identifier":128,"subject_sum":[166,139,65,44,66,130,85,95,21,84,108,246,225,252,66,137,59,126,7,242,113,85,124,235,2,24,33,9,141,214,108,27],"subject_pair":64,"STUDY_ID":"669a702db1122fc5150a13ce","PROLIFIC_PID":"65b549c67c7791499c09f8a2","SESSION_ID":"669b231f9e48b4e677c1021c","practice_instructions":1,"leaderboard_instructions":0,"bonus":0,"reveal_word":false,"self_rating":"2","confidence":"74"},{"rt":8486.399999976158,"responses":"{\"Q0\":\"... reveal the word with as <b>few letter guesses</b> as possible\"}","question_order":"[0]","trial_type":"survey-multi-choice","trial_index":3,"time_elapsed":23314,"internal_node_id":"0.0-2.0-1.0","protocol_sum":"","subject_identifier":128,"subject_sum":[166,139,65,44,66,130,85,95,21,84,108,246,225,252,66,137,59,126,7,242,113,85,124,235,2,24,33,9,141,214,108,27],"subject_pair":64,"correct":true,"test_part":"multichoice_nonpretend","STUDY_ID":"669a702db1122fc5150a13ce","PROLIFIC_PID":"65b549c67c7791499c09f8a2","SESSION_ID":"669b231f9e48b4e677c1021c","practice_instructions":1,"leaderboard_instructions":0,"bonus":0,"reveal_word":false,"self_rating":"2","confidence":"74"},{"view_history":"[{\"page_index\":0,\"viewing_time\":1582.0999999046326}]","rt":1582.2999999523163,"trial_type":"instructions","trial_index":4,"time_elapsed":24897,"internal_node_id":"0.0-3.0","protocol_sum":"","subject_identifier":128,"subject_sum":[166,139,65,44,66,130,85,95,21,84,108,246,225,252,66,137,59,126,7,242,113,85,124,235,2,24,33,9,141,214,108,27],"subject_pair":64,"STUDY_ID":"669a702db1122fc5150a13ce","PROLIFIC_PID":"65b549c67c7791499c09f8a2","SESSION_ID":"669b231f9e48b4e677c1021c","practice_instructions":1,"leaderboard_instructions":0,"bonus":0,"reveal_word":false,"self_rating":"2","confidence":"74"},{"word":"ZEBRA","click_log":{"letter":["","H","S","R","D","A","C","Z","E","B"],"t":[0,4942.100000023842,16695.699999928474,22634.899999976158,33217.199999928474,36780,41422.60000002384,45832.699999928474,48479.699999928474,50211.39999997616],"hit":[null,0,0,1,0,1,0,1,1,1],"asked":["","H","HS","HSR","HSRD","HSRDA","HSRDAC","HSRDACZ","HSRDACZE","HSRDACZEB"],"word_state":["_____","_____","_____","___R_","___R_","___RA","___RA","Z__RA","ZE_RA","ZEBRA"]},"hover_log":{"letter":["?","?","?","?","?","?","?","?","?","?","?","?","?","?","?","?","?","?","?","?","?","?","?","?","?","?","?","?","?","?","?","?","?","?","?","?","?","?","?","?","?","?","?","?","?","?","?","J","J","J","J","J","?","?","?","?","?","?","?","?","?","?","?","?","?","?","?","?","?","?","?","?","?","?","?","?","?","?","?","?","?","?","?","?","?","?","?","?","?","?","?","?","?","?","?","?","?","?","?","?","?","?","?","?","?","?","?","?","?","?","J","J","J","J","J","J","J","J","J","?","?","K","K","K","K","K","K","?","?","?","?","?","?","?","?","?","?","?","?","L","L","L","L","L","L","L","L","L","L","L","L","L","?","?","?","?","?","?","?","?","M","M","M","M","M","M","M","M","M","M","M","M","M","M","M","M","M","M","M","?","?","N","N","N","N","N","N","N","N","N","N","N","N","N","N","N","N","N","N","?","?","?","?","?","?","?","?","?","?","?","?","?","G","G","G","G","G","G","G","G","G","G","G","G","G","G","G","G","?","?","H","H","H","H","H","H","H","H","H","H","H","H","H","H","H","H","H","H","H","H","H","H","H","H","H","H","H","H","H","H","H","H","H","H","H","H","H","H","H","H","H","H","H","H","H","H","H","H","H","H","H","H","H","H","H","H","H","H","H","H","H","H","H","H","H","H","H","H","H","H","H","H","H","H","H","H","H","H","H","H","H","H","H","H","H","H","H","H","H","H","H","H","H","H","H","H","H","H","H","H","H","H","H","H","H","H","H","H","H","H","H","H","H","H","H","H","H","H","H","H","H","H","H","H","H","H","H","H","H","H","H","H","H","H","H","H","H","H","H","H","?","G","G","G","G","G","G","G","G","G","G","G","G","G","G","G","G","G","G","G","G","G","G","G","G","G","G","G","G","G","G","G","G","G","G","G","G","G","G","G","G","G","G","G","G","G","G","G","G","G","G","G","G","G","G","G","G","G","G","G","G","G","G","G","G","G","G","G","G","G","G","G","G","G","G","G","G","G","G","G","G","G","G","G","G","G","G","G","G","G","G","G","G","G","G","G","G","G","G","G","G","G","G","G","G","G","G","G","G","G","G","G","G","G","G","G","G","G","G","G","G","G","G","G","G","G","G","G","G","G","G","G","G","G","G","G","G","G","G","G","G","G","G","G","G","G","G","G","G","G","G","G","G","G","G","G","G","G","G","G","G","G","G","G","G","G","G","G","G","G","G","G","G","G","G","G","G","G","G","G","G","G","G","G","G","G","G","G","G","G","G","G","G","G","G","G","G","G","G","G","G","G","G","G","G","G","G","G","G","G","G","G","G","G","G","G","G","G","G","G","G","G","G","G","G","G","G","G","G","G","G","G","G","G","G","G","G","G","G","G","G","G","G","G","G","G","G","G","G","G","G","G","G","G","G","G","G","G","G","G","G","G","G","G","G","G","G","G","G","G","G","G","G","G","G","G","G","G","G","G","G","G","G","G","G","G","G","G","G","G","G","G","G","G","G","G","G","G","G","G","G","G","G","G","G","G","G","G","G","G","G","G","G","G","G","G","G","G","G","G","G","G","G","G","G","G","G","G","G","G","G","G","G","G","G","G","G","G","G","G","G","G","G","G","G","G","G","G","G","G","G","G","G","G","G","G","G","G","G","G","G","G","G","G","G","G","G","G","G","G","G","G","G","G","G","G","G","G","G","G","G","G","G","G","G","G","G","G","G","G","G","G","G","G","G","G","G","G","G","G","G","G","G","G","G","G","G","G","G","G","G","G","G","G","G","G","G","G","G","G","G","G","G","G","G","G","G","G","G","G","G","G","G","G","G","G","G","G","G","G","G","?","?","?","?","?","?","?","?","?","?","?","?","?","?","?","?","?","?","?","?","?","?","?","?","?","?","?","?","?","?","?","?","?","?","?","?","?","?","?","?","?","?","?","?","?","?","?","?","?","?","?","?","?","?","?","?","?","?","?","?","?","?","?","?","?","?","?","?","?","?","?","?","?","?","?","?","?","?","?","?","?","?","?","?","?","?","?","?","?","?","?","?","?","?","?","?","?","?","?","?","?","?","O","O","O","O","?","?","N","N","N","N","N","N","N","N","N","N","N","N","N","N","N","N","?","?","?","?","?","?","?","?","?","?","?","?","?","?","U","U","U","U","?","?","?","T","T","T","T","T","T","T","T","T","?","S","S","S","S","S","S","S","S","S","S","S","S","S","S","S","S","S","S","S","S","S","S","S","S","S","S","S","S","S","S","S","S","S","S","S","S","S","S","S","S","S","S","S","S","S","S","S","S","S","S","S","S","S","S","S","S","S","S","S","S","S","S","S","S","S","S","S","S","S","S","S","S","S","S","S","S","S","S","S","S","S","S","S","S","S","S","S","S","S","S","S","S","S","S","S","S","S","S","S","S","S","S","S","S","S","?","T","?","?","?","?","?","?","?","?","?","?","?","?","?","?","?","?","?","?","?","?","?","?","?","?","?","?","?","?","?","?","?","?","?","?","?","?","?","?","?","?","?","?","?","?","?","?","?","?","?","?","?","?","?","?","?","?","?","?","?","?","?","?","?","?","?","?","?","?","?","?","?","?","?","?","?","?","?","?","?","?","?","?","?","?","?","?","?","?","?","?","?","?","?","?","?","?","?","?","?","?","?","?","?","?","?","?","?","?","?","?","?","?","?","?","?","?","?","?","?","?","?","?","?","?","?","?","?","?","?","?","?","?","?","?","?","?","?","?","?","?","?","?","?","?","?","?","?","?","?","?","?","?","?","?","?","?","?","?","?","?","?","?","?","?","?","?","?","?","?","?","?","?","?","?","?","?","?","?","?","?","?","?","?","?","?","?","?","?","?","?","?","?","?","?","?","?","?","?","?","?","?","?","?","?","?","?","?","?","?","?","?","?","?","?","?","?","?","?","M","M","?","?","?","?","?","?","?","?","?","?","?","?","?","?","?","?","?","?","?","?","?","?","?","Q","?","?","?","?","R","R","R","R","R","R","R","R","R","R","R","R","R","R","R","R","R","R","R","R","R","R","R","R","R","R","R","R","R","R","R","R","R","R","R","R","R","R","R","R","R","R","R","R","R","R","R","R","R","R","R","R","R","R","R","R","R","R","R","R","R","R","R","R","R","R","R","R","R","R","R","R","R","R","R","R","R","R","R","R","R","R","R","R","R","R","R","R","R","R","R","R","R","R","R","R","R","R","R","R","R","R","R","R","R","R","R","R","R","R","R","R","R","R","R","R","R","R","R","R","R","R","R","R","R","R","R","R","R","R","R","R","R","R","R","R","R","R","R","R","R","R","R","R","R","R","R","R","R","R","R","R","R","R","R","R","R","R","R","R","R","R","R","R","R","R","R","R","R","R","R","R","R","R","R","R","R","R","R","R","R","R","R","R","R","R","R","R","R","R","R","R","R","R","R","R","R","R","R","?","?","?","?","?","?","?","?","?","?","?","?","?","?","?","?","?","?","?","?","?","?","?","?","?","?","?","?","?","?","?","?","?","Z","Z","Y","Y","?","?","?","?","?","?","?","?","?","?","?","?","?","?","?","?","?","?","?","?","?","?","?","?","?","?","?","?","?","?","?","?","?","?","?","?","?","?","?","?","?","?","?","?","?","?","?","?","?","?","?","?","?","?","?","?","?","?","?","?","?","?","?","?","?","?","?","?","?","?","?","?","?","?","?","?","?","?","?","?","?","?","?","?","?","?","?","?","?","?","?","?","M","M","M","M","M","M","M","M","M","M","M","?","?","?","V","V","V","V","V","V","V","V","?","?","?","?","?","?","?","?","?","?","?","?","?","?","?","?","?","?","?","?","?","?","?","?","?","?","?","?","?","?","?","?","?","?","?","?","?","?","?","?","?","?","?","?","V","V","V","?","?","?","?","?","?","?","?","?","?","?","?","?","?","?","?","?","?","?","?","?","?","?","?","?","?","?","?","?","?","?","?","?","?","?","?","?","?","?","?","?","?","?","?","?","?","?","?","?","?","?","?","?","?","?","?","?","?","?","?","?","?","?","?","?","?","?","?","?","?","?","?","?","?","?","?","?","?","?","?","?","?","?","?","?","?","?","?","?","?","?","?","?","?","?","?","?","?","?","?","?","?","?","?","?","?","?","?","?","?","?","?","?","?","?","?","?","?","?","?","?","?","?","?","?","?","?","?","?","?","?","?","?","?","?","?","?","?","?","?","?","?","?","?","?","?","?","?","?","?","?","?","?","?","?","?","?","?","?","?","?","?","?","?","?","?","?","?","?","?","?","?","?","?","?","?","?","?","?","?","?","?","?","?","?","?","?","?","?","?","?","?","?","?","?","?","?","?","?","?","?","?","?","?","?","?","?","?","?","?","?","?","?","?","?","?","?","?","?","?","?","?","?","?","L","L","L","L","?","?","?","?","?","?","?","?","?","?","?","?","?","?","?","?","?","?","?","?","?","D","D","D","D","D","D","D","D","D","D","D","D","D","D","D","D","D","D","D","D","D","D","D","D","D","D","D","D","D","D","D","D","D","D","D","D","D","D","D","D","D","D","D","D","D","D","D","D","D","D","D","D","D","D","D","D","D","D","D","D","D","D","D","D","D","D","D","D","D","D","D","D","D","D","D","D","D","D","D","D","D","D","D","D","D","D","D","D","D","D","D","D","D","D","D","D","D","D","D","D","D","D","D","D","D","D","D","D","D","D","D","D","D","D","D","D","D","D","D","D","D","D","D","D","D","D","D","D","D","D","D","D","D","D","D","D","D","D","D","D","D","D","?","?","?","?","?","?","?","?","?","?","?","?","?","?","?","?","?","?","?","?","?","?","?","?","?","?","?","?","?","?","?","?","?","?","?","?","?","?","?","?","?","?","?","?","?","?","?","?","?","?","?","?","?","?","?","?","A","A","A","A","A","A","A","A","A","A","A","A","A","A","A","A","A","A","A","A","A","A","A","A","A","A","A","A","A","A","A","A","A","A","A","A","A","A","A","A","A","A","A","A","A","A","A","A","A","A","A","A","A","A","A","A","A","A","A","A","A","A","A","A","A","A","A","A","A","A","A","A","A","A","A","A","A","A","A","A","A","A","A","A","A","A","A","A","A","A","A","A","A","A","A","A","A","A","A","A","A","A","A","A","A","A","A","A","A","A","A","A","A","A","A","A","A","A","A","A","A","A","A","A","A","A","A","A","A","A","A","A","A","A","A","A","A","A","A","A","A","A","A","A","A","A","A","A","A","A","A","A","A","A","A","A","A","?","?","?","?","?","?","?","?","?","?","?","?","?","?","?","?","?","?","?","?","?","?","?","?","?","?","?","?","?","?","?","?","?","?","?","?","?","?","?","?","?","?","?","?","?","?","?","C","C","C","C","C","C","C","C","C","C","C","C","C","C","C","C","C","C","C","C","C","C","C","C","C","C","C","C","C","C","C","C","C","C","C","C","C","C","C","C","C","C","C","C","C","C","C","C","C","C","C","C","C","C","C","C","C","C","C","C","C","C","C","C","C","C","C","C","C","C","C","C","C","C","C","C","C","C","C","C","C","C","C","C","C","C","C","C","C","C","C","C","C","C","C","C","C","C","C","C","C","C","C","C","C","C","C","C","C","C","C","C","C","C","C","C","C","C","C","C","C","C","C","C","C","C","C","C","C","C","C","C","C","C","C","C","C","C","C","C","C","C","C","C","C","C","C","C","C","C","C","C","C","C","C","C","C","C","C","C","C","C","C","C","C","C","C","C","C","C","C","C","C","C","C","C","C","C","C","C","C","C","C","C","C","C","C","C","C","C","C","C","C","C","C","C","C","C","C","C","C","C","C","C","C","C","C","C","C","C","C","C","C","C","C","C","C","C","C","C","C","C","C","C","C","C","C","C","C","C","C","C","C","C","C","?","?","?","?","?","C","C","C","C","C","C","C","C","C","C","C","C","C","C","C","C","C","C","C","C","C","?","?","?","?","?","?","?","?","?","?","?","?","?","?","?","?","?","?","?","?","?","?","?","?","?","?","?","?","?","?","?","?","?","?","N","N","N","?","?","?","?","?","?","?","?","?","?","?","?","?","?","?","?","?","?","Z","Z","Z","Z","Z","Z","Z","Z","Z","Z","Z","Z","Z","Z","Z","Z","Z","Z","Z","Z","Z","Z","Z","Z","Z","Z","Z","Z","Z","Z","Z","Z","Z","Z","Z","Z","Z","Z","Z","Z","Z","Z","Z","Z","Z","Z","Z","Z","Z","Z","Z","Z","Z","Z","Z","Z","Z","Z","Z","Z","Z","Z","Z","Z","Z","Z","Z","Z","Z","Z","Z","Z","Z","Z","Z","Z","Z","Z","Z","Z","Z","Z","Z","Z","Z","Z","Z","Z","Z","Z","Z","Z","Z","Z","Z","Z","Z","Z","Z","Z","Z","Z","Z","Z","Z","Z","Z","Z","Z","Z","Z","Z","Z","Z","Z","Z","Z","Z","Z","Z","Z","Z","Z","Z","Z","Z","Z","Z","Z","Z","?","?","?","Y","Y","Y","Y","Y","?","?","O","O","O","O","?","?","?","?","?","?","?","?","?","?","?","?","?","?","?","?","?","?","E","E","E","E","E","E","E","E","E","E","E","E","E","E","E","E","E","E","E","E","E","E","E","E","E","E","E","E","E","E","E","E","E","E","E","E","E","E","E","E","E","E","E","E","E","E","E","E","E","E","E","E","E","E","E","E","E","E","E","E","E","E","E","E","E","E","E","E","E","E","E","E","E","E","E","E","E","E","E","E","E","E","E","E","E","E","?","?","?","?","?","?","?","?","?","?","?","?","?","?","?","?","?","?","?","?","?","?","?","?","B","B","B","?","A","A","A","A","A","A","A","A","A","A","A","A","A","?","?","?","?","B","B","B","B","B","B","B","B","B","B","B","B","B","B","B","B","B","B","B","B","B","B","B","B","B","B","B","B","B","B","B","B","B","B","B","B","B","B","B","B","B","B","B","B","B","B","B","B","B","B","B","B","B","B","B","B","B","B","B","B","B","B","B","B","B","B","B","B","?","?","?","?","?","?","?","?","?","?","?","M","M","?","N","N","N","?","O","O","O","O","O","P","P","P","P","P","P","P","P","P","P","P","P","P","P","P","P","P","P","P","P","P","P","P","P","P","P","P","P","P","P","P","P","P","P","P","P","P","P","P","P","P","P","P","P","P","P","P","P","P","P","P","P","Q","Q","?","?","?","?","?","?","?","?","?","?"],"t":[57,65,86,101,118,135,153,170,186,201,218,235,254,271,286,301,318,337,355,369,384,401,417,434,451,468,485,502,519,535,551,567,583,601,618,635,652,668,685,701,717,734,751,767,784,802,819,839,850,867,884,902,918,935,953,969,985,1002,1018,1034,1051,1068,1085,1101,1121,1136,1153,1169,1185,1202,1217,1234,1252,1268,1286,1303,1321,1337,1353,1370,1384,1402,1417,1435,1451,1468,1485,1500,1517,1534,1551,1567,1583,1599,1617,1633,1650,1667,1684,1700,1717,1734,1751,1768,1785,1801,1817,1833,1851,1868,1884,1901,1917,1935,1950,1967,1983,2001,2018,2034,2050,2068,2084,2101,2117,2134,2151,2167,2184,2201,2217,2233,2251,2267,2283,2300,2317,2334,2350,2368,2384,2401,2417,2434,2450,2468,2483,2500,2515,2532,2550,2565,2582,2599,2615,2632,2650,2667,2682,2700,2718,2732,2749,2766,2783,2800,2817,2833,2851,2866,2883,2899,2916,2934,2950,2966,2983,3000,3016,3033,3050,3066,3083,3099,3116,3133,3151,3166,3183,3199,3217,3233,3249,3266,3283,3299,3316,3333,3350,3366,3383,3399,3416,3434,3451,3466,3482,3499,3516,3533,3549,3565,3582,3598,3616,3633,3649,3666,3683,3698,3715,3732,3749,3766,3783,3799,3816,3833,3849,3865,3882,3898,3915,3931,3949,3965,3982,3999,4016,4032,4049,4066,4082,4099,4116,4132,4149,4165,4183,4199,4215,4232,4249,4265,4282,4300,4315,4332,4349,4365,4383,4399,4416,4432,4449,4466,4482,4499,4515,4532,4549,4564,4581,4598,4614,4632,4648,4665,4682,4699,4714,4731,4748,4765,4782,4799,4815,4832,4849,4865,4881,4898,4915,4933,4949,4964,4981,4999,5015,5032,5049,5064,5082,5099,5114,5132,5149,5165,5182,5199,5215,5232,5250,5266,5282,5298,5316,5331,5348,5365,5382,5398,5416,5431,5448,5465,5481,5498,5515,5533,5548,5564,5580,5598,5614,5631,5648,5665,5683,5697,5714,5731,5747,5765,5781,5798,5814,5831,5848,5865,5882,5898,5915,5931,5948,5965,5982,5999,6014,6031,6048,6064,6081,6099,6114,6132,6149,6165,6182,6198,6215,6232,6248,6265,6281,6298,6314,6331,6348,6364,6381,6398,6414,6432,6447,6465,6482,6497,6514,6531,6547,6563,6580,6596,6613,6630,6646,6664,6681,6698,6713,6730,6747,6763,6780,6797,6814,6831,6847,6864,6881,6898,6914,6930,6947,6964,6980,6997,7014,7030,7047,7064,7081,7097,7114,7132,7147,7164,7180,7197,7214,7230,7247,7264,7281,7297,7314,7331,7347,7364,7380,7397,7413,7430,7447,7463,7480,7497,7513,7530,7547,7563,7579,7596,7612,7629,7646,7662,7679,7696,7713,7729,7745,7763,7779,7796,7813,7830,7846,7863,7879,7897,7913,7929,7946,7963,7980,7996,8013,8029,8046,8063,8080,8097,8113,8129,8147,8163,8180,8196,8213,8230,8247,8262,8279,8296,8314,8329,8346,8364,8381,8396,8412,8430,8446,8463,8479,8496,8513,8529,8546,8562,8579,8595,8612,8630,8647,8662,8678,8696,8713,8729,8746,8762,8779,8796,8812,8828,8846,8863,8879,8896,8912,8929,8946,8963,8979,8996,9012,9030,9046,9063,9079,9096,9112,9129,9146,9163,9179,9196,9213,9229,9245,9263,9279,9296,9312,9329,9346,9362,9379,9396,9412,9429,9446,9462,9479,9495,9513,9530,9545,9561,9578,9594,9612,9628,9645,9662,9678,9695,9711,9728,9745,9762,9778,9795,9811,9828,9845,9862,9878,9895,9912,9929,9944,9961,9978,9995,10012,10028,10044,10061,10079,10095,10112,10129,10146,10161,10178,10195,10212,10229,10244,10262,10279,10294,10311,10329,10345,10362,10378,10395,10411,10429,10444,10461,10479,10494,10511,10529,10544,10560,10577,10594,10610,10628,10643,10661,10677,10694,10711,10727,10743,10761,10778,10794,10811,10827,10845,10860,10877,10894,10911,10927,10945,10961,10978,10994,11011,11028,11043,11061,11078,11094,11111,11128,11144,11161,11178,11195,11212,11228,11244,11262,11278,11294,11311,11328,11344,11361,11378,11394,11411,11427,11445,11460,11477,11493,11510,11528,11544,11559,11576,11592,11609,11627,11643,11660,11677,11695,11711,11728,11743,11760,11776,11793,11810,11827,11843,11860,11877,11895,11911,11928,11943,11960,11977,11993,12009,12027,12043,12061,12077,12094,12110,12127,12143,12160,12177,12194,12211,12228,12243,12260,12277,12293,12310,12327,12344,12360,12378,12394,12411,12426,12445,12459,12476,12493,12510,12527,12543,12559,12576,12593,12609,12626,12642,12659,12677,12692,12710,12726,12743,12760,12776,12793,12809,12826,12842,12860,12876,12893,12910,12927,12944,12960,12976,12993,13009,13026,13043,13059,13076,13093,13110,13126,13143,13160,13177,13193,13210,13226,13243,13260,13276,13293,13309,13326,13343,13359,13376,13393,13411,13427,13443,13460,13477,13493,13509,13526,13543,13559,13575,13592,13608,13625,13643,13659,13676,13693,13709,13726,13743,13760,13776,13793,13809,13825,13841,13859,13876,13893,13910,13926,13943,13960,13976,13993,14009,14026,14042,14059,14076,14092,14110,14126,14142,14159,14176,14193,14209,14226,14243,14259,14276,14292,14309,14327,14343,14359,14376,14393,14409,14426,14442,14459,14475,14492,14509,14525,14542,14558,14575,14591,14608,14625,14642,14659,14675,14692,14709,14725,14742,14759,14775,14791,14809,14825,14841,14857,14874,14891,14909,14925,14942,14959,14976,14992,15008,15025,15042,15058,15075,15092,15108,15125,15142,15159,15174,15191,15208,15225,15241,15258,15275,15291,15308,15325,15341,15357,15375,15392,15408,15425,15442,15458,15475,15492,15509,15525,15542,15558,15574,15591,15607,15624,15641,15659,15676,15692,15708,15725,15742,15758,15775,15792,15808,15825,15842,15858,15874,15890,15908,15925,15941,15957,15975,15992,16009,16025,16042,16058,16074,16091,16108,16125,16142,16158,16174,16191,16208,16225,16242,16258,16276,16292,16307,16325,16341,16358,16374,16391,16408,16424,16441,16458,16474,16492,16507,16524,16541,16559,16573,16590,16607,16623,16641,16657,16674,16691,16708,16724,16741,16758,16773,16790,16808,16824,16841,16857,16875,16890,16907,16923,16940,16957,16974,16991,17007,17025,17041,17058,17075,17090,17107,17123,17140,17157,17174,17190,17207,17224,17240,17257,17274,17291,17308,17325,17340,17357,17374,17391,17407,17425,17440,17457,17474,17491,17508,17525,17540,17557,17573,17589,17606,17623,17640,17657,17673,17690,17708,17724,17740,17757,17774,17791,17807,17824,17841,17857,17874,17890,17906,17922,17940,17956,17973,17989,18006,18023,18040,18055,18074,18090,18106,18123,18140,18156,18173,18190,18206,18223,18241,18256,18273,18290,18306,18323,18340,18356,18374,18391,18407,18423,18440,18457,18475,18489,18507,18524,18540,18557,18573,18589,18606,18622,18639,18657,18673,18690,18706,18723,18739,18756,18772,18789,18806,18823,18839,18856,18873,18890,18906,18922,18939,18955,18972,18990,19006,19023,19040,19056,19073,19089,19106,19122,19139,19155,19172,19188,19205,19222,19239,19255,19273,19289,19305,19322,19339,19355,19371,19388,19405,19423,19439,19455,19472,19488,19506,19522,19538,19554,19571,19588,19606,19622,19638,19655,19672,19689,19705,19723,19739,19756,19772,19789,19805,19822,19839,19856,19872,19889,19907,19923,19939,19954,19971,19988,20005,20021,20038,20055,20071,20088,20104,20122,20139,20156,20172,20189,20204,20222,20239,20255,20273,20289,20305,20322,20339,20355,20373,20388,20405,20422,20440,20456,20472,20489,20505,20521,20540,20554,20571,20588,20604,20621,20637,20655,20671,20688,20704,20721,20738,20754,20771,20789,20805,20821,20838,20855,20872,20889,20905,20923,20938,20955,20970,20988,21004,21021,21038,21054,21072,21088,21106,21121,21139,21154,21171,21188,21204,21222,21238,21254,21271,21288,21304,21321,21337,21354,21372,21388,21406,21421,21438,21454,21471,21488,21504,21521,21538,21554,21570,21587,21603,21620,21638,21655,21670,21687,21704,21721,21737,21755,21771,21788,21804,21821,21837,21854,21871,21888,21904,21921,21937,21954,21972,21988,22003,22020,22037,22054,22071,22088,22104,22121,22137,22154,22171,22187,22204,22221,22238,22254,22270,22287,22304,22320,22337,22355,22370,22387,22404,22421,22438,22454,22470,22486,22503,22520,22536,22553,22570,22586,22603,22619,22639,22653,22670,22687,22703,22721,22738,22755,22770,22787,22803,22821,22837,22853,22870,22887,22903,22920,22937,22953,22970,22987,23003,23020,23037,23053,23070,23086,23103,23119,23137,23153,23170,23187,23204,23220,23237,23254,23270,23287,23304,23320,23337,23354,23370,23386,23404,23421,23436,23453,23470,23488,23503,23520,23537,23554,23569,23585,23602,23619,23636,23653,23669,23687,23704,23720,23737,23754,23769,23786,23803,23820,23836,23853,23870,23887,23903,23920,23936,23954,23970,23986,24002,24019,24035,24052,24068,24086,24103,24119,24135,24152,24169,24186,24203,24219,24236,24252,24269,24285,24302,24319,24336,24353,24369,24386,24403,24419,24436,24452,24469,24485,24503,24519,24535,24552,24568,24586,24601,24618,24635,24653,24669,24686,24702,24720,24737,24753,24769,24786,24803,24819,24836,24852,24869,24886,24902,24919,24936,24953,24969,24986,25002,25019,25035,25051,25068,25085,25102,25118,25135,25152,25168,25185,25202,25219,25236,25252,25268,25286,25302,25319,25336,25352,25368,25385,25402,25418,25435,25451,25468,25485,25502,25518,25535,25551,25568,25584,25601,25618,25634,25651,25668,25685,25703,25719,25736,25752,25768,25785,25802,25819,25836,25853,25869,25885,25901,25919,25935,25952,25968,25986,26001,26018,26035,26051,26068,26085,26101,26117,26134,26151,26168,26184,26202,26218,26235,26251,26269,26285,26301,26319,26335,26351,26369,26384,26401,26418,26434,26452,26468,26484,26502,26518,26535,26552,26567,26584,26600,26617,26634,26651,26668,26686,26702,26717,26734,26750,26768,26784,26801,26817,26835,26852,26868,26883,26900,26917,26934,26952,26968,26984,27001,27018,27034,27050,27067,27084,27101,27116,27133,27150,27167,27184,27201,27218,27234,27251,27267,27284,27301,27317,27334,27352,27368,27384,27401,27418,27436,27451,27466,27483,27500,27518,27534,27551,27566,27583,27600,27616,27633,27651,27668,27684,27700,27716,27734,27751,27766,27784,27800,27817,27834,27850,27868,27884,27900,27917,27934,27950,27967,27984,28001,28016,28033,28049,28066,28083,28100,28116,28135,28149,28166,28183,28200,28216,28233,28250,28267,28283,28300,28316,28335,28349,28367,28383,28400,28417,28434,28449,28467,28484,28500,28517,28534,28551,28566,28582,28599,28616,28633,28650,28666,28683,28701,28717,28734,28750,28766,28783,28799,28816,28833,28851,28868,28884,28900,28917,28934,28951,28966,28983,29000,29016,29033,29050,29066,29082,29099,29117,29133,29150,29167,29182,29199,29216,29233,29250,29266,29283,29299,29316,29333,29349,29366,29384,29399,29416,29432,29449,29466,29482,29498,29515,29532,29549,29566,29582,29598,29615,29632,29648,29666,29683,29699,29715,29733,29749,29766,29782,29798,29815,29832,29849,29865,29882,29899,29915,29932,29949,29965,29982,29999,30015,30032,30048,30066,30082,30098,30114,30132,30149,30166,30182,30199,30216,30231,30249,30265,30282,30299,30315,30332,30349,30365,30383,30399,30416,30433,30448,30465,30482,30499,30516,30532,30549,30564,30581,30598,30614,30631,30648,30665,30682,30699,30715,30732,30748,30765,30781,30799,30814,30832,30848,30865,30882,30898,30915,30932,30949,30965,30982,30998,31016,31032,31048,31064,31082,31098,31114,31131,31148,31165,31180,31198,31215,31230,31247,31264,31281,31298,31315,31331,31348,31364,31381,31399,31414,31431,31448,31464,31481,31498,31514,31531,31547,31564,31580,31597,31614,31630,31647,31663,31680,31698,31714,31731,31748,31764,31781,31798,31814,31831,31848,31865,31881,31898,31915,31931,31949,31964,31981,31998,32014,32031,32047,32064,32080,32097,32115,32130,32147,32164,32181,32198,32214,32231,32248,32263,32280,32297,32314,32330,32348,32364,32381,32398,32414,32431,32447,32463,32480,32497,32514,32530,32547,32563,32579,32597,32613,32630,32647,32663,32680,32696,32714,32731,32747,32764,32780,32798,32813,32830,32847,32863,32880,32897,32913,32930,32947,32963,32980,32996,33014,33031,33048,33064,33080,33098,33113,33130,33146,33163,33181,33196,33214,33231,33246,33265,33279,33296,33314,33330,33346,33364,33380,33396,33413,33429,33446,33463,33480,33496,33513,33529,33547,33562,33579,33596,33612,33630,33646,33663,33680,33697,33713,33729,33746,33763,33780,33796,33814,33830,33846,33864,33880,33896,33912,33929,33946,33964,33979,33996,34013,34029,34046,34062,34079,34096,34113,34129,34146,34163,34179,34196,34213,34230,34246,34263,34279,34295,34312,34329,34346,34362,34379,34397,34413,34429,34445,34462,34479,34495,34512,34529,34546,34563,34579,34596,34613,34629,34645,34663,34679,34695,34712,34729,34746,34763,34779,34796,34812,34830,34846,34862,34879,34895,34912,34928,34945,34963,34979,34996,35013,35029,35047,35063,35080,35096,35113,35129,35146,35163,35178,35195,35212,35229,35245,35262,35279,35295,35312,35329,35345,35361,35379,35395,35412,35429,35445,35461,35479,35495,35512,35529,35545,35562,35578,35595,35612,35628,35645,35662,35679,35695,35712,35728,35745,35762,35779,35795,35812,35829,35844,35862,35878,35895,35912,35928,35945,35964,35978,35994,36011,36028,36045,36061,36077,36095,36112,36128,36144,36162,36178,36195,36211,36228,36244,36261,36278,36294,36311,36328,36344,36361,36377,36394,36411,36428,36443,36461,36477,36494,36511,36528,36544,36561,36577,36594,36611,36627,36644,36661,36678,36695,36711,36728,36744,36762,36778,36794,36812,36828,36844,36861,36878,36895,36911,36928,36946,36961,36979,36994,37011,37028,37044,37061,37078,37094,37112,37128,37145,37161,37178,37194,37210,37227,37245,37261,37278,37295,37311,37328,37344,37361,37377,37394,37410,37428,37444,37462,37478,37495,37511,37528,37544,37560,37577,37593,37611,37627,37643,37660,37678,37693,37710,37727,37744,37760,37777,37794,37811,37827,37843,37861,37877,37894,37911,37927,37944,37960,37978,37994,38010,38026,38044,38060,38077,38094,38112,38128,38143,38161,38177,38195,38210,38226,38243,38261,38277,38293,38310,38327,38344,38361,38377,38394,38409,38426,38442,38460,38477,38494,38510,38527,38543,38559,38576,38593,38610,38626,38643,38660,38676,38694,38710,38727,38743,38760,38776,38793,38810,38827,38843,38859,38877,38893,38910,38926,38943,38961,38977,38993,39010,39027,39043,39060,39077,39093,39109,39128,39143,39161,39176,39193,39210,39226,39243,39260,39276,39294,39309,39326,39343,39360,39376,39393,39409,39427,39443,39459,39476,39492,39510,39526,39542,39559,39575,39593,39610,39626,39642,39659,39675,39693,39709,39726,39743,39759,39776,39792,39809,39826,39842,39860,39877,39893,39910,39926,39942,39959,39976,39993,40009,40025,40042,40059,40076,40092,40108,40125,40142,40158,40175,40193,40209,40226,40242,40259,40276,40292,40308,40325,40342,40359,40375,40392,40409,40425,40442,40458,40474,40491,40508,40525,40542,40558,40575,40592,40608,40624,40642,40658,40676,40693,40708,40726,40742,40759,40776,40792,40809,40825,40842,40858,40875,40892,40909,40925,40942,40959,40975,40992,41009,41024,41041,41059,41075,41092,41109,41125,41142,41158,41174,41191,41208,41225,41242,41258,41274,41291,41308,41324,41341,41358,41374,41391,41408,41425,41441,41458,41475,41491,41508,41524,41541,41558,41574,41591,41608,41624,41641,41658,41674,41691,41708,41725,41742,41759,41774,41791,41808,41824,41841,41857,41875,41891,41908,41924,41941,41958,41975,41992,42008,42026,42041,42058,42074,42091,42108,42124,42141,42159,42174,42192,42208,42225,42242,42258,42276,42290,42307,42324,42341,42358,42375,42391,42409,42424,42440,42458,42474,42491,42507,42523,42541,42558,42573,42590,42607,42623,42640,42657,42673,42691,42707,42724,42741,42757,42774,42791,42808,42824,42841,42858,42874,42891,42908,42923,42941,42957,42974,42991,43008,43024,43041,43058,43075,43091,43107,43124,43141,43157,43174,43191,43208,43224,43240,43258,43274,43290,43307,43324,43340,43358,43374,43390,43406,43424,43441,43457,43473,43491,43508,43524,43539,43556,43572,43589,43606,43623,43640,43657,43673,43690,43707,43723,43741,43758,43774,43790,43808,43823,43840,43857,43874,43890,43906,43923,43940,43956,43973,43990,44006,44023,44041,44057,44073,44090,44106,44123,44139,44156,44173,44190,44206,44223,44239,44257,44273,44289,44305,44323,44339,44356,44373,44389,44407,44423,44440,44455,44474,44490,44506,44522,44539,44555,44572,44589,44606,44622,44639,44656,44672,44690,44706,44723,44740,44756,44774,44790,44806,44823,44840,44856,44874,44890,44906,44924,44940,44957,44974,44989,45007,45023,45040,45056,45073,45090,45106,45123,45140,45156,45173,45190,45206,45223,45240,45256,45273,45290,45306,45322,45338,45356,45373,45389,45406,45423,45439,45457,45472,45489,45505,45523,45540,45555,45572,45589,45605,45622,45638,45656,45673,45689,45705,45723,45739,45755,45772,45789,45806,45822,45839,45856,45872,45890,45906,45923,45939,45955,45973,45989,46006,46022,46039,46055,46072,46089,46106,46123,46140,46156,46173,46189,46205,46222,46240,46255,46272,46288,46306,46323,46338,46355,46372,46388,46405,46422,46440,46455,46471,46489,46507,46522,46539,46554,46571,46588,46604,46621,46638,46655,46671,46688,46705,46722,46738,46755,46771,46788,46805,46821,46838,46855,46871,46888,46905,46922,46937,46954,46971,46988,47004,47021,47038,47055,47071,47088,47105,47121,47139,47155,47172,47188,47205,47223,47238,47254,47272,47288,47305,47322,47338,47353,47371,47387,47404,47421,47438,47454,47471,47487,47505,47521,47537,47553,47570,47588,47604,47620,47637,47654,47671,47687,47704,47721,47738,47755,47772,47788,47804,47821,47838,47854,47871,47888,47904,47920,47938,47954,47971,47988,48005,48021,48038,48054,48069,48088,48104,48120,48137,48154,48171,48187,48204,48220,48238,48253,48270,48288,48303,48320,48338,48355,48370,48387,48404,48421,48437,48454,48471,48487,48504,48521,48537,48553,48569,48586,48603,48620,48637,48653,48670,48687,48704,48720,48737,48754,48770,48787,48803,48820,48837,48854,48872,48886,48903,48920,48937,48953,48969,48986,49004,49021,49036,49053,49069,49086,49104,49119,49137,49153,49170,49186,49203,49219,49237,49253,49270,49286,49304,49320,49336,49353,49370,49385,49403,49420,49437,49453,49470,49486,49503,49520,49536,49553,49569,49586,49603,49620,49636,49653,49669,49686,49703,49719,49736,49752,49770,49786,49803,49819,49836,49852,49870,49887,49903,49919,49936,49953,49969,49986,50003,50021,50036,50053,50069,50086,50103,50119,50137,50152,50170,50186,50203,50223,50235,50253,50270,50285,50303,50319,50336,50353,50370,50386,50402,50419,50435,50453,50470,50486,50503,50520,50536,50553,50569,50585,50601,50618,50635,50652,50669,50685,50702,50719,50736,50752,50768,50785,50802,50819,50835,50852,50869,50886,50902,50918,50935,50952,50968,50985,51002,51019,51036,51053,51069,51086,51102,51119,51136,51152,51169,51186,51202,51219,51235,51252,51268,51286,51302,51319,51336,51353,51370,51386,51402,51418,51435,51452,51468,51485,51503,51519,51536,51553,51568,51584,51601,51618,51634,51652,51667,51684,51702,51718,51735,51752,51769,51785,51802,51819,51835,51852,51869,51885,51902,51918,51936,51953,51969,51985,52002,52019,52035,52052,52069,52086,52102,52118,52134,52151,52168,52185,52201,52220],"hit":[null],"x":[-2.0408163265306123,-2.0408163265306123,-2.0408163265306123,-2.0408163265306123,-2.0408163265306123,-2.0408163265306123,-2.0408163265306123,-2.0408163265306123,-2.0408163265306123,-2.0408163265306123,-2.0408163265306123,-2.0408163265306123,-2.0408163265306123,-2.0408163265306123,-2.0408163265306123,-2.0408163265306123,-2.0408163265306123,-2.0408163265306123,-2.0408163265306123,-2.0408163265306123,-2.0408163265306123,-2.0408163265306123,-2.0408163265306123,-2.0408163265306123,-2.0408163265306123,-2.0408163265306123,-2.0408163265306123,-2.0408163265306123,-2.0408163265306123,-2.0408163265306123,-2.0408163265306123,-2.0408163265306123,-2.0408163265306123,-2.0408163265306123,-2.0408163265306123,-2.0408163265306123,-2.0408163265306123,-2.0408163265306123,-2.0408163265306123,-2.0408163265306123,-2.0408163265306123,-2.0408163265306123,-2.0408163265306123,-2.0408163265306123,-2.0408163265306123,-2.0408163265306123,-2.0408163265306123,0.01020408163265306,0.01020408163265306,0.01020408163265306,0.01020408163265306,-0.003401360544217687,-0.05102040816326531,-0.08503401360544217,-0.15306122448979592,-0.1564625850340136,-0.1564625850340136,-0.1564625850340136,-0.1564625850340136,-0.1564625850340136,-0.1564625850340136,-0.1564625850340136,-0.1564625850340136,-0.1564625850340136,-0.1564625850340136,-0.1564625850340136,-0.1564625850340136,-0.1564625850340136,-0.1564625850340136,-0.1564625850340136,-0.1564625850340136,-0.1564625850340136,-0.1564625850340136,-0.1564625850340136,-0.1564625850340136,-0.1564625850340136,-0.1564625850340136,-0.1564625850340136,-0.1564625850340136,-0.1564625850340136,-0.1564625850340136,-0.1564625850340136,-0.1564625850340136,-0.14965986394557823,-0.14965986394557823,-0.14965986394557823,-0.14965986394557823,-0.14965986394557823,-0.14965986394557823,-0.14965986394557823,-0.14965986394557823,-0.14965986394557823,-0.14965986394557823,-0.14965986394557823,-0.14965986394557823,-0.14965986394557823,-0.14965986394557823,-0.14965986394557823,-0.14965986394557823,-0.14965986394557823,-0.14965986394557823,-0.14965986394557823,-0.14965986394557823,-0.14965986394557823,-0.14625850340136054,-0.13945578231292516,-0.1292517006802721,-0.1054421768707483,-0.08843537414965986,-0.05442176870748299,-0.04081632653061224,-0.013605442176870748,0,0,0.006802721088435374,0.013605442176870748,0.027210884353741496,0.04081632653061224,0.05442176870748299,0.06802721088435375,0.07142857142857142,0.09863945578231292,0.1292517006802721,0.14285714285714285,0.1564625850340136,0.17687074829931973,0.19727891156462585,0.20408163265306123,0.20408163265306123,0.2108843537414966,0.2108843537414966,0.2108843537414966,0.2108843537414966,0.2108843537414966,0.2108843537414966,0.2108843537414966,0.21768707482993196,0.22108843537414966,0.22448979591836735,0.23469387755102042,0.25510204081632654,0.25510204081632654,0.2653061224489796,0.2755102040816326,0.2789115646258503,0.2789115646258503,0.2857142857142857,0.2891156462585034,0.29931972789115646,0.30952380952380953,0.32653061224489793,0.3333333333333333,0.3469387755102041,0.35034013605442177,0.35374149659863946,0.35374149659863946,0.35374149659863946,0.36054421768707484,0.3673469387755102,0.3673469387755102,0.3741496598639456,0.37755102040816324,0.38095238095238093,0.38095238095238093,0.38095238095238093,0.38095238095238093,0.38095238095238093,0.38095238095238093,0.38095238095238093,0.391156462585034,0.3945578231292517,0.4013605442176871,0.40816326530612246,0.41836734693877553,0.4387755102040816,0.45918367346938777,0.46258503401360546,0.47619047619047616,0.47959183673469385,0.4897959183673469,0.5,0.5170068027210885,0.5170068027210885,0.5170068027210885,0.5238095238095238,0.5272108843537415,0.5306122448979592,0.5306122448979592,0.5340136054421769,0.5340136054421769,0.5340136054421769,0.5374149659863946,0.54421768707483,0.5544217687074829,0.564625850340136,0.5816326530612245,0.5918367346938775,0.5986394557823129,0.6122448979591837,0.6258503401360545,0.6258503401360545,0.6292517006802721,0.6326530612244898,0.6394557823129252,0.6394557823129252,0.6666666666666666,0.6802721088435374,0.6938775510204082,0.7040816326530612,0.7346938775510204,0.7551020408163265,0.7993197278911565,0.8367346938775511,0.8571428571428571,0.8775510204081632,0.8979591836734694,0.9013605442176871,0.9047619047619048,0.9081632653061225,0.9081632653061225,0.9115646258503401,0.9115646258503401,0.9115646258503401,0.9115646258503401,0.9115646258503401,0.9115646258503401,0.9115646258503401,0.9115646258503401,0.9217687074829932,0.9319727891156463,0.9421768707482994,0.9523809523809523,0.9523809523809523,0.95578231292517,0.95578231292517,0.95578231292517,0.95578231292517,0.95578231292517,0.9591836734693877,0.9659863945578231,0.9659863945578231,0.9659863945578231,0.9693877551020408,0.9727891156462585,0.9727891156462585,0.9727891156462585,0.9727891156462585,0.9727891156462585,0.9727891156462585,0.9727891156462585,0.9727891156462585,0.9727891156462585,0.9761904761904762,0.9761904761904762,0.9761904761904762,0.9795918367346939,0.9795918367346939,0.9795918367346939,0.9795918367346939,0.9795918367346939,0.9795918367346939,0.9795918367346939,0.9795918367346939,0.9795918367346939,0.9795918367346939,0.9795918367346939,0.9795918367346939,0.9795918367346939,0.9795918367346939,0.9795918367346939,0.9795918367346939,0.9795918367346939,0.9795918367346939,0.9795918367346939,0.9795918367346939,0.9795918367346939,0.9795918367346939,0.9795918367346939,0.9795918367346939,0.9795918367346939,0.9795918367346939,0.9795918367346939,0.9795918367346939,0.9795918367346939,0.9795918367346939,0.9795918367346939,0.9795918367346939,0.9795918367346939,0.9795918367346939,0.9795918367346939,0.9795918367346939,0.9795918367346939,0.9795918367346939,0.9795918367346939,0.9795918367346939,0.9795918367346939,0.9795918367346939,0.9795918367346939,0.9795918367346939,0.9795918367346939,0.9795918367346939,0.9795918367346939,0.9795918367346939,0.9795918367346939,0.9795918367346939,0.9795918367346939,0.9795918367346939,0.9795918367346939,0.9795918367346939,0.9795918367346939,0.9795918367346939,0.9795918367346939,0.9795918367346939,0.9795918367346939,0.9795918367346939,0.9795918367346939,0.9795918367346939,0.9795918367346939,0.9795918367346939,0.9795918367346939,0.9795918367346939,0.9795918367346939,0.9795918367346939,0.9795918367346939,0.9795918367346939,0.9795918367346939,0.9795918367346939,0.9795918367346939,0.9795918367346939,0.9795918367346939,0.9795918367346939,0.9795918367346939,0.9795918367346939,0.9795918367346939,0.9795918367346939,0.9795918367346939,0.9795918367346939,0.9795918367346939,0.9795918367346939,0.9795918367346939,0.9795918367346939,0.9795918367346939,0.9795918367346939,0.9795918367346939,0.9795918367346939,0.9795918367346939,0.9795918367346939,0.9795918367346939,0.9795918367346939,0.9795918367346939,0.9795918367346939,0.9795918367346939,0.9795918367346939,0.9795918367346939,0.9795918367346939,0.9795918367346939,0.9795918367346939,0.9795918367346939,0.9795918367346939,0.9795918367346939,0.9795918367346939,0.9795918367346939,0.9795918367346939,0.9795918367346939,0.9795918367346939,0.9795918367346939,0.9795918367346939,0.9795918367346939,0.9761904761904762,0.9659863945578231,0.9285714285714286,0.8945578231292517,0.8503401360544217,0.8503401360544217,0.8503401360544217,0.8503401360544217,0.8503401360544217,0.8503401360544217,0.8503401360544217,0.8503401360544217,0.8503401360544217,0.8503401360544217,0.8503401360544217,0.8503401360544217,0.8503401360544217,0.8503401360544217,0.8503401360544217,0.8503401360544217,0.8503401360544217,0.8503401360544217,0.8503401360544217,0.8503401360544217,0.8503401360544217,0.8503401360544217,0.8503401360544217,0.8469387755102041,0.8469387755102041,0.8469387755102041,0.8469387755102041,0.8469387755102041,0.8469387755102041,0.8469387755102041,0.8469387755102041,0.8469387755102041,0.8469387755102041,0.8469387755102041,0.8469387755102041,0.8469387755102041,0.8469387755102041,0.8469387755102041,0.8469387755102041,0.8469387755102041,0.8469387755102041,0.8469387755102041,0.8469387755102041,0.8469387755102041,0.8469387755102041,0.8469387755102041,0.8469387755102041,0.8469387755102041,0.8469387755102041,0.8469387755102041,0.8469387755102041,0.8469387755102041,0.8469387755102041,0.8469387755102041,0.8469387755102041,0.8469387755102041,0.8469387755102041,0.8469387755102041,0.8469387755102041,0.8469387755102041,0.8469387755102041,0.8469387755102041,0.8469387755102041,0.8469387755102041,0.8469387755102041,0.8469387755102041,0.8469387755102041,0.8469387755102041,0.8469387755102041,0.8469387755102041,0.8469387755102041,0.8469387755102041,0.8469387755102041,0.8469387755102041,0.8469387755102041,0.8469387755102041,0.8469387755102041,0.8469387755102041,0.8469387755102041,0.8469387755102041,0.8469387755102041,0.8469387755102041,0.8469387755102041,0.8469387755102041,0.8469387755102041,0.8469387755102041,0.8469387755102041,0.8469387755102041,0.8469387755102041,0.8469387755102041,0.8469387755102041,0.8469387755102041,0.8469387755102041,0.8469387755102041,0.8469387755102041,0.8469387755102041,0.8469387755102041,0.8469387755102041,0.8469387755102041,0.8469387755102041,0.8469387755102041,0.8469387755102041,0.8469387755102041,0.8469387755102041,0.8469387755102041,0.8469387755102041,0.8469387755102041,0.8469387755102041,0.8469387755102041,0.8469387755102041,0.8469387755102041,0.8469387755102041,0.8469387755102041,0.8469387755102041,0.8469387755102041,0.8469387755102041,0.8469387755102041,0.8469387755102041,0.8469387755102041,0.8469387755102041,0.8469387755102041,0.8469387755102041,0.8469387755102041,0.8469387755102041,0.8469387755102041,0.8469387755102041,0.8469387755102041,0.8469387755102041,0.8469387755102041,0.8469387755102041,0.8469387755102041,0.8469387755102041,0.8469387755102041,0.8469387755102041,0.8469387755102041,0.8469387755102041,0.8469387755102041,0.8469387755102041,0.8469387755102041,0.8469387755102041,0.8469387755102041,0.8469387755102041,0.8469387755102041,0.8469387755102041,0.8469387755102041,0.8469387755102041,0.8469387755102041,0.8469387755102041,0.8469387755102041,0.8469387755102041,0.8469387755102041,0.8469387755102041,0.8469387755102041,0.8469387755102041,0.8469387755102041,0.8469387755102041,0.8469387755102041,0.8469387755102041,0.8469387755102041,0.8469387755102041,0.8469387755102041,0.8469387755102041,0.8469387755102041,0.8469387755102041,0.8469387755102041,0.8469387755102041,0.8469387755102041,0.8469387755102041,0.8469387755102041,0.8469387755102041,0.8469387755102041,0.8469387755102041,0.8469387755102041,0.8469387755102041,0.8469387755102041,0.8469387755102041,0.8469387755102041,0.8469387755102041,0.8469387755102041,0.8469387755102041,0.8469387755102041,0.8469387755102041,0.8469387755102041,0.8469387755102041,0.8469387755102041,0.8469387755102041,0.8469387755102041,0.8469387755102041,0.8469387755102041,0.8469387755102041,0.8469387755102041,0.8469387755102041,0.8469387755102041,0.8469387755102041,0.8469387755102041,0.8469387755102041,0.8469387755102041,0.8469387755102041,0.8469387755102041,0.8469387755102041,0.8469387755102041,0.8469387755102041,0.8469387755102041,0.8469387755102041,0.8469387755102041,0.8469387755102041,0.8469387755102041,0.8469387755102041,0.8469387755102041,0.8469387755102041,0.8469387755102041,0.8469387755102041,0.8469387755102041,0.8469387755102041,0.8469387755102041,0.8469387755102041,0.8469387755102041,0.8469387755102041,0.8469387755102041,0.8469387755102041,0.8469387755102041,0.8469387755102041,0.8469387755102041,0.8469387755102041,0.8469387755102041,0.8469387755102041,0.8469387755102041,0.8469387755102041,0.8469387755102041,0.8469387755102041,0.8469387755102041,0.8469387755102041,0.8469387755102041,0.8469387755102041,0.8469387755102041,0.8469387755102041,0.8469387755102041,0.8469387755102041,0.8469387755102041,0.8469387755102041,0.8469387755102041,0.8469387755102041,0.8469387755102041,0.8469387755102041,0.8469387755102041,0.8469387755102041,0.8469387755102041,0.8469387755102041,0.8469387755102041,0.8469387755102041,0.8469387755102041,0.8469387755102041,0.8469387755102041,0.8469387755102041,0.8469387755102041,0.8469387755102041,0.8469387755102041,0.8469387755102041,0.8469387755102041,0.8469387755102041,0.8469387755102041,0.8469387755102041,0.8469387755102041,0.8469387755102041,0.8469387755102041,0.8469387755102041,0.8469387755102041,0.8469387755102041,0.8469387755102041,0.8469387755102041,0.8469387755102041,0.8469387755102041,0.8469387755102041,0.8469387755102041,0.8469387755102041,0.8469387755102041,0.8469387755102041,0.8469387755102041,0.8469387755102041,0.8469387755102041,0.8469387755102041,0.8469387755102041,0.8469387755102041,0.8469387755102041,0.8469387755102041,0.8469387755102041,0.8469387755102041,0.8469387755102041,0.8469387755102041,0.8469387755102041,0.8469387755102041,0.8469387755102041,0.8469387755102041,0.8469387755102041,0.8469387755102041,0.8469387755102041,0.8469387755102041,0.8469387755102041,0.8469387755102041,0.8469387755102041,0.8469387755102041,0.8469387755102041,0.8469387755102041,0.8469387755102041,0.8469387755102041,0.8469387755102041,0.8469387755102041,0.8469387755102041,0.8469387755102041,0.8469387755102041,0.8469387755102041,0.8469387755102041,0.8469387755102041,0.8469387755102041,0.8469387755102041,0.8469387755102041,0.8469387755102041,0.8469387755102041,0.8469387755102041,0.8469387755102041,0.8469387755102041,0.8469387755102041,0.8469387755102041,0.8469387755102041,0.8469387755102041,0.8469387755102041,0.8469387755102041,0.8469387755102041,0.8469387755102041,0.8469387755102041,0.8469387755102041,0.8469387755102041,0.8469387755102041,0.8469387755102041,0.8469387755102041,0.8469387755102041,0.8469387755102041,0.8469387755102041,0.8469387755102041,0.8469387755102041,0.8469387755102041,0.8469387755102041,0.8469387755102041,0.8469387755102041,0.8469387755102041,0.8469387755102041,0.8469387755102041,0.8469387755102041,0.8469387755102041,0.8469387755102041,0.8469387755102041,0.8469387755102041,0.8469387755102041,0.8469387755102041,0.8469387755102041,0.8469387755102041,0.8469387755102041,0.8469387755102041,0.8469387755102041,0.8469387755102041,0.8469387755102041,0.8469387755102041,0.8469387755102041,0.8469387755102041,0.8469387755102041,0.8469387755102041,0.8469387755102041,0.8469387755102041,0.8469387755102041,0.8469387755102041,0.8469387755102041,0.8469387755102041,0.8469387755102041,0.8469387755102041,0.8469387755102041,0.8469387755102041,0.8469387755102041,0.8469387755102041,0.8469387755102041,0.8469387755102041,0.8469387755102041,0.8469387755102041,0.8469387755102041,0.8469387755102041,0.8469387755102041,0.8469387755102041,0.8469387755102041,0.8469387755102041,0.8469387755102041,0.8469387755102041,0.8469387755102041,0.8469387755102041,0.8469387755102041,0.8469387755102041,0.8469387755102041,0.8469387755102041,0.8469387755102041,0.8469387755102041,0.8469387755102041,0.8469387755102041,0.8469387755102041,0.8469387755102041,0.8469387755102041,0.8469387755102041,0.8469387755102041,0.8469387755102041,0.8469387755102041,0.8469387755102041,0.8469387755102041,0.8469387755102041,0.8469387755102041,0.8469387755102041,0.8469387755102041,0.8469387755102041,0.8469387755102041,0.8469387755102041,0.8469387755102041,0.8469387755102041,0.8469387755102041,0.8469387755102041,0.8469387755102041,0.8469387755102041,0.8469387755102041,0.8469387755102041,0.8469387755102041,0.8469387755102041,0.8469387755102041,0.8469387755102041,0.8469387755102041,0.8469387755102041,0.8469387755102041,0.8469387755102041,0.8469387755102041,0.8469387755102041,0.8469387755102041,0.8469387755102041,0.8469387755102041,0.8469387755102041,0.8469387755102041,0.8333333333333334,0.8299319727891157,0.8299319727891157,0.826530612244898,0.826530612244898,0.8231292517006803,0.8231292517006803,0.8231292517006803,0.8197278911564626,0.8163265306122449,0.8163265306122449,0.8129251700680272,0.8095238095238095,0.8095238095238095,0.8095238095238095,0.8095238095238095,0.8095238095238095,0.8095238095238095,0.8095238095238095,0.8095238095238095,0.8095238095238095,0.8095238095238095,0.8095238095238095,0.8095238095238095,0.8095238095238095,0.8095238095238095,0.8095238095238095,0.8095238095238095,0.8095238095238095,0.8095238095238095,0.8095238095238095,0.8095238095238095,0.8095238095238095,0.8095238095238095,0.8095238095238095,0.8095238095238095,0.8095238095238095,0.8095238095238095,0.8095238095238095,0.8095238095238095,0.8095238095238095,0.8095238095238095,0.8095238095238095,0.8095238095238095,0.8095238095238095,0.8061224489795918,0.8027210884353742,0.8027210884353742,0.8027210884353742,0.8027210884353742,0.8027210884353742,0.8027210884353742,0.8027210884353742,0.8027210884353742,0.8027210884353742,0.8027210884353742,0.8027210884353742,0.8027210884353742,0.8027210884353742,0.8027210884353742,0.8027210884353742,0.8027210884353742,0.8027210884353742,0.8027210884353742,0.7993197278911565,0.7993197278911565,0.7993197278911565,0.7993197278911565,0.7993197278911565,0.7993197278911565,0.7993197278911565,0.7993197278911565,0.7993197278911565,0.7993197278911565,0.7993197278911565,0.7993197278911565,0.7993197278911565,0.7993197278911565,0.7993197278911565,0.7993197278911565,0.7993197278911565,0.7993197278911565,0.7993197278911565,0.7993197278911565,0.7993197278911565,0.7993197278911565,0.7993197278911565,0.7993197278911565,0.7993197278911565,0.7993197278911565,0.7993197278911565,0.7993197278911565,0.7959183673469388,0.7959183673469388,0.7925170068027211,0.7925170068027211,0.7891156462585034,0.7891156462585034,0.7789115646258503,0.7789115646258503,0.7687074829931972,0.7619047619047619,0.7414965986394558,0.7244897959183674,0.6904761904761905,0.6768707482993197,0.6530612244897959,0.6292517006802721,0.6258503401360545,0.6258503401360545,0.6258503401360545,0.6258503401360545,0.6258503401360545,0.6258503401360545,0.6258503401360545,0.6258503401360545,0.6224489795918368,0.6156462585034014,0.6122448979591837,0.5986394557823129,0.5918367346938775,0.5816326530612245,0.5714285714285714,0.54421768707483,0.5374149659863946,0.5306122448979592,0.5170068027210885,0.48639455782312924,0.46258503401360546,0.41836734693877553,0.38095238095238093,0.36394557823129253,0.35374149659863946,0.3299319727891156,0.3231292517006803,0.3197278911564626,0.3163265306122449,0.3129251700680272,0.29931972789115646,0.2925170068027211,0.2653061224489796,0.24489795918367346,0.23129251700680273,0.20408163265306123,0.20408163265306123,0.1870748299319728,0.18027210884353742,0.17006802721088435,0.16666666666666666,0.1564625850340136,0.1326530612244898,0.12244897959183673,0.10884353741496598,0.09523809523809523,0.06462585034013606,0.05102040816326531,0.05102040816326531,0.04421768707482993,0.04081632653061224,0.03741496598639456,0.027210884353741496,0.027210884353741496,0.017006802721088437,0.01020408163265306,0,0,-0.003401360544217687,-0.003401360544217687,-0.003401360544217687,-0.003401360544217687,-0.003401360544217687,-0.003401360544217687,-0.003401360544217687,-0.003401360544217687,-0.003401360544217687,-0.003401360544217687,-0.003401360544217687,-0.003401360544217687,-0.003401360544217687,-0.003401360544217687,-0.003401360544217687,-0.003401360544217687,-0.003401360544217687,-0.003401360544217687,-0.003401360544217687,-0.003401360544217687,-0.003401360544217687,-0.003401360544217687,-0.003401360544217687,-0.003401360544217687,-0.003401360544217687,-0.003401360544217687,-0.003401360544217687,-0.003401360544217687,-0.003401360544217687,-0.003401360544217687,-0.003401360544217687,-0.003401360544217687,-0.003401360544217687,-0.003401360544217687,-0.003401360544217687,-0.003401360544217687,-0.003401360544217687,-0.003401360544217687,-0.003401360544217687,-0.003401360544217687,-0.003401360544217687,-0.003401360544217687,-0.003401360544217687,-0.003401360544217687,-0.003401360544217687,-0.003401360544217687,-0.003401360544217687,-0.003401360544217687,-0.003401360544217687,-0.003401360544217687,-0.003401360544217687,-0.003401360544217687,-0.003401360544217687,-0.003401360544217687,-0.003401360544217687,-0.003401360544217687,-0.003401360544217687,-0.003401360544217687,-0.003401360544217687,-0.003401360544217687,-0.003401360544217687,-0.003401360544217687,-0.003401360544217687,-0.003401360544217687,-0.003401360544217687,-0.003401360544217687,-0.003401360544217687,-0.003401360544217687,-0.003401360544217687,-0.003401360544217687,-0.003401360544217687,-0.003401360544217687,-0.003401360544217687,-0.003401360544217687,-0.003401360544217687,-0.003401360544217687,-0.003401360544217687,-0.003401360544217687,-0.003401360544217687,-0.003401360544217687,-0.003401360544217687,-0.003401360544217687,-0.003401360544217687,-0.003401360544217687,-0.003401360544217687,-0.003401360544217687,-0.003401360544217687,-0.003401360544217687,-0.003401360544217687,-0.003401360544217687,-0.003401360544217687,-0.003401360544217687,-0.003401360544217687,0.006802721088435374,0.06802721088435375,0.16326530612244897,0.21428571428571427,0.25510204081632654,0.2653061224489796,0.272108843537415,0.272108843537415,0.272108843537415,0.272108843537415,0.272108843537415,0.272108843537415,0.272108843537415,0.272108843537415,0.272108843537415,0.272108843537415,0.272108843537415,0.272108843537415,0.272108843537415,0.272108843537415,0.272108843537415,0.272108843537415,0.272108843537415,0.272108843537415,0.272108843537415,0.272108843537415,0.272108843537415,0.272108843537415,0.272108843537415,0.272108843537415,0.272108843537415,0.272108843537415,0.272108843537415,0.272108843537415,0.2653061224489796,0.2653061224489796,0.2653061224489796,0.2653061224489796,0.2619047619047619,0.2619047619047619,0.2619047619047619,0.2619047619047619,0.2619047619047619,0.2619047619047619,0.2619047619047619,0.2619047619047619,0.2619047619047619,0.2619047619047619,0.2619047619047619,0.2619047619047619,0.2619047619047619,0.2619047619047619,0.2619047619047619,0.2619047619047619,0.2619047619047619,0.2619047619047619,0.2619047619047619,0.2619047619047619,0.2619047619047619,0.2619047619047619,0.2619047619047619,0.2619047619047619,0.2619047619047619,0.2619047619047619,0.2619047619047619,0.2619047619047619,0.2619047619047619,0.2619047619047619,0.2619047619047619,0.2619047619047619,0.2619047619047619,0.2619047619047619,0.2619047619047619,0.2619047619047619,0.2619047619047619,0.2619047619047619,0.2619047619047619,0.2619047619047619,0.2619047619047619,0.2619047619047619,0.2619047619047619,0.2619047619047619,0.2619047619047619,0.2619047619047619,0.2619047619047619,0.2619047619047619,0.2619047619047619,0.2619047619047619,0.2619047619047619,0.2619047619047619,0.2619047619047619,0.2619047619047619,0.2619047619047619,0.2619047619047619,0.2619047619047619,0.2619047619047619,0.2619047619047619,0.2619047619047619,0.2619047619047619,0.2619047619047619,0.2619047619047619,0.2619047619047619,0.2619047619047619,0.2619047619047619,0.2619047619047619,0.2619047619047619,0.2619047619047619,0.2619047619047619,0.2619047619047619,0.2619047619047619,0.2619047619047619,0.2619047619047619,0.2619047619047619,0.2619047619047619,0.2619047619047619,0.2619047619047619,0.2619047619047619,0.2619047619047619,0.2619047619047619,0.2619047619047619,0.2619047619047619,0.2619047619047619,0.2619047619047619,0.2619047619047619,0.2619047619047619,0.2619047619047619,0.2619047619047619,0.2619047619047619,0.2619047619047619,0.2619047619047619,0.2619047619047619,0.2619047619047619,0.2619047619047619,0.2619047619047619,0.2619047619047619,0.2619047619047619,0.2619047619047619,0.2619047619047619,0.2619047619047619,0.2619047619047619,0.2619047619047619,0.2619047619047619,0.2619047619047619,0.2619047619047619,0.2619047619047619,0.2619047619047619,0.2619047619047619,0.2619047619047619,0.2619047619047619,0.2619047619047619,0.2619047619047619,0.2619047619047619,0.2619047619047619,0.2619047619047619,0.2619047619047619,0.2619047619047619,0.2619047619047619,0.2619047619047619,0.2619047619047619,0.2619047619047619,0.2653061224489796,0.2653061224489796,0.2653061224489796,0.2687074829931973,0.2687074829931973,0.2687074829931973,0.272108843537415,0.272108843537415,0.2857142857142857,0.2891156462585034,0.2925170068027211,0.29591836734693877,0.29591836734693877,0.29931972789115646,0.29931972789115646,0.29931972789115646,0.29931972789115646,0.29931972789115646,0.29931972789115646,0.29931972789115646,0.29931972789115646,0.29931972789115646,0.29931972789115646,0.29931972789115646,0.29931972789115646,0.29931972789115646,0.29931972789115646,0.29931972789115646,0.29931972789115646,0.29931972789115646,0.29931972789115646,0.29931972789115646,0.29931972789115646,0.29931972789115646,0.29931972789115646,0.29931972789115646,0.29931972789115646,0.29931972789115646,0.29931972789115646,0.29931972789115646,0.29931972789115646,0.29931972789115646,0.29931972789115646,0.30612244897959184,0.3129251700680272,0.3129251700680272,0.3197278911564626,0.32653061224489793,0.3333333333333333,0.336734693877551,0.3435374149659864,0.35034013605442177,0.35034013605442177,0.35374149659863946,0.35714285714285715,0.3673469387755102,0.3673469387755102,0.38095238095238093,0.391156462585034,0.3979591836734694,0.40816326530612246,0.41496598639455784,0.42857142857142855,0.46598639455782315,0.5204081632653061,0.5544217687074829,0.5884353741496599,0.6598639455782312,0.7244897959183674,0.7619047619047619,0.8333333333333334,0.8673469387755102,0.8979591836734694,0.9387755102040817,0.95578231292517,0.95578231292517,0.9591836734693877,0.9625850340136054,0.9659863945578231,0.9727891156462585,0.9727891156462585,0.9761904761904762,0.9795918367346939,0.9897959183673469,1.0068027210884354,1.0170068027210883,1.0272108843537415,1.034013605442177,1.054421768707483,1.064625850340136,1.0748299319727892,1.0952380952380953,1.1054421768707483,1.119047619047619,1.129251700680272,1.129251700680272,1.129251700680272,1.129251700680272,1.129251700680272,1.129251700680272,1.129251700680272,1.129251700680272,1.129251700680272,1.129251700680272,1.129251700680272,1.129251700680272,1.129251700680272,1.129251700680272,1.129251700680272,1.129251700680272,1.129251700680272,1.129251700680272,1.129251700680272,1.129251700680272,1.129251700680272,1.129251700680272,1.129251700680272,1.129251700680272,1.129251700680272,1.129251700680272,1.129251700680272,1.129251700680272,1.129251700680272,1.129251700680272,1.129251700680272,1.129251700680272,1.129251700680272,1.129251700680272,1.129251700680272,1.129251700680272,1.129251700680272,1.129251700680272,1.129251700680272,1.129251700680272,1.129251700680272,1.129251700680272,1.129251700680272,1.129251700680272,1.129251700680272,1.129251700680272,1.129251700680272,1.129251700680272,1.129251700680272,1.129251700680272,1.129251700680272,1.129251700680272,1.129251700680272,1.129251700680272,1.129251700680272,1.129251700680272,1.129251700680272,1.129251700680272,1.129251700680272,1.129251700680272,1.129251700680272,1.129251700680272,1.129251700680272,1.129251700680272,1.129251700680272,1.129251700680272,1.129251700680272,1.129251700680272,1.129251700680272,1.129251700680272,1.129251700680272,1.129251700680272,1.129251700680272,1.129251700680272,1.129251700680272,1.129251700680272,1.129251700680272,1.129251700680272,1.129251700680272,1.129251700680272,1.129251700680272,1.129251700680272,1.129251700680272,1.129251700680272,1.129251700680272,1.129251700680272,1.129251700680272,1.129251700680272,1.129251700680272,1.129251700680272,1.129251700680272,1.129251700680272,1.129251700680272,1.129251700680272,1.129251700680272,1.129251700680272,1.129251700680272,1.129251700680272,1.129251700680272,1.129251700680272,1.129251700680272,1.129251700680272,1.129251700680272,1.129251700680272,1.129251700680272,1.129251700680272,1.129251700680272,1.129251700680272,1.129251700680272,1.129251700680272,1.129251700680272,1.129251700680272,1.129251700680272,1.129251700680272,1.129251700680272,1.129251700680272,1.129251700680272,1.129251700680272,1.129251700680272,1.129251700680272,1.129251700680272,1.129251700680272,1.129251700680272,1.129251700680272,1.129251700680272,1.129251700680272,1.129251700680272,1.129251700680272,1.129251700680272,1.129251700680272,1.129251700680272,1.129251700680272,1.129251700680272,1.129251700680272,1.129251700680272,1.129251700680272,1.129251700680272,1.129251700680272,1.129251700680272,1.129251700680272,1.129251700680272,1.129251700680272,1.129251700680272,1.129251700680272,1.129251700680272,1.129251700680272,1.129251700680272,1.129251700680272,1.129251700680272,1.129251700680272,1.129251700680272,1.129251700680272,1.129251700680272,1.129251700680272,1.129251700680272,1.129251700680272,1.129251700680272,1.129251700680272,1.129251700680272,1.129251700680272,1.129251700680272,1.129251700680272,1.129251700680272,1.129251700680272,1.129251700680272,1.129251700680272,1.129251700680272,1.129251700680272,1.129251700680272,1.129251700680272,1.129251700680272,1.129251700680272,1.129251700680272,1.129251700680272,1.129251700680272,1.129251700680272,1.129251700680272,1.129251700680272,1.129251700680272,1.129251700680272,1.129251700680272,1.129251700680272,1.129251700680272,1.129251700680272,1.129251700680272,1.129251700680272,1.129251700680272,1.129251700680272,1.129251700680272,1.129251700680272,1.1258503401360545,1.1224489795918366,1.1224489795918366,1.1224489795918366,1.1156462585034013,1.1088435374149659,1.098639455782313,1.08843537414966,1.0850340136054422,1.0850340136054422,1.0850340136054422,1.0850340136054422,1.0850340136054422,1.0850340136054422,1.0850340136054422,1.0850340136054422,1.0850340136054422,1.0850340136054422,1.0850340136054422,1.0850340136054422,1.0850340136054422,1.0850340136054422,1.0850340136054422,1.0850340136054422,1.0850340136054422,1.0850340136054422,1.08843537414966,1.08843537414966,1.08843537414966,1.08843537414966,1.08843537414966,1.08843537414966,1.08843537414966,1.08843537414966,1.08843537414966,1.0850340136054422,1.0748299319727892,1.0578231292517006,1.0136054421768708,0.9829931972789115,0.9523809523809523,0.8843537414965986,0.8129251700680272,0.7891156462585034,0.7789115646258503,0.7789115646258503,0.7755102040816326,0.7755102040816326,0.7755102040816326,0.7755102040816326,0.7755102040816326,0.7755102040816326,0.7755102040816326,0.7755102040816326,0.7755102040816326,0.7755102040816326,0.7755102040816326,0.7755102040816326,0.7755102040816326,0.7755102040816326,0.7755102040816326,0.7755102040816326,0.7755102040816326,0.7755102040816326,0.7789115646258503,0.7789115646258503,0.7755102040816326,0.7517006802721088,0.7482993197278912,0.7482993197278912,0.7482993197278912,0.7482993197278912,0.7482993197278912,0.7482993197278912,0.7482993197278912,0.7482993197278912,0.7482993197278912,0.7482993197278912,0.7482993197278912,0.7482993197278912,0.7482993197278912,0.7482993197278912,0.7482993197278912,0.7482993197278912,0.7482993197278912,0.7482993197278912,0.7585034013605442,0.7755102040816326,0.7857142857142857,0.7857142857142857,0.7891156462585034,0.7891156462585034,0.7891156462585034,0.7891156462585034,0.7891156462585034,0.7925170068027211,0.7925170068027211,0.7925170068027211,0.7925170068027211,0.7925170068027211,0.7925170068027211,0.7925170068027211,0.7925170068027211,0.7925170068027211,0.7925170068027211,0.7925170068027211,0.7925170068027211,0.7925170068027211,0.7925170068027211,0.7925170068027211,0.7925170068027211,0.7925170068027211,0.7925170068027211,0.7925170068027211,0.7925170068027211,0.7925170068027211,0.7925170068027211,0.7925170068027211,0.7925170068027211,0.7925170068027211,0.7925170068027211,0.7925170068027211,0.7925170068027211,0.7925170068027211,0.7925170068027211,0.7925170068027211,0.7755102040816326,0.7380952380952381,0.6972789115646258,0.6904761904761905,0.6870748299319728,0.673469387755102,0.6428571428571429,0.5340136054421769,0.46258503401360546,0.4489795918367347,0.445578231292517,0.445578231292517,0.4489795918367347,0.4489795918367347,0.4489795918367347,0.4489795918367347,0.4489795918367347,0.4489795918367347,0.4489795918367347,0.445578231292517,0.43537414965986393,0.42857142857142855,0.4217687074829932,0.41496598639455784,0.41496598639455784,0.41496598639455784,0.41496598639455784,0.41496598639455784,0.41496598639455784,0.41496598639455784,0.4013605442176871,0.3673469387755102,0.3673469387755102,0.3673469387755102,0.3673469387755102,0.3673469387755102,0.3673469387755102,0.3673469387755102,0.3673469387755102,0.3673469387755102,0.3673469387755102,0.3673469387755102,0.3673469387755102,0.3673469387755102,0.3673469387755102,0.3673469387755102,0.3673469387755102,0.3673469387755102,0.3673469387755102,0.3673469387755102,0.3673469387755102,0.3673469387755102,0.3673469387755102,0.3673469387755102,0.3673469387755102,0.3673469387755102,0.3673469387755102,0.37755102040816324,0.37755102040816324,0.3945578231292517,0.3945578231292517,0.40816326530612246,0.40816326530612246,0.40816326530612246,0.40816326530612246,0.40816326530612246,0.40816326530612246,0.40816326530612246,0.40816326530612246,0.40816326530612246,0.40816326530612246,0.41156462585034015,0.41156462585034015,0.41156462585034015,0.41156462585034015,0.41496598639455784,0.41496598639455784,0.41496598639455784,0.41496598639455784,0.41496598639455784,0.41496598639455784,0.41496598639455784,0.41496598639455784,0.41496598639455784,0.41496598639455784,0.41496598639455784,0.40816326530612246,0.4013605442176871,0.3979591836734694,0.391156462585034,0.391156462585034,0.391156462585034,0.3877551020408163,0.3877551020408163,0.3877551020408163,0.3877551020408163,0.3877551020408163,0.3877551020408163,0.3877551020408163,0.3877551020408163,0.3877551020408163,0.3877551020408163,0.3877551020408163,0.3877551020408163,0.3877551020408163,0.3877551020408163,0.3877551020408163,0.3877551020408163,0.3877551020408163,0.3877551020408163,0.3877551020408163,0.3877551020408163,0.3877551020408163,0.3877551020408163,0.3877551020408163,0.3877551020408163,0.3877551020408163,0.3877551020408163,0.3877551020408163,0.3877551020408163,0.3877551020408163,0.3877551020408163,0.3877551020408163,0.3877551020408163,0.3877551020408163,0.3877551020408163,0.3877551020408163,0.3877551020408163,0.3877551020408163,0.3877551020408163,0.3877551020408163,0.3877551020408163,0.3877551020408163,0.3877551020408163,0.3877551020408163,0.3877551020408163,0.3877551020408163,0.3877551020408163,0.3877551020408163,0.3877551020408163,0.3877551020408163,0.3877551020408163,0.3877551020408163,0.3877551020408163,0.3877551020408163,0.3877551020408163,0.3877551020408163,0.3877551020408163,0.3877551020408163,0.3877551020408163,0.3877551020408163,0.3877551020408163,0.3877551020408163,0.3877551020408163,0.3877551020408163,0.3877551020408163,0.3877551020408163,0.3877551020408163,0.3877551020408163,0.3877551020408163,0.3877551020408163,0.3877551020408163,0.3877551020408163,0.3877551020408163,0.3877551020408163,0.3877551020408163,0.3877551020408163,0.3877551020408163,0.3877551020408163,0.3877551020408163,0.3877551020408163,0.3877551020408163,0.3877551020408163,0.3877551020408163,0.3877551020408163,0.3877551020408163,0.3843537414965986,0.3843537414965986,0.3843537414965986,0.3843537414965986,0.3843537414965986,0.3843537414965986,0.3843537414965986,0.3843537414965986,0.3843537414965986,0.3843537414965986,0.3843537414965986,0.3843537414965986,0.3843537414965986,0.3843537414965986,0.3843537414965986,0.3843537414965986,0.3843537414965986,0.3843537414965986,0.3843537414965986,0.3843537414965986,0.3843537414965986,0.3843537414965986,0.3843537414965986,0.3843537414965986,0.3843537414965986,0.3843537414965986,0.3843537414965986,0.3843537414965986,0.3843537414965986,0.3843537414965986,0.3843537414965986,0.3843537414965986,0.3843537414965986,0.3843537414965986,0.3843537414965986,0.3843537414965986,0.3843537414965986,0.3843537414965986,0.3843537414965986,0.3843537414965986,0.3843537414965986,0.3843537414965986,0.3843537414965986,0.3843537414965986,0.3843537414965986,0.3843537414965986,0.3843537414965986,0.3843537414965986,0.3843537414965986,0.3843537414965986,0.38095238095238093,0.3673469387755102,0.35374149659863946,0.282312925170068,0.282312925170068,0.282312925170068,0.282312925170068,0.282312925170068,0.282312925170068,0.282312925170068,0.282312925170068,0.282312925170068,0.282312925170068,0.282312925170068,0.282312925170068,0.282312925170068,0.282312925170068,0.282312925170068,0.282312925170068,0.282312925170068,0.282312925170068,0.282312925170068,0.282312925170068,0.2789115646258503,0.2789115646258503,0.2789115646258503,0.2789115646258503,0.2789115646258503,0.2789115646258503,0.2789115646258503,0.2789115646258503,0.2789115646258503,0.2789115646258503,0.2789115646258503,0.2789115646258503,0.2789115646258503,0.2789115646258503,0.2789115646258503,0.2789115646258503,0.2789115646258503,0.2789115646258503,0.2789115646258503,0.2789115646258503,0.2789115646258503,0.2789115646258503,0.2789115646258503,0.2789115646258503,0.2789115646258503,0.2789115646258503,0.2789115646258503,0.2789115646258503,0.2789115646258503,0.2789115646258503,0.2789115646258503,0.2789115646258503,0.2789115646258503,0.2789115646258503,0.2789115646258503,0.2789115646258503,0.2789115646258503,0.2789115646258503,0.2789115646258503,0.2789115646258503,0.2789115646258503,0.2789115646258503,0.2789115646258503,0.2789115646258503,0.2789115646258503,0.2789115646258503,0.2789115646258503,0.2789115646258503,0.2789115646258503,0.2789115646258503,0.2789115646258503,0.2789115646258503,0.2857142857142857,0.2891156462585034,0.29591836734693877,0.30272108843537415,0.3197278911564626,0.3299319727891156,0.3401360544217687,0.35034013605442177,0.35034013605442177,0.35034013605442177,0.35374149659863946,0.35374149659863946,0.35374149659863946,0.35374149659863946,0.35374149659863946,0.35374149659863946,0.35374149659863946,0.35374149659863946,0.35714285714285715,0.36054421768707484,0.36394557823129253,0.36394557823129253,0.3673469387755102,0.3673469387755102,0.3707482993197279,0.3707482993197279,0.37755102040816324,0.3843537414965986,0.3877551020408163,0.3877551020408163,0.3877551020408163,0.391156462585034,0.3945578231292517,0.3945578231292517,0.3945578231292517,0.3945578231292517,0.3945578231292517,0.3945578231292517,0.3945578231292517,0.4013605442176871,0.4013605442176871,0.4013605442176871,0.40476190476190477,0.40476190476190477,0.40476190476190477,0.40476190476190477,0.40476190476190477,0.40476190476190477,0.40476190476190477,0.40476190476190477,0.40476190476190477,0.40476190476190477,0.40476190476190477,0.40476190476190477,0.40476190476190477,0.40476190476190477,0.40476190476190477,0.40476190476190477,0.40476190476190477,0.40476190476190477,0.40476190476190477,0.40476190476190477,0.40476190476190477,0.40476190476190477,0.40476190476190477,0.40476190476190477,0.40476190476190477,0.40476190476190477,0.40476190476190477,0.40476190476190477,0.40476190476190477,0.40476190476190477,0.40476190476190477,0.40476190476190477,0.40476190476190477,0.40476190476190477,0.40476190476190477,0.40476190476190477,0.40476190476190477,0.40476190476190477,0.40476190476190477,0.40476190476190477,0.40476190476190477,0.40476190476190477,0.40476190476190477,0.40476190476190477,0.40476190476190477,0.40476190476190477,0.40476190476190477,0.40476190476190477,0.40476190476190477,0.40476190476190477,0.40476190476190477,0.40476190476190477,0.40476190476190477,0.40476190476190477,0.40476190476190477,0.40476190476190477,0.40476190476190477,0.40476190476190477,0.40476190476190477,0.40476190476190477,0.40476190476190477,0.40476190476190477,0.40476190476190477,0.40476190476190477,0.40476190476190477,0.40476190476190477,0.40476190476190477,0.40476190476190477,0.40476190476190477,0.40476190476190477,0.40476190476190477,0.40476190476190477,0.40476190476190477,0.40476190476190477,0.40476190476190477,0.40476190476190477,0.40476190476190477,0.40476190476190477,0.40476190476190477,0.40476190476190477,0.40476190476190477,0.40476190476190477,0.40476190476190477,0.40476190476190477,0.40476190476190477,0.40476190476190477,0.40476190476190477,0.40476190476190477,0.40476190476190477,0.40476190476190477,0.40476190476190477,0.40476190476190477,0.40476190476190477,0.40476190476190477,0.40476190476190477,0.40476190476190477,0.40476190476190477,0.40476190476190477,0.40476190476190477,0.40476190476190477,0.40476190476190477,0.40476190476190477,0.40476190476190477,0.40476190476190477,0.40476190476190477,0.40476190476190477,0.40476190476190477,0.40476190476190477,0.40476190476190477,0.40476190476190477,0.40476190476190477,0.40476190476190477,0.40476190476190477,0.40476190476190477,0.40476190476190477,0.40476190476190477,0.40476190476190477,0.40476190476190477,0.40476190476190477,0.40476190476190477,0.40476190476190477,0.40476190476190477,0.40476190476190477,0.40476190476190477,0.40476190476190477,0.391156462585034,0.3707482993197279,0.3707482993197279,0.36394557823129253,0.3401360544217687,0.32653061224489793,0.3231292517006803,0.3129251700680272,0.30612244897959184,0.30272108843537415,0.29931972789115646,0.2925170068027211,0.2925170068027211,0.2925170068027211,0.2925170068027211,0.2925170068027211,0.2925170068027211,0.2925170068027211,0.2925170068027211,0.2925170068027211,0.2925170068027211,0.2925170068027211,0.2925170068027211,0.2925170068027211,0.2925170068027211,0.2925170068027211,0.2925170068027211,0.2925170068027211,0.2925170068027211,0.2925170068027211,0.2925170068027211,0.2925170068027211,0.2925170068027211,0.2925170068027211,0.2925170068027211,0.2925170068027211,0.2925170068027211,0.2925170068027211,0.2891156462585034,0.282312925170068,0.2755102040816326,0.272108843537415,0.2653061224489796,0.24829931972789115,0.23809523809523808,0.22789115646258504,0.1870748299319728,0.17006802721088435,0.15306122448979592,0.12244897959183673,0.10884353741496598,0.08843537414965986,0.08163265306122448,0.07142857142857142,0.06802721088435375,0.05442176870748299,0.04081632653061224,0.034013605442176874,0.030612244897959183,0.027210884353741496,0.023809523809523808,0.017006802721088437,0.017006802721088437,0.017006802721088437,0.01020408163265306,0.01020408163265306,0.01020408163265306,0.01020408163265306,0.01020408163265306,0.01020408163265306,0.003401360544217687,0.003401360544217687,0.003401360544217687,0.003401360544217687,0.003401360544217687,0.003401360544217687,0.003401360544217687,0.003401360544217687,0.003401360544217687,0.003401360544217687,0.003401360544217687,0.003401360544217687,0.003401360544217687,0.003401360544217687,0.003401360544217687,0.003401360544217687,0.003401360544217687,0.003401360544217687,0.003401360544217687,0.003401360544217687,0.003401360544217687,0.003401360544217687,0.003401360544217687,0.003401360544217687,0.003401360544217687,0.003401360544217687,0.003401360544217687,0.003401360544217687,0.003401360544217687,0.003401360544217687,0.003401360544217687,0.003401360544217687,0.003401360544217687,0.003401360544217687,0.003401360544217687,0.003401360544217687,0.003401360544217687,0.003401360544217687,0.003401360544217687,0.003401360544217687,0.003401360544217687,0.003401360544217687,0.003401360544217687,0.003401360544217687,0.003401360544217687,0.003401360544217687,0.003401360544217687,0.003401360544217687,0.003401360544217687,0.003401360544217687,0.003401360544217687,0.003401360544217687,0.003401360544217687,0.003401360544217687,0.003401360544217687,0.003401360544217687,0.003401360544217687,0.003401360544217687,0.003401360544217687,0.003401360544217687,0.003401360544217687,0.003401360544217687,0.003401360544217687,0.003401360544217687,0.003401360544217687,0.003401360544217687,0.003401360544217687,0.003401360544217687,0.003401360544217687,0.003401360544217687,0.003401360544217687,0.003401360544217687,0.003401360544217687,0.003401360544217687,0.003401360544217687,0.003401360544217687,0.003401360544217687,0.003401360544217687,0.003401360544217687,0.003401360544217687,0.003401360544217687,0.003401360544217687,0.003401360544217687,0.003401360544217687,0.003401360544217687,0.003401360544217687,0.003401360544217687,0.003401360544217687,0.003401360544217687,0.003401360544217687,0.003401360544217687,0.003401360544217687,0.003401360544217687,0.003401360544217687,0.003401360544217687,0.003401360544217687,0.003401360544217687,0.003401360544217687,0.003401360544217687,0.003401360544217687,0.003401360544217687,0.003401360544217687,0.003401360544217687,0.003401360544217687,0.003401360544217687,0.003401360544217687,0.003401360544217687,0.003401360544217687,0.003401360544217687,0.003401360544217687,0.003401360544217687,0.003401360544217687,0.003401360544217687,0.003401360544217687,0.003401360544217687,0.003401360544217687,0.003401360544217687,0.003401360544217687,0.003401360544217687,0.003401360544217687,0.003401360544217687,0.003401360544217687,0.003401360544217687,0.003401360544217687,0.003401360544217687,0.003401360544217687,0.003401360544217687,0.003401360544217687,0.003401360544217687,0.003401360544217687,0.003401360544217687,0.003401360544217687,0.003401360544217687,0.003401360544217687,0.003401360544217687,0.003401360544217687,0.003401360544217687,0.003401360544217687,0.003401360544217687,0.003401360544217687,0.013605442176870748,0.013605442176870748,0.017006802721088437,0.030612244897959183,0.04081632653061224,0.04421768707482993,0.05442176870748299,0.05442176870748299,0.05782312925170068,0.05782312925170068,0.06462585034013606,0.06802721088435375,0.0782312925170068,0.08163265306122448,0.08843537414965986,0.08843537414965986,0.09523809523809523,0.09523809523809523,0.09523809523809523,0.09863945578231292,0.09863945578231292,0.10204081632653061,0.10204081632653061,0.10204081632653061,0.1054421768707483,0.1054421768707483,0.11224489795918367,0.11224489795918367,0.11224489795918367,0.1326530612244898,0.1360544217687075,0.14285714285714285,0.14965986394557823,0.1564625850340136,0.1598639455782313,0.17687074829931973,0.18027210884353742,0.18027210884353742,0.19047619047619047,0.20408163265306123,0.2108843537414966,0.21768707482993196,0.22789115646258504,0.23469387755102042,0.24489795918367346,0.2585034013605442,0.2653061224489796,0.2653061224489796,0.272108843537415,0.2789115646258503,0.282312925170068,0.282312925170068,0.2857142857142857,0.2857142857142857,0.2857142857142857,0.2857142857142857,0.2857142857142857,0.2857142857142857,0.2857142857142857,0.2857142857142857,0.2857142857142857,0.2857142857142857,0.2857142857142857,0.2857142857142857,0.2857142857142857,0.2857142857142857,0.2857142857142857,0.2857142857142857,0.2857142857142857,0.2857142857142857,0.2857142857142857,0.2857142857142857,0.2857142857142857,0.2857142857142857,0.2857142857142857,0.2857142857142857,0.2857142857142857,0.2857142857142857,0.2857142857142857,0.2857142857142857,0.2857142857142857,0.2857142857142857,0.2857142857142857,0.2857142857142857,0.2857142857142857,0.2857142857142857,0.2857142857142857,0.2857142857142857,0.2857142857142857,0.2857142857142857,0.2857142857142857,0.2857142857142857,0.2857142857142857,0.2857142857142857,0.2857142857142857,0.2857142857142857,0.2857142857142857,0.2891156462585034,0.2891156462585034,0.2891156462585034,0.2891156462585034,0.2891156462585034,0.2891156462585034,0.2891156462585034,0.2891156462585034,0.2891156462585034,0.2891156462585034,0.2891156462585034,0.2891156462585034,0.2891156462585034,0.2891156462585034,0.2891156462585034,0.2891156462585034,0.2891156462585034,0.2891156462585034,0.2891156462585034,0.2891156462585034,0.2891156462585034,0.2891156462585034,0.2891156462585034,0.2891156462585034,0.2891156462585034,0.2891156462585034,0.2891156462585034,0.2891156462585034,0.2891156462585034,0.2857142857142857,0.2857142857142857,0.2857142857142857,0.2857142857142857,0.2857142857142857,0.282312925170068,0.282312925170068,0.282312925170068,0.282312925170068,0.282312925170068,0.282312925170068,0.282312925170068,0.282312925170068,0.282312925170068,0.282312925170068,0.282312925170068,0.282312925170068,0.282312925170068,0.282312925170068,0.282312925170068,0.282312925170068,0.282312925170068,0.282312925170068,0.282312925170068,0.282312925170068,0.282312925170068,0.282312925170068,0.282312925170068,0.282312925170068,0.282312925170068,0.282312925170068,0.282312925170068,0.282312925170068,0.282312925170068,0.282312925170068,0.282312925170068,0.282312925170068,0.282312925170068,0.282312925170068,0.282312925170068,0.282312925170068,0.282312925170068,0.282312925170068,0.282312925170068,0.282312925170068,0.282312925170068,0.282312925170068,0.282312925170068,0.282312925170068,0.282312925170068,0.282312925170068,0.282312925170068,0.282312925170068,0.282312925170068,0.282312925170068,0.282312925170068,0.282312925170068,0.282312925170068,0.282312925170068,0.282312925170068,0.282312925170068,0.282312925170068,0.282312925170068,0.282312925170068,0.282312925170068,0.282312925170068,0.282312925170068,0.282312925170068,0.282312925170068,0.282312925170068,0.282312925170068,0.282312925170068,0.282312925170068,0.282312925170068,0.282312925170068,0.282312925170068,0.282312925170068,0.282312925170068,0.282312925170068,0.282312925170068,0.282312925170068,0.282312925170068,0.282312925170068,0.282312925170068,0.282312925170068,0.282312925170068,0.282312925170068,0.282312925170068,0.282312925170068,0.282312925170068,0.282312925170068,0.282312925170068,0.282312925170068,0.282312925170068,0.282312925170068,0.282312925170068,0.282312925170068,0.282312925170068,0.282312925170068,0.282312925170068,0.282312925170068,0.282312925170068,0.282312925170068,0.282312925170068,0.282312925170068,0.282312925170068,0.282312925170068,0.282312925170068,0.282312925170068,0.282312925170068,0.282312925170068,0.282312925170068,0.2857142857142857,0.29591836734693877,0.29591836734693877,0.29591836734693877,0.2857142857142857,0.272108843537415,0.272108843537415,0.272108843537415,0.272108843537415,0.272108843537415,0.272108843537415,0.272108843537415,0.272108843537415,0.272108843537415,0.272108843537415,0.272108843537415,0.272108843537415,0.272108843537415,0.272108843537415,0.272108843537415,0.272108843537415,0.272108843537415,0.272108843537415,0.272108843537415,0.272108843537415,0.272108843537415,0.272108843537415,0.272108843537415,0.272108843537415,0.272108843537415,0.282312925170068,0.2857142857142857,0.29931972789115646,0.29931972789115646,0.30272108843537415,0.30952380952380953,0.3129251700680272,0.3129251700680272,0.3129251700680272,0.3163265306122449,0.3163265306122449,0.3163265306122449,0.3197278911564626,0.3197278911564626,0.3197278911564626,0.3197278911564626,0.3197278911564626,0.3197278911564626,0.3299319727891156,0.336734693877551,0.3401360544217687,0.3401360544217687,0.3401360544217687,0.32653061224489793,0.3163265306122449,0.30952380952380953,0.30952380952380953,0.30952380952380953,0.30952380952380953,0.30952380952380953,0.30952380952380953,0.30952380952380953,0.30952380952380953,0.30952380952380953,0.30612244897959184,0.30612244897959184,0.30612244897959184,0.30612244897959184,0.30612244897959184,0.30612244897959184,0.3129251700680272,0.3129251700680272,0.3197278911564626,0.3333333333333333,0.3469387755102041,0.35034013605442177,0.35374149659863946,0.3673469387755102,0.3707482993197279,0.3741496598639456,0.37755102040816324,0.37755102040816324,0.37755102040816324,0.37755102040816324,0.37755102040816324,0.37755102040816324,0.37755102040816324,0.37755102040816324,0.37755102040816324,0.38095238095238093,0.38095238095238093,0.38095238095238093,0.38095238095238093,0.38095238095238093,0.38095238095238093,0.38095238095238093,0.38095238095238093,0.38095238095238093,0.38095238095238093,0.3843537414965986,0.40816326530612246,0.41156462585034015,0.42517006802721086,0.43537414965986393,0.4489795918367347,0.47619047619047616,0.5068027210884354,0.5238095238095238,0.54421768707483,0.5952380952380952,0.6190476190476191,0.6666666666666666,0.717687074829932,0.7448979591836735,0.7925170068027211,0.8163265306122449,0.8571428571428571,0.8741496598639455,0.9115646258503401,0.9115646258503401,0.935374149659864,0.9387755102040817,0.9387755102040817,0.9421768707482994,0.9421768707482994,0.9421768707482994,0.9421768707482994,0.9489795918367347,0.9489795918367347,0.9523809523809523,0.9523809523809523,0.9523809523809523,0.9523809523809523,0.9523809523809523,0.9523809523809523,0.9523809523809523,0.9591836734693877,0.9591836734693877,0.9591836734693877,0.9625850340136054,0.9625850340136054,0.9659863945578231,0.9693877551020408,0.9727891156462585,0.9727891156462585,0.9727891156462585,0.9727891156462585,0.9727891156462585,0.9727891156462585,0.9727891156462585,0.9727891156462585,0.9727891156462585,0.9727891156462585,0.9727891156462585,0.9727891156462585,0.9727891156462585,0.9727891156462585,0.9727891156462585,0.9727891156462585,0.9727891156462585,0.9727891156462585,0.9727891156462585,0.9727891156462585,0.9727891156462585,0.9727891156462585,0.9727891156462585,0.9727891156462585,0.9727891156462585,0.9727891156462585,0.9727891156462585,0.9727891156462585,0.9727891156462585,0.9727891156462585,0.9727891156462585,0.9727891156462585,0.9727891156462585,0.9727891156462585,0.9727891156462585,0.9727891156462585,0.9727891156462585,0.9727891156462585,0.9727891156462585,0.9727891156462585,0.9727891156462585,0.9727891156462585,0.9727891156462585,0.9727891156462585,0.9727891156462585,0.9727891156462585,0.9727891156462585,0.9727891156462585,0.9727891156462585,0.9727891156462585,0.9727891156462585,0.9727891156462585,0.9727891156462585,0.9727891156462585,0.9727891156462585,0.9727891156462585,0.9727891156462585,0.9727891156462585,0.9727891156462585,0.9727891156462585,0.9727891156462585,0.9727891156462585,0.9727891156462585,0.9727891156462585,0.9727891156462585,0.9727891156462585,0.9727891156462585,0.9727891156462585,0.9727891156462585,0.9727891156462585,0.9727891156462585,0.9727891156462585,0.9727891156462585,0.9727891156462585,0.9727891156462585,0.9727891156462585,0.9727891156462585,0.9727891156462585,0.9727891156462585,0.9727891156462585,0.9727891156462585,0.9727891156462585,0.9727891156462585,0.9727891156462585,0.9727891156462585,0.9727891156462585,0.9727891156462585,0.9727891156462585,0.9727891156462585,0.9727891156462585,0.9727891156462585,0.9727891156462585,0.9727891156462585,0.9727891156462585,0.9727891156462585,0.9727891156462585,0.9727891156462585,0.9727891156462585,0.9727891156462585,0.9727891156462585,0.9727891156462585,0.9727891156462585,0.9727891156462585,0.9727891156462585,0.9727891156462585,0.9727891156462585,0.9727891156462585,0.9727891156462585,0.9727891156462585,0.9727891156462585,0.9727891156462585,0.9727891156462585,0.9727891156462585,0.9659863945578231,0.9591836734693877,0.9489795918367347,0.9387755102040817,0.9319727891156463,0.9217687074829932,0.8979591836734694,0.8843537414965986,0.8707482993197279,0.8537414965986394,0.8299319727891157,0.8163265306122449,0.782312925170068,0.7482993197278912,0.7244897959183674,0.7040816326530612,0.6768707482993197,0.6564625850340136,0.6530612244897959,0.6530612244897959,0.6462585034013606,0.6394557823129252,0.6394557823129252,0.6394557823129252,0.6394557823129252,0.6394557823129252,0.6394557823129252,0.6326530612244898,0.6292517006802721,0.6292517006802721,0.6224489795918368,0.6224489795918368,0.6122448979591837,0.6122448979591837,0.6122448979591837,0.6020408163265306,0.6020408163265306,0.5986394557823129,0.5986394557823129,0.5850340136054422,0.5850340136054422,0.5782312925170068,0.5782312925170068,0.5748299319727891,0.5748299319727891,0.5748299319727891,0.5748299319727891,0.5748299319727891,0.5748299319727891,0.5748299319727891,0.5748299319727891,0.5748299319727891,0.5748299319727891,0.5748299319727891,0.5748299319727891,0.5748299319727891,0.5748299319727891,0.5748299319727891,0.5748299319727891,0.5748299319727891,0.5748299319727891,0.5748299319727891,0.5748299319727891,0.5748299319727891,0.5748299319727891,0.5748299319727891,0.5748299319727891,0.5748299319727891,0.5748299319727891,0.5748299319727891,0.5748299319727891,0.5748299319727891,0.5748299319727891,0.5748299319727891,0.5748299319727891,0.5748299319727891,0.5748299319727891,0.5748299319727891,0.5748299319727891,0.5748299319727891,0.5748299319727891,0.5748299319727891,0.5748299319727891,0.5748299319727891,0.5748299319727891,0.5748299319727891,0.5748299319727891,0.5748299319727891,0.5748299319727891,0.5748299319727891,0.5748299319727891,0.5748299319727891,0.5748299319727891,0.5748299319727891,0.5748299319727891,0.5748299319727891,0.5748299319727891,0.5748299319727891,0.5748299319727891,0.5748299319727891,0.5748299319727891,0.5748299319727891,0.5748299319727891,0.5748299319727891,0.5748299319727891,0.5748299319727891,0.5748299319727891,0.5748299319727891,0.5748299319727891,0.5748299319727891,0.5748299319727891,0.5748299319727891,0.5748299319727891,0.5748299319727891,0.5748299319727891,0.5748299319727891,0.5748299319727891,0.5748299319727891,0.5748299319727891,0.5680272108843537,0.5544217687074829,0.5170068027210885,0.4897959183673469,0.45918367346938777,0.3843537414965986,0.32653061224489793,0.30272108843537415,0.2857142857142857,0.2789115646258503,0.272108843537415,0.2619047619047619,0.2585034013605442,0.2585034013605442,0.2585034013605442,0.25170068027210885,0.24829931972789115,0.24829931972789115,0.24489795918367346,0.24149659863945577,0.23809523809523808,0.23129251700680273,0.23129251700680273,0.21768707482993196,0.20748299319727892,0.19727891156462585,0.17687074829931973,0.13945578231292516,0.12244897959183673,0.0782312925170068,0.05782312925170068,0.05442176870748299,0.05442176870748299,0.05442176870748299,0.05442176870748299,0.05442176870748299,0.05442176870748299,0.05442176870748299,0.05442176870748299,0.05442176870748299,0.05442176870748299,0.05442176870748299,0.05442176870748299,0.06462585034013606,0.06802721088435375,0.0782312925170068,0.08163265306122448,0.08843537414965986,0.08843537414965986,0.08843537414965986,0.08843537414965986,0.08843537414965986,0.09523809523809523,0.09523809523809523,0.09863945578231292,0.09863945578231292,0.10204081632653061,0.10204081632653061,0.10204081632653061,0.10204081632653061,0.10204081632653061,0.10204081632653061,0.10884353741496598,0.10884353741496598,0.11224489795918367,0.11904761904761904,0.11904761904761904,0.11904761904761904,0.12585034013605442,0.12585034013605442,0.12585034013605442,0.12585034013605442,0.12585034013605442,0.12585034013605442,0.12585034013605442,0.12585034013605442,0.1292517006802721,0.1292517006802721,0.1292517006802721,0.1360544217687075,0.1360544217687075,0.1360544217687075,0.1360544217687075,0.1360544217687075,0.1360544217687075,0.1360544217687075,0.1360544217687075,0.1360544217687075,0.1360544217687075,0.1360544217687075,0.1360544217687075,0.1360544217687075,0.1360544217687075,0.1360544217687075,0.1360544217687075,0.1360544217687075,0.1360544217687075,0.1360544217687075,0.1360544217687075,0.1360544217687075,0.1360544217687075,0.1360544217687075,0.1360544217687075,0.1360544217687075,0.1360544217687075,0.1360544217687075,0.1360544217687075,0.1360544217687075,0.14625850340136054,0.14965986394557823,0.15306122448979592,0.1564625850340136,0.16326530612244897,0.17687074829931973,0.18027210884353742,0.19047619047619047,0.20068027210884354,0.20748299319727892,0.21428571428571427,0.23469387755102042,0.24829931972789115,0.25510204081632654,0.2653061224489796,0.2925170068027211,0.3231292517006803,0.35034013605442177,0.4217687074829932,0.4523809523809524,0.4897959183673469,0.5510204081632653,0.5714285714285714,0.6122448979591837,0.6292517006802721,0.673469387755102,0.6904761904761905,0.7074829931972789,0.7482993197278912,0.7619047619047619,0.8095238095238095,0.8333333333333334,0.8877551020408163,0.8945578231292517,0.8945578231292517,0.8707482993197279,0.8469387755102041,0.8469387755102041,0.8469387755102041,0.8469387755102041,0.8469387755102041,0.8469387755102041,0.8469387755102041,0.8469387755102041,0.8469387755102041,0.8469387755102041,0.8469387755102041,0.8469387755102041,0.8469387755102041,0.8469387755102041,0.8469387755102041,0.8469387755102041,0.8469387755102041,0.8469387755102041,0.8401360544217688,0.8401360544217688,0.8401360544217688,0.8367346938775511,0.8367346938775511,0.8367346938775511,0.8367346938775511,0.8367346938775511,0.8401360544217688,0.8401360544217688,0.8401360544217688,0.8469387755102041,0.8469387755102041,0.8469387755102041,0.8469387755102041,0.8469387755102041,0.8469387755102041,0.8469387755102041,0.8469387755102041,0.8469387755102041,0.8469387755102041,0.8469387755102041,0.8469387755102041,0.8469387755102041,0.8537414965986394,0.8639455782312925,0.891156462585034,0.9115646258503401,0.9795918367346939,1.0136054421768708,1.098639455782313,1.1394557823129252,1.217687074829932,1.251700680272109,1.3061224489795917,1.3605442176870748,1.3605442176870748,1.3605442176870748,1.3605442176870748,1.3639455782312926],"y":[-3.4285714285714284,-3.4285714285714284,-3.4285714285714284,-3.4285714285714284,-3.4285714285714284,-3.4285714285714284,-3.4285714285714284,-3.4285714285714284,-3.4285714285714284,-3.4285714285714284,-3.4285714285714284,-3.4285714285714284,-3.4285714285714284,-3.4285714285714284,-3.4285714285714284,-3.4285714285714284,-3.4285714285714284,-3.4285714285714284,-3.4285714285714284,-3.4285714285714284,-3.4285714285714284,-3.4285714285714284,-3.4285714285714284,-3.4285714285714284,-3.4285714285714284,-3.4285714285714284,-3.4285714285714284,-3.4285714285714284,-3.4285714285714284,-3.4285714285714284,-3.4285714285714284,-3.4285714285714284,-3.4285714285714284,-3.4285714285714284,-3.4285714285714284,-3.4285714285714284,-3.4285714285714284,-3.4285714285714284,-3.4285714285714284,-3.4285714285714284,-3.4285714285714284,-3.4285714285714284,-3.4285714285714284,-3.4285714285714284,-3.4285714285714284,-3.4285714285714284,-3.4285714285714284,0.6190476190476191,0.6190476190476191,0.6190476190476191,0.6190476190476191,0.6190476190476191,0.6190476190476191,0.6190476190476191,0.638095238095238,0.638095238095238,0.638095238095238,0.638095238095238,0.638095238095238,0.638095238095238,0.638095238095238,0.638095238095238,0.638095238095238,0.638095238095238,0.638095238095238,0.638095238095238,0.638095238095238,0.638095238095238,0.638095238095238,0.638095238095238,0.638095238095238,0.638095238095238,0.638095238095238,0.638095238095238,0.638095238095238,0.638095238095238,0.638095238095238,0.638095238095238,0.638095238095238,0.638095238095238,0.638095238095238,0.638095238095238,0.638095238095238,0.638095238095238,0.638095238095238,0.638095238095238,0.638095238095238,0.638095238095238,0.638095238095238,0.638095238095238,0.638095238095238,0.638095238095238,0.638095238095238,0.638095238095238,0.638095238095238,0.638095238095238,0.638095238095238,0.638095238095238,0.638095238095238,0.638095238095238,0.638095238095238,0.638095238095238,0.638095238095238,0.638095238095238,0.638095238095238,0.638095238095238,0.638095238095238,0.6285714285714286,0.6190476190476191,0.580952380952381,0.5619047619047619,0.5428571428571428,0.5428571428571428,0.5428571428571428,0.5428571428571428,0.5333333333333333,0.5333333333333333,0.5333333333333333,0.5333333333333333,0.5333333333333333,0.5333333333333333,0.5333333333333333,0.5333333333333333,0.5333333333333333,0.5333333333333333,0.5333333333333333,0.5333333333333333,0.5333333333333333,0.5333333333333333,0.5333333333333333,0.5333333333333333,0.5333333333333333,0.5333333333333333,0.5333333333333333,0.5333333333333333,0.5333333333333333,0.5333333333333333,0.5333333333333333,0.5333333333333333,0.5333333333333333,0.5333333333333333,0.5333333333333333,0.5333333333333333,0.5333333333333333,0.5333333333333333,0.5333333333333333,0.5333333333333333,0.5333333333333333,0.5142857142857142,0.5142857142857142,0.5047619047619047,0.5047619047619047,0.5047619047619047,0.5047619047619047,0.5047619047619047,0.5047619047619047,0.5047619047619047,0.5047619047619047,0.49523809523809526,0.49523809523809526,0.49523809523809526,0.49523809523809526,0.49523809523809526,0.49523809523809526,0.49523809523809526,0.49523809523809526,0.49523809523809526,0.49523809523809526,0.49523809523809526,0.49523809523809526,0.49523809523809526,0.49523809523809526,0.49523809523809526,0.49523809523809526,0.49523809523809526,0.49523809523809526,0.4857142857142857,0.4857142857142857,0.4857142857142857,0.47619047619047616,0.4666666666666667,0.4666666666666667,0.4666666666666667,0.4666666666666667,0.4666666666666667,0.4666666666666667,0.4666666666666667,0.4666666666666667,0.4666666666666667,0.4666666666666667,0.4666666666666667,0.45714285714285713,0.44761904761904764,0.42857142857142855,0.42857142857142855,0.41904761904761906,0.4095238095238095,0.4,0.3904761904761905,0.3619047619047619,0.3523809523809524,0.3523809523809524,0.3333333333333333,0.3142857142857143,0.3047619047619048,0.2571428571428571,0.23809523809523808,0.22857142857142856,0.21904761904761905,0.17142857142857143,0.14285714285714285,0.09523809523809523,0.05714285714285714,0.047619047619047616,0.02857142857142857,0.009523809523809525,0.009523809523809525,0.009523809523809525,0.009523809523809525,0.009523809523809525,0.009523809523809525,0.009523809523809525,0.009523809523809525,0.009523809523809525,0.009523809523809525,0.009523809523809525,0.009523809523809525,0.009523809523809525,0.009523809523809525,0.009523809523809525,0.009523809523809525,0.009523809523809525,0.009523809523809525,0.009523809523809525,0.009523809523809525,0.009523809523809525,0.009523809523809525,0.009523809523809525,0.009523809523809525,0.009523809523809525,0.009523809523809525,0.009523809523809525,0.009523809523809525,0.009523809523809525,0.009523809523809525,0.009523809523809525,0.009523809523809525,0.009523809523809525,0.009523809523809525,0.009523809523809525,0.009523809523809525,0.009523809523809525,0.009523809523809525,0.009523809523809525,0.009523809523809525,0.009523809523809525,0.009523809523809525,0.009523809523809525,0.009523809523809525,0.009523809523809525,0.009523809523809525,0.009523809523809525,0.009523809523809525,0.009523809523809525,0.009523809523809525,0.009523809523809525,0.009523809523809525,0.009523809523809525,0.009523809523809525,0.009523809523809525,0.009523809523809525,0.009523809523809525,0.009523809523809525,0.009523809523809525,0.009523809523809525,0.009523809523809525,0.009523809523809525,0.009523809523809525,0.009523809523809525,0.009523809523809525,0.009523809523809525,0.