[{"success":true,"trial_type":"fullscreen","trial_index":0,"time_elapsed":5552,"internal_node_id":"0.0-0.0","protocol_sum":"","subject_identifier":306,"subject_sum":[98,12,156,51,33,1,165,186,233,85,198,106,231,34,104,251,205,57,114,118,97,121,82,44,141,238,222,106,36,154,221,183],"subject_pair":153,"STUDY_ID":"66a0b3911f23dfc7665bb169","PROLIFIC_PID":"66744fd2d5e1d30e11ef28af","SESSION_ID":"66a11197166352b30bfd63b7","practice_instructions":1,"leaderboard_instructions":2,"bonus":0,"reveal_word":false,"self_rating":"3","confidence":"75"},{"view_history":"[{\"page_index\":0,\"viewing_time\":8598}]","rt":8598,"trial_type":"instructions","trial_index":1,"time_elapsed":14151,"internal_node_id":"0.0-1.0","protocol_sum":"","subject_identifier":306,"subject_sum":[98,12,156,51,33,1,165,186,233,85,198,106,231,34,104,251,205,57,114,118,97,121,82,44,141,238,222,106,36,154,221,183],"subject_pair":153,"STUDY_ID":"66a0b3911f23dfc7665bb169","PROLIFIC_PID":"66744fd2d5e1d30e11ef28af","SESSION_ID":"66a11197166352b30bfd63b7","practice_instructions":1,"leaderboard_instructions":2,"bonus":0,"reveal_word":false,"self_rating":"3","confidence":"75"},{"view_history":"[{\"page_index\":0,\"viewing_time\":33831}]","rt":33832,"trial_type":"instructions","trial_index":2,"time_elapsed":47986,"internal_node_id":"0.0-2.0-0.0","protocol_sum":"","subject_identifier":306,"subject_sum":[98,12,156,51,33,1,165,186,233,85,198,106,231,34,104,251,205,57,114,118,97,121,82,44,141,238,222,106,36,154,221,183],"subject_pair":153,"STUDY_ID":"66a0b3911f23dfc7665bb169","PROLIFIC_PID":"66744fd2d5e1d30e11ef28af","SESSION_ID":"66a11197166352b30bfd63b7","practice_instructions":1,"leaderboard_instructions":2,"bonus":0,"reveal_word":false,"self_rating":"3","confidence":"75"},{"rt":10348,"responses":"{\"Q0\":\"... reveal the word with as <b>few letter guesses</b> as possible\"}","question_order":"[0]","trial_type":"survey-multi-choice","trial_index":3,"time_elapsed":58337,"internal_node_id":"0.0-2.0-1.0","protocol_sum":"","subject_identifier":306,"subject_sum":[98,12,156,51,33,1,165,186,233,85,198,106,231,34,104,251,205,57,114,118,97,121,82,44,141,238,222,106,36,154,221,183],"subject_pair":153,"correct":true,"test_part":"multichoice_nonpretend","STUDY_ID":"66a0b3911f23dfc7665bb169","PROLIFIC_PID":"66744fd2d5e1d30e11ef28af","SESSION_ID":"66a11197166352b30bfd63b7","practice_instructions":1,"leaderboard_instructions":2,"bonus":0,"reveal_word":false,"self_rating":"3","confidence":"75"},{"view_history":"[{\"page_index\":0,\"viewing_time\":2416}]","rt":2417,"trial_type":"instructions","trial_index":4,"time_elapsed":60757,"internal_node_id":"0.0-3.0","protocol_sum":"","subject_identifier":306,"subject_sum":[98,12,156,51,33,1,165,186,233,85,198,106,231,34,104,251,205,57,114,118,97,121,82,44,141,238,222,106,36,154,221,183],"subject_pair":153,"STUDY_ID":"66a0b3911f23dfc7665bb169","PROLIFIC_PID":"66744fd2d5e1d30e11ef28af","SESSION_ID":"66a11197166352b30bfd63b7","practice_instructions":1,"leaderboard_instructions":2,"bonus":0,"reveal_word":false,"self_rating":"3","confidence":"75"},{"word":"ZEBRA","click_log":{"letter":["","B","E","L","A","Z","R"],"t":[0,15597,18387,19667,27877,34401,36735],"hit":[null,1,1,0,1,1,1],"asked":["","B","BE","BEL","BELA","BELAZ","BELAZR"],"word_state":["_____","__B__","_EB__","_EB__","_EB_A","ZEB_A","ZEBRA"]},"hover_log":{"letter":["?","?","?","?","?","?","?","?","?","?","?","?","?","?","?","?","?","?","?","?","?","?","?","?","?","?","?","?","?","?","?","?","?","?","?","?","?","?","?","?","?","?","?","?","?","?","?","?","?","?","?","?","?","?","?","?","?","?","?","?","?","?","?","?","?","?","?","?","?","?","?","?","?","?","?","?","?","?","?","?","?","?","?","?","?","?","?","?","?","?","?","?","?","?","?","?","?","?","?","?","?","?","?","?","?","?","?","?","?","?","?","?","?","?","?","?","?","?","?","?","?","?","?","?","?","?","?","?","?","?","?","?","?","?","?","?","?","?","?","?","?","?","?","?","?","?","?","?","?","?","?","?","?","?","?","?","?","?","?","?","?","?","?","?","?","?","?","?","?","?","?","?","?","?","?","?","?","?","?","?","?","?","?","?","?","?","?","?","?","?","?","?","?","?","?","?","?","?","?","?","?","?","?","?","?","?","?","?","?","?","?","?","?","?","?","?","?","?","?","?","?","?","?","?","?","?","?","?","?","?","?","?","?","?","?","?","?","?","?","?","?","?","?","?","?","?","?","?","?","?","?","?","?","?","?","?","?","?","?","?","?","?","?","?","?","?","?","?","?","?","?","?","?","?","?","?","?","?","?","?","?","?","?","?","?","?","?","?","?","?","?","?","?","?","?","?","?","?","?","?","?","?","?","?","?","?","?","?","?","?","?","?","?","?","?","?","?","?","?","?","?","?","?","?","?","?","?","?","?","?","?","?","?","?","?","?","?","?","?","?","?","?","?","?","?","?","?","?","?","?","?","?","?","?","?","?","?","?","?","?","?","?","?","?","?","?","?","?","?","?","?","?","?","?","?","?","?","?","?","?","?","?","?","?","?","?","?","?","?","?","?","?","?","?","?","?","?","?","?","?","?","?","?","?","?","?","?","?","?","?","?","?","?","?","?","?","?","?","?","?","?","?","?","?","?","?","?","?","?","?","?","?","?","?","?","?","?","?","?","?","?","?","?","?","?","?","?","?","?","?","?","?","?","?","?","?","?","?","?","?","?","?","?","?","?","?","?","?","?","?","?","?","?","?","?","?","?","?","?","?","?","?","?","?","?","?","?","?","?","?","?","?","?","?","?","?","?","?","?","?","?","?","?","?","?","?","?","?","?","?","?","?","?","?","?","?","?","?","?","?","?","?","?","?","?","?","?","?","?","?","?","?","?","?","?","?","?","?","?","?","?","?","?","?","?","?","?","?","?","?","?","?","?","?","?","?","?","?","?","?","?","?","?","?","?","?","?","?","?","?","?","?","?","?","?","?","?","?","?","?","?","?","?","?","?","?","?","?","?","?","?","?","?","?","?","?","?","?","?","?","?","?","?","?","?","?","?","?","?","?","?","?","?","?","?","?","?","?","?","?","?","?","?","?","?","?","?","?","?","?","?","?","?","?","?","?","?","?","?","?","?","?","?","?","?","?","?","?","?","?","?","?","?","?","?","?","?","?","?","?","?","?","?","?","?","?","?","?","?","?","?","?","?","?","?","?","?","?","?","?","?","?","?","?","?","?","?","?","?","?","?","?","?","?","?","?","?","?","?","?","?","?","?","?","?","?","?","?","?","?","?","?","?","?","?","?","?","?","?","?","?","?","?","?","?","?","?","?","?","?","?","?","?","?","?","?","?","?","?","?","?","?","?","?","?","?","?","?","?","?","?","?","?","?","?","?","?","?","?","?","?","?","?","?","?","?","?","?","?","?","?","K","K","K","?","?","?","?","?","?","?","?","?","?","?","B","?","?","?","?","?","?","?","?","?","?","?","?","?","?","?","?","?","?","?","?","?","?","?","?","?","?","?","?","?","?","?","?","?","?","?","?","?","?","?","?","?","?","?","?","?","?","?","?","?","?","?","?","?","?","?","?","?","?","?","?","?","?","?","?","?","?","?","?","?","?","?","?","?","?","?","?","?","?","?","?","?","?","?","?","?","?","?","?","?","?","?","?","?","?","?","?","?","?","?","?","?","?","?","?","?","?","?","?","?","?","?","?","?","?","?","?","B","B","B","B","B","B","B","B","B","B","B","B","B","B","B","B","B","B","B","B","B","B","B","B","B","B","B","B","B","B","B","B","B","B","B","B","B","B","B","B","B","B","B","B","B","B","B","B","B","B","B","B","B","B","B","B","B","B","B","B","B","B","B","B","B","B","B","B","B","B","B","B","B","B","B","B","B","B","B","B","B","B","B","B","B","B","B","B","B","B","B","B","B","B","B","B","B","B","B","B","B","C","?","D","D","D","D","D","?","?","?","?","?","?","?","?","?","?","?","?","?","?","?","?","?","?","?","?","?","?","?","?","?","?","?","?","?","?","?","?","?","?","?","?","?","?","?","?","?","?","?","?","?","?","?","?","?","?","?","?","?","?","?","?","?","?","?","?","?","?","?","E","E","E","E","E","E","E","E","E","E","E","E","E","E","E","E","E","E","E","E","E","E","E","E","E","E","E","E","E","E","E","E","E","E","E","E","E","E","E","E","E","E","E","E","E","E","E","E","E","E","E","E","E","E","E","E","E","E","E","E","?","?","?","?","?","?","?","?","?","?","?","?","?","?","?","?","?","?","L","L","L","L","L","L","L","L","L","L","L","L","L","L","L","L","L","L","L","L","L","L","L","L","L","L","L","L","L","L","L","L","L","L","L","L","L","L","L","L","L","L","L","L","L","L","L","L","L","L","L","L","?","?","?","?","?","?","?","?","?","?","?","?","B","B","B","B","B","B","B","B","?","?","?","?","A","A","A","A","A","A","A","A","A","A","A","A","A","A","A","A","A","A","A","A","A","A","A","A","A","A","A","A","A","A","A","A","A","A","A","A","A","A","A","A","A","A","A","A","A","A","A","A","A","A","A","A","A","A","A","A","A","A","A","A","A","A","A","A","A","A","A","A","A","A","A","A","A","A","A","A","A","A","A","A","A","A","A","A","A","A","A","A","A","A","A","A","A","A","A","A","A","A","A","A","A","A","A","A","A","A","A","A","A","A","A","A","A","A","A","A","A","A","A","A","A","A","A","A","A","A","A","A","A","A","A","A","A","A","A","A","A","A","A","A","A","A","A","A","A","A","A","A","A","A","A","A","A","A","A","A","A","A","A","A","A","A","A","A","A","A","A","A","A","A","A","A","A","A","A","A","A","A","A","A","A","A","A","A","A","A","A","A","A","A","A","A","A","A","A","A","A","A","A","A","A","A","A","A","A","A","A","A","A","A","A","A","A","A","A","A","A","A","A","A","A","A","A","A","A","A","A","A","A","A","A","A","A","A","A","A","A","A","A","A","A","A","A","A","A","A","A","A","A","A","A","A","A","A","A","A","A","A","A","A","A","A","A","A","A","A","A","A","A","A","A","A","A","A","A","A","A","A","A","A","A","A","A","A","A","A","A","A","A","A","A","A","A","A","A","A","A","A","A","A","A","A","A","A","A","A","A","A","A","A","A","A","A","A","A","A","A","A","A","A","A","A","A","A","A","A","A","A","A","A","A","A","A","A","A","A","A","A","A","A","A","A","A","A","A","A","A","A","A","A","A","A","A","A","A","A","A","A","A","A","A","A","A","A","A","A","A","A","A","A","A","A","A","A","A","A","A","A","A","A","A","A","A","A","A","A","A","A","A","A","A","A","A","A","A","A","A","A","A","A","A","A","A","A","A","A","A","A","A","A","A","A","A","A","A","A","A","A","A","A","A","A","A","A","A","A","A","A","A","A","A","A","A","A","A","A","A","A","A","A","A","A","A","A","A","A","A","A","A","A","A","A","A","A","A","A","A","A","A","A","A","A","A","A","A","A","A","A","A","A","B","B","C","?","D","?","E","?","F","F","F","?","?","G","G","G","G","G","G","G","G","G","G","G","G","G","G","G","G","G","G","G","G","G","G","G","G","G","G","G","G","G","G","G","G","G","G","G","G","G","G","G","G","G","G","?","?","?","?","?","?","?","?","?","?","?","?","?","?","?","?","?","?","G","G","?","H","H","H","H","?","?","I","I","I","I","I","I","I","?","?","?","?","?","?","?","?","?","?","?","?","?","?","?","?","?","?","?","?","?","?","?","?","?","?","?","?","?","?","?","?","?","?","?","?","?","?","?","H","H","?","?","?","P","P","P","P","P","P","P","P","P","P","P","?","?","H","H","?","?","?","?","?","?","?","?","?","?","?","?","?","?","?","?","?","G","F","F","?","?","?","?","?","?","?","?","?","?","?","?","?","?","?","?","?","?","?","?","M","M","M","M","?","?","?","?","?","?","?","?","?","?","?","?","?","?","U","U","U","U","U","U","U","U","U","U","?","?","?","U","?","?","?","?","?","N","N","N","N","?","O","O","O","O","O","O","O","O","?","?","?","?","?","?","?","?","?","?","?","K","K","K","K","K","K","K","K","K","K","K","K","K","K","K","K","?","L","L","?","?","?","?","?","?","?","?","?","?","?","?","X","X","X","X","X","X","X","X","X","X","X","X","?","?","?","?","?","?","?","?","?","?","?","?","?","?","Y","Y","Y","Y","Y","Y","Y","Y","Y","Y","Y","Y","?","?","?","?","?","?","?","?","?","?","?","?","?","?","?","?","?","?","?","?","Z","Z","Z","Z","Z","Z","Z","Z","Z","Z","Z","Z","Z","Z","Z","Z","Z","Z","Z","Z","Z","Z","Z","Z","Z","Z","Z","Z","Z","Z","Z","Z","Z","Z","Z","Z","Z","Z","Z","Z","Z","Z","Z","Z","Z","Z","Z","Z","Z","?","?","P","P","P","?","O","O","O","O","O","O","O","O","O","O","O","?","?","?","?","?","?","?","N","N","?","?","?","D","D","D","D","D","D","D","?","?","?","?","?","?","?","?","?","?","D","E","?","F","?","?","?","?","?","?","?","?","?","?","?","?","?","?","?","?","?","?","?","?","?","?","?","?","?","?","Q","Q","Q","Q","Q","Q","Q","Q","Q","Q","Q","Q","?","?","?","R","R","R","R","R","R","R","R","R","R","R","R","R","R","R","R","R","R","R","R","R","R","R","R","R","R","R","R","R","R","R","R","R","R","R","R","R","R","R","R","R","R","R","R","R","R","R","R","R","R","R","R","R","R","R","R","?","?","?","?","?","?","?","?","?","?","?","?","?","?","?","?","?","?","?","?","?","?","?","?","?","?","?","?","?","?","?","?","?","?","?","?","?","?","?","?","?","?","?","?","?","?","?","?","?","?","?","?","?","?","?","?","?","?","?","?","?","?","?","?","?","?","?","?","?","?","?","?","?","?","?","?","?","?","?","?","?","?","?","?","?","?","?","?","?","?","?","?","?","?","?"],"t":[36,47,63,81,97,115,131,147,164,181,199,215,231,248,266,280,297,317,331,348,366,381,397,414,432,447,464,480,497,515,531,550,566,580,597,614,631,648,665,680,697,716,732,746,765,781,797,816,835,850,868,881,897,914,930,947,964,981,998,1015,1030,1048,1064,1080,1096,1115,1132,1149,1164,1182,1199,1216,1229,1248,1265,1280,1297,1313,1330,1349,1365,1382,1398,1416,1431,1449,1464,1481,1499,1516,1531,1549,1565,1580,1595,1613,1629,1647,1664,1683,1699,1715,1732,1748,1765,1779,1798,1815,1832,1847,1864,1881,1897,1914,1931,1947,1963,1981,1997,2013,2032,2047,2064,2082,2098,2115,2131,2147,2164,2180,2197,2215,2229,2246,2264,2281,2297,2314,2330,2347,2363,2381,2398,2415,2432,2447,2464,2481,2498,2513,2530,2547,2564,2582,2598,2614,2630,2648,2662,2678,2698,2714,2730,2747,2764,2779,2797,2814,2830,2848,2864,2880,2896,2914,2930,2947,2963,2980,2997,3014,3029,3045,3063,3080,3097,3113,3129,3147,3163,3180,3198,3211,3229,3244,3260,3277,3296,3312,3330,3347,3364,3380,3396,3413,3430,3447,3462,3479,3497,3512,3530,3547,3563,3579,3598,3613,3629,3647,3663,3680,3697,3714,3730,3748,3762,3779,3797,3812,3828,3848,3863,3879,3897,3913,3931,3946,3962,3979,3997,4014,4030,4047,4063,4080,4098,4111,4129,4147,4163,4180,4196,4213,4229,4248,4262,4280,4296,4311,4327,4342,4360,4376,4392,4409,4426,4443,4460,4477,4493,4510,4526,4543,4559,4576,4593,4609,4626,4642,4659,4676,4692,4710,4726,4743,4760,4776,4793,4809,4826,4843,4859,4876,4893,4909,4926,4942,4959,4976,4993,5010,5026,5043,5059,5076,5093,5109,5126,5142,5159,5176,5193,5209,5226,5242,5259,5276,5292,5309,5326,5343,5359,5375,5392,5409,5425,5442,5459,5475,5492,5509,5525,5542,5559,5576,5591,5608,5625,5642,5659,5676,5692,5708,5725,5742,5758,5775,5792,5808,5825,5841,5858,5875,5892,5908,5925,5942,5958,5975,5992,6008,6025,6042,6058,6075,6091,6109,6125,6141,6158,6175,6191,6208,6224,6241,6257,6274,6291,6308,6324,6341,6357,6376,6392,6408,6425,6441,6457,6474,6493,6509,6525,6541,6557,6575,6591,6608,6625,6641,6658,6676,6691,6708,6725,6741,6758,6776,6792,6809,6824,6841,6859,6876,6891,6909,6924,6941,6959,6976,6992,7007,7027,7043,7059,7076,7092,7108,7125,7142,7159,7177,7193,7208,7225,7241,7258,7275,7292,7309,7325,7341,7358,7376,7392,7410,7426,7442,7459,7478,7493,7509,7528,7544,7559,7577,7593,7608,7625,7642,7661,7676,7690,7707,7724,7742,7760,7777,7792,7809,7827,7843,7859,7877,7893,7909,7927,7943,7960,7977,7994,8011,8027,8043,8058,8075,8092,8109,8127,8143,8159,8176,8193,8208,8226,8244,8259,8275,8293,8308,8326,8343,8360,8377,8392,8407,8426,8441,8458,8475,8492,8510,8528,8541,8558,8574,8589,8606,8623,8640,8656,8673,8689,8706,8722,8739,8756,8772,8789,8806,8823,8839,8856,8873,8890,8906,8923,8939,8956,8972,8989,9006,9022,9039,9055,9072,9090,9106,9122,9139,9156,9173,9189,9206,9222,9239,9255,9272,9288,9305,9323,9339,9356,9372,9389,9406,9422,9439,9456,9472,9489,9505,9522,9539,9556,9572,9588,9606,9622,9639,9655,9673,9688,9705,9722,9738,9755,9772,9789,9805,9822,9839,9856,9872,9888,9905,9921,9939,9955,9972,9989,10005,10021,10038,10054,10072,10088,10105,10121,10138,10155,10171,10188,10205,10221,10238,10255,10271,10289,10305,10322,10338,10354,10370,10388,10404,10421,10437,10454,10471,10487,10504,10521,10540,10554,10573,10588,10606,10621,10638,10655,10672,10688,10704,10722,10739,10756,10772,10788,10804,10822,10838,10855,10872,10888,10904,10921,10937,10954,10971,10988,11005,11021,11038,11056,11072,11088,11104,11122,11137,11155,11171,11189,11205,11223,11239,11256,11272,11289,11306,11322,11339,11355,11373,11388,11405,11421,11437,11454,11471,11489,11506,11521,11537,11555,11572,11588,11604,11621,11638,11655,11671,11689,11706,11722,11737,11754,11770,11788,11806,11822,11839,11856,11872,11889,11906,11923,11939,11955,11970,11987,12007,12023,12039,12056,12072,12088,12106,12122,12137,12154,12171,12189,12207,12223,12238,12255,12273,12288,12306,12323,12339,12356,12373,12389,12406,12423,12440,12457,12473,12487,12504,12522,12539,12556,12571,12588,12607,12622,12637,12656,12670,12687,12703,12720,12736,12754,12771,12788,12806,12823,12838,12856,12881,12888,12903,12919,12937,12954,12969,12987,13004,13019,13036,13053,13069,13086,13103,13119,13136,13152,13170,13185,13202,13218,13235,13252,13269,13285,13302,13319,13336,13352,13369,13386,13402,13419,13436,13452,13468,13485,13502,13519,13538,13554,13569,13585,13603,13619,13636,13653,13670,13686,13703,13719,13735,13753,13769,13787,13805,13821,13837,13858,13869,13886,13903,13920,13938,13953,13969,13985,14002,14018,14034,14052,14068,14085,14102,14121,14137,14152,14169,14185,14201,14219,14236,14252,14268,14286,14302,14318,14334,14351,14368,14385,14401,14418,14434,14451,14468,14485,14502,14518,14534,14550,14567,14584,14601,14618,14633,14651,14667,14684,14701,14717,14734,14751,14767,14784,14800,14817,14834,14851,14867,14883,14900,14917,14934,14951,14968,14984,15001,15018,15034,15050,15068,15084,15100,15118,15134,15150,15167,15184,15200,15217,15234,15252,15267,15285,15301,15317,15335,15351,15367,15385,15401,15418,15437,15452,15468,15485,15502,15520,15534,15551,15568,15585,15601,15619,15637,15651,15668,15684,15701,15717,15734,15751,15769,15789,15805,15818,15834,15851,15868,15886,15902,15917,15935,15952,15970,15987,16003,16017,16035,16052,16071,16084,16101,16118,16135,16153,16171,16187,16201,16217,16235,16253,16268,16285,16303,16321,16337,16352,16370,16385,16402,16418,16437,16453,16470,16486,16502,16516,16535,16551,16569,16586,16604,16619,16636,16651,16669,16686,16700,16717,16733,16749,16766,16782,16799,16816,16833,16849,16868,16885,16902,16917,16938,16952,16969,16986,17002,17019,17037,17050,17067,17084,17101,17117,17133,17150,17166,17183,17199,17215,17234,17253,17267,17285,17301,17321,17335,17351,17369,17386,17401,17418,17434,17451,17467,17484,17501,17518,17536,17552,17567,17585,17601,17620,17635,17651,17669,17683,17701,17720,17736,17752,17767,17783,17800,17817,17834,17850,17869,17886,17898,17915,17932,17949,17965,17982,17998,18015,18033,18049,18068,18085,18100,18117,18134,18150,18169,18183,18199,18217,18233,18249,18266,18282,18300,18317,18335,18349,18367,18385,18403,18419,18434,18450,18469,18484,18500,18517,18534,18551,18567,18583,18599,18617,18635,18651,18667,18682,18698,18716,18732,18750,18767,18782,18799,18816,18832,18850,18866,18881,18898,18914,18930,18948,18964,18980,18997,19014,19030,19048,19064,19080,19097,19114,19131,19148,19164,19180,19197,19214,19231,19247,19264,19281,19298,19315,19331,19349,19366,19382,19399,19415,19431,19447,19466,19482,19498,19515,19531,19548,19565,19581,19599,19616,19633,19650,19665,19683,19698,19715,19732,19750,19764,19780,19798,19815,19831,19847,19863,19880,19897,19913,19931,19949,19968,19985,19997,20014,20030,20047,20063,20079,20097,20113,20130,20147,20164,20179,20197,20213,20229,20246,20263,20280,20296,20313,20330,20345,20363,20380,20396,20413,20429,20446,20463,20480,20500,20515,20530,20547,20563,20579,20596,20613,20630,20647,20664,20680,20696,20715,20731,20747,20765,20780,20797,20813,20830,20846,20863,20881,20898,20916,20931,20947,20963,20980,20997,21015,21031,21046,21063,21080,21096,21113,21132,21148,21163,21180,21197,21213,21230,21248,21264,21280,21296,21312,21329,21346,21363,21379,21398,21413,21431,21446,21463,21480,21495,21512,21528,21546,21563,21579,21597,21613,21629,21646,21663,21679,21698,21713,21728,21745,21762,21780,21797,21814,21829,21846,21862,21878,21897,21913,21930,21946,21962,21978,21995,22013,22029,22046,22063,22080,22097,22113,22129,22145,22163,22180,22196,22214,22231,22246,22262,22280,22296,22314,22331,22345,22362,22379,22396,22413,22429,22447,22463,22478,22497,22512,22529,22548,22562,22578,22595,22614,22631,22647,22663,22678,22695,22712,22731,22749,22764,22780,22798,22814,22830,22846,22862,22877,22894,22912,22929,22947,22964,22979,22997,23012,23029,23046,23062,23079,23097,23115,23130,23147,23164,23178,23195,23211,23230,23246,23262,23280,23298,23314,23329,23349,23364,23381,23398,23411,23428,23446,23463,23479,23498,23514,23530,23548,23566,23579,23595,23611,23631,23646,23661,23681,23697,23713,23729,23746,23763,23779,23796,23815,23830,23846,23863,23879,23897,23913,23931,23948,23963,23979,23997,24013,24028,24046,24061,24079,24097,24113,24129,24148,24163,24179,24198,24213,24231,24245,24262,24279,24297,24311,24327,24346,24363,24379,24402,24412,24427,24445,24462,24479,24497,24513,24531,24547,24564,24578,24596,24614,24629,24645,24663,24681,24697,24712,24730,24745,24763,24777,24797,24813,24828,24848,24863,24880,24893,24910,24926,24943,24959,24978,24994,25009,25026,25042,25059,25076,25093,25109,25126,25142,25160,25176,25192,25209,25226,25242,25259,25276,25292,25309,25326,25342,25359,25375,25392,25409,25425,25443,25459,25475,25492,25509,25526,25543,25559,25576,25592,25609,25626,25642,25659,25676,25692,25709,25726,25742,25759,25775,25792,25809,25826,25842,25859,25876,25892,25908,25926,25941,25958,25975,25992,26009,26024,26042,26059,26076,26092,26108,26125,26141,26158,26175,26192,26208,26225,26242,26259,26275,26292,26308,26325,26342,26359,26375,26391,26408,26425,26442,26459,26475,26491,26507,26525,26541,26558,26576,26592,26608,26624,26641,26658,26675,26692,26708,26725,26741,26758,26774,26791,26808,26824,26841,26857,26874,26892,26907,26924,26942,26958,26974,26991,27008,27025,27041,27058,27074,27091,27108,27125,27140,27157,27174,27191,27208,27225,27240,27258,27274,27290,27307,27324,27341,27357,27375,27391,27408,27424,27440,27457,27475,27491,27507,27524,27541,27558,27575,27591,27607,27624,27641,27657,27674,27690,27707,27723,27740,27757,27774,27791,27807,27823,27841,27857,27874,27890,27907,27923,27939,27956,27973,27990,28007,28024,28040,28056,28073,28090,28107,28124,28140,28156,28174,28191,28207,28223,28239,28257,28273,28290,28306,28324,28340,28356,28373,28389,28407,28423,28439,28457,28474,28489,28506,28523,28540,28557,28574,28590,28606,28624,28640,28657,28674,28691,28707,28725,28740,28757,28774,28790,28807,28824,28839,28857,28873,28890,28907,28924,28941,28957,28973,28990,29006,29023,29040,29057,29074,29089,29106,29123,29140,29156,29172,29189,29205,29223,29240,29259,29274,29290,29306,29323,29340,29356,29375,29391,29406,29422,29440,29456,29473,29490,29506,29522,29539,29555,29572,29589,29606,29622,29639,29656,29671,29689,29705,29722,29738,29754,29772,29789,29805,29821,29838,29855,29871,29889,29905,29922,29938,29956,29972,29989,30006,30023,30039,30058,30073,30088,30105,30123,30140,30156,30172,30189,30206,30225,30240,30256,30272,30288,30304,30322,30339,30355,30371,30388,30404,30421,30438,30455,30471,30488,30505,30521,30538,30557,30573,30590,30605,30622,30638,30655,30671,30688,30704,30722,30737,30754,30771,30788,30804,30820,30838,30854,30871,30888,30903,30921,30937,30955,30971,30988,31004,31020,31038,31054,31070,31087,31104,31121,31138,31154,31170,31187,31205,31222,31239,31256,31270,31287,31305,31321,31338,31355,31371,31389,31405,31420,31437,31454,31470,31488,31504,31520,31537,31553,31570,31587,31603,31620,31639,31654,31671,31687,31703,31721,31737,31754,31770,31787,31804,31820,31837,31853,31869,31886,31904,31920,31937,31954,31970,31987,32003,32020,32036,32053,32070,32087,32103,32119,32136,32153,32171,32187,32203,32220,32236,32254,32270,32286,32303,32319,32336,32353,32370,32386,32403,32419,32437,32453,32470,32486,32503,32520,32537,32553,32569,32586,32604,32620,32637,32653,32669,32686,32702,32720,32736,32752,32770,32786,32803,32819,32836,32853,32869,32886,32903,32919,32936,32953,32970,32985,33003,33019,33035,33053,33069,33086,33103,33119,33136,33152,33169,33186,33203,33219,33235,33252,33269,33285,33303,33319,33335,33352,33369,33386,33402,33419,33435,33452,33469,33486,33501,33519,33535,33551,33569,33586,33602,33619,33636,33652,33669,33685,33702,33718,33735,33753,33770,33785,33803,33819,33835,33852,33869,33886,33901,33918,33935,33951,33968,33985,34001,34021,34035,34052,34069,34086,34103,34119,34136,34152,34169,34187,34203,34218,34236,34252,34269,34286,34302,34318,34335,34353,34370,34387,34403,34418,34435,34452,34469,34485,34503,34521,34537,34553,34568,34586,34602,34619,34637,34653,34669,34685,34701,34719,34737,34752,34767,34784,34801,34817,34834,34851,34867,34884,34901,34917,34934,34951,34968,34984,35001,35017,35035,35051,35068,35084,35100,35118,35134,35150,35167,35184,35200,35217,35235,35250,35267,35284,35300,35317,35334,35350,35367,35384,35400,35417,35434,35451,35468,35484,35501,35517,35534,35550,35567,35584,35600,35617,35633,35650,35667,35684,35701,35717,35733,35750,35767,35783,35800,35817,35833,35851,35867,35884,35901,35916,35934,35951,35967,35983,36000,36017,36033,36050,36067,36083,36101,36116,36133,36150,36166,36183,36200,36216,36237,36251,36266,36286,36301,36316,36333,36350,36367,36385,36401,36417,36434,36452,36467,36484,36501,36517,36535,36551,36568,36587,36602,36617,36635,36650,36668,36686,36702,36718,36734,36751,36769,36785,36800,36819,36836,36853,36867,36884,36901,36916,36934,36950,36967,36984,37000,37018,37033,37050,37067,37084,37100,37119,37137,37156,37167,37183,37199,37216,37232,37249,37266,37282,37300,37316,37332,37349,37366,37382,37399,37416,37432,37448,37466,37482,37499,37516,37532,37550,37566,37585,37601,37619,37637,37651,37666,37685,37700,37717,37737,37754,37769,37782,37798,37815,37832,37850,37867,37884,37900,37916,37933,37950,37967,37984,38000,38017,38033,38050,38066,38082,38100,38116,38133,38150,38166,38182,38199,38216,38232,38249,38267,38283,38299,38316,38334,38350,38366,38383,38398,38415,38431,38448,38466,38483,38500,38516,38531,38548,38566,38582,38598,38616,38633,38649,38666,38683,38699,38714,38730,38749],"hit":[null],"x":[-1.6054421768707483,-1.6054421768707483,-1.6054421768707483,-1.6054421768707483,-1.6054421768707483,-1.6054421768707483,-1.6054421768707483,-1.6054421768707483,-1.6054421768707483,-1.6054421768707483,-1.6054421768707483,-1.6054421768707483,-1.6054421768707483,-1.6054421768707483,-1.6054421768707483,-1.6054421768707483,-1.6054421768707483,-1.6054421768707483,-1.6054421768707483,-1.6054421768707483,-1.6054421768707483,-1.6054421768707483,-1.6054421768707483,-1.6054421768707483,-1.6054421768707483,-1.6054421768707483,-1.6054421768707483,-1.6054421768707483,-1.6054421768707483,-1.6054421768707483,-1.6054421768707483,-1.6054421768707483,-1.6054421768707483,-1.6054421768707483,-1.6054421768707483,-1.6054421768707483,-1.6054421768707483,-1.6054421768707483,-1.6054421768707483,-1.6054421768707483,-1.6054421768707483,-1.6054421768707483,-1.6054421768707483,-1.6054421768707483,-1.6054421768707483,-1.6054421768707483,-1.6054421768707483,-1.6054421768707483,-1.6054421768707483,-1.6054421768707483,-1.6054421768707483,-1.6054421768707483,-1.6054421768707483,-1.6054421768707483,-1.6054421768707483,-1.6054421768707483,-1.6054421768707483,-1.6054421768707483,-1.6054421768707483,-1.6054421768707483,-1.6054421768707483,-1.6054421768707483,-1.6054421768707483,-1.6054421768707483,-1.6054421768707483,-1.6054421768707483,-1.6054421768707483,-1.6054421768707483,-1.6054421768707483,-1.6054421768707483,-1.6054421768707483,-1.6054421768707483,-1.6054421768707483,-1.6054421768707483,-1.6054421768707483,-1.6054421768707483,-1.6054421768707483,-1.6054421768707483,-1.6054421768707483,-1.6054421768707483,-1.6054421768707483,-1.6054421768707483,-1.6054421768707483,-1.6054421768707483,-1.6054421768707483,-1.6054421768707483,-1.6054421768707483,-1.6054421768707483,-1.6054421768707483,-1.6054421768707483,-1.6054421768707483,-1.6054421768707483,-1.6054421768707483,-1.6054421768707483,-1.6054421768707483,-1.6054421768707483,-1.6054421768707483,-1.6054421768707483,-1.6054421768707483,-1.6054421768707483,-1.6054421768707483,-1.6054421768707483,-1.6054421768707483,-1.6054421768707483,-1.6054421768707483,-1.6054421768707483,-1.6054421768707483,-1.6054421768707483,-1.6054421768707483,-1.6054421768707483,-1.6054421768707483,-1.6054421768707483,-1.6054421768707483,-1.6054421768707483,-1.6054421768707483,-1.6054421768707483,-1.6054421768707483,-1.6054421768707483,-1.6054421768707483,-1.6054421768707483,-1.6054421768707483,-1.6054421768707483,-1.6054421768707483,-1.6054421768707483,-1.6054421768707483,-1.6054421768707483,-1.6054421768707483,-1.6054421768707483,-1.6054421768707483,-1.6054421768707483,-1.6054421768707483,-1.6054421768707483,-1.6054421768707483,-1.6054421768707483,-1.6054421768707483,-1.6054421768707483,-1.6054421768707483,-1.6054421768707483,-1.6054421768707483,-1.6054421768707483,-1.6054421768707483,-1.6054421768707483,-1.6054421768707483,-1.6054421768707483,-1.6054421768707483,-1.6054421768707483,-1.6054421768707483,-1.6054421768707483,-1.6054421768707483,-1.6054421768707483,-1.6054421768707483,-1.6054421768707483,-1.6054421768707483,-1.6054421768707483,-1.6054421768707483,-1.6054421768707483,-1.6054421768707483,-1.6054421768707483,-1.6054421768707483,-1.6054421768707483,-1.6054421768707483,-1.6054421768707483,-1.6054421768707483,-1.6054421768707483,-1.6054421768707483,-1.6054421768707483,-1.6054421768707483,-1.6054421768707483,-1.6054421768707483,-1.6054421768707483,-1.6054421768707483,-1.6054421768707483,-1.6054421768707483,-1.6054421768707483,-1.6054421768707483,-1.6054421768707483,-1.6054421768707483,-1.6054421768707483,-1.6054421768707483,-1.6054421768707483,-1.6054421768707483,-1.6054421768707483,-1.6054421768707483,-1.6054421768707483,-1.6054421768707483,-1.6054421768707483,-1.6054421768707483,-1.6054421768707483,-1.6054421768707483,-1.6054421768707483,-1.6054421768707483,-1.6054421768707483,-1.6054421768707483,-1.6054421768707483,-1.6054421768707483,-1.6054421768707483,-1.6054421768707483,-1.6054421768707483,-1.6054421768707483,-1.6054421768707483,-1.6054421768707483,-1.6054421768707483,-1.6054421768707483,-1.6054421768707483,-1.6054421768707483,-1.6054421768707483,-1.6054421768707483,-1.6054421768707483,-1.6054421768707483,-1.6054421768707483,-1.6054421768707483,-1.6054421768707483,-1.6054421768707483,-1.6054421768707483,-1.6054421768707483,-1.6054421768707483,-1.6054421768707483,-1.6054421768707483,-1.6054421768707483,-1.6054421768707483,-1.6054421768707483,-1.6054421768707483,-1.6054421768707483,-1.6054421768707483,-1.6054421768707483,-1.6054421768707483,-1.6054421768707483,-1.6054421768707483,-1.6054421768707483,-1.6054421768707483,-1.6054421768707483,-1.6054421768707483,-1.6054421768707483,-1.6054421768707483,-1.6054421768707483,-1.6054421768707483,-1.6054421768707483,-1.6054421768707483,-1.6054421768707483,-1.6054421768707483,-1.6054421768707483,-1.6054421768707483,-1.6054421768707483,-1.6054421768707483,-1.6054421768707483,-1.6054421768707483,-1.6054421768707483,-1.6054421768707483,-1.6054421768707483,-1.6054421768707483,-1.6054421768707483,-1.6054421768707483,-1.6054421768707483,-1.6054421768707483,-1.6054421768707483,-1.6054421768707483,-1.6054421768707483,-1.6054421768707483,-1.6054421768707483,-1.6054421768707483,-1.6054421768707483,-1.6054421768707483,-1.6054421768707483,-1.6054421768707483,-1.6054421768707483,-1.6054421768707483,-1.6054421768707483,-1.6054421768707483,-1.6054421768707483,-1.6054421768707483,-1.6054421768707483,-1.6054421768707483,-1.6054421768707483,-1.6054421768707483,-1.6054421768707483,-1.6054421768707483,-1.6054421768707483,-1.6054421768707483,-1.6054421768707483,-1.6054421768707483,-1.6054421768707483,-1.6054421768707483,-1.6054421768707483,-1.6054421768707483,-1.6054421768707483,-1.6054421768707483,-1.6054421768707483,-1.6054421768707483,-1.6054421768707483,-1.6054421768707483,-1.6054421768707483,-1.6054421768707483,-1.6054421768707483,-1.6054421768707483,-1.6054421768707483,-1.6054421768707483,-1.6054421768707483,-1.6054421768707483,-1.6054421768707483,-1.6054421768707483,-1.6054421768707483,-1.6054421768707483,-1.6054421768707483,-1.6054421768707483,-1.6054421768707483,-1.6054421768707483,-1.6054421768707483,-1.6054421768707483,-1.6054421768707483,-1.6054421768707483,-1.6054421768707483,-1.6054421768707483,-1.6054421768707483,-1.6054421768707483,-1.6054421768707483,-1.6054421768707483,-1.6054421768707483,-1.6054421768707483,-1.6054421768707483,-1.6054421768707483,-1.6054421768707483,-1.6054421768707483,-1.6054421768707483,-1.6054421768707483,-1.6054421768707483,-1.6054421768707483,-1.6054421768707483,-1.6054421768707483,-1.6054421768707483,-1.6054421768707483,-1.6054421768707483,-1.6054421768707483,-1.6054421768707483,-1.6054421768707483,-1.6054421768707483,-1.6054421768707483,-1.6054421768707483,-1.6054421768707483,-1.6054421768707483,-1.6054421768707483,-1.6054421768707483,-1.6054421768707483,-1.6054421768707483,-1.6054421768707483,-1.6054421768707483,-1.6054421768707483,-1.6054421768707483,-1.6054421768707483,-1.6054421768707483,-1.6054421768707483,-1.6054421768707483,-1.6054421768707483,-1.6054421768707483,-1.6054421768707483,-1.6054421768707483,-1.6054421768707483,-1.6054421768707483,-1.6054421768707483,-1.6054421768707483,-1.6054421768707483,-1.6054421768707483,-1.6054421768707483,-1.6054421768707483,-1.6054421768707483,-1.6054421768707483,-1.6054421768707483,-1.6054421768707483,-1.6054421768707483,-1.6054421768707483,-1.6054421768707483,-1.6054421768707483,-1.6054421768707483,-1.6054421768707483,-1.6054421768707483,-1.6054421768707483,-1.6054421768707483,-1.6054421768707483,-1.6054421768707483,-1.6054421768707483,-1.6054421768707483,-1.6054421768707483,-1.6054421768707483,-1.6054421768707483,-1.6054421768707483,-1.6054421768707483,-1.6054421768707483,-1.6054421768707483,-1.6054421768707483,-1.6054421768707483,-1.6054421768707483,-1.6054421768707483,-1.6054421768707483,-1.6054421768707483,-1.6054421768707483,-1.6054421768707483,-1.6054421768707483,-1.6054421768707483,-1.6054421768707483,-1.6054421768707483,-1.6054421768707483,-1.6054421768707483,-1.6054421768707483,-1.6054421768707483,-1.6054421768707483,-1.6054421768707483,-1.6054421768707483,-1.6054421768707483,-1.6054421768707483,-1.6054421768707483,-1.6054421768707483,-1.6054421768707483,-1.6054421768707483,-1.6054421768707483,-1.6054421768707483,-1.6054421768707483,-1.6054421768707483,-1.6054421768707483,-1.6054421768707483,-1.6054421768707483,-1.6054421768707483,-1.6054421768707483,-1.6054421768707483,-1.6054421768707483,-1.6054421768707483,-1.6054421768707483,-1.6054421768707483,-1.6054421768707483,-1.6054421768707483,-1.6054421768707483,-1.6054421768707483,-1.6054421768707483,-1.6054421768707483,-1.6054421768707483,-1.6054421768707483,-1.6054421768707483,-1.6054421768707483,-1.6054421768707483,-1.6054421768707483,-1.6054421768707483,-1.6054421768707483,-1.6054421768707483,-1.6054421768707483,-1.6054421768707483,-1.6054421768707483,-1.6054421768707483,-1.6054421768707483,-1.6054421768707483,-1.6054421768707483,-1.6054421768707483,-1.6054421768707483,-1.6054421768707483,-1.6054421768707483,-1.6054421768707483,-1.6054421768707483,-1.6054421768707483,-1.6054421768707483,-1.6054421768707483,-1.6054421768707483,-1.6054421768707483,-1.6054421768707483,-1.6054421768707483,-1.6054421768707483,-1.6054421768707483,-1.6054421768707483,-1.6054421768707483,-1.6054421768707483,-1.6054421768707483,-1.6054421768707483,-1.6054421768707483,-1.6054421768707483,-1.6054421768707483,-1.6054421768707483,-1.6054421768707483,-1.6054421768707483,-1.6054421768707483,-1.6054421768707483,-1.6054421768707483,-1.6054421768707483,-1.6054421768707483,-1.6054421768707483,-1.6054421768707483,-1.6054421768707483,-1.6054421768707483,-1.6054421768707483,-1.6054421768707483,-1.6054421768707483,-1.6054421768707483,-1.6054421768707483,-1.6054421768707483,-1.6054421768707483,-1.6054421768707483,-1.6054421768707483,-1.6054421768707483,-1.6054421768707483,-1.6054421768707483,-1.6054421768707483,-1.6054421768707483,-1.6054421768707483,-1.6054421768707483,-1.6054421768707483,-1.6054421768707483,-1.6054421768707483,-1.6054421768707483,-1.6054421768707483,-1.6054421768707483,-1.6054421768707483,-1.6054421768707483,-1.6054421768707483,-1.6054421768707483,-1.6054421768707483,-1.6054421768707483,-1.6054421768707483,-1.6054421768707483,-1.6054421768707483,-1.6054421768707483,-1.6054421768707483,-1.6054421768707483,-1.6054421768707483,-1.6054421768707483,-1.6054421768707483,-1.6054421768707483,-1.6054421768707483,-1.6054421768707483,-1.6054421768707483,-1.6054421768707483,-1.6054421768707483,-1.6054421768707483,-1.6054421768707483,-1.6054421768707483,-1.6054421768707483,-1.6054421768707483,-1.6054421768707483,-1.6054421768707483,-1.6054421768707483,-1.6054421768707483,-1.6054421768707483,-1.6054421768707483,-1.6054421768707483,-1.6054421768707483,-1.6054421768707483,-1.6054421768707483,-1.6054421768707483,-1.6054421768707483,-1.6054421768707483,-1.6054421768707483,-1.6054421768707483,-1.6054421768707483,-1.6054421768707483,-1.6054421768707483,-1.6054421768707483,-1.6054421768707483,-1.6054421768707483,-1.6054421768707483,-1.6054421768707483,-1.6054421768707483,-1.6054421768707483,-1.6054421768707483,-1.6054421768707483,-1.6054421768707483,-1.6054421768707483,-1.6054421768707483,-1.6054421768707483,-1.6054421768707483,-1.6054421768707483,-1.6054421768707483,-1.6054421768707483,-1.6054421768707483,-1.6054421768707483,-1.6054421768707483,-1.6054421768707483,-1.6054421768707483,-1.6054421768707483,-1.6054421768707483,-1.6054421768707483,-1.6054421768707483,-1.6054421768707483,-1.6054421768707483,-1.6054421768707483,-1.6054421768707483,-1.6054421768707483,-1.6054421768707483,-1.6054421768707483,-1.6054421768707483,-1.6054421768707483,-1.6054421768707483,-1.6054421768707483,-1.6054421768707483,-1.6054421768707483,-1.6054421768707483,-1.6054421768707483,-1.6054421768707483,-1.6054421768707483,-1.6054421768707483,-1.6054421768707483,-1.6054421768707483,-1.6054421768707483,-1.6054421768707483,-1.6054421768707483,-1.6054421768707483,-1.6054421768707483,-1.6054421768707483,-1.6054421768707483,-1.6054421768707483,-1.6054421768707483,-1.6054421768707483,-1.6054421768707483,-1.6054421768707483,-1.6054421768707483,-1.6054421768707483,-1.6054421768707483,-1.6054421768707483,-1.6054421768707483,-1.6054421768707483,-1.6054421768707483,-1.6054421768707483,-1.6054421768707483,-1.6054421768707483,-1.6054421768707483,-1.6054421768707483,-1.6054421768707483,-1.6054421768707483,-1.6054421768707483,-1.6054421768707483,-1.6054421768707483,-1.6054421768707483,-1.6054421768707483,-1.6054421768707483,-1.6054421768707483,-1.6054421768707483,-1.6054421768707483,-1.6054421768707483,-1.6054421768707483,-1.6054421768707483,-1.6054421768707483,-1.6054421768707483,-1.6054421768707483,-1.6054421768707483,-1.6054421768707483,-1.6054421768707483,-1.6054421768707483,-1.6054421768707483,-1.6054421768707483,-1.6054421768707483,-1.6054421768707483,-1.6054421768707483,-1.6054421768707483,-1.6054421768707483,-1.6054421768707483,-1.6054421768707483,-1.6054421768707483,-1.6054421768707483,-1.6054421768707483,-1.6054421768707483,-1.6054421768707483,-1.6054421768707483,-1.6054421768707483,-1.6054421768707483,-1.6054421768707483,-1.6054421768707483,-1.6054421768707483,-1.6054421768707483,-1.6054421768707483,-1.6054421768707483,-1.6054421768707483,-1.6054421768707483,-1.6054421768707483,-1.6054421768707483,-1.6054421768707483,-1.6054421768707483,-1.6054421768707483,-1.6054421768707483,-1.6054421768707483,-1.6054421768707483,-1.6054421768707483,-1.6054421768707483,-1.6054421768707483,-1.6054421768707483,-1.6054421768707483,-1.6054421768707483,-1.6054421768707483,-1.6054421768707483,-1.6054421768707483,-1.6054421768707483,-1.6054421768707483,-1.6054421768707483,-1.6054421768707483,-1.6054421768707483,-1.6054421768707483,-1.6054421768707483,-1.6054421768707483,-1.6054421768707483,-1.6054421768707483,-1.6054421768707483,-1.6054421768707483,-1.6054421768707483,-1.6054421768707483,-1.6054421768707483,-1.6054421768707483,-1.6054421768707483,-1.6054421768707483,-1.6054421768707483,-1.6054421768707483,-1.6054421768707483,-1.6054421768707483,-1.6054421768707483,-1.6054421768707483,-1.6054421768707483,-1.6054421768707483,-1.6054421768707483,-1.6054421768707483,-1.6054421768707483,-1.6054421768707483,-1.6054421768707483,-1.6054421768707483,-1.6054421768707483,-1.6054421768707483,-1.6054421768707483,-1.6054421768707483,-1.6054421768707483,-1.6054421768707483,-1.6054421768707483,-1.6054421768707483,-1.6054421768707483,-1.6054421768707483,-1.6054421768707483,-1.6054421768707483,-1.6054421768707483,-1.6054421768707483,-1.6054421768707483,-1.6054421768707483,-1.6054421768707483,-1.6054421768707483,-1.6054421768707483,-1.6054421768707483,-1.6054421768707483,-1.6054421768707483,-1.6054421768707483,-1.6054421768707483,-1.6054421768707483,-1.6054421768707483,-1.6054421768707483,-1.6054421768707483,-1.6054421768707483,-1.6054421768707483,-1.6054421768707483,-1.6054421768707483,-1.6054421768707483,-1.6054421768707483,-1.6054421768707483,-1.6054421768707483,-1.6054421768707483,-1.6054421768707483,-1.6054421768707483,-1.6054421768707483,-1.6054421768707483,-1.6054421768707483,-1.6054421768707483,-1.6054421768707483,-1.6054421768707483,-1.6054421768707483,-1.6054421768707483,-1.6054421768707483,-1.6054421768707483,-1.6054421768707483,-1.6054421768707483,-1.6054421768707483,-1.6054421768707483,-1.6054421768707483,-1.6054421768707483,-1.6054421768707483,-1.6054421768707483,0.09183673469387756,0.13945578231292516,0.15306122448979592,0.16666666666666666,0.17006802721088435,0.17346938775510204,0.17687074829931973,0.18027210884353742,0.18027210884353742,0.18027210884353742,0.18027210884353742,0.18027210884353742,0.18027210884353742,0.1836734693877551,0.19387755102040816,0.22108843537414966,0.24149659863945577,0.24489795918367346,0.24489795918367346,0.24489795918367346,0.24489795918367346,0.24489795918367346,0.24149659863945577,0.23809523809523808,0.23809523809523808,0.23809523809523808,0.23809523809523808,0.23809523809523808,0.23809523809523808,0.23469387755102042,0.23469387755102042,0.23469387755102042,0.22789115646258504,0.22108843537414966,0.21428571428571427,0.21428571428571427,0.21428571428571427,0.2108843537414966,0.20748299319727892,0.20748299319727892,0.20748299319727892,0.20748299319727892,0.20748299319727892,0.20748299319727892,0.20748299319727892,0.20748299319727892,0.20748299319727892,0.20748299319727892,0.20748299319727892,0.20748299319727892,0.20748299319727892,0.20748299319727892,0.20748299319727892,0.20748299319727892,0.20748299319727892,0.20748299319727892,0.20748299319727892,0.20748299319727892,0.20748299319727892,0.20748299319727892,0.20748299319727892,0.20748299319727892,0.20748299319727892,0.20748299319727892,0.20748299319727892,0.20748299319727892,0.20748299319727892,0.20748299319727892,0.20748299319727892,0.20748299319727892,0.20748299319727892,0.20748299319727892,0.20748299319727892,0.20748299319727892,0.20748299319727892,0.20748299319727892,0.20748299319727892,0.20748299319727892,0.20748299319727892,0.20748299319727892,0.20748299319727892,0.20748299319727892,0.20748299319727892,0.20748299319727892,0.20748299319727892,0.20748299319727892,0.20748299319727892,0.2108843537414966,0.21428571428571427,0.21428571428571427,0.21768707482993196,0.21768707482993196,0.21768707482993196,0.21768707482993196,0.21768707482993196,0.21768707482993196,0.21768707482993196,0.21768707482993196,0.20748299319727892,0.18027210884353742,0.1564625850340136,0.1360544217687075,0.11564625850340136,0.10884353741496598,0.1054421768707483,0.09863945578231292,0.09863945578231292,0.09523809523809523,0.09183673469387756,0.09183673469387756,0.08843537414965986,0.08503401360544217,0.08503401360544217,0.08503401360544217,0.08503401360544217,0.08503401360544217,0.0782312925170068,0.0782312925170068,0.07142857142857142,0.06802721088435375,0.06462585034013606,0.06462585034013606,0.05782312925170068,0.05782312925170068,0.05782312925170068,0.05782312925170068,0.05782312925170068,0.061224489795918366,0.06802721088435375,0.07142857142857142,0.0782312925170068,0.08503401360544217,0.09183673469387756,0.09523809523809523,0.1054421768707483,0.11224489795918367,0.12585034013605442,0.1326530612244898,0.1360544217687075,0.14285714285714285,0.14285714285714285,0.14285714285714285,0.14285714285714285,0.14285714285714285,0.14285714285714285,0.14285714285714285,0.14285714285714285,0.14285714285714285,0.14285714285714285,0.14285714285714285,0.14285714285714285,0.14285714285714285,0.14285714285714285,0.14285714285714285,0.14285714285714285,0.14285714285714285,0.14285714285714285,0.14285714285714285,0.14285714285714285,0.14285714285714285,0.14285714285714285,0.14285714285714285,0.14285714285714285,0.14285714285714285,0.14285714285714285,0.14285714285714285,0.14285714285714285,0.14285714285714285,0.14285714285714285,0.14285714285714285,0.14285714285714285,0.14285714285714285,0.14285714285714285,0.14285714285714285,0.14285714285714285,0.14285714285714285,0.14285714285714285,0.14285714285714285,0.14285714285714285,0.14285714285714285,0.14285714285714285,0.14285714285714285,0.14285714285714285,0.14285714285714285,0.14285714285714285,0.14285714285714285,0.14285714285714285,0.14285714285714285,0.14285714285714285,0.14285714285714285,0.14285714285714285,0.14285714285714285,0.14285714285714285,0.14285714285714285,0.14285714285714285,0.14285714285714285,0.14285714285714285,0.14285714285714285,0.14285714285714285,0.14285714285714285,0.14285714285714285,0.14285714285714285,0.14285714285714285,0.14285714285714285,0.14285714285714285,0.14285714285714285,0.14285714285714285,0.14285714285714285,0.14285714285714285,0.14285714285714285,0.14285714285714285,0.14285714285714285,0.14285714285714285,0.14285714285714285,0.14285714285714285,0.14285714285714285,0.14285714285714285,0.14285714285714285,0.14285714285714285,0.14285714285714285,0.14285714285714285,0.14285714285714285,0.14285714285714285,0.14285714285714285,0.14285714285714285,0.14285714285714285,0.14285714285714285,0.14285714285714285,0.14285714285714285,0.14285714285714285,0.14285714285714285,0.1870748299319728,0.2925170068027211,0.3469387755102041,0.40816326530612246,0.43197278911564624,0.45918367346938777,0.46598639455782315,0.47619047619047616,0.48299319727891155,0.48639455782312924,0.4931972789115646,0.4965986394557823,0.4965986394557823,0.5,0.5,0.5034013605442177,0.5034013605442177,0.5034013605442177,0.5034013605442177,0.5034013605442177,0.5034013605442177,0.5,0.5,0.5,0.5,0.5,0.4965986394557823,0.4965986394557823,0.4965986394557823,0.4965986394557823,0.4965986394557823,0.4965986394557823,0.4965986394557823,0.4965986394557823,0.4965986394557823,0.4965986394557823,0.4965986394557823,0.4965986394557823,0.4965986394557823,0.4965986394557823,0.4965986394557823,0.4965986394557823,0.4965986394557823,0.4965986394557823,0.4965986394557823,0.4965986394557823,0.4965986394557823,0.4965986394557823,0.4965986394557823,0.4965986394557823,0.4965986394557823,0.4965986394557823,0.4965986394557823,0.4965986394557823,0.4965986394557823,0.4965986394557823,0.4965986394557823,0.4965986394557823,0.4965986394557823,0.4965986394557823,0.4965986394557823,0.4965986394557823,0.4965986394557823,0.4965986394557823,0.4965986394557823,0.4965986394557823,0.4965986394557823,0.4965986394557823,0.4965986394557823,0.5,0.5068027210884354,0.5170068027210885,0.5204081632653061,0.5272108843537415,0.5306122448979592,0.5340136054421769,0.5374149659863946,0.5374149659863946,0.5374149659863946,0.5374149659863946,0.5374149659863946,0.5374149659863946,0.5374149659863946,0.5374149659863946,0.5374149659863946,0.5374149659863946,0.5374149659863946,0.5374149659863946,0.5374149659863946,0.5374149659863946,0.5374149659863946,0.5374149659863946,0.5374149659863946,0.5374149659863946,0.5374149659863946,0.5374149659863946,0.5374149659863946,0.5374149659863946,0.5374149659863946,0.5374149659863946,0.5374149659863946,0.5374149659863946,0.5374149659863946,0.5374149659863946,0.5374149659863946,0.5374149659863946,0.5374149659863946,0.5374149659863946,0.5374149659863946,0.5374149659863946,0.5374149659863946,0.5374149659863946,0.5374149659863946,0.5374149659863946,0.5374149659863946,0.5374149659863946,0.5374149659863946,0.5374149659863946,0.5374149659863946,0.5374149659863946,0.5374149659863946,0.5374149659863946,0.5374149659863946,0.5374149659863946,0.5374149659863946,0.5374149659863946,0.5374149659863946,0.5374149659863946,0.5374149659863946,0.5374149659863946,0.5272108843537415,0.5136054421768708,0.48299319727891155,0.45918367346938777,0.4387755102040816,0.41496598639455784,0.4013605442176871,0.3945578231292517,0.38095238095238093,0.3741496598639456,0.3673469387755102,0.36054421768707484,0.35714285714285715,0.35714285714285715,0.35374149659863946,0.35034013605442177,0.35034013605442177,0.3469387755102041,0.3469387755102041,0.3435374149659864,0.3435374149659864,0.3401360544217687,0.336734693877551,0.336734693877551,0.336734693877551,0.336734693877551,0.336734693877551,0.336734693877551,0.336734693877551,0.336734693877551,0.336734693877551,0.336734693877551,0.336734693877551,0.336734693877551,0.336734693877551,0.336734693877551,0.336734693877551,0.336734693877551,0.336734693877551,0.336734693877551,0.336734693877551,0.336734693877551,0.336734693877551,0.336734693877551,0.336734693877551,0.336734693877551,0.336734693877551,0.336734693877551,0.336734693877551,0.336734693877551,0.336734693877551,0.336734693877551,0.336734693877551,0.336734693877551,0.336734693877551,0.336734693877551,0.336734693877551,0.336734693877551,0.32653061224489793,0.30612244897959184,0.29591836734693877,0.2891156462585034,0.2857142857142857,0.282312925170068,0.282312925170068,0.2789115646258503,0.2755102040816326,0.2755102040816326,0.272108843537415,0.2687074829931973,0.2585034013605442,0.24489795918367346,0.23469387755102042,0.22108843537414966,0.20748299319727892,0.20408163265306123,0.19727891156462585,0.19047619047619047,0.1870748299319728,0.18027210884353742,0.17346938775510204,0.1598639455782313,0.15306122448979592,0.14625850340136054,0.14285714285714285,0.1360544217687075,0.1292517006802721,0.12585034013605442,0.11224489795918367,0.1054421768707483,0.09863945578231292,0.08503401360544217,0.0782312925170068,0.07142857142857142,0.061224489795918366,0.05442176870748299,0.047619047619047616,0.04421768707482993,0.03741496598639456,0.034013605442176874,0.030612244897959183,0.030612244897959183,0.030612244897959183,0.027210884353741496,0.023809523809523808,0.023809523809523808,0.023809523809523808,0.023809523809523808,0.023809523809523808,0.023809523809523808,0.023809523809523808,0.023809523809523808,0.023809523809523808,0.023809523809523808,0.023809523809523808,0.023809523809523808,0.023809523809523808,0.023809523809523808,0.023809523809523808,0.023809523809523808,0.023809523809523808,0.023809523809523808,0.023809523809523808,0.023809523809523808,0.023809523809523808,0.023809523809523808,0.023809523809523808,0.023809523809523808,0.023809523809523808,0.023809523809523808,0.023809523809523808,0.023809523809523808,0.023809523809523808,0.023809523809523808,0.023809523809523808,0.023809523809523808,0.023809523809523808,0.023809523809523808,0.023809523809523808,0.023809523809523808,0.023809523809523808,0.023809523809523808,0.023809523809523808,0.023809523809523808,0.023809523809523808,0.023809523809523808,0.023809523809523808,0.023809523809523808,0.023809523809523808,0.023809523809523808,0.023809523809523808,0.023809523809523808,0.023809523809523808,0.023809523809523808,0.023809523809523808,0.023809523809523808,0.023809523809523808,0.023809523809523808,0.023809523809523808,0.023809523809523808,0.023809523809523808,0.023809523809523808,0.023809523809523808,0.023809523809523808,0.023809523809523808,0.023809523809523808,0.023809523809523808,0.023809523809523808,0.023809523809523808,0.023809523809523808,0.023809523809523808,0.023809523809523808,0.023809523809523808,0.023809523809523808,0.023809523809523808,0.023809523809523808,0.023809523809523808,0.023809523809523808,0.023809523809523808,0.023809523809523808,0.023809523809523808,0.023809523809523808,0.023809523809523808,0.023809523809523808,0.023809523809523808,0.023809523809523808,0.023809523809523808,0.023809523809523808,0.023809523809523808,0.023809523809523808,0.023809523809523808,0.023809523809523808,0.023809523809523808,0.023809523809523808,0.023809523809523808,0.023809523809523808,0.023809523809523808,0.023809523809523808,0.023809523809523808,0.023809523809523808,0.023809523809523808,0.023809523809523808,0.023809523809523808,0.023809523809523808,0.023809523809523808,0.023809523809523808,0.023809523809523808,0.023809523809523808,0.023809523809523808,0.023809523809523808,0.023809523809523808,0.023809523809523808,0.023809523809523808,0.023809523809523808,0.023809523809523808,0.023809523809523808,0.023809523809523808,0.023809523809523808,0.023809523809523808,0.023809523809523808,0.023809523809523808,0.023809523809523808,0.023809523809523808,0.023809523809523808,0.023809523809523808,0.023809523809523808,0.023809523809523808,0.023809523809523808,0.023809523809523808,0.023809523809523808,0.023809523809523808,0.023809523809523808,0.023809523809523808,0.023809523809523808,0.023809523809523808,0.023809523809523808,0.023809523809523808,0.023809523809523808,0.023809523809523808,0.023809523809523808,0.023809523809523808,0.023809523809523808,0.023809523809523808,0.023809523809523808,0.023809523809523808,0.023809523809523808,0.023809523809523808,0.023809523809523808,0.023809523809523808,0.023809523809523808,0.023809523809523808,0.023809523809523808,0.023809523809523808,0.023809523809523808,0.023809523809523808,0.023809523809523808,0.023809523809523808,0.023809523809523808,0.023809523809523808,0.023809523809523808,0.023809523809523808,0.023809523809523808,0.023809523809523808,0.023809523809523808,0.023809523809523808,0.023809523809523808,0.023809523809523808,0.023809523809523808,0.023809523809523808,0.023809523809523808,0.023809523809523808,0.023809523809523808,0.023809523809523808,0.023809523809523808,0.023809523809523808,0.023809523809523808,0.023809523809523808,0.023809523809523808,0.023809523809523808,0.023809523809523808,0.023809523809523808,0.023809523809523808,0.023809523809523808,0.023809523809523808,0.023809523809523808,0.023809523809523808,0.023809523809523808,0.023809523809523808,0.023809523809523808,0.023809523809523808,0.023809523809523808,0.023809523809523808,0.023809523809523808,0.023809523809523808,0.023809523809523808,0.023809523809523808,0.023809523809523808,0.023809523809523808,0.023809523809523808,0.023809523809523808,0.023809523809523808,0.023809523809523808,0.023809523809523808,0.023809523809523808,0.023809523809523808,0.023809523809523808,0.023809523809523808,0.023809523809523808,0.023809523809523808,0.023809523809523808,0.023809523809523808,0.023809523809523808,0.023809523809523808,0.023809523809523808,0.023809523809523808,0.023809523809523808,0.023809523809523808,0.023809523809523808,0.023809523809523808,0.023809523809523808,0.023809523809523808,0.023809523809523808,0.023809523809523808,0.023809523809523808,0.023809523809523808,0.023809523809523808,0.023809523809523808,0.023809523809523808,0.023809523809523808,0.023809523809523808,0.023809523809523808,0.023809523809523808,0.023809523809523808,0.023809523809523808,0.023809523809523808,0.023809523809523808,0.023809523809523808,0.023809523809523808,0.023809523809523808,0.023809523809523808,0.023809523809523808,0.023809523809523808,0.023809523809523808,0.023809523809523808,0.023809523809523808,0.023809523809523808,0.023809523809523808,0.023809523809523808,0.023809523809523808,0.023809523809523808,0.023809523809523808,0.023809523809523808,0.023809523809523808,0.023809523809523808,0.023809523809523808,0.023809523809523808,0.023809523809523808,0.023809523809523808,0.023809523809523808,0.023809523809523808,0.023809523809523808,0.023809523809523808,0.023809523809523808,0.023809523809523808,0.023809523809523808,0.023809523809523808,0.023809523809523808,0.023809523809523808,0.023809523809523808,0.023809523809523808,0.023809523809523808,0.023809523809523808,0.023809523809523808,0.023809523809523808,0.023809523809523808,0.023809523809523808,0.023809523809523808,0.023809523809523808,0.023809523809523808,0.023809523809523808,0.023809523809523808,0.023809523809523808,0.023809523809523808,0.023809523809523808,0.023809523809523808,0.023809523809523808,0.023809523809523808,0.023809523809523808,0.023809523809523808,0.023809523809523808,0.023809523809523808,0.023809523809523808,0.023809523809523808,0.023809523809523808,0.023809523809523808,0.023809523809523808,0.023809523809523808,0.023809523809523808,0.023809523809523808,0.023809523809523808,0.023809523809523808,0.023809523809523808,0.023809523809523808,0.023809523809523808,0.023809523809523808,0.023809523809523808,0.023809523809523808,0.023809523809523808,0.023809523809523808,0.023809523809523808,0.023809523809523808,0.023809523809523808,0.023809523809523808,0.023809523809523808,0.023809523809523808,0.023809523809523808,0.023809523809523808,0.023809523809523808,0.023809523809523808,0.023809523809523808,0.023809523809523808,0.023809523809523808,0.023809523809523808,0.023809523809523808,0.023809523809523808,0.023809523809523808,0.023809523809523808,0.023809523809523808,0.023809523809523808,0.023809523809523808,0.023809523809523808,0.023809523809523808,0.023809523809523808,0.023809523809523808,0.023809523809523808,0.023809523809523808,0.023809523809523808,0.023809523809523808,0.023809523809523808,0.023809523809523808,0.023809523809523808,0.023809523809523808,0.023809523809523808,0.023809523809523808,0.023809523809523808,0.023809523809523808,0.023809523809523808,0.023809523809523808,0.023809523809523808,0.023809523809523808,0.023809523809523808,0.023809523809523808,0.023809523809523808,0.023809523809523808,0.023809523809523808,0.023809523809523808,0.023809523809523808,0.023809523809523808,0.023809523809523808,0.023809523809523808,0.023809523809523808,0.023809523809523808,0.023809523809523808,0.023809523809523808,0.023809523809523808,0.023809523809523808,0.023809523809523808,0.023809523809523808,0.023809523809523808,0.023809523809523808,0.023809523809523808,0.023809523809523808,0.023809523809523808,0.023809523809523808,0.023809523809523808,0.023809523809523808,0.023809523809523808,0.023809523809523808,0.023809523809523808,0.023809523809523808,0.023809523809523808,0.023809523809523808,0.023809523809523808,0.023809523809523808,0.023809523809523808,0.023809523809523808,0.023809523809523808,0.023809523809523808,0.023809523809523808,0.023809523809523808,0.023809523809523808,0.023809523809523808,0.023809523809523808,0.023809523809523808,0.023809523809523808,0.023809523809523808,0.023809523809523808,0.023809523809523808,0.023809523809523808,0.023809523809523808,0.023809523809523808,0.023809523809523808,0.023809523809523808,0.023809523809523808,0.023809523809523808,0.023809523809523808,0.023809523809523808,0.023809523809523808,0.023809523809523808,0.023809523809523808,0.023809523809523808,0.023809523809523808,0.023809523809523808,0.023809523809523808,0.023809523809523808,0.023809523809523808,0.023809523809523808,0.023809523809523808,0.023809523809523808,0.023809523809523808,0.023809523809523808,0.023809523809523808,0.023809523809523808,0.023809523809523808,0.023809523809523808,0.023809523809523808,0.023809523809523808,0.023809523809523808,0.023809523809523808,0.023809523809523808,0.023809523809523808,0.023809523809523808,0.023809523809523808,0.023809523809523808,0.023809523809523808,0.023809523809523808,0.023809523809523808,0.023809523809523808,0.023809523809523808,0.023809523809523808,0.023809523809523808,0.023809523809523808,0.023809523809523808,0.023809523809523808,0.023809523809523808,0.023809523809523808,0.023809523809523808,0.023809523809523808,0.023809523809523808,0.023809523809523808,0.023809523809523808,0.023809523809523808,0.023809523809523808,0.023809523809523808,0.023809523809523808,0.023809523809523808,0.023809523809523808,0.023809523809523808,0.023809523809523808,0.023809523809523808,0.023809523809523808,0.023809523809523808,0.023809523809523808,0.023809523809523808,0.023809523809523808,0.1054421768707483,0.19387755102040816,0.272108843537415,0.35374149659863946,0.42517006802721086,0.4931972789115646,0.5884353741496599,0.6462585034013606,0.6870748299319728,0.7346938775510204,0.7585034013605442,0.7755102040816326,0.7993197278911565,0.8061224489795918,0.8129251700680272,0.8129251700680272,0.8197278911564626,0.8197278911564626,0.8231292517006803,0.826530612244898,0.826530612244898,0.826530612244898,0.826530612244898,0.826530612244898,0.826530612244898,0.826530612244898,0.826530612244898,0.826530612244898,0.826530612244898,0.826530612244898,0.826530612244898,0.826530612244898,0.826530612244898,0.826530612244898,0.826530612244898,0.8231292517006803,0.8231292517006803,0.8231292517006803,0.8231292517006803,0.8231292517006803,0.8231292517006803,0.8197278911564626,0.8197278911564626,0.8197278911564626,0.8197278911564626,0.8197278911564626,0.8197278911564626,0.8197278911564626,0.8197278911564626,0.8197278911564626,0.8197278911564626,0.8197278911564626,0.8197278911564626,0.8197278911564626,0.8061224489795918,0.8027210884353742,0.8027210884353742,0.8027210884353742,0.8027210884353742,0.8027210884353742,0.8027210884353742,0.8027210884353742,0.8027210884353742,0.8027210884353742,0.8027210884353742,0.8027210884353742,0.8027210884353742,0.8027210884353742,0.8027210884353742,0.8027210884353742,0.8027210884353742,0.8027210884353742,0.8027210884353742,0.8231292517006803,0.8877551020408163,0.9285714285714286,0.9659863945578231,1.0068027210884354,1.0238095238095237,1.0476190476190477,1.0578231292517006,1.0782312925170068,1.1020408163265305,1.119047619047619,1.1326530612244898,1.153061224489796,1.1598639455782314,1.1700680272108843,1.1802721088435375,1.1938775510204083,1.2006802721088434,1.2210884353741496,1.2346938775510203,1.251700680272109,1.272108843537415,1.2891156462585034,1.3027210884353742,1.316326530612245,1.3197278911564625,1.3231292517006803,1.3265306122448979,1.3299319727891157,1.3299319727891157,1.3333333333333333,1.3333333333333333,1.3333333333333333,1.3333333333333333,1.3333333333333333,1.3333333333333333,1.3333333333333333,1.3333333333333333,1.3333333333333333,1.3333333333333333,1.3333333333333333,1.3333333333333333,1.3333333333333333,1.3333333333333333,1.3333333333333333,1.3333333333333333,1.3333333333333333,1.3333333333333333,1.3333333333333333,1.3333333333333333,1.3333333333333333,1.2891156462585034,1.2108843537414966,1.1666666666666667,1.1258503401360545,1.0476190476190477,1,0.9591836734693877,0.9149659863945578,0.8945578231292517,0.8809523809523809,0.8707482993197279,0.8639455782312925,0.8605442176870748,0.8571428571428571,0.8537414965986394,0.8537414965986394,0.8537414965986394,0.8537414965986394,0.8537414965986394,0.8673469387755102,0.8945578231292517,0.9421768707482994,0.9693877551020408,1.0068027210884354,1.0476190476190477,1.1054421768707483,1.1258503401360545,1.1462585034013606,1.1564625850340136,1.1598639455782314,1.1666666666666667,1.1666666666666667,1.1700680272108843,1.1700680272108843,1.1700680272108843,1.1700680272108843,1.1598639455782314,1.1394557823129252,1.0748299319727892,0.95578231292517,0.9013605442176871,0.8469387755102041,0.7721088435374149,0.7210884353741497,0.6598639455782312,0.6020408163265306,0.5782312925170068,0.5680272108843537,0.5510204081632653,0.5510204081632653,0.5510204081632653,0.5510204081632653,0.5510204081632653,0.5510204081632653,0.5510204081632653,0.5510204081632653,0.5510204081632653,0.5510204081632653,0.5510204081632653,0.5510204081632653,0.5510204081632653,0.5510204081632653,0.5510204081632653,0.5510204081632653,0.4523809523809524,0.41836734693877553,0.3945578231292517,0.3843537414965986,0.3707482993197279,0.35034013605442177,0.3401360544217687,0.3333333333333333,0.3231292517006803,0.3197278911564626,0.3197278911564626,0.3163265306122449,0.3163265306122449,0.3163265306122449,0.3197278911564626,0.3231292517006803,0.3231292517006803,0.3231292517006803,0.3231292517006803,0.3231292517006803,0.3197278911564626,0.3163265306122449,0.30952380952380953,0.29931972789115646,0.2857142857142857,0.2687074829931973,0.24149659863945577,0.23469387755102042,0.22789115646258504,0.22448979591836735,0.22448979591836735,0.24149659863945577,0.2891156462585034,0.30952380952380953,0.36054421768707484,0.42857142857142855,0.4931972789115646,0.564625850340136,0.5918367346938775,0.608843537414966,0.6292517006802721,0.6428571428571429,0.6564625850340136,0.6802721088435374,0.6904761904761905,0.6972789115646258,0.7006802721088435,0.7040816326530612,0.7040816326530612,0.6904761904761905,0.6632653061224489,0.6190476190476191,0.5680272108843537,0.5340136054421769,0.48639455782312924,0.43197278911564624,0.3707482993197279,0.3163265306122449,0.25170068027210885,0.22108843537414966,0.19387755102040816,0.17687074829931973,0.1598639455782313,0.15306122448979592,0.14625850340136054,0.14285714285714285,0.13945578231292516,0.13945578231292516,0.13945578231292516,0.13945578231292516,0.13945578231292516,0.13945578231292516,0.13945578231292516,0.13945578231292516,0.14625850340136054,0.17006802721088435,0.19727891156462585,0.22789115646258504,0.2687074829931973,0.29591836734693877,0.3299319727891156,0.41836734693877553,0.47278911564625853,0.5204081632653061,0.5884353741496599,0.6054421768707483,0.6224489795918368,0.6462585034013606,0.6632653061224489,0.6836734693877551,0.6904761904761905,0.6938775510204082,0.6972789115646258,0.7006802721088435,0.7040816326530612,0.7108843537414966,0.7142857142857143,0.717687074829932,0.7278911564625851,0.7312925170068028,0.7380952380952381,0.7448979591836735,0.7482993197278912,0.7551020408163265,0.7653061224489796,0.7653061224489796,0.7721088435374149,0.7789115646258503,0.7789115646258503,0.7789115646258503,0.782312925170068,0.782312925170068,0.7857142857142857,0.7857142857142857,0.7857142857142857,0.7925170068027211,0.7925170068027211,0.7993197278911565,0.8129251700680272,0.8163265306122449,0.826530612244898,0.8367346938775511,0.8401360544217688,0.8503401360544217,0.8605442176870748,0.8673469387755102,0.8741496598639455,0.8877551020408163,0.8945578231292517,0.9013605442176871,0.9081632653061225,0.9149659863945578,0.9149659863945578,0.9217687074829932,0.9217687074829932,0.9217687074829932,0.9217687074829932,0.9217687074829932,0.9217687074829932,0.9217687074829932,0.9217687074829932,0.9217687074829932,0.9217687074829932,0.9217687074829932,0.9217687074829932,0.9217687074829932,0.9217687074829932,0.9217687074829932,0.9217687074829932,0.9285714285714286,0.9489795918367347,0.9625850340136054,0.9727891156462585,0.9761904761904762,0.9829931972789115,0.9863945578231292,0.9897959183673469,0.9897959183673469,0.9897959183673469,0.9897959183673469,0.9897959183673469,0.9897959183673469,0.9897959183673469,0.9897959183673469,0.9897959183673469,0.9897959183673469,0.9897959183673469,0.9897959183673469,0.9897959183673469,0.9897959183673469,0.9897959183673469,0.9897959183673469,0.9897959183673469,0.9897959183673469,0.9897959183673469,0.9897959183673469,0.9897959183673469,0.9897959183673469,0.9897959183673469,0.9897959183673469,0.9897959183673469,0.9897959183673469,0.9897959183673469,0.9897959183673469,0.9897959183673469,0.9897959183673469,0.9897959183673469,0.9897959183673469,0.9897959183673469,0.9897959183673469,0.9897959183673469,0.9897959183673469,0.9897959183673469,0.9897959183673469,0.9897959183673469,0.9897959183673469,0.9897959183673469,0.9897959183673469,0.9693877551020408,0.9081632653061225,0.8741496598639455,0.8435374149659864,0.826530612244898,0.7993197278911565,0.782312925170068,0.7721088435374149,0.7619047619047619,0.7585034013605442,0.7517006802721088,0.7346938775510204,0.7244897959183674,0.7108843537414966,0.6904761904761905,0.6802721088435374,0.6700680272108843,0.6632653061224489,0.6564625850340136,0.6530612244897959,0.6496598639455783,0.6462585034013606,0.6428571428571429,0.6360544217687075,0.6292517006802721,0.6020408163265306,0.5748299319727891,0.5476190476190477,0.5238095238095238,0.4965986394557823,0.47959183673469385,0.46258503401360546,0.4523809523809524,0.4421768707482993,0.43197278911564624,0.43197278911564624,0.42857142857142855,0.4217687074829932,0.41836734693877553,0.41156462585034015,0.40476190476190477,0.40476190476190477,0.4013605442176871,0.3979591836734694,0.3979591836734694,0.3979591836734694,0.4217687074829932,0.46598639455782315,0.5374149659863946,0.6360544217687075,0.7108843537414966,0.7653061224489796,0.8061224489795918,0.826530612244898,0.8367346938775511,0.8503401360544217,0.8605442176870748,0.8673469387755102,0.8843537414965986,0.9013605442176871,0.9183673469387755,0.9251700680272109,0.935374149659864,0.935374149659864,0.9421768707482994,0.9489795918367347,0.9489795918367347,0.9489795918367347,0.9489795918367347,0.9421768707482994,0.9387755102040817,0.935374149659864,0.935374149659864,0.935374149659864,0.935374149659864,0.9387755102040817,0.9421768707482994,0.95578231292517,0.9727891156462585,0.9829931972789115,0.9965986394557823,1.0068027210884354,1.0136054421768708,1.0204081632653061,1.0272108843537415,1.034013605442177,1.0442176870748299,1.0510204081632653,1.0578231292517006,1.064625850340136,1.0782312925170068,1.0782312925170068,1.0850340136054422,1.0918367346938775,1.0952380952380953,1.0952380952380953,1.0952380952380953,1.0952380952380953,1.0952380952380953,1.0952380952380953,1.0952380952380953,1.0952380952380953,1.0952380952380953,1.0952380952380953,1.0952380952380953,1.0952380952380953,1.0952380952380953,1.0952380952380953,1.0952380952380953,1.0952380952380953,1.0952380952380953,1.0952380952380953,1.0952380952380953,1.0952380952380953,1.0952380952380953,1.0952380952380953,1.0952380952380953,1.0952380952380953,1.0952380952380953,1.0952380952380953,1.0952380952380953,1.0952380952380953,1.0952380952380953,1.0952380952380953,1.0952380952380953,1.0952380952380953,1.0952380952380953,1.0952380952380953,1.0952380952380953,1.0952380952380953,1.0952380952380953,1.0952380952380953,1.0952380952380953,1.0952380952380953,1.0952380952380953,1.0952380952380953,1.0952380952380953,1.0952380952380953,1.0952380952380953,1.0952380952380953,1.0952380952380953,1.0952380952380953,1.0952380952380953,1.0952380952380953,1.0952380952380953,1.0952380952380953,1.0952380952380953,1.1326530612244898,1.1802721088435375,1.2585034013605443,1.2891156462585034,1.3027210884353742,1.3095238095238095,1.3129251700680271,1.3129251700680271,1.3129251700680271,1.3129251700680271,1.3129251700680271,1.3129251700680271,1.3129251700680271,1.3129251700680271,1.3129251700680271,1.3129251700680271,1.3129251700680271,1.3129251700680271,1.3129251700680271,1.3129251700680271,1.3129251700680271,1.3129251700680271,1.3129251700680271,1.3129251700680271,1.3129251700680271,1.3129251700680271,1.3129251700680271,1.3129251700680271,1.3129251700680271,1.3129251700680271,1.3129251700680271,1.3129251700680271,1.3129251700680271,1.3129251700680271,1.3129251700680271,1.3129251700680271,1.3129251700680271,1.3129251700680271,1.3129251700680271,1.3129251700680271,1.3129251700680271,1.3129251700680271,1.3129251700680271,1.3129251700680271,1.3129251700680271,1.3129251700680271,1.3129251700680271,1.3129251700680271,1.3129251700680271,1.3129251700680271,1.3129251700680271,1.3129251700680271,1.3129251700680271,1.3129251700680271,1.3129251700680271,1.3129251700680271,1.3129251700680271,1.3129251700680271,1.3129251700680271,1.3129251700680271,1.3129251700680271,1.3129251700680271,1.3129251700680271,1.3129251700680271,1.3129251700680271,1.3129251700680271,1.3129251700680271,1.3129251700680271,1.3129251700680271,1.3129251700680271,1.3129251700680271,1.3129251700680271,1.3129251700680271,1.3129251700680271,1.3129251700680271,1.3129251700680271,1.3129251700680271,1.3129251700680271,1.3129251700680271,1.3129251700680271,1.3129251700680271,1.3129251700680271,1.3129251700680271,1.3129251700680271,1.3129251700680271,1.3129251700680271,1.3129251700680271,1.3129251700680271,1.3129251700680271,1.3129251700680271,1.3129251700680271,1.3129251700680271,1.3129251700680271,1.3129251700680271,1.3129251700680271,1.3129251700680271],"y":[-2.857142857142857,-2.857142857142857,-2.857142857142857,-2.857142857142857,-2.857142857142857,-2.857142857142857,-2.857142857142857,-2.857142857142857,-2.857142857142857,-2.857142857142857,-2.857142857142857,-2.857142857142857,-2.857142857142857,-2.857142857142857,-2.857142857142857,-2.857142857142857,-2.857142857142857,-2.857142857142857,-2.857142857142857,-2.857142857142857,-2.857142857142857,-2.857142857142857,-2.857142857142857,-2.857142857142857,-2.857142857142857,-2.857142857142857,-2.857142857142857,-2.857142857142857,-2.857142857142857,-2.857142857142857,-2.857142857142857,-2.857142857142857,-2.857142857142857,-2.857142857142857,-2.857142857142857,-2.857142857142857,-2.857142857142857,-2.857142857142857,-2.857142857142857,-2.857142857142857,-2.857142857142857,-2.857142857142857,-2.857142857142857,-2.857142857142857,-2.857142857142857,-2.857142857142857,-2.857142857142857,-2.857142857142857,-2.857142857142857,-2.857142857142857,-2.857142857142857,-2.857142857142857,-2.857142857142857,-2.857142857142857,-2.857142857142857,-2.857142857142857,-2.857142857142857,-2.857142857142857,-2.857142857142857,-2.857142857142857,-2.857142857142857,-2.857142857142857,-2.857142857142857,-2.857142857142857,-2.857142857142857,-2.857142857142857,-2.857142857142857,-2.857142857142857,-2.857142857142857,-2.857142857142857,-2.857142857142857,-2.857142857142857,-2.857142857142857,-2.857142857142857,-2.857142857142857,-2.857142857142857,-2.857142857142857,-2.857142857142857,-2.857142857142857,-2.857142857142857,-2.857142857142857,-2.857142857142857,-2.857142857142857,-2.857142857142857,-2.857142857142857,-2.857142857142857,-2.857142857142857,-2.857142857142857,-2.857142857142857,-2.857142857142857,-2.857142857142857,-2.857142857142857,-2.857142857142857,-2.857142857142857,-2.857142857142857,-2.857142857142857,-2.857142857142857,-2.857142857142857,-2.857142857142857,-2.857142857142857,-2.857142857142857,-2.857142857142857,-2.857142857142857,-2.857142857142857,-2.857142857142857,-2.857142857142857,-2.857142857142857,-2.857142857142857,-2.857142857142857,-2.857142857142857,-2.857142857142857,-2.857142857142857,-2.857142857142857,-2.857142857142857,-2.857142857142857,-2.857142857142857,-2.857142857142857,-2.857142857142857,-2.857142857142857,-2.857142857142857,-2.857142857142857,-2.857142857142857,-2.857142857142857,-2.857142857142857,-2.857142857142857,-2.857142857142857,-2.857142857142857,-2.857142857142857,-2.857142857142857,-2.857142857142857,-2.857142857142857,-2.857142857142857,-2.857142857142857,-2.857142857142857,-2.857142857142857,-2.857142857142857,-2.857142857142857,-2.857142857142857,-2.857142857142857,-2.857142857142857,-2.857142857142857,-2.857142857142857,-2.857142857142857,-2.857142857142857,-2.857142857142857,-2.857142857142857,-2.857142857142857,-2.857142857142857,-2.857142857142857,-2.857142857142857,-2.857142857142857,-2.857142857142857,-2.857142857142857,-2.857142857142857,-2.857142857142857,-2.857142857142857,-2.857142857142857,-2.857142857142857,-2.857142857142857,-2.857142857142857,-2.857142857142857,-2.857142857142857,-2.857142857142857,-2.857142857142857,-2.857142857142857,-2.857142857142857,-2.857142857142857,-2.857142857142857,-2.857142857142857,-2.857142857142857,-2.857142857142857,-2.857142857142857,-2.857142857142857,-2.857142857142857,-2.857142857142857,-2.857142857142857,-2.857142857142857,-2.857142857142857,-2.857142857142857,-2.857142857142857,-2.857142857142857,-2.857142857142857,-2.857142857142857,-2.857142857142857,-2.857142857142857,-2.857142857142857,-2.857142857142857,-2.857142857142857,-2.857142857142857,-2.857142857142857,-2.857142857142857,-2.857142857142857,-2.857142857142857,-2.857142857142857,-2.857142857142857,-2.857142857142857,-2.857142857142857,-2.857142857142857,-2.857142857142857,-2.857142857142857,-2.857142857142857,-2.857142857142857,-2.857142857142857,-2.857142857142857,-2.857142857142857,-2.857142857142857,-2.857142857142857,-2.857142857142857,-2.857142857142857,-2.857142857142857,-2.857142857142857,-2.857142857142857,-2.857142857142857,-2.857142857142857,-2.857142857142857,-2.857142857142857,-2.857142857142857,-2.857142857142857,-2.857142857142857,-2.857142857142857,-2.857142857142857,-2.857142857142857,-2.857142857142857,-2.857142857142857,-2.857142857142857,-2.857142857142857,-2.857142857142857,-2.857142857142857,-2.857142857142857,-2.857142857142857,-2.857142857142857,-2.857142857142857,-2.857142857142857,-2.857142857142857,-2.857142857142857,-2.857142857142857,-2.857142857142857,-2.857142857142857,-2.857142857142857,-2.857142857142857,-2.857142857142857,-2.857142857142857,-2.857142857142857,-2.857142857142857,-2.857142857142857,-2.857142857142857,-2.857142857142857,-2.857142857142857,-2.857142857142857,-2.857142857142857,-2.857142857142857,-2.857142857142857,-2.857142857142857,-2.857142857142857,-2.857142857142857,-2.857142857142857,-2.857142857142857,-2.857142857142857,-2.857142857142857,-2.857142857142857,-2.857142857142857,-2.857142857142857,-2.857142857142857,-2.857142857142857,-2.857142857142857,-2.857142857142857,-2.857142857142857,-2.857142857142857,-2.857142857142857,-2.857142857142857,-2.857142857142857,-2.857142857142857,-2.857142857142857,-2.857142857142857,-2.857142857142857,-2.857142857142857,-2.857142857142857,-2.857142857142857,-2.857142857142857,-2.857142857142857,-2.857142857142857,-2.857142857142857,-2.857142857142857,-2.857142857142857,-2.857142857142857,-2.857142857142857,-2.857142857142857,-2.857142857142857,-2.857142857142857,-2.857142857142857,-2.857142857142857,-2.857142857142857,-2.857142857142857,-2.857142857142857,-2.857142857142857,-2.857142857142857,-2.857142857142857,-2.857142857142857,-2.857142857142857,-2.857142857142857,-2.857142857142857,-2.857142857142857,-2.857142857142857,-2.857142857142857,-2.857142857142857,-2.857142857142857,-2.857142857142857,-2.857142857142857,-2.857142857142857,-2.857142857142857,-2.857142857142857,-2.857142857142857,-2.857142857142857,-2.857142857142857,-2.857142857142857,-2.857142857142857,-2.857142857142857,-2.857142857142857,-2.857142857142857,-2.857142857142857,-2.857142857142857,-2.857142857142857,-2.857142857142857,-2.857142857142857,-2.857142857142857,-2.857142857142857,-2.857142857142857,-2.857142857142857,-2.857142857142857,-2.857142857142857,-2.857142857142857,-2.857142857142857,-2.857142857142857,-2.857142857142857,-2.857142857142857,-2.857142857142857,-2.857142857142857,-2.857142857142857,-2.857142857142857,-2.857142857142857,-2.857142857142857,-2.857142857142857,-2.857142857142857,-2.857142857142857,-2.857142857142857,-2.857142857142857,-2.857142857142857,-2.857142857142857,-2.857142857142857,-2.857142857142857,-2.857142857142857,-2.857142857142857,-2.857142857142857,-2.857142857142857,-2.857142857142857,-2.857142857142857,-2.857142857142857,-2.857142857142857,-2.857142857142857,-2.857142857142857,-2.857142857142857,-2.857142857142857,-2.857142857142857,-2.857142857142857,-2.857142857142857,-2.857142857142857,-2.857142857142857,-2.857142857142857,-2.857142857142857,-2.857142857142857,-2.857142857142857,-2.857142857142857,-2.857142857142857,-2.857142857142857,-2.857142857142857,-2.857142857142857,-2.857142857142857,-2.857142857142857,-2.857142857142857,-2.857142857142857,-2.857142857142857,-2.857142857142857,-2.857142857142857,-2.857142857142857,-2.857142857142857,-2.857142857142857,-2.857142857142857,-2.857142857142857,-2.857142857142857,-2.857142857142857,-2.857142857142857,-2.857142857142857,-2.857142857142857,-2.857142857142857,-2.857142857142857,-2.857142857142857,-2.857142857142857,-2.857142857142857,-2.857142857142857,-2.857142857142857,-2.857142857142857,-2.857142857142857,-2.857142857142857,-2.857142857142857,-2.857142857142857,-2.857142857142857,-2.857142857142857,-2.857142857142857,-2.857142857142857,-2.857142857142857,-2.857142857142857,-2.857142857142857,-2.857142857142857,-2.857142857142857,-2.857142857142857,-2.857142857142857,-2.857142857142857,-2.857142857142857,-2.857142857142857,-2.857142857142857,-2.857142857142857,-2.857142857142857,-2.857142857142857,-2.857142857142857,-2.857142857142857,-2.857142857142857,-2.857142857142857,-2.857142857142857,-2.857142857142857,-2.857142857142857,-2.857142857142857,-2.857142857142857,-2.857142857142857,-2.857142857142857,-2.857142857142857,-2.857142857142857,-2.857142857142857,-2.857142857142857,-2.857142857142857,-2.857142857142857,-2.857142857142857,-2.857142857142857,-2.857142857142857,-2.857142857142857,-2.857142857142857,-2.857142857142857,-2.857142857142857,-2.857142857142857,-2.857142857142857,-2.857142857142857,-2.857142857142857,-2.857142857142857,-2.857142857142857,-2.857142857142857,-2.857142857142857,-2.857142857142857,-2.857142857142857,-2.857142857142857,-2.857142857142857,-2.857142857142857,-2.857142857142857,-2.857142857142857,-2.857142857142857,-2.857142857142857,-2.857142857142857,-2.857142857142857,-2.857142857142857,-2.857142857142857,-2.857142857142857,-2.857142857142857,-2.857142857142857,-2.857142857142857,-2.857142857142857,-2.857142857142857,-2.857142857142857,-2.857142857142857,-2.857142857142857,-2.857142857142857,-2.857142857142857,-2.857142857142857,-2.857142857142857,-2.857142857142857,-2.857142857142857,-2.857142857142857,-2.857142857142857,-2.857142857142857,-2.857142857142857,-2.857142857142857,-2.857142857142857,-2.857142857142857,-2.857142857142857,-2.857142857142857,-2.857142857142857,-2.857142857142857,-2.857142857142857,-2.857142857142857,-2.857142857142857,-2.857142857142857,-2.857142857142857,-2.857142857142857,-2.857142857142857,-2.857142857142857,-2.857142857142857,-2.857142857142857,-2.857142857142857,-2.857142857142857,-2.857142857142857,-2.857142857142857,-2.857142857142857,-2.857142857142857,-2.857142857142857,-2.857142857142857,-2.857142857142857,-2.857142857142857,-2.857142857142857,-2.857142857142857,-2.857142857142857,-2.857142857142857,-2.857142857142857,-2.857142857142857,-2.857142857142857,-2.857142857142857,-2.857142857142857,-2.857142857142857,-2.857142857142857,-2.857142857142857,-2.857142857142857,-2.857142857142857,-2.857142857142857,-2.857142857142857,-2.857142857142857,-2.857142857142857,-2.857142857142857,-2.857142857142857,-2.857142857142857,-2.857142857142857,-2.857142857142857,-2.857142857142857,-2.857142857142857,-2.857142857142857,-2.857142857142857,-2.857142857142857,-2.857142857142857,-2.857142857142857,-2.857142857142857,-2.857142857142857,-2.857142857142857,-2.857142857142857,-2.857142857142857,-2.857142857142857,-2.857142857142857,-2.857142857142857,-2.857142857142857,-2.857142857142857,-2.857142857142857,-2.857142857142857,-2.857142857142857,-2.857142857142857,-2.857142857142857,-2.857142857142857,-2.857142857142857,-2.857142857142857,-2.857142857142857,-2.857142857142857,-2.857142857142857,-2.857142857142857,-2.857142857142857,-2.857142857142857,-2.857142857142857,-2.857142857142857,-2.857142857142857,-2.857142857142857,-2.857142857142857,-2.857142857142857,-2.857142857142857,-2.857142857142857,-2.857142857142857,-2.857142857142857,-2.857142857142857,-2.857142857142857,-2.857142857142857,-2.857142857142857,-2.857142857142857,-2.857142857142857,-2.857142857142857,-2.857142857142857,-2.857142857142857,-2.857142857142857,-2.857142857142857,-2.857142857142857,-2.857142857142857,-2.857142857142857,-2.857142857142857,-2.857142857142857,-2.857142857142857,-2.857142857142857,-2.857142857142857,-2.857142857142857,-2.857142857142857,-2.857142857142857,-2.857142857142857,-2.857142857142857,-2.857142857142857,-2.857142857142857,-2.857142857142857,-2.857142857142857,-2.857142857142857,-2.857142857142857,-2.857142857142857,-2.857142857142857,-2.857142857142857,-2.857142857142857,-2.857142857142857,-2.857142857142857,-2.857142857142857,-2.857142857142857,-2.857142857142857,-2.857142857142857,-2.857142857142857,-2.857142857142857,-2.857142857142857,-2.857142857142857,-2.857142857142857,-2.857142857142857,-2.857142857142857,-2.857142857142857,-2.857142857142857,-2.857142857142857,-2.857142857142857,-2.857142857142857,-2.857142857142857,-2.857142857142857,-2.857142857142857,-2.857142857142857,-2.857142857142857,-2.857142857142857,-2.857142857142857,-2.857142857142857,-2.857142857142857,-2.857142857142857,-2.857142857142857,-2.857142857142857,-2.857142857142857,-2.857142857142857,-2.857142857142857,-2.857142857142857,-2.857142857142857,-2.857142857142857,-2.857142857142857,-2.857142857142857,-2.857142857142857,-2.857142857142857,-2.857142857142857,-2.857142857142857,-2.857142857142857,-2.857142857142857,-2.857142857142857,-2.857142857142857,-2.857142857142857,-2.857142857142857,-2.857142857142857,-2.857142857142857,-2.857142857142857,-2.857142857142857,-2.857142857142857,-2.857142857142857,-2.857142857142857,-2.857142857142857,-2.857142857142857,-2.857142857142857,-2.857142857142857,-2.857142857142857,-2.857142857142857,-2.857142857142857,-2.857142857142857,-2.857142857142857,-2.857142857142857,-2.857142857142857,-2.857142857142857,-2.857142857142857,-2.857142857142857,-2.857142857142857,-2.857142857142857,-2.857142857142857,-2.857142857142857,-2.857142857142857,-2.857142857142857,-2.857142857142857,-2.857142857142857,-2.857142857142857,-2.857142857142857,-2.857142857142857,-2.857142857142857,-2.857142857142857,-2.857142857142857,-2.857142857142857,-2.857142857142857,-2.857142857142857,-2.857142857142857,-2.857142857142857,-2.857142857142857,-2.857142857142857,-2.857142857142857,-2.857142857142857,-2.857142857142857,-2.857142857142857,-2.857142857142857,-2.857142857142857,-2.857142857142857,-2.857142857142857,-2.857142857142857,-2.857142857142857,-2.857142857142857,-2.857142857142857,-2.857142857142857,-2.857142857142857,-2.857142857142857,-2.857142857142857,-2.857142857142857,-2.857142857142857,-2.857142857142857,-2.857142857142857,-2.857142857142857,-2.857142857142857,-2.857142857142857,-2.857142857142857,-2.857142857142857,-2.857142857142857,-2.857142857142857,-2.857142857142857,-2.857142857142857,-2.857142857142857,-2.857142857142857,-2.857142857142857,-2.857142857142857,-2.857142857142857,-2.857142857142857,-2.857142857142857,-2.857142857142857,-2.857142857142857,-2.857142857142857,-2.857142857142857,-2.857142857142857,-2.857142857142857,-2.857142857142857,-2.857142857142857,-2.857142857142857,-2.857142857142857,-2.857142857142857,-2.857142857142857,-2.857142857142857,-2.857142857142857,-2.857142857142857,-2.857142857142857,-2.857142857142857,-2.857142857142857,-2.857142857142857,-2.857142857142857,-2.857142857142857,-2.857142857142857,-2.857142857142857,-2.857142857142857,-2.857142857142857,-2.857142857142857,-2.857142857142857,-2.857142857142857,-2.857142857142857,-2.857142857142857,-2.857142857142857,-2.857142857142857,-2.857142857142857,0.5380952380952381,0.38571428571428573,0.3380952380952381,0.2904761904761905,0.2714285714285714,0.2523809523809524,0.23333333333333334,0.23333333333333334,0.21428571428571427,0.20476190476190476,0.19523809523809524,0.1761904761904762,0.1761904761904762,0.15714285714285714,0.014285714285714285,-0.2619047619047619,-0.4238095238095238,-0.5285714285714286,-0.5571428571428572,-0.5857142857142857,-0.6428571428571429,-0.7380952380952381,-0.9285714285714286,-1.0047619047619047,-1.061904761904762,-1.1095238095238096,-1.119047619047619,-1.138095238095238,-1.1476190476190475,-1.1666666666666667,-1.1857142857142857,-1.2047619047619047,-1.2428571428571429,-1.2904761904761906,-1.3476190476190477,-1.3666666666666667,-1.3666666666666667,-1.3666666666666667,-1.3571428571428572,-1.3476190476190477,-1.3476190476190477,-1.3476190476190477,-1.3476190476190477,-1.3476190476190477,-1.3476190476190477,-1.3476190476190477,-1.3476190476190477,-1.3476190476190477,-1.3476190476190477,-1.3476190476190477,-1.3476190476190477,-1.3476190476190477,-1.3476190476190477,-1.3476190476190477,-1.3476190476190477,-1.3476190476190477,-1.3476190476190477,-1.3476190476190477,-1.3476190476190477,-1.3476190476190477,-1.3476190476190477,-1.3476190476190477,-1.3476190476190477,-1.3476190476190477,-1.3476190476190477,-1.3476190476190477,-1.3476190476190477,-1.3476190476190477,-1.3476190476190477,-1.3476190476190477,-1.3476190476190477,-1.3476190476190477,-1.3476190476190477,-1.3476190476190477,-1.3476190476190477,-1.3476190476190477,-1.3476190476190477,-1.3476190476190477,-1.3476190476190477,-1.3476190476190477,-1.3476190476190477,-1.3476190476190477,-1.3476190476190477,-1.3476190476190477,-1.3476190476190477,-1.3476190476190477,-1.3095238095238095,-1.2333333333333334,-1.1952380952380952,-1.1476190476190475,-1.0904761904761904,-1.0238095238095237,-0.9571428571428572,-0.8714285714285714,-0.8333333333333334,-0.8142857142857143,-0.7761904761904762,-0.7571428571428571,-0.7,-0.5761904761904761,-0.49047619047619045,-0.4238095238095238,-0.35714285714285715,-0.3380952380952381,-0.32857142857142857,-0.319047619047619,-0.30952380952380953,-0.3,-0.3,-0.2904761904761905,-0.28095238095238095,-0.28095238095238095,-0.28095238095238095,-0.2714285714285714,-0.2619047619047619,-0.2619047619047619,-0.24285714285714285,-0.22380952380952382,-0.20476190476190476,-0.16666666666666666,-0.1380952380952381,-0.10952380952380952,-0.09047619047619047,-0.08095238095238096,-0.07142857142857142,-0.06190476190476191,-0.05238095238095238,-0.05238095238095238,-0.04285714285714286,-0.03333333333333333,-0.023809523809523808,-0.014285714285714285,-0.014285714285714285,-0.014285714285714285,-0.014285714285714285,-0.014285714285714285,-0.014285714285714285,-0.014285714285714285,-0.014285714285714285,-0.014285714285714285,-0.014285714285714285,-0.014285714285714285,-0.014285714285714285,-0.014285714285714285,-0.014285714285714285,-0.014285714285714285,-0.014285714285714285,-0.014285714285714285,-0.014285714285714285,-0.014285714285714285,-0.014285714285714285,-0.014285714285714285,-0.014285714285714285,-0.014285714285714285,-0.014285714285714285,-0.014285714285714285,-0.014285714285714285,-0.014285714285714285,-0.014285714285714285,-0.014285714285714285,-0.014285714285714285,-0.014285714285714285,-0.014285714285714285,-0.014285714285714285,-0.014285714285714285,-0.014285714285714285,-0.014285714285714285,-0.014285714285714285,-0.014285714285714285,-0.014285714285714285,-0.014285714285714285,-0.014285714285714285,-0.014285714285714285,-0.014285714285714285,-0.014285714285714285,-0.014285714285714285,-0.014285714285714285,-0.014285714285714285,-0.014285714285714285,-0.014285714285714285,-0.014285714285714285,-0.014285714285714285,-0.014285714285714285,-0.014285714285714285,-0.014285714285714285,-0.014285714285714285,-0.014285714285714285,-0.014285714285714285,-0.014285714285714285,-0.014285714285714285,-0.014285714285714285,-0.014285714285714285,-0.014285714285714285,-0.014285714285714285,-0.014285714285714285,-0.014285714285714285,-0.014285714285714285,-0.014285714285714285,-0.014285714285714285,-0.014285714285714285,-0.014285714285714285,-0.014285714285714285,-0.014285714285714285,-0.014285714285714285,-0.014285714285714285,-0.014285714285714285,-0.014285714285714285,-0.014285714285714285,-0.014285714285714285,-0.014285714285714285,-0.014285714285714285,-0.014285714285714285,-0.014285714285714285,-0.014285714285714285,-0.014285714285714285,-0.014285714285714285,-0.014285714285714285,-0.014285714285714285,-0.014285714285714285,-0.014285714285714285,-0.014285714285714285,-0.014285714285714285,-0.014285714285714285,-0.014285714285714285,-0.014285714285714285,-0.014285714285714285,-0.014285714285714285,-0.014285714285714285,-0.014285714285714285,-0.014285714285714285,-0.014285714285714285,-0.014285714285714285,-0.014285714285714285,-0.03333333333333333,-0.04285714285714286,-0.05238095238095238,-0.06190476190476191,-0.07142857142857142,-0.07142857142857142,-0.07142857142857142,-0.07142857142857142,-0.07142857142857142,-0.07142857142857142,-0.07142857142857142,-0.07142857142857142,-0.07142857142857142,-0.07142857142857142,-0.07142857142857142,-0.07142857142857142,-0.07142857142857142,-0.07142857142857142,-0.05238095238095238,-0.03333333333333333,-0.03333333333333333,-0.023809523809523808,-0.014285714285714285,0.004761904761904762,0.004761904761904762,0.004761904761904762,0.014285714285714285,0.014285714285714285,0.014285714285714285,0.014285714285714285,0.014285714285714285,0.014285714285714285,0.014285714285714285,0.014285714285714285,0.014285714285714285,0.014285714285714285,0.014285714285714285,0.014285714285714285,0.014285714285714285,0.014285714285714285,0.014285714285714285,0.014285714285714285,0.014285714285714285,0.014285714285714285,0.014285714285714285,0.014285714285714285,0.014285714285714285,0.014285714285714285,0.014285714285714285,0.014285714285714285,0.014285714285714285,0.014285714285714285,0.014285714285714285,0.014285714285714285,0.014285714285714285,0.014285714285714285,0.014285714285714285,0.014285714285714285,0.014285714285714285,0.014285714285714285,0.014285714285714285,0.014285714285714285,0.014285714285714285,0.014285714285714285,0.014285714285714285,0.014285714285714285,0.014285714285714285,0.014285714285714285,0.014285714285714285,0.014285714285714285,0.014285714285714285,0.014285714285714285,0.014285714285714285,0.014285714285714285,0.014285714285714285,0.014285714285714285,0.014285714285714285,0.014285714285714285,0.014285714285714285,0.014285714285714285,0.014285714285714285,0.014285714285714285,0.014285714285714285,0.014285714285714285,0.014285714285714285,0.014285714285714285,0.014285714285714285,0.014285714285714285,0.014285714285714285,0.014285714285714285,0.014285714285714285,0.014285714285714285,0.014285714285714285,0.014285714285714285,0.014285714285714285,0.014285714285714285,0.014285714285714285,0.014285714285714285,0.014285714285714285,0.014285714285714285,0.014285714285714285,0.014285714285714285,0.014285714285714285,0.014285714285714285,0.014285714285714285,0.014285714285714285,0.014285714285714285,0.014285714285714285,0.014285714285714285,0.014285714285714285,0.014285714285714285,0.014285714285714285,0.014285714285714285,0.014285714285714285,0.014285714285714285,0.014285714285714285,0.014285714285714285,0.014285714285714285,0.014285714285714285,0.014285714285714285,0.014285714285714285,0.014285714285714285,0.014285714285714285,0.014285714285714285,0.014285714285714285,0.014285714285714285,0.014285714285714285,0.014285714285714285,0.03333333333333333,0.06190476190476191,0.12857142857142856,0.1761904761904762,0.22380952380952382,0.2904761904761905,0.319047619047619,0.3476190476190476,0.3761904761904762,0.3952380952380952,0.4142857142857143,0.44285714285714284,0.44285714285714284,0.46190476190476193,0.4714285714285714,0.48095238095238096,0.48095238095238096,0.48095238095238096,0.49047619047619045,0.5,0.5095238095238095,0.5190476190476191,0.5190476190476191,0.5190476190476191,0.5190476190476191,0.5190476190476191,0.5190476190476191,0.5190476190476191,0.5190476190476191,0.5190476190476191,0.5190476190476191,0.5190476190476191,0.5190476190476191,0.5190476190476191,0.5190476190476191,0.5190476190476191,0.5190476190476191,0.5190476190476191,0.5190476190476191,0.5190476190476191,0.5190476190476191,0.5190476190476191,0.5190476190476191,0.5190476190476191,0.5190476190476191,0.5190476190476191,0.5190476190476191,0.5190476190476191,0.5190476190476191,0.5190476190476191,0.5190476190476191,0.5190476190476191,0.5190476190476191,0.5190476190476191,0.5190476190476191,0.5190476190476191,0.5190476190476191,0.5190476190476191,0.5,0.46190476190476193,0.4523809523809524,0.44285714285714284,0.4238095238095238,0.4238095238095238,0.4238095238095238,0.4142857142857143,0.40476190476190477,0.40476190476190477,0.3952380952380952,0.38571428571428573,0.38571428571428573,0.3476190476190476,0.32857142857142857,0.30952380952380953,0.28095238095238095,0.2714285714285714,0.2523809523809524,0.23333333333333334,0.23333333333333334,0.22380952380952382,0.19523809523809524,0.18571428571428572,0.16666666666666666,0.15714285714285714,0.15714285714285714,0.1380952380952381,0.11904761904761904,0.10952380952380952,0.1,0.09047619047619047,0.08095238095238096,0.07142857142857142,0.06190476190476191,0.06190476190476191,0.05238095238095238,0.04285714285714286,0.03333333333333333,0.03333333333333333,0.023809523809523808,0.023809523809523808,0.014285714285714285,0.004761904761904762,0.004761904761904762,0.004761904761904762,0.004761904761904762,0.004761904761904762,0.004761904761904762,0.004761904761904762,0.004761904761904762,0.004761904761904762,0.004761904761904762,0.004761904761904762,0.004761904761904762,0.004761904761904762,0.004761904761904762,0.004761904761904762,0.004761904761904762,0.004761904761904762,0.004761904761904762,0.004761904761904762,0.004761904761904762,0.004761904761904762,0.004761904761904762,0.004761904761904762,0.004761904761904762,0.004761904761904762,0.004761904761904762,0.004761904761904762,0.004761904761904762,0.004761904761904762,0.004761904761904762,0.004761904761904762,0.004761904761904762,0.004761904761904762,0.004761904761904762,0.004761904761904762,0.004761904761904762,0.004761904761904762,0.004761904761904762,0.004761904761904762,0.004761904761904762,0.004761904761904762,0.004761904761904762,0.004761904761904762,0.004761904761904762,0.004761904761904762,0.004761904761904762,0.004761904761904762,0.004761904761904762,0.004761904761904762,0.004761904761904762,0.004761904761904762,0.004761904761904762,0.004761904761904762,0.004761904761904762,0.004761904761904762,0.004761904761904762,0.004761904761904762,0.004761904761904762,0.004761904761904762,0.004761904761904762,0.004761904761904762,0.004761904761904762,0.004761904761904762,0.004761904761904762,0.004761904761904762,0.004761904761904762,0.004761904761904762,0.004761904761904762,0.004761904761904762,0.004761904761904762,0.004761904761904762,0.004761904761904762,0.004761904761904762,0.004761904761904762,0.004761904761904762,0.004761904761904762,0.004761904761904762,0.004761904761904762,0.004761904761904762,0.004761904761904762,0.004761904761904762,0.004761904761904762,0.004761904761904762,0.004761904761904762,0.004761904761904762,0.004761904761904762,0.004761904761904762,0.004761904761904762,0.004761904761904762,0.004761904761904762,0.004761904761904762,0.004761904761904762,0.004761904761904762,0.004761904761904762,0.004761904761904762,0.004761904761904762,0.004761904761904762,0.004761904761904762,0.004761904761904762,0.004761904761904762,0.004761904761904762,0.004761904761904762,0.004761904761904762,0.004761904761904762,0.004761904761904762,0.004761904761904762,0.004761904761904762,0.004761904761904762,0.004761904761904762,0.004761904761904762,0.004761904761904762,0.004761904761904762,0.004761904761904762,0.004761904761904762,0.004761904761904762,0.004761904761904762,0.004761904761904762,0.004761904761904762,0.004761904761904762,0.004761904761904762,0.004761904761904762,0.004761904761904762,0.004761904761904762,0.004761904761904762,0.004761904761904762,0.004761904761904762,0.004761904761904762,0.004761904761904762,0.004761904761904762,0.004761904761904762,0.004761904761904762,0.004761904761904762,0.004761904761904762,0.004761904761904762,0.004761904761904762,0.004761904761904762,0.004761904761904762,0.004761904761904762,0.004761904761904762,0.004761904761904762,0.004761904761904762,0.004761904761904762,0.004761904761904762,0.004761904761904762,0.004761904761904762,0.004761904761904762,0.004761904761904762,0.004761904761904762,0.004761904761904762,0.004761904761904762,0.004761904761904762,0.004761904761904762,0.004761904761904762,0.004761904761904762,0.004761904761904762,0.004761904761904762,0.004761904761904762,0.004761904761904762,0.004761904761904762,0.004761904761904762,0.004761904761904762,0.004761904761904762,0.004761904761904762,0.004761904761904762,0.004761904761904762,0.004761904761904762,0.004761904761904762,0.004761904761904762,0.004761904761904762,0.004761904761904762,0.004761904761904762,0.004761904761904762,0.004761904761904762,0.004761904761904762,0.004761904761904762,0.004761904761904762,0.004761904761904762,0.004761904761904762,0.004761904761904762,0.004761904761904762,0.004761904761904762,0.004761904761904762,0.004761904761904762,0.004761904761904762,0.004761904761904762,0.004761904761904762,0.004761904761904762,0.00476190476