[{"success":true,"trial_type":"fullscreen","trial_index":0,"time_elapsed":2918,"internal_node_id":"0.0-0.0","protocol_sum":"","subject_identifier":432,"subject_sum":[15,65,33,208,239,29,244,200,104,84,199,235,180,122,225,201,61,232,174,200,249,68,3,94,234,166,73,93,215,26,6,120],"subject_pair":216,"STUDY_ID":"66a22c0758a3d5c9d26873c6","PROLIFIC_PID":"66625801c143ca548bcac338","SESSION_ID":"66a370a91190dff454f174bf","practice_instructions":1,"leaderboard_instructions":0,"bonus":0,"reveal_word":false,"self_rating":"1","confidence":"100"},{"view_history":"[{\"page_index\":0,\"viewing_time\":5995.800000011921}]","rt":5996.199999988079,"trial_type":"instructions","trial_index":1,"time_elapsed":8917,"internal_node_id":"0.0-1.0","protocol_sum":"","subject_identifier":432,"subject_sum":[15,65,33,208,239,29,244,200,104,84,199,235,180,122,225,201,61,232,174,200,249,68,3,94,234,166,73,93,215,26,6,120],"subject_pair":216,"STUDY_ID":"66a22c0758a3d5c9d26873c6","PROLIFIC_PID":"66625801c143ca548bcac338","SESSION_ID":"66a370a91190dff454f174bf","practice_instructions":1,"leaderboard_instructions":0,"bonus":0,"reveal_word":false,"self_rating":"1","confidence":"100"},{"view_history":"[{\"page_index\":0,\"viewing_time\":22547}]","rt":22547.099999964237,"trial_type":"instructions","trial_index":2,"time_elapsed":31465,"internal_node_id":"0.0-2.0-0.0","protocol_sum":"","subject_identifier":432,"subject_sum":[15,65,33,208,239,29,244,200,104,84,199,235,180,122,225,201,61,232,174,200,249,68,3,94,234,166,73,93,215,26,6,120],"subject_pair":216,"STUDY_ID":"66a22c0758a3d5c9d26873c6","PROLIFIC_PID":"66625801c143ca548bcac338","SESSION_ID":"66a370a91190dff454f174bf","practice_instructions":1,"leaderboard_instructions":0,"bonus":0,"reveal_word":false,"self_rating":"1","confidence":"100"},{"rt":8908.299999952316,"responses":"{\"Q0\":\"... reveal the word with as <b>few letter guesses</b> as possible\"}","question_order":"[0]","trial_type":"survey-multi-choice","trial_index":3,"time_elapsed":40376,"internal_node_id":"0.0-2.0-1.0","protocol_sum":"","subject_identifier":432,"subject_sum":[15,65,33,208,239,29,244,200,104,84,199,235,180,122,225,201,61,232,174,200,249,68,3,94,234,166,73,93,215,26,6,120],"subject_pair":216,"correct":true,"test_part":"multichoice_nonpretend","STUDY_ID":"66a22c0758a3d5c9d26873c6","PROLIFIC_PID":"66625801c143ca548bcac338","SESSION_ID":"66a370a91190dff454f174bf","practice_instructions":1,"leaderboard_instructions":0,"bonus":0,"reveal_word":false,"self_rating":"1","confidence":"100"},{"view_history":"[{\"page_index\":0,\"viewing_time\":1599.5}]","rt":1599.9000000357628,"trial_type":"instructions","trial_index":4,"time_elapsed":41978,"internal_node_id":"0.0-3.0","protocol_sum":"","subject_identifier":432,"subject_sum":[15,65,33,208,239,29,244,200,104,84,199,235,180,122,225,201,61,232,174,200,249,68,3,94,234,166,73,93,215,26,6,120],"subject_pair":216,"STUDY_ID":"66a22c0758a3d5c9d26873c6","PROLIFIC_PID":"66625801c143ca548bcac338","SESSION_ID":"66a370a91190dff454f174bf","practice_instructions":1,"leaderboard_instructions":0,"bonus":0,"reveal_word":false,"self_rating":"1","confidence":"100"},{"word":"ZEBRA","click_log":{"letter":["","E","Z","B","R","A"],"t":[0,60690.19999998808,62259.19999998808,63906.60000002384,65654.39999997616,67038],"hit":[null,1,1,1,1,1],"asked":["","E","EZ","EZB","EZBR","EZBRA"],"word_state":["_____","_E___","ZE___","ZEB__","ZEBR_","ZEBRA"]},"hover_log":{"letter":["?","?","?","?","?","?","?","?","?","?","?","?","?","?","?","?","?","?","?","?","?","?","?","?","?","?","?","?","?","?","?","?","J","J","J","J","J","J","J","J","J","J","J","J","J","J","J","J","J","J","J","J","J","J","?","?","?","?","?","?","?","?","K","K","K","K","K","K","K","K","K","K","K","K","K","K","K","K","K","K","K","K","K","K","K","?","?","?","?","?","?","?","?","?","?","?","?","?","?","?","?","?","?","?","?","?","?","?","?","?","?","?","?","?","?","?","?","?","?","?","?","?","?","?","?","?","?","?","?","?","?","?","?","?","?","?","?","?","?","?","?","?","?","?","?","?","?","?","?","?","?","?","?","?","?","?","?","?","?","?","?","?","?","?","?","?","?","?","?","?","?","?","?","?","?","?","?","?","?","?","?","?","?","?","?","?","?","?","?","?","?","?","?","?","?","?","?","?","?","?","?","?","?","?","?","?","?","?","?","?","?","?","?","?","?","?","?","?","?","?","?","?","?","?","?","?","?","?","?","?","?","?","?","?","?","?","?","?","?","?","?","?","?","?","?","?","?","?","?","?","?","?","?","?","?","?","?","?","?","?","?","?","?","?","?","?","?","?","?","?","?","?","?","?","?","?","?","?","?","?","?","?","?","?","?","?","?","?","?","?","?","?","?","?","?","?","?","?","?","?","?","?","?","?","?","?","?","?","?","?","?","?","?","?","?","?","?","?","?","?","?","?","?","?","?","?","?","?","?","?","?","?","?","?","?","?","?","?","?","?","?","?","?","?","?","?","?","?","?","?","?","?","?","?","?","?","?","?","?","?","?","?","?","?","?","?","?","?","?","?","?","?","?","?","?","?","?","?","?","?","?","?","?","?","?","?","?","?","?","?","?","?","?","?","?","?","?","?","?","?","?","?","?","?","?","?","?","?","?","?","?","?","?","?","?","?","?","?","?","?","?","?","?","?","?","?","?","?","?","?","?","?","?","?","?","?","?","?","?","?","?","?","?","?","?","?","?","?","?","?","?","?","?","?","?","?","?","?","?","?","?","?","?","?","?","?","?","?","?","?","?","?","?","?","?","?","?","?","?","?","?","?","?","?","?","?","?","?","?","?","?","?","?","?","?","?","?","?","?","?","?","?","?","?","?","?","?","?","?","?","?","?","?","?","?","?","?","?","?","?","?","?","?","?","?","?","?","?","?","?","?","?","?","?","?","?","?","?","?","?","?","?","?","?","?","?","?","?","?","?","?","?","?","?","?","?","?","?","?","?","?","?","?","?","?","?","?","?","?","?","?","?","?","?","?","?","?","?","?","?","?","?","?","?","?","?","?","?","?","?","?","?","?","?","?","?","?","?","?","?","?","?","?","?","?","?","?","?","?","?","?","?","?","?","?","?","?","?","?","?","?","?","?","?","?","?","?","?","?","?","?","?","?","?","?","?","?","?","?","?","?","?","?","?","?","?","?","?","?","?","?","?","?","?","?","?","?","?","?","?","?","?","?","?","?","?","?","?","?","?","?","?","?","?","?","?","?","?","?","?","?","?","?","?","?","?","?","?","?","?","?","?","?","?","?","?","?","?","?","?","?","?","?","?","?","?","?","?","?","?","?","?","?","?","?","?","?","?","?","?","?","?","?","?","?","?","?","?","?","?","?","?","?","?","?","?","?","?","?","?","?","?","?","?","?","?","?","?","?","?","?","?","?","?","?","?","?","?","?","?","?","?","?","?","?","?","?","?","?","?","?","?","?","?","?","?","?","?","?","?","?","?","?","?","?","?","?","?","?","?","?","?","?","?","?","?","?","?","?","?","?","?","?","?","?","?","?","?","?","?","?","?","?","?","?","?","?","?","?","?","?","?","?","?","?","?","?","?","?","?","?","?","?","?","?","?","?","?","?","?","?","?","?","?","?","?","?","?","?","?","?","?","?","?","?","?","?","?","?","?","?","?","?","?","?","?","?","?","?","?","?","?","?","?","?","?","?","?","?","?","?","?","?","?","?","?","?","?","?","?","?","?","?","?","?","?","?","?","?","?","?","?","?","?","?","?","?","?","?","?","?","?","?","?","?","?","?","?","?","?","?","?","?","?","?","?","?","?","?","?","?","?","?","?","?","?","?","?","?","?","?","?","?","?","?","?","?","?","?","?","?","?","?","?","?","?","?","?","?","?","?","?","?","?","?","?","?","?","?","?","?","?","?","?","?","?","?","?","?","?","?","?","?","?","?","?","?","?","?","?","?","?","?","?","?","?","?","?","?","?","?","?","?","?","?","?","?","?","?","?","?","?","?","?","?","?","?","?","?","?","?","?","?","?","?","?","?","?","?","?","?","?","?","?","?","?","?","?","?","?","?","?","?","?","?","?","?","?","?","?","?","?","?","?","?","?","?","?","?","?","?","?","?","?","?","?","?","?","?","?","?","?","?","?","?","?","?","?","?","?","?","?","?","?","?","?","?","?","?","?","?","?","?","?","?","?","?","?","?","?","?","?","?","?","?","?","?","?","?","?","?","?","?","?","?","?","?","?","?","?","?","?","?","?","?","?","?","?","?","?","?","?","?","?","?","?","?","?","?","?","?","?","?","?","?","?","?","?","?","?","?","?","?","?","?","?","?","?","?","?","?","?","?","?","?","?","?","?","?","?","?","?","?","?","?","?","?","?","?","?","?","?","?","?","?","?","?","?","?","?","?","?","?","?","?","?","?","?","?","?","?","?","?","?","?","?","?","?","?","?","?","?","?","?","?","?","?","?","?","?","?","?","?","?","?","?","?","?","?","?","?","?","?","?","?","?","?","?","?","?","?","?","?","?","?","?","?","?","?","?","?","?","?","?","?","?","?","?","?","?","?","?","?","?","?","?","?","?","?","?","?","?","?","?","?","?","?","?","?","?","?","?","?","?","?","?","?","?","?","?","?","?","?","?","?","?","?","?","?","?","?","?","?","?","?","?","?","?","?","?","?","?","?","?","?","?","?","?","?","?","?","?","?","?","?","?","?","?","?","?","?","?","?","?","?","?","?","?","?","?","?","?","?","?","?","?","?","?","?","?","?","?","?","?","?","?","?","?","?","?","?","?","?","?","?","?","?","?","?","?","?","?","?","?","?","?","?","?","?","?","?","?","?","?","?","?","?","?","?","?","?","?","?","?","?","?","?","?","?","?","?","?","?","?","?","?","?","?","?","?","?","?","?","?","?","?","?","?","?","?","?","?","?","?","?","?","?","?","?","?","?","?","?","?","?","?","?","?","?","?","?","?","?","?","?","?","?","?","?","?","?","?","?","?","?","?","?","?","?","?","?","?","?","?","?","?","?","?","?","?","?","?","?","?","?","?","?","?","?","?","?","?","?","?","?","?","?","?","?","?","?","?","?","?","?","?","?","?","?","?","?","?","?","?","?","?","?","?","?","?","?","?","?","?","?","?","?","?","?","?","?","?","?","?","?","?","?","?","?","?","?","?","?","?","?","?","?","?","?","?","?","?","?","?","?","?","?","?","?","?","?","?","?","?","?","?","?","?","?","?","?","?","?","?","?","?","?","?","?","?","?","?","?","?","?","?","?","?","?","?","?","?","?","?","?","?","?","?","?","?","?","?","?","?","?","?","?","?","?","?","?","?","?","?","?","?","?","?","?","?","?","?","?","?","?","?","?","?","?","?","?","?","?","?","?","?","?","?","?","?","?","?","?","?","?","?","?","?","?","?","?","?","?","?","?","?","?","?","?","?","?","?","?","?","?","?","?","?","?","?","?","?","?","?","?","?","?","?","?","?","?","?","?","?","?","?","?","?","?","?","?","?","?","?","?","?","?","?","?","?","?","?","?","?","?","?","?","?","?","?","?","?","?","?","?","?","?","?","?","?","?","?","?","?","?","?","?","?","?","?","?","?","?","?","?","?","?","?","?","?","?","?","?","?","?","?","?","?","?","?","?","?","?","?","?","?","?","?","?","?","?","?","?","?","?","?","?","?","?","?","?","?","?","?","?","?","?","?","?","?","?","?","?","?","?","?","?","?","?","?","?","?","?","?","?","?","?","?","?","?","?","?","?","?","?","?","?","?","?","?","?","?","?","?","?","?","?","?","?","?","?","?","?","?","?","?","?","?","?","?","?","?","?","?","?","?","?","?","?","?","?","?","?","?","?","?","?","?","?","?","?","?","?","?","?","?","?","?","?","?","?","?","?","?","?","?","?","?","?","?","?","?","?","?","?","?","?","?","?","?","?","?","?","?","?","?","?","?","?","?","?","?","?","?","?","?","?","?","?","?","?","?","?","?","?","?","?","?","?","?","?","?","?","?","?","?","?","?","?","?","?","?","?","?","?","?","?","?","?","?","?","?","?","?","?","?","?","?","?","?","?","?","?","?","?","?","?","?","?","?","?","?","?","?","?","?","?","?","?","?","?","?","?","?","?","?","?","?","?","?","?","?","?","?","?","?","?","?","?","?","?","?","?","?","?","?","?","?","?","?","?","?","?","?","?","?","?","?","?","?","?","?","?","?","?","?","?","?","?","?","?","?","?","?","?","?","?","?","?","?","?","?","?","?","?","?","?","?","?","?","?","?","?","?","?","?","?","?","?","?","?","?","?","?","?","?","?","?","?","?","?","?","?","?","?","?","?","?","?","?","?","?","?","?","?","?","?","?","?","?","?","?","?","?","?","?","?","?","?","?","?","?","?","?","?","?","?","?","?","?","?","?","?","?","?","?","?","?","?","?","?","?","?","?","?","?","?","?","?","?","?","?","?","?","?","?","?","?","?","?","?","?","?","?","?","?","?","?","?","?","?","?","?","?","?","?","?","?","?","?","?","?","?","?","?","?","?","?","?","?","?","?","?","?","?","?","?","?","?","?","?","?","?","?","?","?","?","?","?","?","?","?","?","?","?","?","?","?","?","?","?","?","?","?","?","?","?","?","?","?","?","?","?","?","?","?","?","?","?","?","?","?","?","?","?","?","?","?","?","?","?","?","?","?","?","?","?","?","?","?","?","?","?","?","?","?","?","?","?","?","?","?","?","?","?","?","?","?","?","?","?","?","?","?","?","?","?","?","?","?","?","?","?","?","?","?","?","?","?","?","?","?","?","?","?","?","?","?","?","?","?","?","?","?","?","?","?","?","?","?","?","?","?","?","?","?","?","?","?","?","?","?","?","?","?","?","?","?","?","?","?","?","?","?","?","?","?","?","?","?","?","?","?","?","?","?","?","?","?","?","?","?","?","?","?","?","?","?","?","?","?","?","?","?","?","?","?","?","?","?","?","?","?","?","?","?","?","?","?","?","?","?","?","?","?","?","?","?","?","?","?","?","?","?","?","?","?","?","?","?","?","?","?","?","?","?","?","?","?","?","?","?","?","?","?","?","?","?","?","?","?","?","?","?","?","?","?","?","?","?","?","?","?","?","?","?","?","?","?","?","?","?","?","?","?","?","?","?","?","?","?","?","?","?","?","?","?","?","?","?","?","?","?","?","?","?","?","?","?","?","?","?","?","?","?","?","?","?","?","?","?","?","?","?","?","?","?","?","?","?","?","?","?","?","?","?","?","?","?","?","?","?","?","?","?","?","?","?","?","?","?","?","?","?","?","?","?","?","?","?","?","?","?","?","?","?","?","?","?","?","?","?","?","?","?","?","?","?","?","?","?","?","?","?","?","?","?","?","?","?","?","?","?","?","?","?","?","?","?","?","?","?","?","?","?","?","?","?","?","?","?","?","?","?","?","?","?","?","?","?","?","?","?","?","?","?","?","?","?","?","?","?","?","?","?","?","?","?","?","?","?","?","?","?","?","?","?","?","?","?","?","?","?","?","?","?","?","?","?","?","?","?","?","?","?","?","?","?","?","?","?","?","?","?","?","?","?","?","?","?","?","?","?","?","?","?","?","?","?","?","?","?","?","?","?","?","?","?","?","?","?","?","?","?","?","?","?","?","?","?","?","?","?","?","?","?","?","?","?","?","?","?","?","?","?","?","?","?","?","?","?","?","?","?","?","?","?","?","?","?","?","?","?","?","?","?","?","?","?","?","?","?","?","?","?","?","?","?","?","?","?","?","?","?","?","?","?","?","?","?","?","?","?","?","?","?","?","?","?","?","?","?","?","?","?","?","?","?","?","?","?","?","?","?","?","?","?","?","?","?","?","?","?","?","?","?","?","?","?","?","?","?","?","?","?","?","?","?","?","?","?","?","?","?","?","?","?","?","?","?","?","?","?","?","?","?","?","?","?","?","?","?","?","?","?","?","?","?","?","?","?","?","?","?","?","?","?","?","?","?","?","?","?","?","?","?","?","?","?","?","?","?","?","?","?","?","?","?","?","?","?","?","?","?","?","?","?","?","?","?","?","?","?","?","?","?","?","?","?","?","?","?","?","?","?","?","?","?","?","?","?","?","?","?","?","?","?","?","?","?","?","?","?","?","?","?","?","?","?","?","?","?","?","?","?","?","?","?","?","?","?","?","?","?","?","?","?","?","?","?","?","?","?","?","?","?","?","?","?","?","?","?","?","?","?","?","?","?","?","?","?","?","?","?","?","?","?","?","?","?","?","?","?","?","?","?","?","?","?","?","?","?","?","?","?","?","?","?","?","?","?","?","?","?","?","?","?","?","?","?","?","?","?","?","?","?","?","?","?","?","?","?","?","?","?","?","?","?","?","?","?","?","?","?","?","?","?","?","?","?","?","?","?","?","?","?","?","?","?","?","?","?","?","?","?","?","?","?","?","?","?","?","?","?","?","?","?","?","?","?","?","?","?","?","?","?","?","?","?","?","?","?","?","?","?","?","?","?","?","?","?","?","?","?","?","?","?","?","?","?","?","?","?","?","?","?","?","?","?","?","?","?","?","?","?","?","?","?","?","?","?","?","?","?","?","?","?","?","?","?","?","?","?","?","?","?","?","?","?","?","?","?","?","?","?","?","?","?","?","?","?","?","?","?","?","?","?","?","?","?","?","?","?","?","?","?","?","?","?","?","?","?","?","?","?","?","?","?","?","?","?","?","?","?","?","?","?","?","?","?","?","?","?","?","?","?","?","?","?","?","?","?","?","?","?","?","?","?","?","?","?","?","?","?","?","?","?","?","?","?","?","?","?","?","?","?","?","?","?","?","?","?","?","?","?","?","?","?","?","?","?","?","?","?","?","?","?","?","?","?","?","?","?","?","?","?","?","?","?","?","?","?","?","?","?","?","?","?","?","?","?","?","?","?","?","?","?","?","?","?","?","?","?","?","?","?","?","?","?","?","?","?","?","?","?","?","?","?","?","?","?","?","?","?","?","?","?","?","?","?","?","?","?","?","?","?","?","?","?","?","?","?","?","?","?","?","?","?","?","?","?","?","?","?","?","?","?","?","?","?","?","?","?","?","?","?","?","?","?","?","?","?","?","?","?","?","?","?","?","?","?","?","?","?","?","?","?","?","?","?","?","?","?","?","?","?","?","?","?","?","?","?","?","?","?","?","?","?","?","?","?","?","?","?","?","?","?","?","?","?","?","?","?","?","?","?","?","?","?","?","?","?","?","?","?","?","?","?","?","?","?","?","?","?","?","?","?","?","?","?","?","?","?","?","?","?","?","?","?","?","?","?","?","?","?","?","?","?","?","?","?","?","?","?","?","?","?","?","?","?","?","?","?","?","?","?","?","?","?","?","?","?","?","?","?","?","?","?","?","?","?","?","?","?","?","?","?","?","?","?","?","?","?","?","?","?","?","?","?","?","?","?","?","?","?","?","?","?","?","?","?","?","?","?","?","?","?","?","?","?","?","?","?","?","?","?","?","?","?","?","?","?","?","?","?","?","?","?","?","?","?","?","?","?","?","?","?","?","?","?","?","?","?","?","?","?","?","?","?","?","?","?","?","?","?","?","?","?","?","?","?","?","?","?","?","?","?","?","?","?","?","?","?","?","?","?","?","?","?","?","?","?","?","?","?","?","?","?","?","?","?","?","?","?","?","?","?","?","?","?","?","?","?","?","?","?","?","?","?","?","?","?","?","?","?","?","?","?","?","?","?","?","?","L","L","?","?","W","W","?","?","?","?","?","?","?","X","X","X","X","X","X","X","?","?","P","?","?","?","?","?","?","F","F","F","F","F","F","F","F","F","F","F","F","F","F","F","F","?","?","?","?","E","E","E","E","E","E","E","E","E","E","E","E","E","E","E","E","E","E","E","E","E","E","E","E","E","E","E","E","E","E","E","E","E","E","E","E","E","E","E","E","E","E","E","E","E","E","E","E","E","E","E","E","E","E","E","E","E","E","E","E","E","E","E","E","E","E","E","E","E","E","E","E","E","E","E","E","E","?","?","P","P","?","?","?","?","?","?","?","?","?","?","?","?","?","Z","Z","Z","Z","Z","Z","Z","Z","Z","Z","Z","Z","Z","Z","Z","Z","Z","Z","Z","Z","Z","Z","Z","Z","Z","Z","Z","Z","Z","Z","Z","Z","Z","Z","Z","Z","Z","Z","Z","Z","Z","Z","Z","Z","Z","Z","Z","Z","Z","Z","Z","Z","Z","Z","Z","Z","Z","Z","Z","Z","Z","Z","Z","Z","Z","Z","Z","Z","Z","Z","Z","Z","?","Y","?","?","?","?","N","?","?","M","M","M","M","M","M","M","M","M","M","M","M","?","?","?","?","?","?","?","?","?","B","B","B","B","B","B","B","B","B","B","B","B","B","B","B","B","B","B","B","B","B","B","B","B","B","B","B","B","B","B","B","B","B","B","B","B","B","B","B","B","B","B","B","B","B","B","B","B","B","B","B","B","B","B","B","B","B","B","B","B","B","B","C","C","?","D","D","?","?","?","?","?","?","?","?","?","?","?","?","?","?","?","?","?","?","O","O","P","P","Q","Q","Q","Q","Q","Q","Q","Q","Q","Q","Q","Q","Q","?","?","R","R","R","R","R","R","R","R","R","R","R","R","R","R","R","R","R","R","R","R","R","R","R","R","R","R","R","R","R","R","R","R","R","R","R","R","R","R","R","R","R","R","R","R","R","R","R","R","R","R","Q","?","?","?","E","?","?","?","?","?","?","?","?","?","?","?","?","?","?","?","?","?","?","?","?","?","?","?","A","A","A","A","A","A","A","A","A","A","A","A","A","A","A","A","A","A","A","A","A","A","A","A","A","A","A","A","A","A","A","A","A","A","A","A","A","A","A","A","A","A","A","A","A","A","A","A","A","A","A","A","A","A","A","A","A","A","A","A","A","A","A","A","A","A","A","A","A","A","A","A","A","A","A","A","A","A","A","A","A","A","A","A","A","A","A","A","A","A","A","A","?","?","L","?","V","?","?","?","?","?","?","?","?","?","?","?","?","?","?","?","?","?","?","?","?","?","?","?","?","?","?","?","?","?","?","?","?","?","?","?","?","?","?","?","?","?","?","?","?","?","?","?","?","?","?","?","?","?","?","?","?","?","?","?","?","?","?","?"],"t":[58,68,84,101,121,137,155,171,188,205,220,236,253,271,288,305,321,338,359,369,388,405,417,434,451,468,483,499,517,533,550,570,591,603,621,636,654,671,684,701,717,734,754,771,789,807,823,835,852,869,885,901,919,935,952,968,986,1004,1019,1035,1053,1069,1086,1101,1119,1135,1152,1170,1184,1201,1217,1234,1250,1267,1284,1300,1317,1334,1351,1367,1384,1401,1418,1434,1451,1467,1484,1501,1517,1534,1550,1568,1584,1600,1617,1634,1651,1667,1684,1700,1718,1734,1750,1768,1784,1800,1818,1834,1851,1867,1884,1901,1918,1934,1950,1967,1984,2001,2017,2034,2051,2067,2084,2100,2117,2134,2151,2167,2184,2200,2218,2235,2253,2269,2285,2302,2318,2337,2352,2372,2385,2401,2417,2437,2451,2469,2484,2499,2516,2533,2550,2567,2584,2600,2617,2634,2650,2669,2685,2702,2720,2735,2752,2769,2785,2802,2820,2837,2851,2867,2884,2900,2917,2933,2950,2967,2984,3000,3017,3034,3051,3067,3087,3102,3118,3135,3152,3169,3186,3202,3218,3236,3252,3270,3285,3302,3318,3336,3352,3370,3386,3402,3419,3435,3452,3468,3483,3502,3518,3534,3550,3566,3583,3600,3617,3634,3651,3668,3684,3703,3719,3737,3753,3769,3786,3805,3822,3834,3851,3866,3883,3900,3917,3933,3950,3967,3984,4001,4019,4034,4051,4069,4084,4101,4119,4134,4152,4169,4184,4203,4219,4234,4251,4267,4284,4300,4318,4333,4350,4367,4384,4400,4417,4433,4450,4468,4483,4500,4516,4533,4549,4567,4583,4600,4617,4633,4650,4667,4683,4700,4717,4733,4750,4767,4783,4800,4817,4833,4850,4867,4883,4900,4919,4935,4951,4969,4984,5002,5019,5035,5052,5068,5085,5102,5119,5135,5151,5169,5185,5202,5220,5236,5251,5269,5285,5301,5319,5335,5351,5370,5385,5401,5419,5435,5451,5468,5483,5501,5517,5533,5550,5566,5583,5600,5617,5634,5651,5667,5684,5701,5719,5734,5750,5767,5786,5800,5817,5833,5850,5867,5883,5900,5917,5933,5950,5967,5983,6000,6016,6035,6052,6069,6085,6102,6120,6135,6152,6168,6185,6202,6218,6235,6252,6269,6285,6302,6318,6335,6352,6370,6385,6402,6419,6435,6452,6469,6485,6501,6518,6535,6550,6566,6583,6599,6616,6633,6650,6668,6684,6701,6717,6734,6751,6768,6784,6801,6817,6834,6850,6870,6885,6902,6919,6935,6952,6970,6985,7002,7019,7035,7054,7070,7085,7101,7118,7135,7152,7169,7185,7201,7217,7234,7250,7267,7284,7302,7320,7335,7352,7369,7385,7402,7419,7435,7453,7467,7484,7500,7517,7533,7551,7567,7584,7599,7616,7633,7650,7667,7685,7702,7719,7735,7752,7769,7785,7801,7818,7835,7852,7870,7885,7902,7920,7935,7952,7969,7985,8002,8019,8035,8052,8069,8085,8101,8120,8135,8152,8169,8185,8202,8219,8235,8252,8269,8285,8302,8319,8335,8352,8370,8387,8402,8418,8435,8452,8469,8485,8502,8518,8535,8550,8567,8583,8600,8616,8633,8650,8668,8684,8700,8717,8734,8750,8767,8784,8800,8817,8834,8850,8867,8884,8900,8917,8937,8953,8969,8985,9002,9020,9035,9052,9069,9087,9103,9119,9135,9154,9170,9184,9201,9219,9235,9252,9269,9285,9302,9319,9337,9352,9368,9385,9402,9418,9435,9452,9469,9485,9502,9517,9534,9551,9567,9583,9600,9618,9632,9649,9666,9683,9700,9717,9734,9750,9767,9784,9801,9817,9834,9850,9867,9884,9900,9917,9934,9950,9967,9985,10000,10017,10034,10050,10067,10084,10101,10118,10134,10150,10169,10185,10201,10219,10235,10251,10269,10284,10301,10319,10335,10351,10369,10385,10401,10419,10435,10451,10468,10484,10501,10519,10534,10551,10568,10584,10600,10617,10634,10650,10668,10683,10700,10717,10734,10751,10769,10784,10802,10819,10834,10850,10868,10884,10900,10916,10933,10951,10969,10985,11002,11019,11035,11052,11071,11086,11102,11119,11135,11152,11169,11185,11202,11220,11237,11252,11269,11285,11302,11319,11335,11352,11370,11385,11402,11419,11435,11452,11470,11485,11503,11519,11535,11552,11570,11589,11600,11616,11633,11649,11666,11683,11701,11718,11735,11751,11768,11785,11802,11818,11834,11851,11869,11885,11902,11918,11935,11951,11969,11985,12001,12019,12035,12051,12069,12085,12101,12118,12134,12151,12169,12184,12201,12219,12235,12251,12269,12284,12300,12317,12334,12351,12367,12384,12400,12417,12434,12450,12467,12484,12500,12517,12534,12550,12567,12584,12600,12617,12634,12651,12666,12682,12700,12717,12735,12752,12768,12784,12802,12818,12834,12851,12868,12884,12901,12918,12934,12951,12967,12984,13001,13018,13034,13051,13074,13083,13100,13117,13134,13151,13168,13184,13201,13217,13235,13251,13268,13284,13301,13318,13334,13351,13367,13384,13401,13418,13434,13451,13467,13484,13501,13518,13534,13551,13568,13584,13601,13616,13633,13650,13666,13683,13700,13716,13733,13751,13768,13784,13801,13818,13835,13851,13868,13884,13901,13917,13934,13951,13968,13984,14001,14018,14034,14051,14068,14085,14101,14118,14134,14151,14168,14184,14201,14218,14234,14251,14268,14284,14301,14318,14335,14352,14370,14385,14402,14420,14435,14452,14469,14486,14502,14518,14534,14552,14568,14584,14601,14616,14633,14649,14666,14683,14700,14717,14733,14750,14766,14783,14800,14817,14834,14850,14866,14883,14900,14917,14933,14950,14966,14983,15001,15019,15034,15051,15068,15084,15101,15117,15134,15151,15167,15184,15201,15218,15234,15251,15268,15284,15301,15318,15334,15351,15368,15385,15402,15420,15435,15452,15470,15485,15502,15519,15535,15552,15570,15585,15602,15618,15633,15650,15666,15682,15700,15716,15733,15750,15768,15783,15800,15817,15834,15850,15867,15884,15899,15916,15932,15950,15966,15983,16000,16017,16033,16050,16067,16083,16100,16117,16133,16150,16166,16183,16201,16219,16234,16251,16267,16284,16301,16318,16334,16351,16369,16385,16401,16418,16434,16452,16469,16484,16501,16519,16534,16551,16569,16584,16601,16619,16635,16649,16666,16683,16699,16716,16733,16749,16766,16783,16802,16818,16835,16852,16869,16885,16902,16918,16935,16952,16970,16987,17002,17019,17035,17052,17068,17085,17102,17120,17135,17152,17169,17186,17202,17219,17235,17252,17270,17285,17302,17320,17336,17352,17369,17385,17402,17420,17435,17452,17468,17487,17505,17516,17533,17550,17567,17584,17600,17617,17634,17650,17666,17682,17700,17717,17733,17750,17767,17783,17800,17817,17834,17850,17868,17883,17900,17918,17934,17950,17968,17985,18002,18020,18035,18052,18070,18085,18102,18118,18135,18152,18168,18185,18202,18219,18235,18252,18270,18285,18301,18318,18335,18352,18368,18385,18402,18419,18435,18452,18470,18485,18502,18520,18535,18553,18568,18585,18602,18620,18637,18652,18668,18683,18699,18716,18732,18749,18766,18784,18801,18817,18834,18850,18867,18884,18900,18917,18934,18950,18967,18985,19000,19016,19033,19052,19069,19084,19101,19118,19135,19151,19168,19185,19202,19220,19233,19250,19267,19283,19302,19320,19335,19352,19370,19385,19402,19419,19435,19452,19469,19485,19502,19520,19535,19552,19568,19587,19602,19618,19634,19650,19666,19682,19700,19716,19733,19750,19766,19783,19800,19817,19833,19850,19866,19883,19900,19917,19933,19950,19967,19983,20000,20017,20033,20050,20067,20083,20100,20116,20133,20150,20166,20183,20200,20216,20234,20250,20266,20283,20300,20317,20333,20350,20366,20383,20401,20419,20438,20456,20467,20483,20500,20517,20533,20550,20567,20583,20600,20616,20634,20651,20666,20682,20699,20716,20733,20749,20768,20784,20800,20818,20834,20850,20867,20884,20900,20917,20933,20950,20966,20983,21000,21017,21034,21050,21068,21083,21100,21118,21134,21150,21168,21184,21200,21217,21233,21250,21268,21284,21300,21317,21334,21350,21366,21383,21400,21417,21434,21451,21468,21484,21501,21517,21534,21552,21568,21585,21601,21617,21634,21651,21668,21684,21699,21716,21733,21749,21766,21783,21799,21819,21835,21851,21868,21885,21902,21920,21935,21961,21983,22000,22016,22033,22050,22066,22083,22100,22116,22133,22150,22167,22183,22200,22216,22233,22250,22268,22284,22301,22318,22335,22351,22368,22384,22401,22418,22434,22451,22468,22484,22501,22518,22534,22551,22568,22584,22601,22618,22634,22654,22668,22684,22701,22716,22733,22750,22766,22782,22799,22816,22832,22849,22866,22882,22899,22916,22932,22949,22966,22982,22999,23016,23032,23049,23066,23082,23099,23116,23132,23149,23166,23182,23199,23216,23232,23249,23266,23282,23299,23316,23332,23349,23366,23382,23399,23416,23432,23449,23466,23482,23499,23516,23533,23549,23566,23582,23599,23616,23633,23649,23666,23683,23699,23716,23733,23749,23766,23782,23799,23816,23833,23850,23866,23883,23900,23916,23933,23950,23966,23983,24001,24017,24034,24050,24067,24084,24101,24117,24134,24151,24167,24184,24201,24217,24235,24252,24268,24284,24301,24318,24334,24351,24368,24384,24401,24417,24434,24451,24468,24484,24501,24517,24534,24551,24567,24584,24601,24617,24634,24651,24669,24686,24702,24717,24734,24749,24766,24783,24800,24817,24832,24849,24866,24883,24899,24916,24933,24949,24966,24982,24999,25016,25032,25049,25066,25084,25100,25117,25135,25150,25167,25184,25201,25217,25234,25250,25267,25284,25301,25317,25334,25351,25367,25384,25400,25417,25434,25451,25468,25484,25501,25517,25534,25550,25567,25584,25601,25617,25634,25651,25667,25684,25703,25717,25734,25750,25766,25782,25799,25816,25832,25849,25867,25883,25900,25917,25933,25950,25967,25984,26000,26016,26033,26049,26066,26082,26099,26116,26132,26149,26166,26183,26199,26216,26233,26249,26266,26283,26299,26316,26332,26350,26367,26384,26400,26417,26434,26450,26467,26484,26500,26517,26534,26551,26567,26584,26600,26617,26634,26650,26667,26685,26702,26718,26732,26750,26766,26782,26799,26816,26832,26849,26865,26882,26899,26915,26932,26949,26966,26982,26999,27016,27032,27049,27066,27082,27099,27116,27132,27149,27166,27182,27199,27216,27232,27249,27266,27282,27299,27316,27332,27349,27366,27382,27399,27416,27432,27449,27466,27482,27499,27516,27532,27549,27566,27582,27599,27616,27632,27649,27666,27682,27699,27715,27733,27750,27766,27782,27799,27816,27832,27849,27866,27883,27900,27916,27933,27949,27966,27983,28000,28016,28033,28049,28066,28083,28100,28116,28133,28150,28166,28183,28199,28216,28233,28250,28267,28284,28301,28317,28334,28350,28367,28384,28401,28417,28434,28450,28467,28484,28500,28517,28534,28550,28567,28584,28600,28617,28634,28650,28667,28684,28700,28717,28734,28752,28767,28784,28800,28817,28834,28850,28867,28884,28899,28915,28932,28949,28966,28983,28999,29016,29033,29049,29066,29083,29099,29116,29133,29149,29167,29183,29199,29216,29233,29249,29266,29283,29299,29316,29333,29349,29366,29383,29399,29417,29433,29449,29466,29483,29499,29516,29533,29549,29566,29583,29599,29616,29633,29649,29666,29683,29699,29716,29734,29750,29766,29783,29799,29816,29832,29849,29865,29882,29899,29916,29932,29950,29967,29984,30000,30017,30034,30050,30067,30084,30100,30117,30134,30150,30167,30184,30200,30217,30234,30250,30267,30284,30300,30317,30334,30350,30367,30384,30400,30417,30434,30450,30467,30484,30500,30517,30534,30550,30567,30584,30600,30617,30634,30650,30668,30685,30699,30716,30733,30749,30767,30782,30799,30816,30832,30849,30866,30882,30899,30916,30932,30949,30966,30982,30999,31016,31033,31049,31065,31082,31099,31115,31132,31149,31166,31182,31199,31216,31232,31249,31266,31282,31299,31316,31332,31349,31366,31382,31399,31416,31432,31449,31465,31483,31499,31516,31532,31549,31566,31582,31599,31616,31632,31649,31666,31682,31699,31716,31733,31749,31766,31782,31799,31815,31832,31849,31866,31882,31899,31916,31932,31949,31966,31982,31999,32016,32032,32049,32066,32083,32099,32116,32132,32149,32165,32182,32199,32215,32232,32249,32266,32282,32299,32316,32332,32349,32366,32382,32399,32415,32432,32449,32466,32482,32499,32515,32532,32549,32565,32582,32599,32616,32632,32649,32666,32682,32699,32715,32732,32749,32766,32782,32799,32815,32832,32849,32865,32882,32899,32916,32932,32949,32966,32982,32999,33016,33032,33049,33066,33082,33099,33116,33132,33149,33166,33182,33200,33216,33232,33249,33265,33282,33299,33316,33332,33349,33366,33382,33399,33416,33432,33449,33465,33482,33499,33515,33532,33549,33566,33582,33599,33617,33632,33649,33666,33682,33699,33715,33732,33749,33766,33782,33799,33816,33832,33849,33865,33882,33899,33915,33932,33949,33965,33982,33999,34015,34032,34049,34065,34082,34099,34116,34132,34149,34166,34182,34199,34216,34232,34249,34266,34282,34299,34316,34332,34349,34365,34382,34399,34415,34432,34449,34466,34482,34499,34515,34532,34549,34566,34582,34599,34616,34632,34649,34665,34682,34699,34716,34732,34749,34765,34782,34799,34816,34832,34849,34865,34882,34899,34916,34932,34949,34965,34982,34999,35015,35032,35049,35067,35082,35099,35116,35132,35149,35166,35182,35199,35215,35232,35249,35266,35282,35299,35316,35332,35349,35366,35382,35399,35416,35432,35449,35466,35482,35499,35515,35532,35549,35566,35582,35599,35615,35633,35651,35666,35682,35699,35715,35732,35749,35765,35783,35799,35816,35832,35849,35865,35882,35899,35915,35932,35949,35965,35982,35999,36015,36032,36049,36065,36082,36099,36115,36132,36149,36166,36182,36199,36215,36232,36249,36266,36283,36300,36316,36334,36350,36366,36383,36400,36416,36433,36450,36466,36483,36502,36516,36532,36549,36566,36582,36599,36616,36632,36649,36666,36682,36699,36716,36732,36749,36766,36782,36799,36815,36832,36848,36866,36882,36899,36915,36932,36949,36965,36982,36999,37015,37032,37050,37067,37084,37100,37119,37133,37150,37167,37185,37200,37216,37232,37249,37266,37283,37299,37317,37333,37350,37367,37384,37400,37417,37433,37450,37467,37483,37500,37517,37533,37550,37567,37584,37600,37617,37633,37652,37667,37684,37700,37717,37734,37750,37767,37786,37802,37818,37834,37850,37866,37882,37899,37915,37932,37949,37965,37982,37999,38016,38032,38049,38065,38082,38099,38115,38132,38149,38165,38182,38199,38215,38232,38249,38265,38282,38299,38316,38332,38349,38366,38383,38399,38416,38432,38449,38466,38483,38499,38516,38532,38549,38566,38583,38599,38616,38632,38649,38666,38683,38700,38717,38733,38750,38767,38784,38800,38817,38835,38850,38867,38882,38899,38916,38932,38949,38965,38983,38999,39016,39033,39049,39066,39083,39099,39116,39133,39149,39166,39183,39199,39216,39233,39249,39266,39283,39299,39316,39333,39349,39366,39383,39399,39416,39433,39449,39465,39482,39499,39515,39532,39549,39565,39582,39599,39615,39632,39649,39665,39682,39699,39716,39732,39749,39765,39782,39799,39816,39832,39849,39866,39882,39899,39915,39933,39949,39965,39982,39999,40015,40032,40049,40065,40083,40099,40115,40132,40149,40165,40182,40199,40216,40232,40249,40265,40282,40299,40315,40332,40349,40365,40382,40399,40415,40432,40449,40465,40482,40499,40515,40532,40549,40565,40582,40599,40615,40632,40649,40665,40682,40699,40715,40732,40749,40765,40783,40800,40817,40834,40852,40869,40884,40898,40915,40932,40949,40965,40982,40999,41015,41032,41049,41065,41082,41099,41115,41132,41149,41165,41182,41199,41215,41233,41249,41266,41283,41299,41316,41333,41349,41366,41383,41399,41416,41432,41449,41466,41483,41499,41516,41532,41549,41566,41583,41600,41617,41633,41650,41667,41684,41700,41717,41733,41750,41767,41784,41800,41817,41833,41852,41869,41882,41900,41916,41932,41949,41965,41982,41999,42016,42032,42049,42066,42083,42099,42116,42132,42149,42166,42183,42199,42216,42233,42249,42266,42283,42299,42316,42332,42348,42365,42382,42399,42415,42432,42449,42465,42482,42499,42515,42532,42549,42565,42582,42599,42615,42632,42649,42665,42682,42699,42715,42732,42749,42765,42782,42799,42816,42833,42851,42869,42885,42899,42915,42932,42949,42965,42982,42999,43015,43033,43049,43066,43083,43099,43116,43133,43149,43166,43183,43199,43216,43233,43249,43266,43284,43299,43317,43333,43349,43366,43383,43399,43416,43433,43449,43466,43483,43499,43516,43532,43549,43567,43584,43600,43617,43633,43650,43667,43684,43700,43717,43733,43751,43766,43782,43799,43816,43832,43849,43866,43882,43899,43916,43933,43949,43965,43982,43999,44016,44032,44049,44065,44082,44099,44116,44132,44149,44166,44182,44199,44216,44232,44249,44266,44282,44299,44316,44332,44349,44366,44382,44399,44415,44432,44449,44466,44482,44500,44517,44534,44550,44567,44583,44600,44617,44633,44650,44667,44684,44700,44717,44733,44750,44767,44784,44800,44817,44833,44850,44869,44883,44899,44915,44932,44949,44965,44982,44999,45016,45032,45049,45066,45083,45099,45116,45132,45150,45167,45184,45200,45217,45233,45250,45267,45283,45299,45316,45332,45349,45366,45383,45400,45417,45433,45450,45467,45484,45500,45517,45533,45550,45567,45583,45600,45617,45633,45650,45667,45683,45700,45717,45733,45750,45767,45783,45800,45817,45834,45850,45868,45883,45900,45917,45932,45949,45966,45982,45998,46015,46032,46049,46065,46082,46099,46115,46132,46149,46165,46182,46199,46215,46232,46249,46265,46282,46299,46315,46332,46349,46365,46382,46399,46416,46432,46449,46465,46482,46499,46515,46532,46549,46565,46582,46599,46615,46632,46649,46665,46682,46699,46715,46732,46749,46765,46782,46798,46815,46832,46849,46865,46882,46902,46917,46934,46949,46965,46982,46998,47015,47032,47049,47066,47083,47099,47116,47132,47149,47166,47183,47199,47216,47232,47249,47266,47283,47299,47316,47333,47350,47367,47384,47400,47417,47433,47452,47466,47483,47500,47517,47533,47550,47567,47583,47600,47617,47633,47650,47667,47683,47700,47717,47733,47750,47767,47784,47800,47817,47833,47850,47867,47884,47902,47918,47933,47950,47965,47982,47998,48015,48032,48049,48065,48082,48099,48116,48133,48150,48167,48184,48200,48217,48233,48250,48267,48283,48299,48316,48333,48349,48366,48383,48399,48416,48432,48449,48466,48483,48499,48516,48532,48549,48566,48582,48599,48616,48633,48650,48667,48683,48700,48717,48733,48750,48767,48784,48800,48817,48833,48850,48867,48883,48900,48918,48934,48949,48965,48982,48999,49015,49032,49049,49065,49082,49099,49115,49132,49150,49167,49183,49200,49217,49235,49251,49265,49282,49299,49315,49332,49349,49365,49382,49399,49415,49432,49449,49465,49482,49499,49515,49532,49549,49565,49582,49599,49615,49632,49649,49665,49682,49699,49715,49732,49749,49766,49782,49799,49815,49832,49849,49865,49883,49902,49916,49933,49949,49965,49982,49998,50015,50032,50048,50066,50084,50100,50117,50133,50150,50168,50184,50199,50216,50232,50249,50265,50282,50299,50315,50332,50348,50365,50382,50399,50415,50432,50449,50465,50482,50499,50515,50532,50549,50565,50582,50599,50615,50632,50648,50665,50682,50699,50715,50732,50749,50765,50782,50799,50815,50832,50849,50865,50882,50899,50916,50932,50949,50965,50982,50998,51015,51032,51049,51065,51082,51100,51117,51133,51150,51167,51183,51200,51218,51234,51250,51266,51282,51298,51315,51332,51349,51365,51382,51398,51415,51432,51448,51465,51482,51499,51516,51533,51549,51567,51583,51599,51616,51633,51649,51666,51683,51699,51716,51733,51749,51766,51783,51799,51816,51833,51849,51866,51883,51899,51916,51934,51950,51966,51983,51998,52016,52032,52049,52065,52082,52098,52115,52132,52149,52165,52182,52198,52215,52232,52248,52265,52282,52298,52315,52332,52348,52365,52382,52399,52415,52432,52449,52465,52482,52498,52515,52532,52548,52565,52582,52599,52615,52633,52650,52666,52684,52700,52718,52735,52749,52765,52782,52799,52815,52832,52849,52865,52882,52899,52916,52933,52950,52966,52983,52999,53015,53032,53048,53065,53082,53098,53115,53133,53150,53167,53183,53200,53217,53233,53250,53267,53283,53300,53317,53333,53350,53367,53383,53400,53417,53433,53450,53467,53483,53500,53517,53533,53550,53567,53583,53600,53616,53633,53650,53667,53684,53700,53717,53733,53750,53767,53783,53800,53817,53833,53850,53867,53883,53900,53917,53933,53952,53968,53985,53999,54016,54033,54050,54065,54082,54098,54115,54132,54148,54165,54183,54200,54216,54233,54250,54267,54283,54300,54317,54333,54350,54367,54383,54400,54417,54433,54450,54466,54483,54500,54516,54533,54550,54567,54583,54600,54617,54633,54650,54666,54683,54700,54717,54733,54750,54767,54783,54800,54817,54833,54850,54866,54883,54900,54918,54932,54949,54967,54983,54999,55015,55032,55048,55065,55082,55098,55115,55132,55148,55165,55182,55198,55215,55233,55250,55266,55283,55300,55316,55333,55350,55366,55383,55400,55416,55433,55450,55466,55483,55500,55516,55533,55551,55566,55582,55599,55615,55632,55649,55665,55682,55699,55716,55732,55750,55767,55783,55800,55816,55833,55850,55866,55884,55900,55917,55933,55952,55966,55983,56000,56015,56034,56049,56067,56084,56100,56117,56133,56151,56167,56183,56200,56216,56233,56250,56267,56283,56300,56317,56333,56350,56366,56383,56400,56416,56433,56449,56466,56483,56500,56517,56533,56550,56566,56583,56600,56616,56633,56650,56667,56683,56700,56716,56733,56750,56766,56783,56800,56817,56833,56850,56866,56883,56900,56916,56933,56950,56967,56983,57000,57017,57035,57049,57066,57083,57100,57116,57133,57149,57166,57184,57201,57218,57234,57251,57269,57284,57301,57318,57334,57351,57368,57384,57401,57418,57434,57451,57468,57484,57501,57518,57534,57551,57568,57584,57601,57618,57634,57651,57668,57684,57701,57718,57734,57751,57768,57785,57801,57817,57834,57851,57868,57884,57901,57918,57934,57951,57968,57985,58001,58018,58034,58050,58067,58083,58099,58116,58132,58150,58167,58184,58200,58217,58234,58250,58267,58284,58300,58317,58333,58350,58367,58383,58400,58416,58433,58450,58467,58483,58500,58516,58533,58549,58566,58583,58600,58616,58633,58650,58667,58683,58699,58716,58733,58749,58766,58785,58799,58816,58833,58850,58866,58882,58899,58916,58932,58949,58966,58984,58999,59016,59033,59049,59066,59082,59099,59116,59132,59149,59166,59183,59199,59216,59233,59249,59269,59284,59300,59317,59333,59350,59367,59383,59400,59417,59432,59449,59466,59482,59500,59517,59533,59549,59566,59583,59600,59617,59633,59651,59667,59683,59700,59717,59733,59750,59767,59784,59800,59817,59833,59851,59866,59883,59902,59915,59933,59949,59967,59983,60000,60017,60033,60050,60066,60084,60100,60116,60133,60150,60166,60183,60200,60217,60234,60250,60268,60285,60302,60318,60334,60351,60368,60385,60400,60417,60433,60450,60467,60485,60501,60518,60536,60553,60570,60587,60602,60619,60634,60651,60667,60685,60702,60717,60735,60752,60768,60784,60801,60817,60835,60851,60868,60885,60901,60917,60933,60950,60968,60985,61005,61019,61034,61051,61068,61085,61100,61117,61133,61149,61166,61183,61199,61216,61233,61249,61266,61283,61300,61316,61335,61350,61367,61383,61400,61417,61433,61450,61467,61484,61500,61516,61533,61549,61566,61583,61600,61616,61633,61650,61667,61683,61699,61716,61733,61750,61767,61783,61800,61817,61833,61850,61866,61883,61900,61917,61934,61950,61967,61983,62000,62017,62034,62050,62067,62083,62100,62117,62133,62150,62167,62183,62200,62217,62234,62250,62267,62284,62301,62317,62334,62351,62368,62384,62401,62417,62434,62451,62467,62484,62500,62517,62533,62550,62567,62584,62600,62617,62633,62650,62667,62684,62700,62717,62734,62750,62767,62783,62800,62817,62833,62850,62867,62884,62900,62917,62934,62950,62967,62983,63001,63017,63034,63051,63068,63084,63100,63117,63133,63150,63167,63184,63200,63217,63234,63250,63267,63283,63301,63317,63334,63350,63367,63383,63400,63417,63433,63450,63467,63483,63500,63517,63534,63550,63567,63583,63600,63617,63633,63650,63667,63683,63700,63717,63733,63750,63767,63784,63800,63817,63833,63850,63867,63883,63900,63917,63933,63950,63967,63983,64000,64017,64034,64050,64069,64083,64100,64117,64133,64150,64167,64183,64200,64217,64233,64250,64267,64283,64300,64317,64333,64350,64367,64384,64401,64417,64433,64450,64467,64483,64500,64517,64533,64550,64567,64584,64600,64617,64634,64650,64667,64683,64701,64717,64733,64750,64767,64783,64800,64817,64833,64850,64867,64884,64900,64917,64933,64950,64967,64983,65000,65017,65034,65050,65067,65084,65100,65117,65133,65150,65166,65184,65200,65217,65233,65250,65266,65283,65300,65317,65333,65350,65367,65383,65400,65416,65433,65450,65467,65483,65501,65516,65534,65550,65567,65583,65600,65616,65633,65650,65667,65683,65700,65717,65733,65750,65767,65783,65800,65816,65833,65850,65867,65883,65900,65916,65933,65950,65967,65983,66000,66017,66034,66050,66067,66084,66101,66117,66133,66150,66167,66183,66200,66216,66233,66250,66267,66284,66300,66317,66334,66350,66367,66384,66400,66417,66433,66450,66467,66483,66500,66517,66533,66550,66567,66583,66600,66616,66633,66650,66666,66683,66700,66717,66733,66750,66766,66783,66800,66817,66833,66850,66866,66883,66900,66916,66933,66950,66966,66983,67000,67017,67033,67051,67067,67084,67100,67116,67133,67150,67166,67184,67200,67216,67233,67250,67267,67284,67300,67316,67333,67350,67367,67383,67400,67417,67433,67450,67467,67483,67500,67517,67533,67550,67567,67584,67600,67616,67633,67650,67666,67683,67700,67716,67733,67750,67767,67783,67800,67817,67833,67850,67866,67883,67900,67917,67935,67950,67967,67984,68000,68017,68034,68050,68067,68084,68100,68117,68133,68150,68166,68183,68200,68216,68233,68250,68266,68283,68300,68317,68333,68349,68367,68383,68400,68417,68433,68450,68467,68484,68500,68517,68534,68550,68566,68583,68600,68617,68633,68650,68667,68683,68700,68716,68733,68750,68766,68784,68800,68816,68833,68850,68867,68883,68900,68917,68933,68950,68967,68983,69000,69016,69033,69051],"hit":[null],"x":[-1.6054421768707483,-1.6054421768707483,-1.6054421768707483,-1.6054421768707483,-1.6054421768707483,-1.6054421768707483,-1.6054421768707483,-1.6054421768707483,-1.6054421768707483,-1.6054421768707483,-1.6054421768707483,-1.6054421768707483,-1.6054421768707483,-1.6054421768707483,-1.6054421768707483,-1.6054421768707483,-1.6054421768707483,-1.6054421768707483,-1.6054421768707483,-1.6054421768707483,-1.6054421768707483,-1.6054421768707483,-1.6054421768707483,-1.6054421768707483,-1.6054421768707483,-1.6054421768707483,-1.6054421768707483,-1.6054421768707483,-1.6054421768707483,-1.6054421768707483,-1.6054421768707483,-1.6054421768707483,0.006802721088435374,0.013605442176870748,0.02040816326530612,0.027210884353741496,0.030612244897959183,0.034013605442176874,0.034013605442176874,0.034013605442176874,0.034013605442176874,0.034013605442176874,0.034013605442176874,0.03741496598639456,0.03741496598639456,0.04081632653061224,0.04421768707482993,0.04421768707482993,0.047619047619047616,0.047619047619047616,0.05102040816326531,0.05102040816326531,0.05442176870748299,0.05782312925170068,0.061224489795918366,0.06802721088435375,0.06802721088435375,0.06802721088435375,0.07482993197278912,0.0782312925170068,0.0782312925170068,0.08163265306122448,0.08843537414965986,0.08843537414965986,0.09183673469387756,0.09183673469387756,0.09523809523809523,0.09523809523809523,0.09523809523809523,0.09523809523809523,0.09863945578231292,0.09863945578231292,0.09863945578231292,0.10204081632653061,0.10204081632653061,0.1054421768707483,0.10884353741496598,0.10884353741496598,0.11564625850340136,0.11564625850340136,0.12585034013605442,0.1292517006802721,0.1360544217687075,0.14625850340136054,0.1564625850340136,0.16326530612244897,0.17346938775510204,0.17687074829931973,0.1836734693877551,0.1870748299319728,0.19047619047619047,0.19047619047619047,0.19047619047619047,0.19047619047619047,0.19387755102040816,0.19387755102040816,0.19387755102040816,0.19387755102040816,0.19387755102040816,0.19387755102040816,0.19387755102040816,0.19387755102040816,0.19387755102040816,0.19387755102040816,0.19387755102040816,0.19387755102040816,0.19387755102040816,0.19387755102040816,0.19387755102040816,0.19387755102040816,0.19387755102040816,0.19387755102040816,0.19387755102040816,0.19387755102040816,0.19387755102040816,0.19387755102040816,0.19387755102040816,0.19387755102040816,0.19387755102040816,0.19387755102040816,0.19387755102040816,0.19387755102040816,0.19387755102040816,0.19387755102040816,0.19387755102040816,0.19387755102040816,0.19387755102040816,0.19387755102040816,0.19387755102040816,0.19387755102040816,0.19387755102040816,0.19387755102040816,0.19387755102040816,0.19387755102040816,0.19387755102040816,0.19387755102040816,0.19387755102040816,0.19387755102040816,0.19387755102040816,0.19387755102040816,0.19387755102040816,0.19387755102040816,0.19387755102040816,0.19387755102040816,0.19387755102040816,0.19387755102040816,0.19387755102040816,0.19387755102040816,0.19387755102040816,0.19387755102040816,0.19387755102040816,0.19387755102040816,0.19387755102040816,0.19387755102040816,0.19387755102040816,0.19387755102040816,0.19387755102040816,0.19387755102040816,0.19387755102040816,0.19387755102040816,0.19387755102040816,0.19387755102040816,0.19387755102040816,0.19387755102040816,0.19387755102040816,0.19387755102040816,0.19387755102040816,0.19387755102040816,0.19387755102040816,0.19387755102040816,0.19387755102040816,0.19387755102040816,0.19387755102040816,0.19387755102040816,0.19387755102040816,0.19387755102040816,0.19387755102040816,0.19387755102040816,0.19387755102040816,0.19387755102040816,0.19387755102040816,0.19387755102040816,0.19387755102040816,0.19387755102040816,0.19387755102040816,0.19387755102040816,0.19387755102040816,0.19387755102040816,0.19387755102040816,0.19387755102040816,0.19387755102040816,0.19387755102040816,0.19387755102040816,0.19387755102040816,0.19387755102040816,0.19387755102040816,0.19387755102040816,0.19387755102040816,0.19387755102040816,0.19387755102040816,0.19387755102040816,0.19387755102040816,0.19387755102040816,0.19387755102040816,0.19387755102040816,0.19387755102040816,0.19387755102040816,0.19387755102040816,0.19387755102040816,0.19387755102040816,0.19387755102040816,0.19387755102040816,0.19387755102040816,0.19387755102040816,0.19387755102040816,0.19387755102040816,0.19387755102040816,0.19387755102040816,0.19387755102040816,0.19387755102040816,0.19387755102040816,0.19387755102040816,0.19387755102040816,0.19387755102040816,0.19387755102040816,0.19387755102040816,0.19387755102040816,0.19387755102040816,0.19387755102040816,0.19387755102040816,0.19387755102040816,0.19387755102040816,0.19387755102040816,0.19387755102040816,0.19387755102040816,0.19387755102040816,0.19387755102040816,0.19387755102040816,0.19387755102040816,0.19387755102040816,0.19387755102040816,0.19387755102040816,0.19387755102040816,0.19387755102040816,0.19387755102040816,0.19387755102040816,0.19387755102040816,0.19387755102040816,0.19387755102040816,0.19387755102040816,0.19387755102040816,0.19387755102040816,0.19387755102040816,0.19387755102040816,0.19387755102040816,0.19387755102040816,0.19387755102040816,0.19387755102040816,0.19387755102040816,0.19387755102040816,0.19387755102040816,0.19387755102040816,0.19387755102040816,0.19387755102040816,0.19387755102040816,0.19387755102040816,0.19387755102040816,0.19387755102040816,0.19387755102040816,0.19387755102040816,0.19387755102040816,0.19387755102040816,0.19387755102040816,0.19387755102040816,0.19387755102040816,0.19387755102040816,0.19387755102040816,0.19387755102040816,0.19387755102040816,0.19387755102040816,0.19387755102040816,0.19387755102040816,0.19387755102040816,0.19387755102040816,0.19387755102040816,0.19387755102040816,0.19387755102040816,0.19387755102040816,0.19387755102040816,0.19387755102040816,0.19387755102040816,0.19387755102040816,0.19387755102040816,0.19387755102040816,0.19387755102040816,0.19387755102040816,0.19387755102040816,0.19387755102040816,0.19387755102040816,0.19387755102040816,0.19387755102040816,0.19387755102040816,0.19387755102040816,0.19387755102040816,0.19387755102040816,0.19387755102040816,0.19387755102040816,0.19387755102040816,0.19387755102040816,0.19387755102040816,0.19387755102040816,0.19387755102040816,0.19387755102040816,0.19387755102040816,0.19387755102040816,0.19387755102040816,0.19387755102040816,0.19387755102040816,0.19387755102040816,0.19387755102040816,0.19387755102040816,0.19387755102040816,0.19387755102040816,0.19387755102040816,0.19387755102040816,0.19387755102040816,0.19387755102040816,0.19387755102040816,0.19387755102040816,0.19387755102040816,0.19387755102040816,0.19387755102040816,0.19387755102040816,0.19387755102040816,0.19387755102040816,0.19387755102040816,0.19387755102040816,0.19387755102040816,0.19387755102040816,0.19387755102040816,0.19387755102040816,0.19387755102040816,0.19387755102040816,0.19387755102040816,0.19387755102040816,0.19387755102040816,0.19387755102040816,0.19387755102040816,0.19387755102040816,0.19387755102040816,0.19387755102040816,0.19387755102040816,0.19387755102040816,0.19387755102040816,0.19387755102040816,0.19387755102040816,0.19387755102040816,0.19387755102040816,0.19387755102040816,0.19387755102040816,0.19387755102040816,0.19387755102040816,0.19387755102040816,0.19387755102040816,0.19387755102040816,0.19387755102040816,0.19387755102040816,0.19387755102040816,0.19387755102040816,0.19387755102040816,0.19387755102040816,0.19387755102040816,0.19387755102040816,0.19387755102040816,0.19387755102040816,0.19387755102040816,0.19387755102040816,0.19387755102040816,0.19387755102040816,0.19387755102040816,0.19387755102040816,0.19387755102040816,0.19387755102040816,0.19387755102040816,0.19387755102040816,0.19387755102040816,0.19387755102040816,0.19387755102040816,0.19387755102040816,0.19387755102040816,0.19387755102040816,0.19387755102040816,0.19387755102040816,0.19387755102040816,0.19387755102040816,0.19387755102040816,0.19387755102040816,0.19387755102040816,0.19387755102040816,0.19387755102040816,0.19387755102040816,0.19387755102040816,0.19387755102040816,0.19387755102040816,0.19387755102040816,0.19387755102040816,0.19387755102040816,0.19387755102040816,0.19387755102040816,0.19387755102040816,0.19387755102040816,0.19387755102040816,0.19387755102040816,0.19387755102040816,0.19387755102040816,0.19387755102040816,0.19387755102040816,0.19387755102040816,0.19387755102040816,0.19387755102040816,0.19387755102040816,0.19387755102040816,0.19387755102040816,0.19387755102040816,0.19387755102040816,0.19387755102040816,0.19387755102040816,0.19387755102040816,0.19387755102040816,0.19387755102040816,0.19387755102040816,0.19387755102040816,0.19387755102040816,0.19387755102040816,0.19387755102040816,0.19387755102040816,0.19387755102040816,0.19387755102040816,0.19387755102040816,0.19387755102040816,0.19387755102040816,0.19387755102040816,0.19387755102040816,0.19387755102040816,0.19387755102040816,0.19387755102040816,0.19387755102040816,0.19387755102040816,0.19387755102040816,0.19387755102040816,0.19387755102040816,0.19387755102040816,0.19387755102040816,0.19387755102040816,0.19387755102040816,0.19387755102040816,0.19387755102040816,0.19387755102040816,0.19387755102040816,0.19387755102040816,0.19387755102040816,0.19387755102040816,0.19387755102040816,0.19387755102040816,0.19387755102040816,0.19387755102040816,0.19387755102040816,0.19387755102040816,0.19387755102040816,0.19387755102040816,0.19387755102040816,0.19387755102040816,0.19387755102040816,0.19387755102040816,0.19387755102040816,0.19387755102040816,0.19387755102040816,0.19387755102040816,0.19387755102040816,0.19387755102040816,0.19387755102040816,0.19387755102040816,0.19387755102040816,0.19387755102040816,0.19387755102040816,0.19387755102040816,0.19387755102040816,0.19387755102040816,0.19387755102040816,0.19387755102040816,0.19387755102040816,0.19387755102040816,0.19387755102040816,0.19387755102040816,0.19387755102040816,0.19387755102040816,0.19387755102040816,0.19387755102040816,0.19387755102040816,0.19387755102040816,0.19387755102040816,0.19387755102040816,0.19387755102040816,0.19387755102040816,0.19387755102040816,0.19387755102040816,0.19387755102040816,0.19387755102040816,0.19387755102040816,0.19387755102040816,0.19387755102040816,0.19387755102040816,0.19387755102040816,0.19387755102040816,0.19387755102040816,0.19387755102040816,0.19387755102040816,0.19387755102040816,0.19387755102040816,0.19387755102040816,0.19387755102040816,0.19387755102040816,0.19387755102040816,0.19387755102040816,0.19387755102040816,0.19387755102040816,0.19387755102040816,0.19387755102040816,0.19387755102040816,0.19387755102040816,0.19387755102040816,0.19387755102040816,0.19387755102040816,0.19387755102040816,0.19387755102040816,0.19387755102040816,0.19387755102040816,0.19387755102040816,0.19387755102040816,0.19387755102040816,0.19387755102040816,0.19387755102040816,0.19387755102040816,0.19387755102040816,0.19387755102040816,0.19387755102040816,0.19387755102040816,0.19387755102040816,0.19387755102040816,0.19387755102040816,0.19387755102040816,0.19387755102040816,0.19387755102040816,0.19387755102040816,0.19387755102040816,0.19387755102040816,0.19387755102040816,0.19387755102040816,0.19387755102040816,0.19387755102040816,0.19387755102040816,0.19387755102040816,0.19387755102040816,0.19387755102040816,0.19387755102040816,0.19387755102040816,0.19387755102040816,0.19387755102040816,0.19387755102040816,0.19387755102040816,0.19387755102040816,0.19387755102040816,0.19387755102040816,0.19387755102040816,0.19387755102040816,0.19387755102040816,0.19387755102040816,0.19387755102040816,0.19387755102040816,0.19387755102040816,0.19387755102040816,0.19387755102040816,0.19387755102040816,0.19387755102040816,0.19387755102040816,0.19387755102040816,0.19387755102040816,0.19387755102040816,0.19387755102040816,0.19387755102040816,0.19387755102040816,0.19387755102040816,0.19387755102040816,0.19387755102040816,0.19387755102040816,0.19387755102040816,0.19387755102040816,0.19387755102040816,0.19387755102040816,0.19387755102040816,0.19387755102040816,0.19387755102040816,0.19387755102040816,0.19387755102040816,0.19387755102040816,0.19387755102040816,0.19387755102040816,0.19387755102040816,0.19387755102040816,0.19387755102040816,0.19387755102040816,0.19387755102040816,0.19387755102040816,0.19387755102040816,0.19387755102040816,0.19387755102040816,0.19387755102040816,0.19387755102040816,0.19387755102040816,0.19387755102040816,0.19387755102040816,0.19387755102040816,0.19387755102040816,0.19387755102040816,0.19387755102040816,0.19387755102040816,0.19387755102040816,0.19387755102040816,0.19387755102040816,0.19387755102040816,0.19387755102040816,0.19387755102040816,0.19387755102040816,0.19387755102040816,0.19387755102040816,0.19387755102040816,0.19387755102040816,0.19387755102040816,0.19387755102040816,0.19387755102040816,0.19387755102040816,0.19387755102040816,0.19387755102040816,0.19387755102040816,0.19387755102040816,0.19387755102040816,0.19387755102040816,0.19387755102040816,0.19387755102040816,0.19387755102040816,0.19387755102040816,0.19387755102040816,0.19387755102040816,0.19387755102040816,0.19387755102040816,0.19387755102040816,0.19387755102040816,0.19387755102040816,0.19387755102040816,0.19387755102040816,0.19387755102040816,0.19387755102040816,0.19387755102040816,0.19387755102040816,0.19387755102040816,0.19387755102040816,0.19387755102040816,0.19387755102040816,0.19387755102040816,0.19387755102040816,0.19387755102040816,0.19387755102040816,0.19387755102040816,0.19387755102040816,0.19387755102040816,0.19387755102040816,0.19387755102040816,0.19387755102040816,0.19387755102040816,0.19387755102040816,0.19387755102040816,0.19387755102040816,0.19387755102040816,0.19387755102040816,0.19387755102040816,0.19387755102040816,0.19387755102040816,0.19387755102040816,0.19387755102040816,0.19387755102040816,0.19387755102040816,0.19387755102040816,0.19387755102040816,0.19387755102040816,0.19387755102040816,0.19387755102040816,0.19387755102040816,0.19387755102040816,0.19387755102040816,0.19387755102040816,0.19387755102040816,0.19387755102040816,0.19387755102040816,0.19387755102040816,0.19387755102040816,0.19387755102040816,0.19387755102040816,0.19387755102040816,0.19387755102040816,0.19387755102040816,0.19387755102040816,0.19387755102040816,0.19387755102040816,0.19387755102040816,0.19387755102040816,0.19387755102040816,0.19387755102040816,0.19387755102040816,0.19387755102040816,0.19387755102040816,0.19387755102040816,0.19387755102040816,0.19387755102040816,0.19387755102040816,0.19387755102040816,0.19387755102040816,0.19387755102040816,0.19387755102040816,0.19387755102040816,0.19387755102040816,0.19387755102040816,0.19387755102040816,0.19387755102040816,0.19387755102040816,0.19387755102040816,0.19387755102040816,0.19387755102040816,0.19387755102040816,0.19387755102040816,0.19387755102040816,0.19387755102040816,0.19387755102040816,0.19387755102040816,0.19387755102040816,0.19387755102040816,0.19387755102040816,0.19387755102040816,0.19387755102040816,0.19387755102040816,0.19387755102040816,0.19387755102040816,0.19387755102040816,0.19387755102040816,0.19387755102040816,0.19387755102040816,0.19387755102040816,0.19387755102040816,0.19387755102040816,0.19387755102040816,0.19387755102040816,0.19387755102040816,0.19387755102040816,0.19387755102040816,0.19387755102040816,0.19387755102040816,0.19387755102040816,0.19387755102040816,0.19387755102040816,0.19387755102040816,0.19387755102040816,0.19387755102040816,0.19387755102040816,0.19387755102040816,0.19387755102040816,0.19387755102040816,0.19387755102040816,0.19387755102040816,0.19387755102040816,0.19387755102040816,0.19387755102040816,0.19387755102040816,0.19387755102040816,0.19387755102040816,0.19387755102040816,0.19387755102040816,0.19387755102040816,0.19387755102040816,0.19387755102040816,0.19387755102040816,0.19387755102040816,0.19387755102040816,0.19387755102040816,0.19387755102040816,0.19387755102040816,0.19387755102040816,0.19387755102040816,0.19387755102040816,0.19387755102040816,0.19387755102040816,0.19387755102040816,0.19387755102040816,0.19387755102040816,0.19387755102040816,0.19387755102040816,0.19387755102040816,0.19387755102040816,0.19387755102040816,0.19387755102040816,0.19387755102040816,0.19387755102040816,0.19387755102040816,0.19387755102040816,0.19387755102040816,0.19387755102040816,0.19387755102040816,0.19387755102040816,0.19387755102040816,0.19387755102040816,0.19387755102040816,0.19387755102040816,0.19387755102040816,0.19387755102040816,0.19387755102040816,0.19387755102040816,0.19387755102040816,0.19387755102040816,0.19387755102040816,0.19387755102040816,0.19387755102040816,0.19387755102040816,0.19387755102040816,0.19387755102040816,0.19387755102040816,0.19387755102040816,0.19387755102040816,0.19387755102040816,0.19387755102040816,0.19387755102040816,0.19387755102040816,0.19387755102040816,0.19387755102040816,0.19387755102040816,0.19387755102040816,0.19387755102040816,0.19387755102040816,0.19387755102040816,0.19387755102040816,0.19387755102040816,0.19387755102040816,0.19387755102040816,0.19387755102040816,0.19387755102040816,0.19387755102040816,0.19387755102040816,0.19387755102040816,0.19387755102040816,0.19387755102040816,0.19387755102040816,0.19387755102040816,0.19387755102040816,0.19387755102040816,0.19387755102040816,0.19387755102040816,0.19387755102040816,0.19387755102040816,0.19387755102040816,0.19387755102040816,0.19387755102040816,0.19387755102040816,0.19387755102040816,0.19387755102040816,0.19387755102040816,0.19387755102040816,0.19387755102040816,0.19387755102040816,0.19387755102040816,0.19387755102040816,0.19387755102040816,0.19387755102040816,0.19387755102040816,0.19387755102040816,0.19387755102040816,0.19387755102040816,0.19387755102040816,0.19387755102040816,0.19387755102040816,0.19387755102040816,0.19387755102040816,0.19387755102040816,0.19387755102040816,0.19387755102040816,0.19387755102040816,0.19387755102040816,0.19387755102040816,0.19387755102040816,0.19387755102040816,0.19387755102040816,0.19387755102040816,0.19387755102040816,0.19387755102040816,0.19387755102040816,0.19387755102040816,0.19387755102040816,0.19387755102040816,0.19387755102040816,0.19387755102040816,0.19387755102040816,0.19387755102040816,0.19387755102040816,0.19387755102040816,0.19387755102040816,0.19387755102040816,0.19387755102040816,0.19387755102040816,0.19387755102040816,0.19387755102040816,0.19387755102040816,0.19387755102040816,0.19387755102040816,0.19387755102040816,0.19387755102040816,0.19387755102040816,0.19387755102040816,0.19387755102040816,0.19387755102040816,0.19387755102040816,0.19387755102040816,0.19387755102040816,0.19387755102040816,0.19387755102040816,0.19387755102040816,0.19387755102040816,0.19387755102040816,0.19387755102040816,0.19387755102040816,0.19387755102040816,0.19387755102040816,0.19387755102040816,0.19387755102040816,0.19387755102040816,0.19387755102040816,0.19387755102040816,0.19387755102040816,0.19387755102040816,0.19387755102040816,0.19387755102040816,0.19387755102040816,0.19387755102040816,0.19387755102040816,0.19387755102040816,0.19387755102040816,0.19387755102040816,0.19387755102040816,0.19387755102040816,0.19387755102040816,0.19387755102040816,0.19387755102040816,0.19387755102040816,0.19387755102040816,0.19387755102040816,0.19387755102040816,0.19387755102040816,0.19387755102040816,0.19387755102040816,0.19387755102040816,0.19387755102040816,0.19387755102040816,0.19387755102040816,0.19387755102040816,0.19387755102040816,0.19387755102040816,0.19387755102040816,0.19387755102040816,0.19387755102040816,0.19387755102040816,0.19387755102040816,0.19387755102040816,0.19387755102040816,0.19387755102040816,0.19387755102040816,0.19387755102040816,0.19387755102040816,0.19387755102040816,0.19387755102040816,0.19387755102040816,0.19387755102040816,0.19387755102040816,0.19387755102040816,0.19387755102040816,0.19387755102040816,0.19387755102040816,0.19387755102040816,0.19387755102040816,0.19387755102040816,0.19387755102040816,0.19387755102040816,0.19387755102040816,0.19387755102040816,0.19387755102040816,0.19387755102040816,0.19387755102040816,0.19387755102040816,0.19387755102040816,0.19387755102040816,0.19387755102040816,0.19387755102040816,0.19387755102040816,0.19387755102040816,0.19387755102040816,0.19387755102040816,0.19387755102040816,0.19387755102040816,0.19387755102040816,0.19387755102040816,0.19387755102040816,0.19387755102040816,0.19387755102040816,0.19387755102040816,0.19387755102040816,0.19387755102040816,0.19387755102040816,0.19387755102040816,0.19387755102040816,0.19387755102040816,0.19387755102040816,0.19387755102040816,0.19387755102040816,0.19387755102040816,0.19387755102040816,0.19387755102040816,0.19387755102040816,0.19387755102040816,0.19387755102040816,0.19387755102040816,0.19387755102040816,0.19387755102040816,0.19387755102040816,0.19387755102040816,0.19387755102040816,0.19387755102040816,0.19387755102040816,0.19387755102040816,0.19387755102040816,0.19387755102040816,0.19387755102040816,0.19387755102040816,0.19387755102040816,0.19387755102040816,0.19387755102040816,0.19387755102040816,0.19387755102040816,0.19387755102040816,0.19387755102040816,0.19387755102040816,0.19387755102040816,0.19387755102040816,0.19387755102040816,0.19387755102040816,0.19387755102040816,0.19387755102040816,0.19387755102040816,0.19387755102040816,0.19387755102040816,0.19387755102040816,0.19387755102040816,0.19387755102040816,0.19387755102040816,0.19387755102040816,0.19387755102040816,0.19387755102040816,0.19387755102040816,0.19387755102040816,0.19387755102040816,0.19387755102040816,0.19387755102040816,0.19387755102040816,0.19387755102040816,0.19387755102040816,0.19387755102040816,0.19387755102040816,0.19387755102040816,0.19387755102040816,0.19387755102040816,0.19387755102040816,0.19387755102040816,0.19387755102040816,0.19387755102040816,0.19387755102040816,0.19387755102040816,0.19387755102040816,0.19387755102040816,0.19387755102040816,0.19387755102040816,0.19387755102040816,0.19387755102040816,0.19387755102040816,0.19387755102040816,0.19387755102040816,0.19387755102040816,0.19387755102040816,0.19387755102040816,0.19387755102040816,0.19387755102040816,0.19387755102040816,0.19387755102040816,0.19387755102040816,0.19387755102040816,0.19387755102040816,0.19387755102040816,0.19387755102040816,0.19387755102040816,0.19387755102040816,0.19387755102040816,0.19387755102040816,0.19387755102040816,0.19387755102040816,0.19387755102040816,0.19387755102040816,0.19387755102040816,0.19387755102040816,0.19387755102040816,0.19387755102040816,0.19387755102040816,0.19387755102040816,0.19387755102040816,0.19387755102040816,0.19387755102040816,0.19387755102040816,0.19387755102040816,0.19387755102040816,0.19387755102040816,0.19387755102040816,0.19387755102040816,0.19387755102040816,0.19387755102040816,0.19387755102040816,0.19387755102040816,0.19387755102040816,0.19387755102040816,0.19387755102040816,0.19387755102040816,0.19387755102040816,0.19387755102040816,0.19387755102040816,0.19387755102040816,0.19387755102040816,0.19387755102040816,0.19387755102040816,0.19387755102040816,0.19387755102040816,0.19387755102040816,0.19387755102040816,0.19387755102040816,0.19387755102040816,0.19387755102040816,0.19387755102040816,0.19387755102040816,0.19387755102040816,0.19387755102040816,0.19387755102040816,0.19387755102040816,0.19387755102040816,0.19387755102040816,0.19387755102040816,0.19387755102040816,0.19387755102040816,0.19387755102040816,0.19387755102040816,0.19387755102040816,0.19387755102040816,0.19387755102040816,0.19387755102040816,0.19387755102040816,0.19387755102040816,0.19387755102040816,0.19387755102040816,0.19387755102040816,0.19387755102040816,0.19387755102040816,0.19387755102040816,0.19387755102040816,0.19387755102040816,0.19387755102040816,0.19387755102040816,0.19387755102040816,0.19387755102040816,0.19387755102040816,0.19387755102040816,0.19387755102040816,0.19387755102040816,0.19387755102040816,0.19387755102040816,0.19387755102040816,0.19387755102040816,0.19387755102040816,0.19387755102040816,0.19387755102040816,0.19387755102040816,0.19387755102040816,0.19387755102040816,0.19387755102040816,0.19387755102040816,0.19387755102040816,0.19387755102040816,0.19387755102040816,0.19387755102040816,0.19387755102040816,0.19387755102040816,0.19387755102040816,0.19387755102040816,0.19387755102040816,0.19387755102040816,0.19387755102040816,0.19387755102040816,0.19387755102040816,0.19387755102040816,0.19387755102040816,0.19387755102040816,0.19387755102040816,0.19387755102040816,0.19387755102040816,0.19387755102040816,0.19387755102040816,0.19387755102040816,0.19387755102040816,0.19387755102040816,0.19387755102040816,0.19387755102040816,0.19387755102040816,0.19387755102040816,0.19387755102040816,0.19387755102040816,0.19387755102040816,0.19387755102040816,0.19387755102040816,0.19387755102040816,0.19387755102040816,0.19387755102040816,0.19387755102040816,0.19387755102040816,0.19387755102040816,0.19387755102040816,0.19387755102040816,0.19387755102040816,0.19387755102040816,0.19387755102040816,0.19387755102040816,0.19387755102040816,0.19387755102040816,0.19387755102040816,0.19387755102040816,0.19387755102040816,0.19387755102040816,0.19387755102040816,0.19387755102040816,0.19387755102040816,0.19387755102040816,0.19387755102040816,0.19387755102040816,0.19387755102040816,0.19387755102040816,0.19387755102040816,0.19387755102040816,0.19387755102040816,0.19387755102040816,0.19387755102040816,0.19387755102040816,0.19387755102040816,0.19387755102040816,0.19387755102040816,0.19387755102040816,0.19387755102040816,0.19387755102040816,0.19387755102040816,0.19387755102040816,0.19387755102040816,0.19387755102040816,0.19387755102040816,0.19387755102040816,0.19387755102040816,0.19387755102040816,0.19387755102040816,0.19387755102040816,0.19387755102040816,0.19387755102040816,0.19387755102040816,0.19387755102040816,0.19387755102040816,0.19387755102040816,0.19387755102040816,0.19387755102040816,0.19387755102040816,0.19387755102040816,0.19387755102040816,0.19387755102040816,0.19387755102040816,0.19387755102040816,0.19387755102040816,0.19387755102040816,0.19387755102040816,0.19387755102040816,0.19387755102040816,0.19387755102040816,0.19387755102040816,0.19387755102040816,0.19387755102040816,0.19387755102040816,0.19387755102040816,0.19387755102040816,0.19387755102040816,0.19387755102040816,0.19387755102040816,0.19387755102040816,0.19387755102040816,0.19387755102040816,0.19387755102040816,0.19387755102040816,0.19387755102040816,0.19387755102040816,0.19387755102040816,0.19387755102040816,0.19387755102040816,0.19387755102040816,0.19387755102040816,0.19387755102040816,0.19387755102040816,0.19387755102040816,0.19387755102040816,0.19387755102040816,0.19387755102040816,0.19387755102040816,0.19387755102040816,0.19387755102040816,0.19387755102040816,0.19387755102040816,0.19387755102040816,0.19387755102040816,0.19387755102040816,0.19387755102040816,0.19387755102040816,0.19387755102040816,0.19387755102040816,0.19387755102040816,0.19387755102040816,0.19387755102040816,0.19387755102040816,0.19387755102040816,0.19387755102040816,0.19387755102040816,0.19387755102040816,0.19387755102040816,0.19387755102040816,0.19387755102040816,0.19387755102040816,0.19387755102040816,0.19387755102040816,0.19387755102040816,0.19387755102040816,0.19387755102040816,0.19387755102040816,0.19387755102040816,0.19387755102040816,0.19387755102040816,0.19387755102040816,0.19387755102040816,0.19387755102040816,0.19387755102040816,0.19387755102040816,0.19387755102040816,0.19387755102040816,0.19387755102040816,0.19387755102040816,0.19387755102040816,0.19387755102040816,0.19387755102040816,0.19387755102040816,0.19387755102040816,0.19387755102040816,0.19387755102040816,0.19387755102040816,0.19387755102040816,0.19387755102040816,0.19387755102040816,0.19387755102040816,0.19387755102040816,0.19387755102040816,0.19387755102040816,0.19387755102040816,0.19387755102040816,0.19387755102040816,0.19387755102040816,0.19387755102040816,0.19387755102040816,0.19387755102040816,0.19387755102040816,0.19387755102040816,0.19387755102040816,0.19387755102040816,0.19387755102040816,0.19387755102040816,0.19387755102040816,0.19387755102040816,0.19387755102040816,0.19387755102040816,0.19387755102040816,0.19387755102040816,0.19387755102040816,0.19387755102040816,0.19387755102040816,0.19387755102040816,0.19387755102040816,0.19387755102040816,0.19387755102040816,0.19387755102040816,0.19387755102040816,0.19387755102040816,0.19387755102040816,0.19387755102040816,0.19387755102040816,0.19387755102040816,0.19387755102040816,0.19387755102040816,0.19387755102040816,0.19387755102040816,0.19387755102040816,0.19387755102040816,0.19387755102040816,0.19387755102040816,0.19387755102040816,0.19387755102040816,0.19387755102040816,0.19387755102040816,0.19387755102040816,0.19387755102040816,0.19387755102040816,0.19387755102040816,0.19387755102040816,0.19387755102040816,0.19387755102040816,0.19387755102040816,0.19387755102040816,0.19387755102040816,0.19387755102040816,0.19387755102040816,0.19387755102040816,0.19387755102040816,0.19387755102040816,0.19387755102040816,0.19387755102040816,0.19387755102040816,0.19387755102040816,0.19387755102040816,0.19387755102040816,0.19387755102040816,0.19387755102040816,0.19387755102040816,0.19387755102040816,0.19387755102040816,0.19387755102040816,0.19387755102040816,0.19387755102040816,0.19387755102040816,0.19387755102040816,0.19387755102040816,0.19387755102040816,0.19387755102040816,0.19387755102040816,0.19387755102040816,0.19387755102040816,0.19387755102040816,0.19387755102040816,0.19387755102040816,0.19387755102040816,0.19387755102040816,0.19387755102040816,0.19387755102040816,0.19387755102040816,0.19387755102040816,0.19387755102040816,0.19387755102040816,0.19387755102040816,0.19387755102040816,0.19387755102040816,0.19387755102040816,0.19387755102040816,0.19387755102040816,0.19387755102040816,0.19387755102040816,0.19387755102040816,0.19387755102040816,0.19387755102040816,0.19387755102040816,0.19387755102040816,0.19387755102040816,0.19387755102040816,0.19387755102040816,0.19387755102040816,0.19387755102040816,0.19387755102040816,0.19387755102040816,0.19387755102040816,0.19387755102040816,0.19387755102040816,0.19387755102040816,0.19387755102040816,0.19387755102040816,0.19387755102040816,0.19387755102040816,0.19387755102040816,0.19387755102040816,0.19387755102040816,0.19387755102040816,0.19387755102040816,0.19387755102040816,0.19387755102040816,0.19387755102040816,0.19387755102040816,0.19387755102040816,0.19387755102040816,0.19387755102040816,0.19387755102040816,0.19387755102040816,0.19387755102040816,0.19387755102040816,0.19387755102040816,0.19387755102040816,0.19387755102040816,0.19387755102040816,0.19387755102040816,0.19387755102040816,0.19387755102040816,0.19387755102040816,0.19387755102040816,0.19387755102040816,0.19387755102040816,0.19387755102040816,0.19387755102040816,0.19387755102040816,0.19387755102040816,0.19387755102040816,0.19387755102040816,0.19387755102040816,0.19387755102040816,0.19387755102040816,0.19387755102040816,0.19387755102040816,0.19387755102040816,0.19387755102040816,0.19387755102040816,0.19387755102040816,0.19387755102040816,0.19387755102040816,0.19387755102040816,0.19387755102040816,0.19387755102040816,0.19387755102040816,0.19387755102040816,0.19387755102040816,0.19387755102040816,0.19387755102040816,0.19387755102040816,0.19387755102040816,0.19387755102040816,0.19387755102040816,0.19387755102040816,0.19387755102040816,0.19387755102040816,0.19387755102040816,0.19387755102040816,0.19387755102040816,0.19387755102040816,0.19387755102040816,0.19387755102040816,0.19387755102040816,0.19387755102040816,0.19387755102040816,0.19387755102040816,0.19387755102040816,0.19387755102040816,0.19387755102040816,0.19387755102040816,0.19387755102040816,0.19387755102040816,0.19387755102040816,0.19387755102040816,0.19387755102040816,0.19387755102040816,0.19387755102040816,0.19387755102040816,0.19387755102040816,0.19387755102040816,0.19387755102040816,0.19387755102040816,0.19387755102040816,0.19387755102040816,0.19387755102040816,0.19387755102040816,0.19387755102040816,0.19387755102040816,0.19387755102040816,0.19387755102040816,0.19387755102040816,0.19387755102040816,0.19387755102040816,0.19387755102040816,0.19387755102040816,0.19387755102040816,0.19387755102040816,0.19387755102040816,0.19387755102040816,0.19387755102040816,0.19387755102040816,0.19387755102040816,0.19387755102040816,0.19387755102040816,0.19387755102040816,0.19387755102040816,0.19387755102040816,0.19387755102040816,0.19387755102040816,0.19387755102040816,0.19387755102040816,0.19387755102040816,0.19387755102040816,0.19387755102040816,0.19387755102040816,0.19387755102040816,0.19387755102040816,0.19387755102040816,0.19387755102040816,0.19387755102040816,0.19387755102040816,0.19387755102040816,0.19387755102040816,0.19387755102040816,0.19387755102040816,0.19387755102040816,0.19387755102040816,0.19387755102040816,0.19387755102040816,0.19387755102040816,0.19387755102040816,0.19387755102040816,0.19387755102040816,0.19387755102040816,0.19387755102040816,0.19387755102040816,0.19387755102040816,0.19387755102040816,0.19387755102040816,0.19387755102040816,0.19387755102040816,0.19387755102040816,0.19387755102040816,0.19387755102040816,0.19387755102040816,0.19387755102040816,0.19387755102040816,0.19387755102040816,0.19387755102040816,0.19387755102040816,0.19387755102040816,0.19387755102040816,0.19387755102040816,0.19387755102040816,0.19387755102040816,0.19387755102040816,0.19387755102040816,0.19387755102040816,0.19387755102040816,0.19387755102040816,0.19387755102040816,0.19387755102040816,0.19387755102040816,0.19387755102040816,0.19387755102040816,0.19387755102040816,0.19387755102040816,0.19387755102040816,0.19387755102040816,0.19387755102040816,0.19387755102040816,0.19387755102040816,0.19387755102040816,0.19387755102040816,0.19387755102040816,0.19387755102040816,0.19387755102040816,0.19387755102040816,0.19387755102040816,0.19387755102040816,0.19387755102040816,0.19387755102040816,0.19387755102040816,0.19387755102040816,0.19387755102040816,0.19387755102040816,0.19387755102040816,0.19387755102040816,0.19387755102040816,0.19387755102040816,0.19387755102040816,0.19387755102040816,0.19387755102040816,0.19387755102040816,0.19387755102040816,0.19387755102040816,0.19387755102040816,0.19387755102040816,0.19387755102040816,0.19387755102040816,0.19387755102040816,0.19387755102040816,0.19387755102040816,0.19387755102040816,0.19387755102040816,0.19387755102040816,0.19387755102040816,0.19387755102040816,0.19387755102040816,0.19387755102040816,0.19387755102040816,0.19387755102040816,0.19387755102040816,0.19387755102040816,0.19387755102040816,0.19387755102040816,0.19387755102040816,0.19387755102040816,0.19387755102040816,0.19387755102040816,0.19387755102040816,0.19387755102040816,0.19387755102040816,0.19387755102040816,0.19387755102040816,0.19387755102040816,0.19387755102040816,0.19387755102040816,0.19387755102040816,0.19387755102040816,0.19387755102040816,0.19387755102040816,0.19387755102040816,0.19387755102040816,0.19387755102040816,0.19387755102040816,0.19387755102040816,0.19387755102040816,0.19387755102040816,0.19387755102040816,0.19387755102040816,0.19387755102040816,0.19387755102040816,0.19387755102040816,0.19387755102040816,0.19387755102040816,0.19387755102040816,0.19387755102040816,0.19387755102040816,0.19387755102040816,0.19387755102040816,0.19387755102040816,0.19387755102040816,0.19387755102040816,0.19387755102040816,0.19387755102040816,0.19387755102040816,0.19387755102040816,0.19387755102040816,0.19387755102040816,0.19387755102040816,0.19387755102040816,0.19387755102040816,0.19387755102040816,0.19387755102040816,0.19387755102040816,0.19387755102040816,0.19387755102040816,0.19387755102040816,0.19387755102040816,0.19387755102040816,0.19387755102040816,0.19387755102040816,0.19387755102040816,0.19387755102040816,0.19387755102040816,0.19387755102040816,0.19387755102040816,0.19387755102040816,0.19387755102040816,0.19387755102040816,0.19387755102040816,0.19387755102040816,0.19387755102040816,0.19387755102040816,0.19387755102040816,0.19387755102040816,0.19387755102040816,0.19387755102040816,0.19387755102040816,0.19387755102040816,0.19387755102040816,0.19387755102040816,0.19387755102040816,0.19387755102040816,0.19387755102040816,0.19387755102040816,0.19387755102040816,0.19387755102040816,0.19387755102040816,0.19387755102040816,0.19387755102040816,0.19387755102040816,0.19387755102040816,0.19387755102040816,0.19387755102040816,0.19387755102040816,0.19387755102040816,0.19387755102040816,0.19387755102040816,0.19387755102040816,0.19387755102040816,0.19387755102040816,0.19387755102040816,0.19387755102040816,0.19387755102040816,0.19387755102040816,0.19387755102040816,0.19387755102040816,0.19387755102040816,0.19387755102040816,0.19387755102040816,0.19387755102040816,0.19387755102040816,0.19387755102040816,0.19387755102040816,0.19387755102040816,0.19387755102040816,0.19387755102040816,0.19387755102040816,0.19387755102040816,0.19387755102040816,0.19387755102040816,0.19387755102040816,0.19387755102040816,0.19387755102040816,0.19387755102040816,0.19387755102040816,0.19387755102040816,0.19387755102040816,0.19387755102040816,0.19387755102040816,0.19387755102040816,0.19387755102040816,0.19387755102040816,0.19387755102040816,0.19387755102040816,0.19387755102040816,0.19387755102040816,0.19387755102040816,0.19387755102040816,0.19387755102040816,0.19387755102040816,0.19387755102040816,0.19387755102040816,0.19387755102040816,0.19387755102040816,0.19387755102040816,0.19387755102040816,0.19387755102040816,0.19387755102040816,0.19387755102040816,0.19387755102040816,0.19387755102040816,0.19387755102040816,0.19387755102040816,0.19387755102040816,0.19387755102040816,0.19387755102040816,0.19387755102040816,0.19387755102040816,0.19387755102040816,0.19387755102040816,0.19387755102040816,0.19387755102040816,0.19387755102040816,0.19387755102040816,0.19387755102040816,0.19387755102040816,0.19387755102040816,0.19387755102040816,0.19387755102040816,0.19387755102040816,0.19387755102040816,0.19387755102040816,0.19387755102040816,0.19387755102040816,0.19387755102040816,0.19387755102040816,0.19387755102040816,0.19387755102040816,0.19387755102040816,0.19387755102040816,0.19387755102040816,0.19387755102040816,0.19387755102040816,0.19387755102040816,0.19387755102040816,0.19387755102040816,0.19387755102040816,0.19387755102040816,0.19387755102040816,0.19387755102040816,0.19387755102040816,0.19387755102040816,0.19387755102040816,0.19387755102040816,0.19387755102040816,0.19387755102040816,0.19387755102040816,0.19387755102040816,0.19387755102040816,0.19387755102040816,0.19387755102040816,0.19387755102040816,0.19387755102040816,0.19387755102040816,0.19387755102040816,0.19387755102040816,0.19387755102040816,0.19387755102040816,0.19387755102040816,0.19387755102040816,0.19387755102040816,0.19387755102040816,0.19387755102040816,0.19387755102040816,0.19387755102040816,0.19387755102040816,0.19387755102040816,0.19387755102040816,0.19387755102040816,0.19387755102040816,0.19387755102040816,0.19387755102040816,0.19387755102040816,0.19387755102040816,0.19387755102040816,0.19387755102040816,0.19387755102040816,0.19387755102040816,0.19387755102040816,0.19387755102040816,0.19387755102040816,0.19387755102040816,0.19387755102040816,0.19387755102040816,0.19387755102040816,0.19387755102040816,0.19387755102040816,0.19387755102040816,0.19387755102040816,0.19387755102040816,0.19387755102040816,0.19387755102040816,0.19387755102040816,0.19387755102040816,0.19387755102040816,0.19387755102040816,0.19387755102040816,0.19387755102040816,0.19387755102040816,0.19387755102040816,0.19387755102040816,0.19387755102040816,0.19387755102040816,0.19387755102040816,0.19387755102040816,0.19387755102040816,0.19387755102040816,0.19387755102040816,0.19387755102040816,0.19387755102040816,0.19387755102040816,0.19387755102040816,0.19387755102040816,0.19387755102040816,0.19387755102040816,0.19387755102040816,0.19387755102040816,0.19387755102040816,0.19387755102040816,0.19387755102040816,0.19387755102040816,0.19387755102040816,0.19387755102040816,0.19387755102040816,0.19387755102040816,0.19387755102040816,0.19387755102040816,0.19387755102040816,0.19387755102040816,0.19387755102040816,0.19387755102040816,0.19387755102040816,0.19387755102040816,0.19387755102040816,0.19387755102040816,0.19387755102040816,0.19387755102040816,0.19387755102040816,0.19387755102040816,0.19387755102040816,0.19387755102040816,0.19387755102040816,0.19387755102040816,0.19387755102040816,0.19387755102040816,0.19387755102040816,0.19387755102040816,0.19387755102040816,0.19387755102040816,0.19387755102040816,0.19387755102040816,0.19387755102040816,0.19387755102040816,0.19387755102040816,0.19387755102040816,0.19387755102040816,0.19387755102040816,0.19387755102040816,0.19387755102040816,0.19387755102040816,0.19387755102040816,0.19387755102040816,0.19387755102040816,0.19387755102040816,0.19387755102040816,0.19387755102040816,0.19387755102040816,0.19387755102040816,0.19387755102040816,0.19387755102040816,0.19387755102040816,0.19387755102040816,0.19387755102040816,0.19387755102040816,0.19387755102040816,0.19387755102040816,0.19387755102040816,0.19387755102040816,0.19387755102040816,0.19387755102040816,0.19387755102040816,0.19387755102040816,0.19387755102040816,0.19387755102040816,0.19387755102040816,0.19387755102040816,0.19387755102040816,0.19387755102040816,0.19387755102040816,0.19387755102040816,0.19387755102040816,0.19387755102040816,0.19387755102040816,0.19387755102040816,0.19387755102040816,0.19387755102040816,0.19387755102040816,0.19387755102040816,0.19387755102040816,0.19387755102040816,0.19387755102040816,0.19387755102040816,0.19387755102040816,0.19387755102040816,0.19387755102040816,0.19387755102040816,0.19387755102040816,0.19387755102040816,0.19387755102040816,0.19387755102040816,0.19387755102040816,0.19387755102040816,0.19387755102040816,0.19387755102040816,0.19387755102040816,0.19387755102040816,0.19387755102040816,0.19387755102040816,0.19387755102040816,0.19387755102040816,0.19387755102040816,0.19387755102040816,0.19387755102040816,0.19387755102040816,0.19387755102040816,0.19387755102040816,0.19387755102040816,0.19387755102040816,0.19387755102040816,0.19387755102040816,0.19387755102040816,0.19387755102040816,0.19387755102040816,0.19387755102040816,0.19387755102040816,0.19387755102040816,0.19387755102040816,0.19387755102040816,0.19387755102040816,0.19387755102040816,0.19387755102040816,0.19387755102040816,0.19387755102040816,0.19387755102040816,0.19387755102040816,0.19387755102040816,0.19387755102040816,0.19387755102040816,0.19387755102040816,0.19387755102040816,0.19387755102040816,0.19387755102040816,0.19387755102040816,0.19387755102040816,0.19387755102040816,0.19387755102040816,0.19387755102040816,0.19387755102040816,0.19387755102040816,0.19387755102040816,0.19387755102040816,0.19387755102040816,0.19387755102040816,0.19387755102040816,0.19387755102040816,0.19387755102040816,0.19387755102040816,0.19387755102040816,0.19387755102040816,0.19387755102040816,0.19387755102040816,0.19387755102040816,0.19387755102040816,0.19387755102040816,0.19387755102040816,0.19387755102040816,0.19387755102040816,0.19387755102040816,0.19387755102040816,0.19387755102040816,0.19387755102040816,0.19387755102040816,0.19387755102040816,0.19387755102040816,0.19387755102040816,0.19387755102040816,0.19387755102040816,0.19387755102040816,0.19387755102040816,0.19387755102040816,0.19387755102040816,0.19387755102040816,0.19387755102040816,0.19387755102040816,0.19387755102040816,0.19387755102040816,0.19387755102040816,0.19387755102040816,0.19387755102040816,0.19387755102040816,0.19387755102040816,0.19387755102040816,0.19387755102040816,0.19387755102040816,0.19387755102040816,0.19387755102040816,0.19387755102040816,0.19387755102040816,0.19387755102040816,0.19387755102040816,0.19387755102040816,0.19387755102040816,0.19387755102040816,0.19387755102040816,0.19387755102040816,0.19387755102040816,0.19387755102040816,0.19387755102040816,0.19387755102040816,0.19387755102040816,0.19387755102040816,0.19387755102040816,0.19387755102040816,0.19387755102040816,0.19387755102040816,0.19387755102040816,0.19387755102040816,0.19387755102040816,0.19387755102040816,0.19387755102040816,0.19387755102040816,0.19387755102040816,0.19387755102040816,0.19387755102040816,0.19387755102040816,0.19387755102040816,0.19387755102040816,0.19387755102040816,0.19387755102040816,0.19387755102040816,0.19387755102040816,0.19387755102040816,0.19387755102040816,0.19387755102040816,0.19387755102040816,0.19387755102040816,0.19387755102040816,0.19387755102040816,0.19387755102040816,0.19387755102040816,0.19387755102040816,0.19387755102040816,0.19387755102040816,0.19387755102040816,0.19387755102040816,0.19387755102040816,0.19387755102040816,0.19387755102040816,0.19387755102040816,0.19387755102040816,0.19387755102040816,0.19387755102040816,0.19387755102040816,0.19387755102040816,0.19387755102040816,0.19387755102040816,0.19387755102040816,0.19387755102040816,0.19387755102040816,0.19387755102040816,0.19387755102040816,0.19387755102040816,0.19387755102040816,0.19387755102040816,0.19387755102040816,0.19387755102040816,0.19387755102040816,0.19387755102040816,0.19387755102040816,0.19387755102040816,0.19387755102040816,0.19387755102040816,0.19387755102040816,0.19387755102040816,0.19387755102040816,0.19387755102040816,0.19387755102040816,0.19387755102040816,0.19387755102040816,0.19387755102040816,0.19387755102040816,0.19387755102040816,0.19387755102040816,0.19387755102040816,0.19387755102040816,0.19387755102040816,0.19387755102040816,0.19387755102040816,0.19387755102040816,0.19387755102040816,0.19387755102040816,0.19387755102040816,0.19387755102040816,0.19387755102040816,0.19387755102040816,0.19387755102040816,0.19387755102040816,0.19387755102040816,0.19387755102040816,0.19387755102040816,0.19387755102040816,0.19387755102040816,0.19387755102040816,0.19387755102040816,0.19387755102040816,0.19387755102040816,0.19387755102040816,0.19387755102040816,0.19387755102040816,0.19387755102040816,0.19387755102040816,0.19387755102040816,0.19387755102040816,0.19387755102040816,0.19387755102040816,0.19387755102040816,0.19387755102040816,0.19387755102040816,0.19387755102040816,0.19387755102040816,0.19387755102040816,0.19387755102040816,0.19387755102040816,0.19387755102040816,0.19387755102040816,0.19387755102040816,0.19387755102040816,0.19387755102040816,0.19387755102040816,0.19387755102040816,0.19387755102040816,0.19387755102040816,0.19387755102040816,0.19387755102040816,0.19387755102040816,0.19387755102040816,0.19387755102040816,0.19387755102040816,0.19387755102040816,0.19387755102040816,0.19387755102040816,0.19387755102040816,0.19387755102040816,0.19387755102040816,0.19387755102040816,0.19387755102040816,0.19387755102040816,0.19387755102040816,0.19387755102040816,0.19387755102040816,0.19387755102040816,0.19387755102040816,0.19387755102040816,0.19387755102040816,0.19387755102040816,0.19387755102040816,0.19387755102040816,0.19387755102040816,0.19387755102040816,0.19387755102040816,0.19387755102040816,0.19387755102040816,0.19387755102040816,0.19387755102040816,0.19387755102040816,0.19387755102040816,0.19387755102040816,0.19387755102040816,0.19387755102040816,0.19387755102040816,0.19387755102040816,0.19387755102040816,0.19387755102040816,0.19387755102040816,0.19387755102040816,0.19387755102040816,0.19387755102040816,0.19387755102040816,0.19387755102040816,0.19387755102040816,0.19387755102040816,0.19387755102040816,0.19387755102040816,0.19387755102040816,0.19387755102040816,0.19387755102040816,0.19387755102040816,0.19387755102040816,0.19387755102040816,0.19387755102040816,0.19387755102040816,0.19387755102040816,0.19387755102040816,0.19387755102040816,0.19387755102040816,0.19387755102040816,0.19387755102040816,0.19387755102040816,0.19387755102040816,0.19387755102040816,0.19387755102040816,0.19387755102040816,0.19387755102040816,0.19387755102040816,0.19387755102040816,0.19387755102040816,0.19387755102040816,0.19387755102040816,0.19387755102040816,0.19387755102040816,0.19387755102040816,0.19387755102040816,0.19387755102040816,0.19387755102040816,0.19387755102040816,0.19387755102040816,0.19387755102040816,0.19387755102040816,0.19387755102040816,0.19387755102040816,0.19387755102040816,0.19387755102040816,0.19387755102040816,0.19387755102040816,0.19387755102040816,0.19387755102040816,0.19387755102040816,0.19387755102040816,0.19387755102040816,0.19387755102040816,0.19387755102040816,0.19387755102040816,0.19387755102040816,0.19387755102040816,0.19387755102040816,0.19387755102040816,0.19387755102040816,0.19387755102040816,0.19387755102040816,0.19387755102040816,0.19387755102040816,0.19387755102040816,0.19387755102040816,0.19387755102040816,0.19387755102040816,0.19387755102040816,0.19387755102040816,0.19387755102040816,0.19387755102040816,0.19387755102040816,0.19387755102040816,0.19387755102040816,0.19387755102040816,0.19387755102040816,0.19387755102040816,0.19387755102040816,0.19387755102040816,0.19387755102040816,0.19387755102040816,0.19387755102040816,0.19387755102040816,0.19387755102040816,0.19387755102040816,0.19387755102040816,0.19387755102040816,0.19387755102040816,0.19387755102040816,0.19387755102040816,0.19387755102040816,0.19387755102040816,0.19387755102040816,0.19387755102040816,0.19387755102040816,0.19387755102040816,0.19387755102040816,0.19387755102040816,0.19387755102040816,0.19387755102040816,0.19387755102040816,0.19387755102040816,0.19387755102040816,0.19387755102040816,0.19387755102040816,0.19387755102040816,0.19387755102040816,0.19387755102040816,0.19387755102040816,0.19387755102040816,0.19387755102040816,0.19387755102040816,0.19387755102040816,0.19387755102040816,0.19387755102040816,0.19387755102040816,0.19387755102040816,0.19387755102040816,0.19387755102040816,0.19387755102040816,0.19387755102040816,0.19387755102040816,0.19387755102040816,0.19387755102040816,0.19387755102040816,0.19387755102040816,0.19387755102040816,0.19387755102040816,0.19387755102040816,0.19387755102040816,0.19387755102040816,0.19387755102040816,0.19387755102040816,0.19387755102040816,0.19387755102040816,0.19387755102040816,0.19387755102040816,0.19387755102040816,0.19387755102040816,0.19387755102040816,0.19387755102040816,0.19387755102040816,0.19387755102040816,0.19387755102040816,0.19387755102040816,0.19387755102040816,0.19387755102040816,0.19387755102040816,0.19387755102040816,0.19387755102040816,0.19387755102040816,0.19387755102040816,0.19387755102040816,0.19387755102040816,0.19387755102040816,0.19387755102040816,0.19387755102040816,0.19387755102040816,0.19387755102040816,0.19387755102040816,0.19387755102040816,0.19387755102040816,0.19387755102040816,0.19387755102040816,0.19387755102040816,0.19387755102040816,0.19387755102040816,0.19387755102040816,0.19387755102040816,0.19387755102040816,0.19387755102040816,0.19387755102040816,0.19387755102040816,0.19387755102040816,0.19387755102040816,0.19387755102040816,0.19387755102040816,0.19387755102040816,0.19387755102040816,0.19387755102040816,0.19387755102040816,0.19387755102040816,0.19387755102040816,0.19387755102040816,0.19387755102040816,0.19387755102040816,0.19387755102040816,0.19387755102040816,0.19387755102040816,0.19387755102040816,0.19387755102040816,0.19387755102040816,0.19387755102040816,0.19387755102040816,0.19387755102040816,0.19387755102040816,0.19387755102040816,0.19387755102040816,0.19387755102040816,0.19387755102040816,0.19387755102040816,0.19387755102040816,0.19387755102040816,0.19387755102040816,0.19387755102040816,0.19387755102040816,0.19387755102040816,0.19387755102040816,0.19387755102040816,0.19387755102040816,0.19387755102040816,0.19387755102040816,0.19387755102040816,0.19387755102040816,0.19387755102040816,0.19387755102040816,0.19387755102040816,0.19387755102040816,0.19387755102040816,0.19387755102040816,0.19387755102040816,0.19387755102040816,0.19387755102040816,0.19387755102040816,0.19387755102040816,0.19387755102040816,0.19387755102040816,0.19387755102040816,0.19387755102040816,0.19387755102040816,0.19387755102040816,0.19387755102040816,0.19387755102040816,0.19387755102040816,0.19387755102040816,0.19387755102040816,0.19387755102040816,0.19387755102040816,0.19387755102040816,0.19387755102040816,0.19387755102040816,0.19387755102040816,0.19387755102040816,0.19387755102040816,0.19387755102040816,0.19387755102040816,0.19387755102040816,0.19387755102040816,0.19387755102040816,0.19387755102040816,0.19387755102040816,0.19387755102040816,0.19387755102040816,0.19387755102040816,0.19387755102040816,0.19387755102040816,0.19387755102040816,0.19387755102040816,0.19387755102040816,0.19387755102040816,0.19387755102040816,0.19387755102040816,0.19387755102040816,0.19387755102040816,0.19387755102040816,0.19387755102040816,0.19387755102040816,0.19387755102040816,0.19387755102040816,0.19387755102040816,0.19387755102040816,0.19387755102040816,0.19387755102040816,0.19387755102040816,0.19387755102040816,0.19387755102040816,0.19387755102040816,0.19387755102040816,0.19387755102040816,0.19387755102040816,0.19387755102040816,0.19387755102040816,0.19387755102040816,0.19387755102040816,0.19387755102040816,0.19387755102040816,0.19387755102040816,0.19387755102040816,0.19387755102040816,0.19387755102040816,0.19387755102040816,0.19387755102040816,0.19387755102040816,0.19387755102040816,0.19387755102040816,0.19387755102040816,0.19387755102040816,0.19387755102040816,0.19387755102040816,0.19387755102040816,0.19387755102040816,0.19387755102040816,0.19387755102040816,0.19387755102040816,0.19387755102040816,0.19387755102040816,0.19387755102040816,0.19387755102040816,0.19387755102040816,0.19387755102040816,0.19387755102040816,0.19387755102040816,0.19387755102040816,0.19387755102040816,0.19387755102040816,0.19387755102040816,0.19387755102040816,0.19387755102040816,0.19387755102040816,0.19387755102040816,0.19387755102040816,0.19387755102040816,0.19387755102040816,0.19387755102040816,0.19387755102040816,0.19387755102040816,0.19387755102040816,0.19387755102040816,0.19387755102040816,0.19387755102040816,0.19387755102040816,0.19387755102040816,0.19387755102040816,0.19387755102040816,0.19387755102040816,0.19387755102040816,0.19387755102040816,0.19387755102040816,0.19387755102040816,0.19387755102040816,0.19387755102040816,0.19387755102040816,0.19387755102040816,0.19387755102040816,0.19387755102040816,0.19387755102040816,0.19387755102040816,0.19387755102040816,0.19387755102040816,0.19387755102040816,0.19387755102040816,0.19387755102040816,0.19387755102040816,0.19387755102040816,0.19387755102040816,0.19387755102040816,0.19387755102040816,0.19387755102040816,0.19387755102040816,0.19387755102040816,0.19387755102040816,0.19387755102040816,0.19387755102040816,0.19387755102040816,0.19387755102040816,0.19387755102040816,0.19387755102040816,0.19387755102040816,0.19387755102040816,0.19387755102040816,0.19387755102040816,0.19387755102040816,0.19387755102040816,0.19387755102040816,0.19387755102040816,0.19387755102040816,0.19387755102040816,0.19387755102040816,0.19387755102040816,0.19387755102040816,0.19387755102040816,0.19387755102040816,0.19387755102040816,0.19387755102040816,0.19387755102040816,0.19387755102040816,0.19387755102040816,0.19387755102040816,0.19387755102040816,0.19387755102040816,0.19387755102040816,0.19387755102040816,0.19387755102040816,0.19387755102040816,0.19387755102040816,0.19387755102040816,0.19387755102040816,0.19387755102040816,0.19387755102040816,0.19387755102040816,0.19387755102040816,0.19387755102040816,0.19387755102040816,0.19387755102040816,0.19387755102040816,0.19387755102040816,0.19387755102040816,0.19387755102040816,0.19387755102040816,0.19387755102040816,0.19387755102040816,0.19387755102040816,0.19387755102040816,0.19387755102040816,0.19387755102040816,0.19387755102040816,0.19387755102040816,0.19387755102040816,0.19387755102040816,0.19387755102040816,0.19387755102040816,0.19387755102040816,0.19387755102040816,0.19387755102040816,0.19387755102040816,0.19387755102040816,0.19387755102040816,0.1938775510204