success,trial_type,trial_index,time_elapsed,internal_node_id,protocol_sum,subject_identifier,subject_sum,subject_pair,STUDY_ID,PROLIFIC_PID,SESSION_ID,practice_instructions,leaderboard_instructions,bonus,reveal_word,self_rating,confidence,view_history,rt,responses,question_order,correct,test_part,word,click_log,final_keyboard_state,num_clicks,points,cheat,response,position_RT,position,player,i_game,true_position,distance,last_word,stimulus,confidence_slider_self_response
1.0,fullscreen,0,4490,0.0-0.0,,311,"[33, 14, 59, 22, 12, 53, 88, 24, 80, 148, 37, 185, 217, 233, 253, 62, 162, 226, 135, 242, 196, 58, 19, 229, 190, 136, 23, 20, 13, 176, 185, 230]",155,66a0b3911f23dfc7665bb169,6135e00cdb42bb8c6bc32b71,66a123f03968ebe6916716b3,1,0,0,True,6,72,,,,,,,,,,,,,,,,,,,,,,
,instructions,1,9533,0.0-1.0,,311,"[33, 14, 59, 22, 12, 53, 88, 24, 80, 148, 37, 185, 217, 233, 253, 62, 162, 226, 135, 242, 196, 58, 19, 229, 190, 136, 23, 20, 13, 176, 185, 230]",155,66a0b3911f23dfc7665bb169,6135e00cdb42bb8c6bc32b71,66a123f03968ebe6916716b3,1,0,0,True,6,72,"[{""page_index"":0,""viewing_time"":5040.5}]",5040.900000095367,,,,,,,,,,,,,,,,,,,,
,instructions,2,57321,0.0-2.0-0.0,,311,"[33, 14, 59, 22, 12, 53, 88, 24, 80, 148, 37, 185, 217, 233, 253, 62, 162, 226, 135, 242, 196, 58, 19, 229, 190, 136, 23, 20, 13, 176, 185, 230]",155,66a0b3911f23dfc7665bb169,6135e00cdb42bb8c6bc32b71,66a123f03968ebe6916716b3,1,0,0,True,6,72,"[{""page_index"":0,""viewing_time"":47786.39999985695}]",47786.699999809265,,,,,,,,,,,,,,,,,,,,
,survey-multi-choice,3,67024,0.0-2.0-1.0,,311,"[33, 14, 59, 22, 12, 53, 88, 24, 80, 148, 37, 185, 217, 233, 253, 62, 162, 226, 135, 242, 196, 58, 19, 229, 190, 136, 23, 20, 13, 176, 185, 230]",155,66a0b3911f23dfc7665bb169,6135e00cdb42bb8c6bc32b71,66a123f03968ebe6916716b3,1,0,0,True,6,72,,9700.0,"{""Q0"":""... reveal the word with as <b>few letter guesses</b> as possible""}",[0],1.0,multichoice_nonpretend,,,,,,,,,,,,,,,,
,instructions,4,68388,0.0-3.0,,311,"[33, 14, 59, 22, 12, 53, 88, 24, 80, 148, 37, 185, 217, 233, 253, 62, 162, 226, 135, 242, 196, 58, 19, 229, 190, 136, 23, 20, 13, 176, 185, 230]",155,66a0b3911f23dfc7665bb169,6135e00cdb42bb8c6bc32b71,66a123f03968ebe6916716b3,1,0,0,True,6,72,"[{""page_index"":0,""viewing_time"":1361}]",1361.2999999523163,,,,,,,,,,,,,,,,,,,,
,Hangman,5,188235,0.0-4.0,,311,"[33, 14, 59, 22, 12, 53, 88, 24, 80, 148, 37, 185, 217, 233, 253, 62, 162, 226, 135, 242, 196, 58, 19, 229, 190, 136, 23, 20, 13, 176, 185, 230]",155,66a0b3911f23dfc7665bb169,6135e00cdb42bb8c6bc32b71,66a123f03968ebe6916716b3,1,0,0,True,6,72,,,,,,,ZEBRA,"{'letter': ['', 'H', 'I', 'O', 'U', 'E', 'A', 'S', 'R', 'T', 'K', 'L', 'M', 'N', 'B', 'Z'], 't': [0, 9454.899999856949, 17094.799999952316, 19086.89999985695, 20690.5, 22276.699999809265, 31201.299999952316, 61013.5, 69501.39999985695, 83666.89999985695, 111101.89999985695, 112214.89999985695, 113212.79999995232, 114190.29999995232, 115307.89999985695, 117821.69999980927], 'hit': [None, 0, 0, 0, 0, 1, 1, 0, 1, 0, 0, 0, 0, 0, 1, 1], 'asked': ['', 'H', 'HI', 'HIO', 'HIOU', 'HIOUE', 'HIOUEA', 'HIOUEAS', 'HIOUEASR', 'HIOUEASRT', 'HIOUEASRTK', 'HIOUEASRTKL', 'HIOUEASRTKLM', 'HIOUEASRTKLMN', 'HIOUEASRTKLMNB', 'HIOUEASRTKLMNBZ'], 'word_state': ['_____', '_____', '_____', '_____', '_____', '_E___', '_E__A', '_E__A', '_E_RA', '_E_RA', '_E_RA', '_E_RA', '_E_RA', '_E_RA', '_EBRA', 'ZEBRA']}","['H', 'I', 'O', 'U', 'E', 'A', 'S', 'R', 'T', 'K', 'L', 'M', 'N', 'B', 'Z']",15.0,5.0,0.0,,,,,,,,,,
,instructions,6,215141,0.0-5.0,,311,"[33, 14, 59, 22, 12, 53, 88, 24, 80, 148, 37, 185, 217, 233, 253, 62, 162, 226, 135, 242, 196, 58, 19, 229, 190, 136, 23, 20, 13, 176, 185, 230]",155,66a0b3911f23dfc7665bb169,6135e00cdb42bb8c6bc32b71,66a123f03968ebe6916716b3,1,0,0,True,6,72,"[{""page_index"":0,""viewing_time"":6418.700000047684},{""page_index"":1,""viewing_time"":20483.299999952316}]",26903.300000190735,,,,,,,,,,,,,,,,,,,,
,survey-multi-choice,7,220416,0.0-6.0,,311,"[33, 14, 59, 22, 12, 53, 88, 24, 80, 148, 37, 185, 217, 233, 253, 62, 162, 226, 135, 242, 196, 58, 19, 229, 190, 136, 23, 20, 13, 176, 185, 230]",155,66a0b3911f23dfc7665bb169,6135e00cdb42bb8c6bc32b71,66a123f03968ebe6916716b3,1,0,0,True,6,72,,5262.799999952316,"{""Q0"":""...from <b>a previous session</b> that is part of the upcoming tournament.""}",[0],0.0,multichoice_leaderboard,,,,,,,,,,,,,,,,
,instructions,8,221927,0.0-7.0-0.0,,311,"[33, 14, 59, 22, 12, 53, 88, 24, 80, 148, 37, 185, 217, 233, 253, 62, 162, 226, 135, 242, 196, 58, 19, 229, 190, 136, 23, 20, 13, 176, 185, 230]",155,66a0b3911f23dfc7665bb169,6135e00cdb42bb8c6bc32b71,66a123f03968ebe6916716b3,1,0,0,True,6,72,"[{""page_index"":0,""viewing_time"":1506.4000000953674}]",1506.7000000476837,,,,,,,,,,,,,,,,,,,,
,survey-multi-choice,9,230527,0.0-7.0-1.0,,311,"[33, 14, 59, 22, 12, 53, 88, 24, 80, 148, 37, 185, 217, 233, 253, 62, 162, 226, 135, 242, 196, 58, 19, 229, 190, 136, 23, 20, 13, 176, 185, 230]",155,66a0b3911f23dfc7665bb169,6135e00cdb42bb8c6bc32b71,66a123f03968ebe6916716b3,1,0,0,True,6,72,,8598.5,"{""Q0"":""...from <b>a previous session</b> that is not part of the upcoming tournament.""}",[0],1.0,multichoice_leaderboard,,,,,,,,,,,,,,,,
,instructions,10,259943,0.0-8.0,,311,"[33, 14, 59, 22, 12, 53, 88, 24, 80, 148, 37, 185, 217, 233, 253, 62, 162, 226, 135, 242, 196, 58, 19, 229, 190, 136, 23, 20, 13, 176, 185, 230]",155,66a0b3911f23dfc7665bb169,6135e00cdb42bb8c6bc32b71,66a123f03968ebe6916716b3,1,0,0,True,6,72,"[{""page_index"":0,""viewing_time"":29412.400000095367}]",29412.5,,,,,,,,,,,,,,,,,,,,
,survey-multi-choice,11,267544,0.0-9.0,,311,"[33, 14, 59, 22, 12, 53, 88, 24, 80, 148, 37, 185, 217, 233, 253, 62, 162, 226, 135, 242, 196, 58, 19, 229, 190, 136, 23, 20, 13, 176, 185, 230]",155,66a0b3911f23dfc7665bb169,6135e00cdb42bb8c6bc32b71,66a123f03968ebe6916716b3,1,0,0,True,6,72,,7600.100000143051,"{""Q0"":""...players' leaderboard position (in terms of <b>points</b>) in an <b>upcoming tournament.</b>""}",[0],1.0,multichoice_tournament,,,,,,,,,,,,,,,,
,instructions,12,290819,0.0-11.0,,311,"[33, 14, 59, 22, 12, 53, 88, 24, 80, 148, 37, 185, 217, 233, 253, 62, 162, 226, 135, 242, 196, 58, 19, 229, 190, 136, 23, 20, 13, 176, 185, 230]",155,66a0b3911f23dfc7665bb169,6135e00cdb42bb8c6bc32b71,66a123f03968ebe6916716b3,1,0,0,True,6,72,"[{""page_index"":0,""viewing_time"":23272.700000047684}]",23273.099999904633,,,,,,,,,,,,,,,,,,,,
,instructions,13,315800,0.0-12.0-0.0,,311,"[33, 14, 59, 22, 12, 53, 88, 24, 80, 148, 37, 185, 217, 233, 253, 62, 162, 226, 135, 242, 196, 58, 19, 229, 190, 136, 23, 20, 13, 176, 185, 230]",155,66a0b3911f23dfc7665bb169,6135e00cdb42bb8c6bc32b71,66a123f03968ebe6916716b3,1,0,0,True,6,72,"[{""page_index"":0,""viewing_time"":24979.5}]",24979.799999952316,,,,,,,,,,,,,,,,,,,,
,type-this,14,324581,0.0-12.0-1.0,,311,"[33, 14, 59, 22, 12, 53, 88, 24, 80, 148, 37, 185, 217, 233, 253, 62, 162, 226, 135, 242, 196, 58, 19, 229, 190, 136, 23, 20, 13, 176, 185, 230]",155,66a0b3911f23dfc7665bb169,6135e00cdb42bb8c6bc32b71,66a123f03968ebe6916716b3,1,0,0,True,6,72,,8245.100000143051,['HAWAII'],,,,,,,,,,HAWAII,,,,,,,,,
,Hangman_replay,15,371985,0.0-12.0-2.0,,311,"[33, 14, 59, 22, 12, 53, 88, 24, 80, 148, 37, 185, 217, 233, 253, 62, 162, 226, 135, 242, 196, 58, 19, 229, 190, 136, 23, 20, 13, 176, 185, 230]",155,66a0b3911f23dfc7665bb169,6135e00cdb42bb8c6bc32b71,66a123f03968ebe6916716b3,1,0,0,True,6,72,,,,,,,HAWAII,"{'letter': ['', 'R', 'O', 'E', 'A', 'M', 'N', 'K', 'S', 'T', 'Y', 'H', 'W', 'I'], 't': [0, 5571.200000047684, 7387, 9337.099999904633, 11087.099999904633, 17903.599999904633, 18953.299999952316, 27120.599999904633, 33437.200000047684, 37052.799999952316, 39419.59999990463, 41302.700000047684, 43636.299999952316, 45369.799999952316], 'hit': [None, 0, 0, 0, 2, 0, 0, 0, 0, 0, 0, 1, 1, 2], 'asked': ['', 'R', 'RO', 'ROE', 'ROEA', 'ROEAM', 'ROEAMN', 'ROEAMNK', 'ROEAMNKS', 'ROEAMNKST', 'ROEAMNKSTY', 'ROEAMNKSTYH', 'ROEAMNKSTYHW', 'ROEAMNKSTYHWI'], 'word_state': ['______', '______', '______', '______', '_A_A__', '_A_A__', '_A_A__', '_A_A__', '_A_A__', '_A_A__', '_A_A__', 'HA_A__', 'HAWA__', 'HAWAII']}","['R', 'O', 'E', 'A', 'M', 'N', 'K', 'S', 'T', 'Y', 'H', 'W', 'I']",13.0,6.0,0.0,,,,,,,,,,
,instructions,16,376765,0.0-12.0-3.0,,311,"[33, 14, 59, 22, 12, 53, 88, 24, 80, 148, 37, 185, 217, 233, 253, 62, 162, 226, 135, 242, 196, 58, 19, 229, 190, 136, 23, 20, 13, 176, 185, 230]",155,66a0b3911f23dfc7665bb169,6135e00cdb42bb8c6bc32b71,66a123f03968ebe6916716b3,1,0,0,True,6,72,"[{""page_index"":0,""viewing_time"":4777.5}]",4778.5,,,,,,,,,,,,,,,,,,,,
,Guess_leaderboard,17,390263,0.0-12.0-4.0,,311,"[33, 14, 59, 22, 12, 53, 88, 24, 80, 148, 37, 185, 217, 233, 253, 62, 162, 226, 135, 242, 196, 58, 19, 229, 190, 136, 23, 20, 13, 176, 185, 230]",155,66a0b3911f23dfc7665bb169,6135e00cdb42bb8c6bc32b71,66a123f03968ebe6916716b3,1,0,0,True,6,72,,,,,,,HAWAII,,,,,,,12730.699999809265,46.0,18.0,0.0,73.0,27.0,,,
,instructions,18,403708,0.0-12.0-0.1,,311,"[33, 14, 59, 22, 12, 53, 88, 24, 80, 148, 37, 185, 217, 233, 253, 62, 162, 226, 135, 242, 196, 58, 19, 229, 190, 136, 23, 20, 13, 176, 185, 230]",155,66a0b3911f23dfc7665bb169,6135e00cdb42bb8c6bc32b71,66a123f03968ebe6916716b3,1,0,0,True,6,72,"[{""page_index"":0,""viewing_time"":13442.799999952316}]",13443.100000143051,,,,,,,,,,,,,,,,,,,,
,type-this,19,410334,0.0-12.0-1.1,,311,"[33, 14, 59, 22, 12, 53, 88, 24, 80, 148, 37, 185, 217, 233, 253, 62, 162, 226, 135, 242, 196, 58, 19, 229, 190, 136, 23, 20, 13, 176, 185, 230]",155,66a0b3911f23dfc7665bb169,6135e00cdb42bb8c6bc32b71,66a123f03968ebe6916716b3,1,0,0,True,6,72,,6119.5,['THIRTY FOUR'],,,,,,,,,,THIRTY FOUR,,,,,,,,,
,Hangman_replay,20,428568,0.0-12.0-2.1,,311,"[33, 14, 59, 22, 12, 53, 88, 24, 80, 148, 37, 185, 217, 233, 253, 62, 162, 226, 135, 242, 196, 58, 19, 229, 190, 136, 23, 20, 13, 176, 185, 230]",155,66a0b3911f23dfc7665bb169,6135e00cdb42bb8c6bc32b71,66a123f03968ebe6916716b3,1,0,0,True,6,72,,,,,,,THIRTY FOUR,"{'letter': ['', 'T', 'I', 'R', 'Y', 'O', 'U', 'F', 'H'], 't': [0, 3305.2999999523163, 6705, 8338.299999952316, 9621.599999904633, 11288, 12388.299999952316, 14071.399999856949, 16204.799999952316], 'hit': [None, 2, 1, 2, 1, 1, 1, 1, 1], 'asked': ['', 'T', 'TI', 'TIR', 'TIRY', 'TIRYO', 'TIRYOU', 'TIRYOUF', 'TIRYOUFH'], 'word_state': ['______ ____', 'T___T_ ____', 'T_I_T_ ____', 'T_IRT_ ___R', 'T_IRTY ___R', 'T_IRTY _O_R', 'T_IRTY _OUR', 'T_IRTY FOUR', 'THIRTY FOUR']}","['T', 'I', 'R', 'Y', 'O', 'U', 'F', 'H']",8.0,15.0,0.0,,,,,,,,,,
,instructions,21,430849,0.0-12.0-3.1,,311,"[33, 14, 59, 22, 12, 53, 88, 24, 80, 148, 37, 185, 217, 233, 253, 62, 162, 226, 135, 242, 196, 58, 19, 229, 190, 136, 23, 20, 13, 176, 185, 230]",155,66a0b3911f23dfc7665bb169,6135e00cdb42bb8c6bc32b71,66a123f03968ebe6916716b3,1,0,0,True,6,72,"[{""page_index"":0,""viewing_time"":2280.2000000476837}]",2280.7000000476837,,,,,,,,,,,,,,,,,,,,
,Guess_leaderboard,22,436213,0.0-12.0-4.1,,311,"[33, 14, 59, 22, 12, 53, 88, 24, 80, 148, 37, 185, 217, 233, 253, 62, 162, 226, 135, 242, 196, 58, 19, 229, 190, 136, 23, 20, 13, 176, 185, 230]",155,66a0b3911f23dfc7665bb169,6135e00cdb42bb8c6bc32b71,66a123f03968ebe6916716b3,1,0,0,True,6,72,,,,,,,THIRTY FOUR,,,,,,,4605.099999904633,2.0,85.0,1.0,4.0,2.0,,,
,instructions,23,448365,0.0-12.0-0.2,,311,"[33, 14, 59, 22, 12, 53, 88, 24, 80, 148, 37, 185, 217, 233, 253, 62, 162, 226, 135, 242, 196, 58, 19, 229, 190, 136, 23, 20, 13, 176, 185, 230]",155,66a0b3911f23dfc7665bb169,6135e00cdb42bb8c6bc32b71,66a123f03968ebe6916716b3,1,0,0,True,6,72,"[{""page_index"":0,""viewing_time"":12150.299999952316}]",12150.5,,,,,,,,,,,,,,,,,,,,
,type-this,24,452497,0.0-12.0-1.2,,311,"[33, 14, 59, 22, 12, 53, 88, 24, 80, 148, 37, 185, 217, 233, 253, 62, 162, 226, 135, 242, 196, 58, 19, 229, 190, 136, 23, 20, 13, 176, 185, 230]",155,66a0b3911f23dfc7665bb169,6135e00cdb42bb8c6bc32b71,66a123f03968ebe6916716b3,1,0,0,True,6,72,,3627.5999999046326,['WRIST'],,,,,,,,,,WRIST,,,,,,,,,
,Hangman_replay,25,516866,0.0-12.0-2.2,,311,"[33, 14, 59, 22, 12, 53, 88, 24, 80, 148, 37, 185, 217, 233, 253, 62, 162, 226, 135, 242, 196, 58, 19, 229, 190, 136, 23, 20, 13, 176, 185, 230]",155,66a0b3911f23dfc7665bb169,6135e00cdb42bb8c6bc32b71,66a123f03968ebe6916716b3,1,0,0,True,6,72,,,,,,,WRIST,"{'letter': ['', 'L', 'E', 'A', 'I', 'O', 'R', 'S', 'W', 'T'], 't': [0, 30694.799999952316, 33561.40000009537, 36277.90000009537, 38227.799999952316, 47795.10000014305, 50127.700000047684, 57661.5, 60044.299999952316, 62344.200000047684], 'hit': [None, 0, 0, 0, 1, 0, 1, 1, 1, 1], 'asked': ['', 'L', 'LE', 'LEA', 'LEAI', 'LEAIO', 'LEAIOR', 'LEAIORS', 'LEAIORSW', 'LEAIORSWT'], 'word_state': ['_____', '_____', '_____', '_____', '__I__', '__I__', '_RI__', '_RIS_', 'WRIS_', 'WRIST']}","['L', 'E', 'A', 'I', 'O', 'R', 'S', 'W', 'T']",9.0,11.0,0.0,,,,,,,,,,
,instructions,26,519047,0.0-12.0-3.2,,311,"[33, 14, 59, 22, 12, 53, 88, 24, 80, 148, 37, 185, 217, 233, 253, 62, 162, 226, 135, 242, 196, 58, 19, 229, 190, 136, 23, 20, 13, 176, 185, 230]",155,66a0b3911f23dfc7665bb169,6135e00cdb42bb8c6bc32b71,66a123f03968ebe6916716b3,1,0,0,True,6,72,"[{""page_index"":0,""viewing_time"":2178.800000190735}]",2179.100000143051,,,,,,,,,,,,,,,,,,,,
,Guess_leaderboard,27,524211,0.0-12.0-4.2,,311,"[33, 14, 59, 22, 12, 53, 88, 24, 80, 148, 37, 185, 217, 233, 253, 62, 162, 226, 135, 242, 196, 58, 19, 229, 190, 136, 23, 20, 13, 176, 185, 230]",155,66a0b3911f23dfc7665bb169,6135e00cdb42bb8c6bc32b71,66a123f03968ebe6916716b3,1,0,0,True,6,72,,,,,,,WRIST,,,,,,,4408.0,31.0,100.0,2.0,70.0,39.0,,,
,instructions,28,534500,0.0-12.0-0.3,,311,"[33, 14, 59, 22, 12, 53, 88, 24, 80, 148, 37, 185, 217, 233, 253, 62, 162, 226, 135, 242, 196, 58, 19, 229, 190, 136, 23, 20, 13, 176, 185, 230]",155,66a0b3911f23dfc7665bb169,6135e00cdb42bb8c6bc32b71,66a123f03968ebe6916716b3,1,0,0,True,6,72,"[{""page_index"":0,""viewing_time"":10286.100000143051}]",10286.5,,,,,,,,,,,,,,,,,,,,
,type-this,29,538561,0.0-12.0-1.3,,311,"[33, 14, 59, 22, 12, 53, 88, 24, 80, 148, 37, 185, 217, 233, 253, 62, 162, 226, 135, 242, 196, 58, 19, 229, 190, 136, 23, 20, 13, 176, 185, 230]",155,66a0b3911f23dfc7665bb169,6135e00cdb42bb8c6bc32b71,66a123f03968ebe6916716b3,1,0,0,True,6,72,,3558.100000143051,['FIG'],,,,,,,,,,FIG,,,,,,,,,
,Hangman_replay,30,590015,0.0-12.0-2.3,,311,"[33, 14, 59, 22, 12, 53, 88, 24, 80, 148, 37, 185, 217, 233, 253, 62, 162, 226, 135, 242, 196, 58, 19, 229, 190, 136, 23, 20, 13, 176, 185, 230]",155,66a0b3911f23dfc7665bb169,6135e00cdb42bb8c6bc32b71,66a123f03968ebe6916716b3,1,0,0,True,6,72,,,,,,,FIG,"{'letter': ['', 'F', 'I', 'G'], 't': [0, 46145.5, 47328, 49444.5], 'hit': [None, 1, 1, 1], 'asked': ['', 'F', 'FI', 'FIG'], 'word_state': ['___', 'F__', 'FI_', 'FIG']}","['F', 'I', 'G']",3.0,15.0,0.0,,,,,,,,,,
,instructions,31,600548,0.0-12.0-3.3,,311,"[33, 14, 59, 22, 12, 53, 88, 24, 80, 148, 37, 185, 217, 233, 253, 62, 162, 226, 135, 242, 196, 58, 19, 229, 190, 136, 23, 20, 13, 176, 185, 230]",155,66a0b3911f23dfc7665bb169,6135e00cdb42bb8c6bc32b71,66a123f03968ebe6916716b3,1,0,0,True,6,72,"[{""page_index"":0,""viewing_time"":10531.599999904633}]",10532.5,,,,,,,,,,,,,,,,,,,,
,Guess_leaderboard,32,604243,0.0-12.0-4.3,,311,"[33, 14, 59, 22, 12, 53, 88, 24, 80, 148, 37, 185, 217, 233, 253, 62, 162, 226, 135, 242, 196, 58, 19, 229, 190, 136, 23, 20, 13, 176, 185, 230]",155,66a0b3911f23dfc7665bb169,6135e00cdb42bb8c6bc32b71,66a123f03968ebe6916716b3,1,0,0,True,6,72,,,,,,,FIG,,,,,,,2937.5999999046326,3.0,26.0,3.0,14.0,11.0,,,
,instructions,33,616943,0.0-12.0-0.4,,311,"[33, 14, 59, 22, 12, 53, 88, 24, 80, 148, 37, 185, 217, 233, 253, 62, 162, 226, 135, 242, 196, 58, 19, 229, 190, 136, 23, 20, 13, 176, 185, 230]",155,66a0b3911f23dfc7665bb169,6135e00cdb42bb8c6bc32b71,66a123f03968ebe6916716b3,1,0,0,True,6,72,"[{""page_index"":0,""viewing_time"":12699.299999952316}]",12699.599999904633,,,,,,,,,,,,,,,,,,,,
,type-this,34,621801,0.0-12.0-1.4,,311,"[33, 14, 59, 22, 12, 53, 88, 24, 80, 148, 37, 185, 217, 233, 253, 62, 162, 226, 135, 242, 196, 58, 19, 229, 190, 136, 23, 20, 13, 176, 185, 230]",155,66a0b3911f23dfc7665bb169,6135e00cdb42bb8c6bc32b71,66a123f03968ebe6916716b3,1,0,0,True,6,72,,4353.900000095367,['USAIN BOLT'],,,,,,,,,,USAIN BOLT,,,,,,,,,
,Hangman_replay,35,682113,0.0-12.0-2.4,,311,"[33, 14, 59, 22, 12, 53, 88, 24, 80, 148, 37, 185, 217, 233, 253, 62, 162, 226, 135, 242, 196, 58, 19, 229, 190, 136, 23, 20, 13, 176, 185, 230]",155,66a0b3911f23dfc7665bb169,6135e00cdb42bb8c6bc32b71,66a123f03968ebe6916716b3,1,0,0,True,6,72,,,,,,,USAIN BOLT,"{'letter': ['', 'E', 'A', 'O', 'R', 'T', 'S', 'I', 'H', 'U', 'N', 'B', 'L'], 't': [0, 5204.5, 6504, 9820.700000047684, 16287.300000190735, 18053.900000095367, 22853.900000095367, 32604.300000190735, 49504.10000014305, 52353.40000009537, 55953.300000190735, 57236.60000014305, 58286.60000014305], 'hit': [None, 0, 1, 1, 0, 1, 1, 1, 0, 1, 1, 1, 1], 'asked': ['', 'E', 'EA', 'EAO', 'EAOR', 'EAORT', 'EAORTS', 'EAORTSI', 'EAORTSIH', 'EAORTSIHU', 'EAORTSIHUN', 'EAORTSIHUNB', 'EAORTSIHUNBL'], 'word_state': ['_____ ____', '_____ ____', '__A__ ____', '__A__ _O__', '__A__ _O__', '__A__ _O_T', '_SA__ _O_T', '_SAI_ _O_T', '_SAI_ _O_T', 'USAI_ _O_T', 'USAIN _O_T', 'USAIN BO_T', 'USAIN BOLT']}","['E', 'A', 'O', 'R', 'T', 'S', 'I', 'H', 'U', 'N', 'B', 'L']",12.0,12.0,0.0,,,,,,,,,,
,instructions,36,685470,0.0-12.0-3.4,,311,"[33, 14, 59, 22, 12, 53, 88, 24, 80, 148, 37, 185, 217, 233, 253, 62, 162, 226, 135, 242, 196, 58, 19, 229, 190, 136, 23, 20, 13, 176, 185, 230]",155,66a0b3911f23dfc7665bb169,6135e00cdb42bb8c6bc32b71,66a123f03968ebe6916716b3,1,0,0,True,6,72,"[{""page_index"":0,""viewing_time"":3355.4000000953674}]",3356.300000190735,,,,,,,,,,,,,,,,,,,,
,Guess_leaderboard,37,690892,0.0-12.0-4.4,,311,"[33, 14, 59, 22, 12, 53, 88, 24, 80, 148, 37, 185, 217, 233, 253, 62, 162, 226, 135, 242, 196, 58, 19, 229, 190, 136, 23, 20, 13, 176, 185, 230]",155,66a0b3911f23dfc7665bb169,6135e00cdb42bb8c6bc32b71,66a123f03968ebe6916716b3,1,0,0,True,6,72,,,,,,,USAIN BOLT,,,,,,,4665.299999952316,30.0,92.0,4.0,27.0,3.0,,,
,survey-text,38,698448,0.0-13.0,,311,"[33, 14, 59, 22, 12, 53, 88, 24, 80, 148, 37, 185, 217, 233, 253, 62, 162, 226, 135, 242, 196, 58, 19, 229, 190, 136, 23, 20, 13, 176, 185, 230]",155,66a0b3911f23dfc7665bb169,6135e00cdb42bb8c6bc32b71,66a123f03968ebe6916716b3,1,0,0,True,6,72,,7550.899999856949,"{""Q0"":""USAIN BOLT""}",,,,,,,,,,,,,,,,,usain bolt,,
,survey-multi-choice,39,715061,0.0-14.0,,311,"[33, 14, 59, 22, 12, 53, 88, 24, 80, 148, 37, 185, 217, 233, 253, 62, 162, 226, 135, 242, 196, 58, 19, 229, 190, 136, 23, 20, 13, 176, 185, 230]",155,66a0b3911f23dfc7665bb169,6135e00cdb42bb8c6bc32b71,66a123f03968ebe6916716b3,1,0,0,True,6,72,,16609.400000095367,"{""Q0"":""6. I would be <b>last</b> out of the six of us.""}",[0],,self-rating,,,,,,,,,6.0,,,,,,,
,html-slider-response,40,719320,0.0-15.0,,311,"[33, 14, 59, 22, 12, 53, 88, 24, 80, 148, 37, 185, 217, 233, 253, 62, 162, 226, 135, 242, 196, 58, 19, 229, 190, 136, 23, 20, 13, 176, 185, 230]",155,66a0b3911f23dfc7665bb169,6135e00cdb42bb8c6bc32b71,66a123f03968ebe6916716b3,1,0,0,True,6,72,,4251.700000047684,,,,,,,,,,,72,,,,,,,,"<p>Overall, how confident were you in your answer to this last question?</p>",72.0
,survey-text,41,833743,0.0-16.0,,311,"[33, 14, 59, 22, 12, 53, 88, 24, 80, 148, 37, 185, 217, 233, 253, 62, 162, 226, 135, 242, 196, 58, 19, 229, 190, 136, 23, 20, 13, 176, 185, 230]",155,66a0b3911f23dfc7665bb169,6135e00cdb42bb8c6bc32b71,66a123f03968ebe6916716b3,1,0,0,True,6,72,,114417.59999990463,"{""Q0"":""How confident people feel about what their performance will be like when most people clearly do much better than they do. This was totally randomized and the word itself could make a difference, but I still assumed I would be last.""}",,,,,,,,,,,,,,,,,,,
,survey-text,42,854248,0.0-17.0,,311,"[33, 14, 59, 22, 12, 53, 88, 24, 80, 148, 37, 185, 217, 233, 253, 62, 162, 226, 135, 242, 196, 58, 19, 229, 190, 136, 23, 20, 13, 176, 185, 230]",155,66a0b3911f23dfc7665bb169,6135e00cdb42bb8c6bc32b71,66a123f03968ebe6916716b3,1,0,0,True,6,72,,20502.0,"{""Q0"":""I don't think so. The game seemed pretty straightforward and I guessed as best I could with the information I had.""}",,,,,,,,,,,,,,,,,,,
,instructions,43,861330,0.0-18.0,,311,"[33, 14, 59, 22, 12, 53, 88, 24, 80, 148, 37, 185, 217, 233, 253, 62, 162, 226, 135, 242, 196, 58, 19, 229, 190, 136, 23, 20, 13, 176, 185, 230]",155,66a0b3911f23dfc7665bb169,6135e00cdb42bb8c6bc32b71,66a123f03968ebe6916716b3,1,0,0,True,6,72,"[{""page_index"":0,""viewing_time"":7081.5}]",7081.799999952316,,,,,,,,,,,,,,,,,,,,
