success,trial_type,trial_index,time_elapsed,internal_node_id,protocol_sum,subject_identifier,subject_sum,subject_pair,STUDY_ID,PROLIFIC_PID,SESSION_ID,practice_instructions,leaderboard_instructions,bonus,reveal_word,self_rating,confidence,view_history,rt,responses,question_order,correct,test_part,word,click_log,final_keyboard_state,num_clicks,points,cheat,position_RT,position,player,i_game,true_position,distance,last_word,response,stimulus,confidence_slider_self_response
1.0,fullscreen,0,3211,0.0-0.0,,138,"[199, 92, 182, 106, 226, 141, 142, 188, 110, 222, 208, 2, 194, 138, 139, 160, 208, 109, 58, 120, 198, 181, 203, 249, 178, 173, 224, 81, 240, 119, 90, 196]",69,669a702db1122fc5150a13ce,65b9bf2250abc52ab5bb60c2,669b4206f7aac3285db7db05,1,0,0,False,2,100,,,,,,,,,,,,,,,,,,,,,,
,instructions,1,7892,0.0-1.0,,138,"[199, 92, 182, 106, 226, 141, 142, 188, 110, 222, 208, 2, 194, 138, 139, 160, 208, 109, 58, 120, 198, 181, 203, 249, 178, 173, 224, 81, 240, 119, 90, 196]",69,669a702db1122fc5150a13ce,65b9bf2250abc52ab5bb60c2,669b4206f7aac3285db7db05,1,0,0,False,2,100,"[{""page_index"":0,""viewing_time"":4680}]",4680.20000000298,,,,,,,,,,,,,,,,,,,,
,instructions,2,34604,0.0-2.0-0.0,,138,"[199, 92, 182, 106, 226, 141, 142, 188, 110, 222, 208, 2, 194, 138, 139, 160, 208, 109, 58, 120, 198, 181, 203, 249, 178, 173, 224, 81, 240, 119, 90, 196]",69,669a702db1122fc5150a13ce,65b9bf2250abc52ab5bb60c2,669b4206f7aac3285db7db05,1,0,0,False,2,100,"[{""page_index"":0,""viewing_time"":26712.20000000298}]",26712.5,,,,,,,,,,,,,,,,,,,,
,survey-multi-choice,3,41397,0.0-2.0-1.0,,138,"[199, 92, 182, 106, 226, 141, 142, 188, 110, 222, 208, 2, 194, 138, 139, 160, 208, 109, 58, 120, 198, 181, 203, 249, 178, 173, 224, 81, 240, 119, 90, 196]",69,669a702db1122fc5150a13ce,65b9bf2250abc52ab5bb60c2,669b4206f7aac3285db7db05,1,0,0,False,2,100,,6791.60000000149,"{""Q0"":""... reveal the word with as <b>few letter guesses</b> as possible""}",[0],1.0,multichoice_nonpretend,,,,,,,,,,,,,,,,
,instructions,4,42432,0.0-3.0,,138,"[199, 92, 182, 106, 226, 141, 142, 188, 110, 222, 208, 2, 194, 138, 139, 160, 208, 109, 58, 120, 198, 181, 203, 249, 178, 173, 224, 81, 240, 119, 90, 196]",69,669a702db1122fc5150a13ce,65b9bf2250abc52ab5bb60c2,669b4206f7aac3285db7db05,1,0,0,False,2,100,"[{""page_index"":0,""viewing_time"":1034.1999999955297}]",1034.2999999970198,,,,,,,,,,,,,,,,,,,,
,Hangman,5,58643,0.0-4.0,,138,"[199, 92, 182, 106, 226, 141, 142, 188, 110, 222, 208, 2, 194, 138, 139, 160, 208, 109, 58, 120, 198, 181, 203, 249, 178, 173, 224, 81, 240, 119, 90, 196]",69,669a702db1122fc5150a13ce,65b9bf2250abc52ab5bb60c2,669b4206f7aac3285db7db05,1,0,0,False,2,100,,,,,,,ZEBRA,"{'letter': ['', 'B', 'E', 'Z', 'R', 'A'], 't': [0, 4420.79999999702, 5054.29999999702, 12197.69999999553, 13490.69999999553, 14197.79999999702], 'hit': [None, 1, 1, 1, 1, 1], 'asked': ['', 'B', 'BE', 'BEZ', 'BEZR', 'BEZRA'], 'word_state': ['_____', '__B__', '_EB__', 'ZEB__', 'ZEBR_', 'ZEBRA']}","['B', 'E', 'Z', 'R', 'A']",5.0,15.0,0.0,,,,,,,,,,
,instructions,6,73073,0.0-5.0,,138,"[199, 92, 182, 106, 226, 141, 142, 188, 110, 222, 208, 2, 194, 138, 139, 160, 208, 109, 58, 120, 198, 181, 203, 249, 178, 173, 224, 81, 240, 119, 90, 196]",69,669a702db1122fc5150a13ce,65b9bf2250abc52ab5bb60c2,669b4206f7aac3285db7db05,1,0,0,False,2,100,"[{""page_index"":0,""viewing_time"":2149.0999999940395},{""page_index"":1,""viewing_time"":12279.30000000447}]",14428.89999999851,,,,,,,,,,,,,,,,,,,,
,survey-multi-choice,7,81847,0.0-6.0,,138,"[199, 92, 182, 106, 226, 141, 142, 188, 110, 222, 208, 2, 194, 138, 139, 160, 208, 109, 58, 120, 198, 181, 203, 249, 178, 173, 224, 81, 240, 119, 90, 196]",69,669a702db1122fc5150a13ce,65b9bf2250abc52ab5bb60c2,669b4206f7aac3285db7db05,1,0,0,False,2,100,,8772.5,"{""Q0"":""...from <b>a previous session</b> that is not part of the upcoming tournament.""}",[0],1.0,multichoice_leaderboard,,,,,,,,,,,,,,,,
,instructions,8,88474,0.0-8.0,,138,"[199, 92, 182, 106, 226, 141, 142, 188, 110, 222, 208, 2, 194, 138, 139, 160, 208, 109, 58, 120, 198, 181, 203, 249, 178, 173, 224, 81, 240, 119, 90, 196]",69,669a702db1122fc5150a13ce,65b9bf2250abc52ab5bb60c2,669b4206f7aac3285db7db05,1,0,0,False,2,100,"[{""page_index"":0,""viewing_time"":6626.70000000298}]",6626.9000000059605,,,,,,,,,,,,,,,,,,,,
,survey-multi-choice,9,94493,0.0-9.0,,138,"[199, 92, 182, 106, 226, 141, 142, 188, 110, 222, 208, 2, 194, 138, 139, 160, 208, 109, 58, 120, 198, 181, 203, 249, 178, 173, 224, 81, 240, 119, 90, 196]",69,669a702db1122fc5150a13ce,65b9bf2250abc52ab5bb60c2,669b4206f7aac3285db7db05,1,0,0,False,2,100,,6017.5,"{""Q0"":""...players' leaderboard position (in terms of <b>points</b>) in an <b>upcoming tournament.</b>""}",[0],1.0,multichoice_tournament,,,,,,,,,,,,,,,,
,instructions,10,101100,0.0-11.0,,138,"[199, 92, 182, 106, 226, 141, 142, 188, 110, 222, 208, 2, 194, 138, 139, 160, 208, 109, 58, 120, 198, 181, 203, 249, 178, 173, 224, 81, 240, 119, 90, 196]",69,669a702db1122fc5150a13ce,65b9bf2250abc52ab5bb60c2,669b4206f7aac3285db7db05,1,0,0,False,2,100,"[{""page_index"":0,""viewing_time"":6606.89999999851}]",6607.10000000149,,,,,,,,,,,,,,,,,,,,
,instructions,11,106180,0.0-12.0-0.0,,138,"[199, 92, 182, 106, 226, 141, 142, 188, 110, 222, 208, 2, 194, 138, 139, 160, 208, 109, 58, 120, 198, 181, 203, 249, 178, 173, 224, 81, 240, 119, 90, 196]",69,669a702db1122fc5150a13ce,65b9bf2250abc52ab5bb60c2,669b4206f7aac3285db7db05,1,0,0,False,2,100,"[{""page_index"":0,""viewing_time"":5079.39999999851}]",5079.60000000149,,,,,,,,,,,,,,,,,,,,
,Hangman_replay,12,144882,0.0-12.0-1.0,,138,"[199, 92, 182, 106, 226, 141, 142, 188, 110, 222, 208, 2, 194, 138, 139, 160, 208, 109, 58, 120, 198, 181, 203, 249, 178, 173, 224, 81, 240, 119, 90, 196]",69,669a702db1122fc5150a13ce,65b9bf2250abc52ab5bb60c2,669b4206f7aac3285db7db05,1,0,0,False,2,100,,,,,,,THIRTY FOUR,"{'letter': ['', 'E', 'A', 'I', 'T', 'H', 'R', 'Y', 'F', 'O', 'U'], 't': [0, 4379.89999999851, 8739.30000000447, 17991.60000000149, 24853.80000000447, 26770.30000000447, 29916, 32015, 35410.89999999851, 36062.5, 36688.80000000447], 'hit': [None, 0, 0, 1, 2, 1, 2, 1, 1, 1, 1], 'asked': ['', 'E', 'EA', 'EAI', 'EAIT', 'EAITH', 'EAITHR', 'EAITHRY', 'EAITHRYF', 'EAITHRYFO', 'EAITHRYFOU'], 'word_state': ['______ ____', '______ ____', '______ ____', '__I___ ____', 'T_I_T_ ____', 'THI_T_ ____', 'THIRT_ ___R', 'THIRTY ___R', 'THIRTY F__R', 'THIRTY FO_R', 'THIRTY FOUR']}","['E', 'A', 'I', 'T', 'H', 'R', 'Y', 'F', 'O', 'U']",10.0,13.0,0.0,,,,,,,,,,
,instructions,13,147770,0.0-12.0-2.0,,138,"[199, 92, 182, 106, 226, 141, 142, 188, 110, 222, 208, 2, 194, 138, 139, 160, 208, 109, 58, 120, 198, 181, 203, 249, 178, 173, 224, 81, 240, 119, 90, 196]",69,669a702db1122fc5150a13ce,65b9bf2250abc52ab5bb60c2,669b4206f7aac3285db7db05,1,0,0,False,2,100,"[{""page_index"":0,""viewing_time"":2887.2000000029802}]",2887.5,,,,,,,,,,,,,,,,,,,,
,Guess_leaderboard,14,158201,0.0-12.0-3.0,,138,"[199, 92, 182, 106, 226, 141, 142, 188, 110, 222, 208, 2, 194, 138, 139, 160, 208, 109, 58, 120, 198, 181, 203, 249, 178, 173, 224, 81, 240, 119, 90, 196]",69,669a702db1122fc5150a13ce,65b9bf2250abc52ab5bb60c2,669b4206f7aac3285db7db05,1,0,0,False,2,100,,,,,,,THIRTY FOUR,,,,,,9664.0,70.0,29.0,0.0,11.0,59.0,,,,
,instructions,15,161039,0.0-12.0-0.1,,138,"[199, 92, 182, 106, 226, 141, 142, 188, 110, 222, 208, 2, 194, 138, 139, 160, 208, 109, 58, 120, 198, 181, 203, 249, 178, 173, 224, 81, 240, 119, 90, 196]",69,669a702db1122fc5150a13ce,65b9bf2250abc52ab5bb60c2,669b4206f7aac3285db7db05,1,0,0,False,2,100,"[{""page_index"":0,""viewing_time"":2836.7999999970198}]",2837.10000000149,,,,,,,,,,,,,,,,,,,,
,Hangman_replay,16,237457,0.0-12.0-1.1,,138,"[199, 92, 182, 106, 226, 141, 142, 188, 110, 222, 208, 2, 194, 138, 139, 160, 208, 109, 58, 120, 198, 181, 203, 249, 178, 173, 224, 81, 240, 119, 90, 196]",69,669a702db1122fc5150a13ce,65b9bf2250abc52ab5bb60c2,669b4206f7aac3285db7db05,1,0,0,False,2,100,,,,,,,SHAKIRA,"{'letter': ['', 'B', 'M', 'I', 'O', 'S', 'E', 'A', 'L', 'U', 'G', 'C', 'D', 'H', 'K', 'R'], 't': [0, 6304, 9956.80000000447, 18700.20000000298, 21229.70000000298, 23972.70000000298, 36244.70000000298, 39258.30000000447, 48367.89999999851, 51732, 58612.60000000149, 61890.89999999851, 63292.30000000447, 68821.20000000298, 72346.5, 74403.30000000447], 'hit': [None, 0, 0, 1, 0, 1, 0, 2, 0, 0, 0, 0, 0, 1, 1, 1], 'asked': ['', 'B', 'BM', 'BMI', 'BMIO', 'BMIOS', 'BMIOSE', 'BMIOSEA', 'BMIOSEAL', 'BMIOSEALU', 'BMIOSEALUG', 'BMIOSEALUGC', 'BMIOSEALUGCD', 'BMIOSEALUGCDH', 'BMIOSEALUGCDHK', 'BMIOSEALUGCDHKR'], 'word_state': ['_______', '_______', '_______', '____I__', '____I__', 'S___I__', 'S___I__', 'S_A_I_A', 'S_A_I_A', 'S_A_I_A', 'S_A_I_A', 'S_A_I_A', 'S_A_I_A', 'SHA_I_A', 'SHAKI_A', 'SHAKIRA']}","['B', 'M', 'I', 'O', 'S', 'E', 'A', 'L', 'U', 'G', 'C', 'D', 'H', 'K', 'R']",15.0,6.0,0.0,,,,,,,,,,
,instructions,17,238431,0.0-12.0-2.1,,138,"[199, 92, 182, 106, 226, 141, 142, 188, 110, 222, 208, 2, 194, 138, 139, 160, 208, 109, 58, 120, 198, 181, 203, 249, 178, 173, 224, 81, 240, 119, 90, 196]",69,669a702db1122fc5150a13ce,65b9bf2250abc52ab5bb60c2,669b4206f7aac3285db7db05,1,0,0,False,2,100,"[{""page_index"":0,""viewing_time"":973.5}]",973.7000000029802,,,,,,,,,,,,,,,,,,,,
,Guess_leaderboard,18,244581,0.0-12.0-3.1,,138,"[199, 92, 182, 106, 226, 141, 142, 188, 110, 222, 208, 2, 194, 138, 139, 160, 208, 109, 58, 120, 198, 181, 203, 249, 178, 173, 224, 81, 240, 119, 90, 196]",69,669a702db1122fc5150a13ce,65b9bf2250abc52ab5bb60c2,669b4206f7aac3285db7db05,1,0,0,False,2,100,,,,,,,SHAKIRA,,,,,,5386.60000000149,95.0,100.0,1.0,60.0,35.0,,,,
,instructions,19,246830,0.0-12.0-0.2,,138,"[199, 92, 182, 106, 226, 141, 142, 188, 110, 222, 208, 2, 194, 138, 139, 160, 208, 109, 58, 120, 198, 181, 203, 249, 178, 173, 224, 81, 240, 119, 90, 196]",69,669a702db1122fc5150a13ce,65b9bf2250abc52ab5bb60c2,669b4206f7aac3285db7db05,1,0,0,False,2,100,"[{""page_index"":0,""viewing_time"":2248.5}]",2248.6999999955297,,,,,,,,,,,,,,,,,,,,
,Hangman_replay,20,292639,0.0-12.0-1.2,,138,"[199, 92, 182, 106, 226, 141, 142, 188, 110, 222, 208, 2, 194, 138, 139, 160, 208, 109, 58, 120, 198, 181, 203, 249, 178, 173, 224, 81, 240, 119, 90, 196]",69,669a702db1122fc5150a13ce,65b9bf2250abc52ab5bb60c2,669b4206f7aac3285db7db05,1,0,0,False,2,100,,,,,,,HAWAII,"{'letter': ['', 'A', 'K', 'N', 'S', 'C', 'T', 'R', 'M', 'L', 'F', 'D', 'G', 'H', 'W', 'I'], 't': [0, 2593.7000000029802, 11605.70000000298, 13872.39999999851, 15478.10000000149, 17596, 29923.80000000447, 31269.39999999851, 32617.70000000298, 34506.60000000149, 36450.20000000298, 37789.60000000149, 38804.70000000298, 40062.39999999851, 42250.80000000447, 43796.20000000298], 'hit': [None, 2, 0, 0, 0, 0, 0, 0, 0, 0, 0, 0, 0, 1, 1, 2], 'asked': ['', 'A', 'AK', 'AKN', 'AKNS', 'AKNSC', 'AKNSCT', 'AKNSCTR', 'AKNSCTRM', 'AKNSCTRML', 'AKNSCTRMLF', 'AKNSCTRMLFD', 'AKNSCTRMLFDG', 'AKNSCTRMLFDGH', 'AKNSCTRMLFDGHW', 'AKNSCTRMLFDGHWI'], 'word_state': ['______', '_A_A__', '_A_A__', '_A_A__', '_A_A__', '_A_A__', '_A_A__', '_A_A__', '_A_A__', '_A_A__', '_A_A__', '_A_A__', '_A_A__', 'HA_A__', 'HAWA__', 'HAWAII']}","['A', 'K', 'N', 'S', 'C', 'T', 'R', 'M', 'L', 'F', 'D', 'G', 'H', 'W', 'I']",15.0,4.0,0.0,,,,,,,,,,
,instructions,21,294732,0.0-12.0-2.2,,138,"[199, 92, 182, 106, 226, 141, 142, 188, 110, 222, 208, 2, 194, 138, 139, 160, 208, 109, 58, 120, 198, 181, 203, 249, 178, 173, 224, 81, 240, 119, 90, 196]",69,669a702db1122fc5150a13ce,65b9bf2250abc52ab5bb60c2,669b4206f7aac3285db7db05,1,0,0,False,2,100,"[{""page_index"":0,""viewing_time"":2093}]",2093.3000000044703,,,,,,,,,,,,,,,,,,,,
,Guess_leaderboard,22,300830,0.0-12.0-3.2,,138,"[199, 92, 182, 106, 226, 141, 142, 188, 110, 222, 208, 2, 194, 138, 139, 160, 208, 109, 58, 120, 198, 181, 203, 249, 178, 173, 224, 81, 240, 119, 90, 196]",69,669a702db1122fc5150a13ce,65b9bf2250abc52ab5bb60c2,669b4206f7aac3285db7db05,1,0,0,False,2,100,,,,,,,HAWAII,,,,,,5325.10000000149,65.0,7.0,2.0,9.0,56.0,,,,
,instructions,23,303283,0.0-12.0-0.3,,138,"[199, 92, 182, 106, 226, 141, 142, 188, 110, 222, 208, 2, 194, 138, 139, 160, 208, 109, 58, 120, 198, 181, 203, 249, 178, 173, 224, 81, 240, 119, 90, 196]",69,669a702db1122fc5150a13ce,65b9bf2250abc52ab5bb60c2,669b4206f7aac3285db7db05,1,0,0,False,2,100,"[{""page_index"":0,""viewing_time"":2451.6999999955297}]",2451.89999999851,,,,,,,,,,,,,,,,,,,,
,Hangman_replay,24,319063,0.0-12.0-1.3,,138,"[199, 92, 182, 106, 226, 141, 142, 188, 110, 222, 208, 2, 194, 138, 139, 160, 208, 109, 58, 120, 198, 181, 203, 249, 178, 173, 224, 81, 240, 119, 90, 196]",69,669a702db1122fc5150a13ce,65b9bf2250abc52ab5bb60c2,669b4206f7aac3285db7db05,1,0,0,False,2,100,,,,,,,NECTARINE,"{'letter': ['', 'N', 'T', 'I', 'R', 'E', 'C', 'A'], 't': [0, 3485.2000000029802, 4337.5, 7395.39999999851, 8334.39999999851, 9880.30000000447, 11863.89999999851, 13762.70000000298], 'hit': [None, 2, 1, 1, 1, 2, 1, 1], 'asked': ['', 'N', 'NT', 'NTI', 'NTIR', 'NTIRE', 'NTIREC', 'NTIRECA'], 'word_state': ['_________', 'N______N_', 'N__T___N_', 'N__T__IN_', 'N__T_RIN_', 'NE_T_RINE', 'NECT_RINE', 'NECTARINE']}","['N', 'T', 'I', 'R', 'E', 'C', 'A']",7.0,15.0,0.0,,,,,,,,,,
,instructions,25,320194,0.0-12.0-2.3,,138,"[199, 92, 182, 106, 226, 141, 142, 188, 110, 222, 208, 2, 194, 138, 139, 160, 208, 109, 58, 120, 198, 181, 203, 249, 178, 173, 224, 81, 240, 119, 90, 196]",69,669a702db1122fc5150a13ce,65b9bf2250abc52ab5bb60c2,669b4206f7aac3285db7db05,1,0,0,False,2,100,"[{""page_index"":0,""viewing_time"":1130.3999999985099}]",1130.6000000014901,,,,,,,,,,,,,,,,,,,,
,Guess_leaderboard,26,324771,0.0-12.0-3.3,,138,"[199, 92, 182, 106, 226, 141, 142, 188, 110, 222, 208, 2, 194, 138, 139, 160, 208, 109, 58, 120, 198, 181, 203, 249, 178, 173, 224, 81, 240, 119, 90, 196]",69,669a702db1122fc5150a13ce,65b9bf2250abc52ab5bb60c2,669b4206f7aac3285db7db05,1,0,0,False,2,100,,,,,,,NECTARINE,,,,,,3814.6999999955297,10.0,93.0,3.0,1.0,9.0,,,,
,instructions,27,326887,0.0-12.0-0.4,,138,"[199, 92, 182, 106, 226, 141, 142, 188, 110, 222, 208, 2, 194, 138, 139, 160, 208, 109, 58, 120, 198, 181, 203, 249, 178, 173, 224, 81, 240, 119, 90, 196]",69,669a702db1122fc5150a13ce,65b9bf2250abc52ab5bb60c2,669b4206f7aac3285db7db05,1,0,0,False,2,100,"[{""page_index"":0,""viewing_time"":2115.10000000149}]",2115.39999999851,,,,,,,,,,,,,,,,,,,,
,Hangman_replay,28,351330,0.0-12.0-1.4,,138,"[199, 92, 182, 106, 226, 141, 142, 188, 110, 222, 208, 2, 194, 138, 139, 160, 208, 109, 58, 120, 198, 181, 203, 249, 178, 173, 224, 81, 240, 119, 90, 196]",69,669a702db1122fc5150a13ce,65b9bf2250abc52ab5bb60c2,669b4206f7aac3285db7db05,1,0,0,False,2,100,,,,,,,WRIST,"{'letter': ['', 'A', 'E', 'I', 'O', 'U', 'T', 'S', 'W', 'R'], 't': [0, 3917.89999999851, 5291.89999999851, 6626.79999999702, 9154.39999999851, 10889.59999999404, 12939.39999999851, 14878.59999999404, 17925.79999999702, 22437.69999999553], 'hit': [None, 0, 0, 1, 0, 0, 1, 1, 1, 1], 'asked': ['', 'A', 'AE', 'AEI', 'AEIO', 'AEIOU', 'AEIOUT', 'AEIOUTS', 'AEIOUTSW', 'AEIOUTSWR'], 'word_state': ['_____', '_____', '_____', '__I__', '__I__', '__I__', '__I_T', '__IST', 'W_IST', 'WRIST']}","['A', 'E', 'I', 'O', 'U', 'T', 'S', 'W', 'R']",9.0,11.0,0.0,,,,,,,,,,
,instructions,29,353094,0.0-12.0-2.4,,138,"[199, 92, 182, 106, 226, 141, 142, 188, 110, 222, 208, 2, 194, 138, 139, 160, 208, 109, 58, 120, 198, 181, 203, 249, 178, 173, 224, 81, 240, 119, 90, 196]",69,669a702db1122fc5150a13ce,65b9bf2250abc52ab5bb60c2,669b4206f7aac3285db7db05,1,0,0,False,2,100,"[{""page_index"":0,""viewing_time"":1763.7999999970198}]",1764.1000000014901,,,,,,,,,,,,,,,,,,,,
,Guess_leaderboard,30,357198,0.0-12.0-3.4,,138,"[199, 92, 182, 106, 226, 141, 142, 188, 110, 222, 208, 2, 194, 138, 139, 160, 208, 109, 58, 120, 198, 181, 203, 249, 178, 173, 224, 81, 240, 119, 90, 196]",69,669a702db1122fc5150a13ce,65b9bf2250abc52ab5bb60c2,669b4206f7aac3285db7db05,1,0,0,False,2,100,,,,,,,WRIST,,,,,,3337.3000000044703,20.0,99.0,4.0,82.0,62.0,,,,
,survey-text,31,367925,0.0-13.0,,138,"[199, 92, 182, 106, 226, 141, 142, 188, 110, 222, 208, 2, 194, 138, 139, 160, 208, 109, 58, 120, 198, 181, 203, 249, 178, 173, 224, 81, 240, 119, 90, 196]",69,669a702db1122fc5150a13ce,65b9bf2250abc52ab5bb60c2,669b4206f7aac3285db7db05,1,0,0,False,2,100,,10725.19999999553,"{""Q0"":""wrist""}",,,,,,,,,,,,,,,,wrist,,,
,survey-multi-choice,32,377722,0.0-14.0,,138,"[199, 92, 182, 106, 226, 141, 142, 188, 110, 222, 208, 2, 194, 138, 139, 160, 208, 109, 58, 120, 198, 181, 203, 249, 178, 173, 224, 81, 240, 119, 90, 196]",69,669a702db1122fc5150a13ce,65b9bf2250abc52ab5bb60c2,669b4206f7aac3285db7db05,1,0,0,False,2,100,,9796.10000000149,"{""Q0"":""2. I would be <b>second</b> out of the six of us.""}",[0],,self-rating,,,,,,,,2.0,,,,,,,,
,html-slider-response,33,380293,0.0-15.0,,138,"[199, 92, 182, 106, 226, 141, 142, 188, 110, 222, 208, 2, 194, 138, 139, 160, 208, 109, 58, 120, 198, 181, 203, 249, 178, 173, 224, 81, 240, 119, 90, 196]",69,669a702db1122fc5150a13ce,65b9bf2250abc52ab5bb60c2,669b4206f7aac3285db7db05,1,0,0,False,2,100,,2569.0,,,,,,,,,,,,,,,,,,100.0,"<p>Overall, how confident were you in your answer to this last question?</p>",100.0
,survey-text,34,463442,0.0-16.0,,138,"[199, 92, 182, 106, 226, 141, 142, 188, 110, 222, 208, 2, 194, 138, 139, 160, 208, 109, 58, 120, 198, 181, 203, 249, 178, 173, 224, 81, 240, 119, 90, 196]",69,669a702db1122fc5150a13ce,65b9bf2250abc52ab5bb60c2,669b4206f7aac3285db7db05,1,0,0,False,2,100,,83148.30000000447,"{""Q0"":""I think that a correlation between speed and score is being tested, or maybe the perception of knowledge or intelligence based on speed of solving the word puzzle.""}",,,,,,,,,,,,,,,,,,,
,survey-text,35,464651,0.0-17.0,,138,"[199, 92, 182, 106, 226, 141, 142, 188, 110, 222, 208, 2, 194, 138, 139, 160, 208, 109, 58, 120, 198, 181, 203, 249, 178, 173, 224, 81, 240, 119, 90, 196]",69,669a702db1122fc5150a13ce,65b9bf2250abc52ab5bb60c2,669b4206f7aac3285db7db05,1,0,0,False,2,100,,1207.8000000044703,"{""Q0"":""""}",,,,,,,,,,,,,,,,,,,
,instructions,36,468296,0.0-18.0,,138,"[199, 92, 182, 106, 226, 141, 142, 188, 110, 222, 208, 2, 194, 138, 139, 160, 208, 109, 58, 120, 198, 181, 203, 249, 178, 173, 224, 81, 240, 119, 90, 196]",69,669a702db1122fc5150a13ce,65b9bf2250abc52ab5bb60c2,669b4206f7aac3285db7db05,1,0,0,False,2,100,"[{""page_index"":0,""viewing_time"":3644.60000000149}]",3644.8000000044703,,,,,,,,,,,,,,,,,,,,
