[{"success":true,"trial_type":"fullscreen","trial_index":0,"time_elapsed":3211,"internal_node_id":"0.0-0.0","protocol_sum":"","subject_identifier":138,"subject_sum":[199,92,182,106,226,141,142,188,110,222,208,2,194,138,139,160,208,109,58,120,198,181,203,249,178,173,224,81,240,119,90,196],"subject_pair":69,"STUDY_ID":"669a702db1122fc5150a13ce","PROLIFIC_PID":"65b9bf2250abc52ab5bb60c2","SESSION_ID":"669b4206f7aac3285db7db05","practice_instructions":1,"leaderboard_instructions":0,"bonus":0,"reveal_word":false,"self_rating":"2","confidence":"100"},{"view_history":"[{\"page_index\":0,\"viewing_time\":4680}]","rt":4680.20000000298,"trial_type":"instructions","trial_index":1,"time_elapsed":7892,"internal_node_id":"0.0-1.0","protocol_sum":"","subject_identifier":138,"subject_sum":[199,92,182,106,226,141,142,188,110,222,208,2,194,138,139,160,208,109,58,120,198,181,203,249,178,173,224,81,240,119,90,196],"subject_pair":69,"STUDY_ID":"669a702db1122fc5150a13ce","PROLIFIC_PID":"65b9bf2250abc52ab5bb60c2","SESSION_ID":"669b4206f7aac3285db7db05","practice_instructions":1,"leaderboard_instructions":0,"bonus":0,"reveal_word":false,"self_rating":"2","confidence":"100"},{"view_history":"[{\"page_index\":0,\"viewing_time\":26712.20000000298}]","rt":26712.5,"trial_type":"instructions","trial_index":2,"time_elapsed":34604,"internal_node_id":"0.0-2.0-0.0","protocol_sum":"","subject_identifier":138,"subject_sum":[199,92,182,106,226,141,142,188,110,222,208,2,194,138,139,160,208,109,58,120,198,181,203,249,178,173,224,81,240,119,90,196],"subject_pair":69,"STUDY_ID":"669a702db1122fc5150a13ce","PROLIFIC_PID":"65b9bf2250abc52ab5bb60c2","SESSION_ID":"669b4206f7aac3285db7db05","practice_instructions":1,"leaderboard_instructions":0,"bonus":0,"reveal_word":false,"self_rating":"2","confidence":"100"},{"rt":6791.60000000149,"responses":"{\"Q0\":\"... reveal the word with as <b>few letter guesses</b> as possible\"}","question_order":"[0]","trial_type":"survey-multi-choice","trial_index":3,"time_elapsed":41397,"internal_node_id":"0.0-2.0-1.0","protocol_sum":"","subject_identifier":138,"subject_sum":[199,92,182,106,226,141,142,188,110,222,208,2,194,138,139,160,208,109,58,120,198,181,203,249,178,173,224,81,240,119,90,196],"subject_pair":69,"correct":true,"test_part":"multichoice_nonpretend","STUDY_ID":"669a702db1122fc5150a13ce","PROLIFIC_PID":"65b9bf2250abc52ab5bb60c2","SESSION_ID":"669b4206f7aac3285db7db05","practice_instructions":1,"leaderboard_instructions":0,"bonus":0,"reveal_word":false,"self_rating":"2","confidence":"100"},{"view_history":"[{\"page_index\":0,\"viewing_time\":1034.1999999955297}]","rt":1034.2999999970198,"trial_type":"instructions","trial_index":4,"time_elapsed":42432,"internal_node_id":"0.0-3.0","protocol_sum":"","subject_identifier":138,"subject_sum":[199,92,182,106,226,141,142,188,110,222,208,2,194,138,139,160,208,109,58,120,198,181,203,249,178,173,224,81,240,119,90,196],"subject_pair":69,"STUDY_ID":"669a702db1122fc5150a13ce","PROLIFIC_PID":"65b9bf2250abc52ab5bb60c2","SESSION_ID":"669b4206f7aac3285db7db05","practice_instructions":1,"leaderboard_instructions":0,"bonus":0,"reveal_word":false,"self_rating":"2","confidence":"100"},{"word":"ZEBRA","click_log":{"letter":["","B","E","Z","R","A"],"t":[0,4420.79999999702,5054.29999999702,12197.69999999553,13490.69999999553,14197.79999999702],"hit":[null,1,1,1,1,1],"asked":["","B","BE","BEZ","BEZR","BEZRA"],"word_state":["_____","__B__","_EB__","ZEB__","ZEBR_","ZEBRA"]},"hover_log":{"letter":["?","?","T","?","?","?","?","?","?","?","?","?","?","?","?","?","?","?","?","?","?","?","?","?","?","?","?","?","?","?","?","?","?","?","?","?","?","?","?","?","?","?","?","?","?","?","?","?","?","?","?","?","?","?","?","?","?","?","?","?","?","?","?","?","?","?","?","?","?","?","?","?","?","?","?","?","?","?","?","?","?","?","?","?","?","?","?","?","?","?","?","?","?","?","?","?","?","?","?","?","?","?","?","V","M","?","C","?","B","B","B","B","B","B","B","?","?","?","?","?","?","?","?","?","?","?","?","?","?","?","?","?","?","?","?","?","?","?","?","?","?","?","?","?","?","?","?","?","?","?","?","?","?","?","?","?","?","?","?","?","?","?","?","?","?","?","?","?","?","?","?","?","?","?","?","?","?","?","?","?","?","?","?","?","?","?","?","?","?","?","?","?","?","?","?","?","?","?","?","?","?","?","?","?","?","?","?","?","?","?","?","?","?","?","?","?","?","?","?","?","?","?","?","?","?","?","?","?","?","?","?","?","?","?","?","?","?","?","?","?","?","?","?","?","?","?","?","?","?","?","?","?","?","?","?","?","?","?","?","?","?","?","?","?","?","?","?","?","?","?","?","?","?","?","?","?","?","?","?","?","?","?","?","?","?","?","?","?","?","?","B","B","B","B","B","B","B","B","B","B","B","B","B","B","B","B","B","B","B","B","B","B","B","?","?","B","B","?","?","?","?","?","?","M","?","?","?","?","?","?","E","E","E","E","E","E","E","E","E","E","E","E","E","E","E","E","E","E","E","E","E","E","E","E","?","?","?","?","?","?","?","?","?","?","?","?","?","?","?","?","?","?","?","?","?","?","?","?","?","?","?","?","?","?","B","?","?","?","?","?","?","?","?","?","?","?","?","?","?","?","?","?","?","?","?","?","?","?","?","?","?","?","?","?","?","?","?","?","?","?","?","?","?","?","?","?","?","?","?","?","?","?","?","?","?","?","?","?","?","?","?","?","?","B","B","B","?","?","A","A","A","A","A","A","A","A","A","A","A","A","A","A","A","A","A","A","A","A","A","A","A","A","A","A","A","A","A","A","A","A","A","A","A","A","A","A","A","A","A","A","A","A","A","A","A","?","?","?","?","L","?","?","W","X","?","?","?","?","?","?","?","?","?","?","?","?","?","?","?","?","?","?","?","?","?","?","?","?","?","?","?","?","?","?","?","?","?","?","?","?","?","?","?","?","?","?","?","?","?","?","?","?","?","?","?","?","?","?","?","?","?","?","?","?","?","?","?","?","?","?","?","?","?","?","?","?","?","?","?","?","?","?","?","?","?","?","?","?","?","?","?","?","?","?","?","?","?","?","?","?","?","?","?","?","?","?","?","?","?","?","?","?","?","?","?","?","?","?","?","?","?","?","?","?","?","?","?","?","?","?","?","?","X","X","X","X","X","X","X","X","X","X","X","X","X","X","X","X","X","X","X","X","X","X","X","X","X","X","X","X","X","X","X","X","X","X","X","X","X","X","X","X","X","X","X","X","X","X","X","X","X","X","X","X","X","X","X","X","X","X","?","?","?","?","?","?","?","?","?","?","?","?","?","?","?","?","?","?","?","?","?","?","?","?","?","?","?","?","?","?","?","?","?","?","?","?","?","?","?","?","?","?","?","?","?","?","?","?","?","?","?","?","?","?","?","?","?","?","?","?","?","?","?","?","?","?","?","?","?","?","?","?","?","?","?","?","?","?","?","?","?","?","?","?","?","?","?","?","?","?","?","?","X","X","?","?","V","U","?","T","T","T","T","T","?","?","?","?","?","?","?","?","?","T","?","?","?","?","?","?","?","?","?","?","?","?","Z","Z","Z","Z","Z","Z","Z","Z","Z","Z","Z","Z","Z","Z","Z","Z","Z","Z","Z","Z","Z","Z","Z","Z","Z","Z","Z","Z","Z","?","?","?","?","?","?","?","?","?","?","?","?","?","?","?","?","?","X","X","?","N","?","M","M","?","?","?","?","?","?","?","?","?","?","?","?","?","?","?","O","?","P","Q","Q","R","R","R","R","R","?","?","?","?","?","?","?","?","?","?","?","?","?","P","P","?","Q","?","R","R","R","R","R","R","R","R","R","R","R","R","R","R","R","R","?","?","?","?","?","?","?","K","?","J","J","J","?","?","?","?","?","?","?","?","A","A","A","A","A","A","A","A","A","A","A","A","A","A","A","A","A","A","A","A","A","A","A","A","A","A","A","A","A","A","A","A","?","J","?","T","?","?","?","?","?","?","?","?","?","?","?","?","?","?","?","?","?","?","?","?","?","?","?","?","?","?","?","?","?","?","?","?","?","?","?","?","?","?","?","?","?","?","?","?","?","?","?","?","?","?","?","?","?","?","?","?","?","?","?","?","?","?","?","?","?","?","?","?","?","?","?","?","?","?","?","?","?","?","?","?","?","?","?","?","?","?","?","?","?","?","?","?","?","?","?","?","?","?","?","?","?","?","?","?","?","?","?","?","?","?","?","?","?","?","?","?","?","?","?","?","?","?","?","?","?","?","?","?","?","?","?"],"t":[30,37,56,69,86,100,117,131,145,160,175,190,205,217,230,244,259,273,286,301,313,327,341,354,368,382,397,415,430,447,461,474,487,501,514,528,541,555,569,584,597,611,625,639,653,667,681,695,708,721,736,752,767,783,797,811,825,838,852,867,880,895,909,922,937,951,965,979,992,1006,1019,1033,1047,1062,1075,1090,1105,1118,1132,1147,1162,1176,1190,1203,1216,1230,1244,1258,1272,1286,1300,1314,1328,1342,1355,1369,1383,1396,1416,1433,1449,1465,1482,1499,1518,1534,1551,1564,1577,1589,1603,1616,1630,1644,1659,1672,1692,1707,1721,1740,1760,1779,1798,1817,1837,1855,1870,1886,1902,1917,1930,1943,1957,1970,1984,1999,2012,2026,2041,2054,2068,2082,2096,2110,2123,2137,2151,2165,2179,2193,2208,2222,2238,2252,2266,2279,2294,2306,2320,2335,2349,2362,2376,2390,2404,2419,2436,2451,2469,2485,2500,2515,2528,2543,2557,2570,2584,2598,2612,2625,2639,2653,2666,2681,2694,2707,2721,2735,2748,2762,2776,2790,2804,2818,2832,2846,2860,2874,2887,2902,2917,2930,2944,2958,2972,2986,3000,3013,3026,3041,3054,3068,3083,3097,3110,3124,3138,3152,3167,3181,3194,3208,3222,3236,3250,3264,3277,3290,3305,3319,3333,3346,3360,3374,3388,3401,3416,3431,3447,3464,3478,3492,3507,3523,3536,3550,3563,3576,3590,3604,3617,3630,3645,3659,3672,3686,3700,3715,3729,3743,3757,3770,3783,3797,3812,3825,3839,3853,3867,3881,3896,3911,3925,3939,3954,3966,3980,3993,4007,4021,4035,4049,4063,4077,4094,4110,4124,4139,4154,4171,4188,4205,4219,4231,4244,4259,4273,4286,4300,4314,4327,4341,4356,4369,4385,4402,4417,4432,4445,4462,4480,4499,4519,4535,4552,4569,4589,4607,4622,4637,4652,4666,4680,4694,4707,4721,4738,4755,4767,4780,4793,4808,4823,4836,4849,4861,4874,4888,4901,4916,4934,4948,4964,4983,5000,5020,5036,5049,5064,5077,5090,5105,5119,5132,5148,5163,5179,5194,5208,5222,5239,5253,5266,5279,5297,5312,5326,5341,5354,5367,5383,5397,5411,5427,5441,5457,5476,5492,5506,5520,5534,5547,5562,5576,5591,5610,5626,5640,5654,5668,5682,5696,5710,5727,5744,5757,5770,5784,5798,5811,5827,5844,5859,5874,5888,5902,5915,5930,5944,5960,5978,5994,6009,6022,6037,6050,6062,6075,6089,6103,6120,6138,6151,6166,6179,6194,6207,6221,6235,6254,6267,6281,6294,6307,6320,6337,6353,6367,6385,6404,6421,6440,6456,6474,6490,6506,6521,6536,6552,6571,6590,6608,6622,6635,6648,6661,6675,6688,6701,6714,6726,6743,6762,6778,6791,6805,6818,6832,6847,6860,6873,6888,6902,6915,6930,6944,6958,6972,6985,7000,7014,7028,7041,7055,7068,7082,7096,7111,7125,7138,7152,7165,7180,7194,7207,7221,7235,7249,7263,7277,7291,7305,7319,7334,7348,7362,7378,7391,7405,7420,7440,7458,7473,7488,7504,7519,7533,7548,7562,7575,7589,7603,7617,7631,7645,7659,7673,7687,7702,7716,7731,7746,7761,7779,7795,7811,7825,7840,7856,7871,7888,7905,7920,7937,7954,7972,7989,8007,8022,8037,8052,8065,8083,8096,8111,8128,8145,8162,8176,8193,8208,8222,8237,8251,8265,8279,8295,8313,8332,8355,8373,8389,8402,8415,8429,8443,8458,8473,8489,8504,8520,8535,8551,8566,8582,8598,8614,8629,8645,8659,8675,8688,8701,8715,8730,8743,8757,8773,8787,8801,8814,8829,8843,8860,8875,8889,8902,8916,8930,8943,8957,8971,8985,8999,9013,9027,9041,9054,9069,9082,9096,9110,9124,9138,9155,9166,9187,9202,9217,9231,9247,9263,9278,9292,9305,9318,9332,9346,9360,9374,9388,9402,9417,9430,9446,9461,9479,9495,9510,9527,9541,9554,9568,9582,9597,9610,9623,9638,9652,9665,9679,9693,9708,9722,9736,9748,9762,9777,9791,9804,9819,9833,9846,9860,9874,9887,9902,9915,9930,9943,9957,9971,9985,9999,10013,10027,10042,10056,10069,10083,10097,10112,10125,10138,10153,10166,10180,10194,10208,10221,10235,10249,10263,10277,10292,10306,10320,10333,10348,10362,10376,10389,10403,10417,10431,10446,10462,10479,10495,10512,10528,10545,10564,10578,10591,10603,10617,10631,10645,10659,10673,10687,10701,10714,10728,10743,10758,10774,10791,10805,10818,10832,10846,10861,10874,10888,10902,10915,10930,10944,10958,10971,10985,10999,11013,11027,11040,11055,11069,11083,11096,11110,11124,11138,11152,11166,11180,11195,11208,11221,11235,11249,11263,11276,11290,11305,11318,11332,11346,11361,11375,11388,11404,11417,11431,11450,11465,11485,11501,11518,11534,11550,11566,11582,11596,11610,11625,11638,11652,11666,11680,11693,11708,11723,11738,11752,11766,11779,11793,11807,11823,11836,11849,11864,11881,11895,11910,11925,11940,11954,11966,11979,11992,12006,12020,12034,12048,12061,12075,12090,12104,12118,12132,12145,12159,12173,12187,12201,12215,12229,12242,12256,12270,12284,12298,12312,12325,12339,12353,12368,12381,12396,12410,12424,12439,12457,12475,12493,12511,12530,12546,12565,12578,12591,12607,12621,12635,12650,12663,12676,12689,12703,12717,12730,12745,12758,12772,12785,12799,12814,12830,12844,12857,12871,12885,12898,12913,12927,12940,12953,12966,12978,12993,13007,13022,13037,13051,13065,13078,13091,13109,13124,13138,13155,13171,13187,13201,13215,13230,13246,13262,13277,13294,13309,13321,13339,13353,13367,13381,13395,13409,13423,13437,13452,13468,13486,13507,13524,13542,13557,13573,13588,13601,13614,13627,13642,13656,13669,13683,13696,13710,13723,13737,13751,13766,13779,13793,13808,13823,13840,13854,13868,13882,13895,13909,13923,13937,13951,13965,13979,13993,14008,14022,14037,14051,14065,14078,14092,14106,14120,14133,14149,14167,14180,14194,14208,14222,14236,14251,14266,14279,14293,14309,14328,14345,14361,14375,14389,14402,14416,14430,14444,14463,14479,14496,14512,14531,14548,14562,14578,14591,14605,14619,14633,14646,14660,14673,14687,14701,14715,14729,14743,14757,14771,14785,14798,14812,14826,14839,14854,14868,14881,14895,14908,14923,14936,14951,14965,14978,14992,15007,15020,15034,15049,15062,15075,15090,15104,15118,15132,15147,15164,15180,15202,15215,15228,15242,15256,15271,15285,15298,15312,15326,15340,15355,15369,15384,15398,15412,15426,15440,15454,15469,15484,15500,15519,15535,15553,15570,15586,15601,15616,15628,15641,15655,15668,15681,15694,15708,15722,15736,15750,15763,15778,15791,15806,15820,15834,15847,15861,15875,15890,15903,15917,15931,15944,15958,15972,15985,15999,16013,16027,16042,16055,16070,16084,16098,16111,16125,16138,16153,16166,16180,16194,16209],"hit":[null],"x":[0.07482993197278912,0.08843537414965986,0.10884353741496598,0.11564625850340136,0.10884353741496598,0.09523809523809523,0.0782312925170068,0.05782312925170068,0.034013605442176874,-0.006802721088435374,-0.047619047619047616,-0.0782312925170068,-0.08503401360544217,-0.08503401360544217,-0.08503401360544217,-0.08503401360544217,-0.08503401360544217,-0.08503401360544217,-0.08503401360544217,-0.08503401360544217,-0.08503401360544217,-0.08503401360544217,-0.08503401360544217,-0.08503401360544217,-0.08503401360544217,-0.08503401360544217,-0.08503401360544217,-0.08503401360544217,-0.08503401360544217,-0.08503401360544217,-0.08503401360544217,-0.08503401360544217,-0.08503401360544217,-0.08503401360544217,-0.08503401360544217,-0.08503401360544217,-0.08503401360544217,-0.08503401360544217,-0.08503401360544217,-0.08503401360544217,-0.08503401360544217,-0.08503401360544217,-0.08503401360544217,-0.08503401360544217,-0.08503401360544217,-0.08503401360544217,-0.08503401360544217,-0.08503401360544217,-0.08503401360544217,-0.08503401360544217,-0.08503401360544217,-0.08503401360544217,-0.08503401360544217,-0.08503401360544217,-0.08503401360544217,-0.08503401360544217,-0.08503401360544217,-0.08503401360544217,-0.08503401360544217,-0.08503401360544217,-0.08503401360544217,-0.09863945578231292,-0.1326530612244898,-0.1870748299319728,-0.23469387755102042,-0.23469387755102042,-0.23469387755102042,-0.23469387755102042,-0.23469387755102042,-0.23469387755102042,-0.23469387755102042,-0.23469387755102042,-0.23469387755102042,-0.23469387755102042,-0.23469387755102042,-0.20748299319727892,-0.16326530612244897,-0.12244897959183673,-0.04081632653061224,0.04421768707482993,0.14285714285714285,0.23809523809523808,0.336734693877551,0.42857142857142855,0.5170068027210885,0.6054421768707483,0.6870748299319728,0.7278911564625851,0.7414965986394558,0.7448979591836735,0.7448979591836735,0.7448979591836735,0.7448979591836735,0.7414965986394558,0.7312925170068028,0.717687074829932,0.7108843537414966,0.7006802721088435,0.6666666666666666,0.6190476190476191,0.5578231292517006,0.5238095238095238,0.5,0.46258503401360546,0.4013605442176871,0.3401360544217687,0.2619047619047619,0.21768707482993196,0.19387755102040816,0.1870748299319728,0.1836734693877551,0.1836734693877551,0.1836734693877551,0.1836734693877551,0.1870748299319728,0.19047619047619047,0.2108843537414966,0.23809523809523808,0.2653061224489796,0.29931972789115646,0.32653061224489793,0.3299319727891156,0.3299319727891156,0.3299319727891156,0.3299319727891156,0.3299319727891156,0.3299319727891156,0.32653061224489793,0.3231292517006803,0.3231292517006803,0.3231292517006803,0.3231292517006803,0.3231292517006803,0.3231292517006803,0.3231292517006803,0.3231292517006803,0.3231292517006803,0.3231292517006803,0.3231292517006803,0.3231292517006803,0.3231292517006803,0.3231292517006803,0.3231292517006803,0.3231292517006803,0.3231292517006803,0.3231292517006803,0.3231292517006803,0.3231292517006803,0.3231292517006803,0.3231292517006803,0.3231292517006803,0.3231292517006803,0.3197278911564626,0.30952380952380953,0.30612244897959184,0.30612244897959184,0.30612244897959184,0.30612244897959184,0.30612244897959184,0.30612244897959184,0.30612244897959184,0.30612244897959184,0.30612244897959184,0.30612244897959184,0.30612244897959184,0.30612244897959184,0.30612244897959184,0.30612244897959184,0.30612244897959184,0.30612244897959184,0.30612244897959184,0.30612244897959184,0.30612244897959184,0.30612244897959184,0.30612244897959184,0.30612244897959184,0.30612244897959184,0.30612244897959184,0.30612244897959184,0.30612244897959184,0.30612244897959184,0.30612244897959184,0.30612244897959184,0.30612244897959184,0.30612244897959184,0.30612244897959184,0.30612244897959184,0.30612244897959184,0.30612244897959184,0.30612244897959184,0.30612244897959184,0.30612244897959184,0.30612244897959184,0.30612244897959184,0.30612244897959184,0.30612244897959184,0.30612244897959184,0.30612244897959184,0.30612244897959184,0.30612244897959184,0.30612244897959184,0.30612244897959184,0.30612244897959184,0.30612244897959184,0.30612244897959184,0.30612244897959184,0.30612244897959184,0.30612244897959184,0.30612244897959184,0.30612244897959184,0.30612244897959184,0.30612244897959184,0.30612244897959184,0.30612244897959184,0.30612244897959184,0.30612244897959184,0.30612244897959184,0.30612244897959184,0.30612244897959184,0.30612244897959184,0.30612244897959184,0.30612244897959184,0.30612244897959184,0.30612244897959184,0.30612244897959184,0.30612244897959184,0.30612244897959184,0.30612244897959184,0.30612244897959184,0.30612244897959184,0.30612244897959184,0.30612244897959184,0.30612244897959184,0.30612244897959184,0.30612244897959184,0.30272108843537415,0.30272108843537415,0.30272108843537415,0.30272108843537415,0.30272108843537415,0.30272108843537415,0.30272108843537415,0.30272108843537415,0.30272108843537415,0.30272108843537415,0.30272108843537415,0.30272108843537415,0.30272108843537415,0.30272108843537415,0.30272108843537415,0.30272108843537415,0.30272108843537415,0.30272108843537415,0.30272108843537415,0.30272108843537415,0.30272108843537415,0.30272108843537415,0.30272108843537415,0.30272108843537415,0.30272108843537415,0.30272108843537415,0.30272108843537415,0.30272108843537415,0.30272108843537415,0.30272108843537415,0.30272108843537415,0.30272108843537415,0.30272108843537415,0.29931972789115646,0.2857142857142857,0.272108843537415,0.2585034013605442,0.24829931972789115,0.22789115646258504,0.2108843537414966,0.19047619047619047,0.17346938775510204,0.16666666666666666,0.16666666666666666,0.16326530612244897,0.16326530612244897,0.16326530612244897,0.16666666666666666,0.18027210884353742,0.20748299319727892,0.22789115646258504,0.23809523809523808,0.24149659863945577,0.23809523809523808,0.21768707482993196,0.19727891156462585,0.18027210884353742,0.17346938775510204,0.17006802721088435,0.17006802721088435,0.17006802721088435,0.17006802721088435,0.16666666666666666,0.16666666666666666,0.16666666666666666,0.16326530612244897,0.16326530612244897,0.16326530612244897,0.16326530612244897,0.16326530612244897,0.16326530612244897,0.16326530612244897,0.16326530612244897,0.1564625850340136,0.1326530612244898,0.11224489795918367,0.09523809523809523,0.08503401360544217,0.08503401360544217,0.08503401360544217,0.10204081632653061,0.12585034013605442,0.1564625850340136,0.1870748299319728,0.23809523809523808,0.2891156462585034,0.336734693877551,0.38095238095238093,0.42517006802721086,0.46258503401360546,0.4897959183673469,0.5102040816326531,0.5204081632653061,0.5272108843537415,0.5374149659863946,0.54421768707483,0.5612244897959183,0.5748299319727891,0.5748299319727891,0.5782312925170068,0.5782312925170068,0.5782312925170068,0.5782312925170068,0.5782312925170068,0.5782312925170068,0.5782312925170068,0.5782312925170068,0.5782312925170068,0.5782312925170068,0.5782312925170068,0.5782312925170068,0.5782312925170068,0.5782312925170068,0.5782312925170068,0.5782312925170068,0.5748299319727891,0.564625850340136,0.5510204081632653,0.5340136054421769,0.5034013605442177,0.47619047619047616,0.43537414965986393,0.4013605442176871,0.3741496598639456,0.3469387755102041,0.30952380952380953,0.2891156462585034,0.2585034013605442,0.22789115646258504,0.1836734693877551,0.14965986394557823,0.1360544217687075,0.12585034013605442,0.12585034013605442,0.12585034013605442,0.12585034013605442,0.12585034013605442,0.12585034013605442,0.12585034013605442,0.12585034013605442,0.12585034013605442,0.12585034013605442,0.12585034013605442,0.12585034013605442,0.12585034013605442,0.1292517006802721,0.1292517006802721,0.1326530612244898,0.1326530612244898,0.14625850340136054,0.2108843537414966,0.2891156462585034,0.3707482993197279,0.4523809523809524,0.4965986394557823,0.5238095238095238,0.5340136054421769,0.5374149659863946,0.5340136054421769,0.5340136054421769,0.5306122448979592,0.5306122448979592,0.5306122448979592,0.5306122448979592,0.5306122448979592,0.5306122448979592,0.5306122448979592,0.5306122448979592,0.5306122448979592,0.5306122448979592,0.5306122448979592,0.5306122448979592,0.5306122448979592,0.5306122448979592,0.5272108843537415,0.5238095238095238,0.5170068027210885,0.5136054421768708,0.5102040816326531,0.5068027210884354,0.5034013605442177,0.5034013605442177,0.5,0.4965986394557823,0.4931972789115646,0.48639455782312924,0.47959183673469385,0.47278911564625853,0.46258503401360546,0.45918367346938777,0.4557823129251701,0.4523809523809524,0.4523809523809524,0.4523809523809524,0.4523809523809524,0.4523809523809524,0.445578231292517,0.4421768707482993,0.43197278911564624,0.4217687074829932,0.41156462585034015,0.3945578231292517,0.38095238095238093,0.36054421768707484,0.3299319727891156,0.2925170068027211,0.24829931972789115,0.20408163265306123,0.1598639455782313,0.12585034013605442,0.10204081632653061,0.08163265306122448,0.06462585034013606,0.05442176870748299,0.04421768707482993,0.04081632653061224,0.04081632653061224,0.04081632653061224,0.03741496598639456,0.030612244897959183,0.02040816326530612,0.013605442176870748,0.006802721088435374,0.003401360544217687,0,-0.003401360544217687,-0.003401360544217687,-0.003401360544217687,-0.003401360544217687,-0.003401360544217687,-0.003401360544217687,-0.003401360544217687,-0.003401360544217687,-0.003401360544217687,-0.003401360544217687,-0.003401360544217687,-0.003401360544217687,-0.003401360544217687,-0.003401360544217687,-0.003401360544217687,-0.003401360544217687,-0.003401360544217687,-0.003401360544217687,-0.003401360544217687,-0.003401360544217687,-0.003401360544217687,-0.003401360544217687,-0.003401360544217687,-0.003401360544217687,-0.003401360544217687,-0.003401360544217687,-0.003401360544217687,-0.003401360544217687,-0.003401360544217687,-0.003401360544217687,-0.003401360544217687,-0.003401360544217687,-0.003401360544217687,-0.003401360544217687,0.013605442176870748,0.03741496598639456,0.08163265306122448,0.1326530612244898,0.20068027210884354,0.2789115646258503,0.3673469387755102,0.47278911564625853,0.5850340136054422,0.6972789115646258,0.7687074829931972,0.826530612244898,0.8503401360544217,0.8503401360544217,0.8503401360544217,0.8503401360544217,0.8503401360544217,0.8503401360544217,0.8503401360544217,0.8503401360544217,0.8503401360544217,0.8503401360544217,0.8503401360544217,0.8503401360544217,0.8503401360544217,0.8503401360544217,0.8503401360544217,0.8503401360544217,0.8503401360544217,0.8503401360544217,0.8503401360544217,0.8503401360544217,0.8503401360544217,0.8503401360544217,0.8503401360544217,0.8503401360544217,0.8503401360544217,0.8503401360544217,0.8503401360544217,0.8503401360544217,0.8503401360544217,0.8503401360544217,0.8503401360544217,0.8503401360544217,0.8503401360544217,0.8503401360544217,0.8503401360544217,0.8503401360544217,0.8503401360544217,0.8503401360544217,0.8503401360544217,0.8503401360544217,0.8503401360544217,0.8503401360544217,0.8503401360544217,0.8503401360544217,0.8503401360544217,0.8503401360544217,0.8503401360544217,0.8503401360544217,0.8503401360544217,0.8503401360544217,0.8503401360544217,0.8503401360544217,0.8503401360544217,0.8503401360544217,0.8503401360544217,0.8503401360544217,0.8503401360544217,0.8503401360544217,0.8503401360544217,0.8503401360544217,0.8503401360544217,0.8503401360544217,0.8503401360544217,0.8503401360544217,0.8503401360544217,0.8503401360544217,0.8503401360544217,0.8503401360544217,0.8503401360544217,0.8503401360544217,0.8503401360544217,0.8503401360544217,0.8503401360544217,0.8503401360544217,0.8503401360544217,0.8503401360544217,0.8503401360544217,0.8503401360544217,0.8503401360544217,0.8503401360544217,0.8503401360544217,0.8503401360544217,0.8503401360544217,0.8503401360544217,0.8503401360544217,0.8503401360544217,0.8503401360544217,0.8503401360544217,0.8503401360544217,0.8503401360544217,0.8503401360544217,0.8503401360544217,0.8503401360544217,0.8435374149659864,0.8163265306122449,0.7993197278911565,0.7925170068027211,0.7891156462585034,0.7789115646258503,0.7789115646258503,0.7789115646258503,0.7789115646258503,0.7789115646258503,0.7789115646258503,0.7789115646258503,0.7789115646258503,0.7789115646258503,0.7789115646258503,0.7789115646258503,0.7789115646258503,0.7789115646258503,0.7789115646258503,0.7789115646258503,0.7789115646258503,0.7789115646258503,0.7789115646258503,0.7789115646258503,0.782312925170068,0.7857142857142857,0.7857142857142857,0.7857142857142857,0.7857142857142857,0.7857142857142857,0.7857142857142857,0.7789115646258503,0.7687074829931972,0.7653061224489796,0.7619047619047619,0.7619047619047619,0.7619047619047619,0.7619047619047619,0.7619047619047619,0.7619047619047619,0.7619047619047619,0.7619047619047619,0.7619047619047619,0.7619047619047619,0.7619047619047619,0.7619047619047619,0.7619047619047619,0.7619047619047619,0.7619047619047619,0.7619047619047619,0.7619047619047619,0.7619047619047619,0.7619047619047619,0.7619047619047619,0.7619047619047619,0.7619047619047619,0.7619047619047619,0.7619047619047619,0.7619047619047619,0.7619047619047619,0.7619047619047619,0.7619047619047619,0.7619047619047619,0.7619047619047619,0.7619047619047619,0.7619047619047619,0.7619047619047619,0.7619047619047619,0.7619047619047619,0.7619047619047619,0.7619047619047619,0.7619047619047619,0.7619047619047619,0.7619047619047619,0.7619047619047619,0.7619047619047619,0.7619047619047619,0.7619047619047619,0.7619047619047619,0.7619047619047619,0.7619047619047619,0.7619047619047619,0.7585034013605442,0.7585034013605442,0.7585034013605442,0.7551020408163265,0.7551020408163265,0.7551020408163265,0.7551020408163265,0.7551020408163265,0.7551020408163265,0.7551020408163265,0.7482993197278912,0.7482993197278912,0.7482993197278912,0.7482993197278912,0.7482993197278912,0.7482993197278912,0.7482993197278912,0.7482993197278912,0.7482993197278912,0.7482993197278912,0.7482993197278912,0.7517006802721088,0.7551020408163265,0.7551020408163265,0.7585034013605442,0.7585034013605442,0.7585034013605442,0.7585034013605442,0.7585034013605442,0.7585034013605442,0.7585034013605442,0.7585034013605442,0.7585034013605442,0.7585034013605442,0.7585034013605442,0.7585034013605442,0.7585034013605442,0.7585034013605442,0.7585034013605442,0.7585034013605442,0.7585034013605442,0.7585034013605442,0.7585034013605442,0.7585034013605442,0.7585034013605442,0.7585034013605442,0.7585034013605442,0.7585034013605442,0.7585034013605442,0.7585034013605442,0.7585034013605442,0.7585034013605442,0.7585034013605442,0.7585034013605442,0.7585034013605442,0.7585034013605442,0.7585034013605442,0.7585034013605442,0.7585034013605442,0.7585034013605442,0.7585034013605442,0.7585034013605442,0.7585034013605442,0.7585034013605442,0.7585034013605442,0.7585034013605442,0.7585034013605442,0.7585034013605442,0.7585034013605442,0.7585034013605442,0.7585034013605442,0.7585034013605442,0.7585034013605442,0.7585034013605442,0.7585034013605442,0.7585034013605442,0.7585034013605442,0.7585034013605442,0.7585034013605442,0.7585034013605442,0.7585034013605442,0.7585034013605442,0.7585034013605442,0.7585034013605442,0.7585034013605442,0.7585034013605442,0.7585034013605442,0.7585034013605442,0.7585034013605442,0.7585034013605442,0.7585034013605442,0.7585034013605442,0.7585034013605442,0.7585034013605442,0.7585034013605442,0.7585034013605442,0.7585034013605442,0.7585034013605442,0.7585034013605442,0.7585034013605442,0.7585034013605442,0.7380952380952381,0.6972789115646258,0.6360544217687075,0.5306122448979592,0.43197278911564624,0.30612244897959184,0.21768707482993196,0.17006802721088435,0.15306122448979592,0.14285714285714285,0.12585034013605442,0.1054421768707483,0.08503401360544217,0.06802721088435375,0.06462585034013606,0.06462585034013606,0.061224489795918366,0.05782312925170068,0.05782312925170068,0.05782312925170068,0.06462585034013606,0.10204081632653061,0.16666666666666666,0.24829931972789115,0.3333333333333333,0.45918367346938777,0.6054421768707483,0.7210884353741497,0.8503401360544217,0.9455782312925171,1.0034013605442176,1.0408163265306123,1.0476190476190477,1.0476190476190477,1.0442176870748299,1.0408163265306123,1.0408163265306123,1.0374149659863945,1.0374149659863945,1.0374149659863945,1.0374149659863945,1.0374149659863945,1.0374149659863945,1.034013605442177,1.0272108843537415,1.0170068027210883,1.0068027210884354,0.9965986394557823,0.9931972789115646,0.9931972789115646,0.9931972789115646,0.9931972789115646,0.9931972789115646,0.9931972789115646,0.9931972789115646,0.9931972789115646,0.9931972789115646,0.9931972789115646,0.9931972789115646,0.9931972789115646,0.9965986394557823,1.0068027210884354,1.0170068027210883,1.0272108843537415,1.0374149659863945,1.0442176870748299,1.0476190476190477,1.0510204081632653,1.054421768707483,1.054421768707483,1.0510204081632653,1.0408163265306123,1.0204081632653061,0.9931972789115646,0.9591836734693877,0.9319727891156463,0.9149659863945578,0.8979591836734694,0.8707482993197279,0.8095238095238095,0.7585034013605442,0.7006802721088435,0.6258503401360545,0.564625850340136,0.5068027210884354,0.4523809523809524,0.41156462585034015,0.391156462585034,0.3843537414965986,0.38095238095238093,0.37755102040816324,0.3741496598639456,0.3707482993197279,0.3673469387755102,0.3673469387755102,0.3673469387755102,0.3673469387755102,0.3877551020408163,0.4217687074829932,0.47278911564625853,0.5374149659863946,0.6122448979591837,0.7074829931972789,0.7993197278911565,0.8979591836734694,0.9829931972789115,1.054421768707483,1.0952380952380953,1.1156462585034013,1.119047619047619,1.119047619047619,1.1156462585034013,1.1020408163265305,1.0850340136054422,1.0748299319727892,1.0578231292517006,1.0272108843537415,0.9931972789115646,0.9421768707482994,0.8945578231292517,0.8537414965986394,0.8095238095238095,0.7789115646258503,0.7687074829931972,0.7789115646258503,0.8163265306122449,0.8673469387755102,0.935374149659864,1.010204081632653,1.0612244897959184,1.1122448979591837,1.1428571428571428,1.1564625850340136,1.1564625850340136,1.1564625850340136,1.1564625850340136,1.1564625850340136,1.1564625850340136,1.1564625850340136,1.1564625850340136,1.1564625850340136,1.1564625850340136,1.1564625850340136,1.1564625850340136,1.153061224489796,1.1054421768707483,1,0.8673469387755102,0.7006802721088435,0.5340136054421769,0.41156462585034015,0.30952380952380953,0.20748299319727892,0.12585034013605442,0.06462585034013606,0.023809523809523808,-0.003401360544217687,-0.006802721088435374,-0.006802721088435374,-0.003401360544217687,0.003401360544217687,0.013605442176870748,0.017006802721088437,0.02040816326530612,0.023809523809523808,0.023809523809523808,0.027210884353741496,0.027210884353741496,0.027210884353741496,0.027210884353741496,0.027210884353741496,0.027210884353741496,0.027210884353741496,0.027210884353741496,0.027210884353741496,0.027210884353741496,0.023809523809523808,0.02040816326530612,0.017006802721088437,0.013605442176870748,0.013605442176870748,0.01020408163265306,0.01020408163265306,0.006802721088435374,0.006802721088435374,0.006802721088435374,0.006802721088435374,0.006802721088435374,0.006802721088435374,0.006802721088435374,0.006802721088435374,0.006802721088435374,0.006802721088435374,0.006802721088435374,0.006802721088435374,0.006802721088435374,0.006802721088435374,0.013605442176870748,0.030612244897959183,0.05782312925170068,0.10204081632653061,0.1870748299319728,0.2687074829931973,0.3401360544217687,0.4013605442176871,0.4489795918367347,0.4931972789115646,0.5476190476190477,0.6020408163265306,0.673469387755102,0.7755102040816326,0.8843537414965986,0.9829931972789115,1.054421768707483,1.0952380952380953,1.098639455782313,1.098639455782313,1.098639455782313,1.098639455782313,1.098639455782313,1.098639455782313,1.0952380952380953,1.0952380952380953,1.0952380952380953,1.0952380952380953,1.0952380952380953,1.0952380952380953,1.0952380952380953,1.0952380952380953,1.0952380952380953,1.0952380952380953,1.0952380952380953,1.0952380952380953,1.0952380952380953,1.0952380952380953,1.0952380952380953,1.0952380952380953,1.0952380952380953,1.0952380952380953,1.0952380952380953,1.0952380952380953,1.0952380952380953,1.0952380952380953,1.0952380952380953,1.0952380952380953,1.0952380952380953,1.0952380952380953,1.0952380952380953,1.0952380952380953,1.0952380952380953,1.0952380952380953,1.0952380952380953,1.0952380952380953,1.0952380952380953,1.0952380952380953,1.0952380952380953,1.0918367346938775,1.0850340136054422,1.0748299319727892,1.054421768707483,1.0170068027210883,0.9591836734693877,0.9013605442176871,0.8401360544217688,0.7653061224489796,0.6768707482993197,0.5748299319727891,0.47959183673469385,0.4013605442176871,0.3401360544217687,0.30952380952380953,0.30612244897959184,0.30272108843537415,0.30272108843537415,0.3197278911564626,0.35034013605442177,0.391156462585034,0.445578231292517,0.5136054421768708,0.5884353741496599,0.6632653061224489,0.7380952380952381,0.8061224489795918,0.8673469387755102,0.9013605442176871,0.9115646258503401,0.9115646258503401,0.9115646258503401,0.9115646258503401,0.9115646258503401,0.9115646258503401,0.9115646258503401,0.9115646258503401,0.9115646258503401,0.9115646258503401,0.9115646258503401,0.9115646258503401,0.9115646258503401,0.9115646258503401,0.9115646258503401,0.9115646258503401,0.9115646258503401,0.9115646258503401,0.9115646258503401,0.9115646258503401,0.9115646258503401,0.9115646258503401,0.9115646258503401,0.9115646258503401,0.9115646258503401,0.9115646258503401,0.9115646258503401,0.9115646258503401,0.9115646258503401,0.9115646258503401,0.9115646258503401,0.9115646258503401,0.9115646258503401,0.9115646258503401,0.9115646258503401,0.9115646258503401,0.9115646258503401,0.9115646258503401,0.9115646258503401,0.9115646258503401,0.9115646258503401,0.9115646258503401,0.9115646258503401,0.9115646258503401,0.9115646258503401,0.9115646258503401,0.9115646258503401,0.9115646258503401],"y":[0.6047619047619047,0.719047619047619,0.9285714285714286,1.2047619047619047,1.4904761904761905,1.6333333333333333,1.7380952380952381,1.7857142857142858,1.8142857142857143,1.8333333333333333,1.8428571428571427,1.8238095238095238,1.7666666666666666,1.7571428571428571,1.7571428571428571,1.7571428571428571,1.7571428571428571,1.7571428571428571,1.7571428571428571,1.7571428571428571,1.7571428571428571,1.7571428571428571,1.7571428571428571,1.7571428571428571,1.7571428571428571,1.7571428571428571,1.7571428571428571,1.7571428571428571,1.7571428571428571,1.7571428571428571,1.7571428571428571,1.7571428571428571,1.7571428571428571,1.7571428571428571,1.7571428571428571,1.7571428571428571,1.7571428571428571,1.7571428571428571,1.7571428571428571,1.7571428571428571,1.7571428571428571,1.7571428571428571,1.7571428571428571,1.7571428571428571,1.7571428571428571,1.7571428571428571,1.7571428571428571,1.7571428571428571,1.7571428571428571,1.7571428571428571,1.7571428571428571,1.7571428571428571,1.7571428571428571,1.7571428571428571,1.7476190476190476,1.7476190476190476,1.7476190476190476,1.7476190476190476,1.7476190476190476,1.7476190476190476,1.7380952380952381,1.7285714285714286,1.7190476190476192,1.7380952380952381,1.776190476190476,1.776190476190476,1.776190476190476,1.776190476190476,1.776190476190476,1.776190476190476,1.776190476190476,1.776190476190476,1.776190476190476,1.776190476190476,1.776190476190476,1.7571428571428571,1.7285714285714286,1.7190476190476192,1.7285714285714286,1.7476190476190476,1.776190476190476,1.7857142857142858,1.7952380952380953,1.7952380952380953,1.776190476190476,1.7571428571428571,1.7285714285714286,1.7190476190476192,1.7190476190476192,1.7190476190476192,1.7190476190476192,1.7190476190476192,1.7190476190476192,1.7190476190476192,1.7190476190476192,1.7190476190476192,1.7190476190476192,1.7190476190476192,1.6904761904761905,1.6428571428571428,1.5666666666666667,1.4523809523809523,1.2619047619047619,0.9761904761904762,0.5476190476190477,0.3,0.11904761904761904,0.06190476190476191,0.03333333333333333,0.023809523809523808,0.023809523809523808,0.023809523809523808,0.023809523809523808,0.03333333333333333,0.07142857142857142,0.1,0.15714285714285714,0.19523809523809524,0.23333333333333334,0.28095238095238095,0.3,0.30952380952380953,0.30952380952380953,0.3,0.2619047619047619,0.22380952380952382,0.20476190476190476,0.1761904761904762,0.1761904761904762,0.1761904761904762,0.1761904761904762,0.16666666666666666,0.16666666666666666,0.16666666666666666,0.16666666666666666,0.16666666666666666,0.16666666666666666,0.16666666666666666,0.16666666666666666,0.16666666666666666,0.16666666666666666,0.16666666666666666,0.16666666666666666,0.16666666666666666,0.16666666666666666,0.16666666666666666,0.16666666666666666,0.16666666666666666,0.16666666666666666,0.16666666666666666,0.16666666666666666,0.16666666666666666,0.16666666666666666,0.15714285714285714,0.15714285714285714,0.15714285714285714,0.15714285714285714,0.15714285714285714,0.15714285714285714,0.15714285714285714,0.15714285714285714,0.15714285714285714,0.15714285714285714,0.15714285714285714,0.15714285714285714,0.15714285714285714,0.15714285714285714,0.15714285714285714,0.15714285714285714,0.15714285714285714,0.15714285714285714,0.15714285714285714,0.15714285714285714,0.15714285714285714,0.15714285714285714,0.15714285714285714,0.15714285714285714,0.15714285714285714,0.15714285714285714,0.15714285714285714,0.15714285714285714,0.15714285714285714,0.15714285714285714,0.15714285714285714,0.15714285714285714,0.15714285714285714,0.15714285714285714,0.15714285714285714,0.15714285714285714,0.15714285714285714,0.15714285714285714,0.15714285714285714,0.15714285714285714,0.15714285714285714,0.15714285714285714,0.15714285714285714,0.15714285714285714,0.15714285714285714,0.15714285714285714,0.15714285714285714,0.15714285714285714,0.15714285714285714,0.15714285714285714,0.15714285714285714,0.15714285714285714,0.15714285714285714,0.15714285714285714,0.15714285714285714,0.15714285714285714,0.15714285714285714,0.15714285714285714,0.15714285714285714,0.15714285714285714,0.15714285714285714,0.15714285714285714,0.15714285714285714,0.15714285714285714,0.15714285714285714,0.15714285714285714,0.15714285714285714,0.15714285714285714,0.15714285714285714,0.15714285714285714,0.15714285714285714,0.15714285714285714,0.15714285714285714,0.15714285714285714,0.15714285714285714,0.15714285714285714,0.15714285714285714,0.15714285714285714,0.15714285714285714,0.16666666666666666,0.16666666666666666,0.1761904761904762,0.1761904761904762,0.1761904761904762,0.1761904761904762,0.1761904761904762,0.1761904761904762,0.1761904761904762,0.1761904761904762,0.1761904761904762,0.1761904761904762,0.1761904761904762,0.1761904761904762,0.1761904761904762,0.1761904761904762,0.1761904761904762,0.1761904761904762,0.1761904761904762,0.1761904761904762,0.1761904761904762,0.1761904761904762,0.1761904761904762,0.1761904761904762,0.1761904761904762,0.1761904761904762,0.1761904761904762,0.1761904761904762,0.1761904761904762,0.1761904761904762,0.1761904761904762,0.1761904761904762,0.1761904761904762,0.1761904761904762,0.1761904761904762,0.1761904761904762,0.1761904761904762,0.1761904761904762,0.1761904761904762,0.18571428571428572,0.19523809523809524,0.20476190476190476,0.20476190476190476,0.20476190476190476,0.20476190476190476,0.21428571428571427,0.22380952380952382,0.23333333333333334,0.24285714285714285,0.2523809523809524,0.2619047619047619,0.2619047619047619,0.2619047619047619,0.2619047619047619,0.2619047619047619,0.22380952380952382,0.16666666666666666,0.1,0.06190476190476191,0.03333333333333333,0.023809523809523808,0.023809523809523808,0.023809523809523808,0.023809523809523808,0.023809523809523808,0.023809523809523808,0.023809523809523808,0.023809523809523808,0.023809523809523808,0.023809523809523808,0.023809523809523808,0.023809523809523808,0.023809523809523808,0.023809523809523808,0.023809523809523808,0.023809523809523808,0.014285714285714285,0.004761904761904762,0.004761904761904762,0.014285714285714285,0.03333333333333333,0.05238095238095238,0.07142857142857142,0.1,0.1380952380952381,0.1761904761904762,0.20476190476190476,0.2619047619047619,0.30952380952380953,0.32857142857142857,0.3380952380952381,0.3476190476190476,0.3476190476190476,0.319047619047619,0.28095238095238095,0.23333333333333334,0.19523809523809524,0.14761904761904762,0.11904761904761904,0.06190476190476191,0.023809523809523808,0.004761904761904762,0.004761904761904762,0.004761904761904762,0.004761904761904762,0.004761904761904762,0.004761904761904762,0.004761904761904762,0.004761904761904762,0.004761904761904762,0.004761904761904762,0.004761904761904762,0.004761904761904762,0.004761904761904762,0.004761904761904762,0.004761904761904762,0.004761904761904762,0.004761904761904762,0.004761904761904762,0.014285714285714285,0.03333333333333333,0.06190476190476191,0.10952380952380952,0.14761904761904762,0.20476190476190476,0.24285714285714285,0.2619047619047619,0.28095238095238095,0.2904761904761905,0.2904761904761905,0.2904761904761905,0.28095238095238095,0.2523809523809524,0.23333333333333334,0.21428571428571427,0.20476190476190476,0.20476190476190476,0.20476190476190476,0.20476190476190476,0.19523809523809524,0.19523809523809524,0.19523809523809524,0.19523809523809524,0.19523809523809524,0.19523809523809524,0.19523809523809524,0.19523809523809524,0.19523809523809524,0.18571428571428572,0.1761904761904762,0.1761904761904762,0.1761904761904762,0.11904761904761904,-0.05238095238095238,-0.3,-0.5666666666666667,-0.8428571428571429,-1.0333333333333334,-1.223809523809524,-1.3666666666666667,-1.4714285714285715,-1.5476190476190477,-1.5952380952380953,-1.6238095238095238,-1.6333333333333333,-1.6428571428571428,-1.6428571428571428,-1.6428571428571428,-1.6428571428571428,-1.6428571428571428,-1.6428571428571428,-1.6428571428571428,-1.6428571428571428,-1.6428571428571428,-1.6428571428571428,-1.6428571428571428,-1.6428571428571428,-1.6238095238095238,-1.5952380952380953,-1.5666666666666667,-1.5380952380952382,-1.5285714285714285,-1.5095238095238095,-1.5,-1.480952380952381,-1.4523809523809523,-1.4142857142857144,-1.3666666666666667,-1.2523809523809524,-1.1476190476190475,-1.0523809523809524,-0.9571428571428572,-0.8523809523809524,-0.7857142857142857,-0.7380952380952381,-0.7095238095238096,-0.680952380952381,-0.6619047619047619,-0.6333333333333333,-0.6047619047619047,-0.5761904761904761,-0.5380952380952381,-0.49047619047619045,-0.4238095238095238,-0.3761904761904762,-0.3380952380952381,-0.3,-0.2523809523809524,-0.20476190476190476,-0.14761904761904762,-0.1,-0.06190476190476191,-0.03333333333333333,-0.014285714285714285,0.014285714285714285,0.03333333333333333,0.04285714285714286,0.06190476190476191,0.06190476190476191,0.06190476190476191,0.06190476190476191,0.06190476190476191,0.06190476190476191,0.06190476190476191,0.06190476190476191,0.05238095238095238,0.04285714285714286,0.03333333333333333,0.03333333333333333,0.03333333333333333,0.03333333333333333,0.03333333333333333,0.03333333333333333,0.03333333333333333,0.03333333333333333,0.03333333333333333,0.03333333333333333,0.03333333333333333,0.03333333333333333,0.03333333333333333,0.03333333333333333,0.03333333333333333,0.03333333333333333,0.03333333333333333,0.03333333333333333,0.03333333333333333,0.03333333333333333,0.03333333333333333,0.03333333333333333,0.03333333333333333,0.03333333333333333,0.03333333333333333,0.03333333333333333,0.03333333333333333,0.03333333333333333,0.03333333333333333,0.03333333333333333,0.03333333333333333,0.03333333333333333,0.03333333333333333,0.03333333333333333,0.03333333333333333,0.08095238095238096,0.1380952380952381,0.22380952380952382,0.319047619047619,0.4523809523809524,0.5666666666666667,0.7,0.8333333333333334,0.9761904761904762,1.1095238095238096,1.1761904761904762,1.2142857142857142,1.223809523809524,1.223809523809524,1.223809523809524,1.223809523809524,1.223809523809524,1.223809523809524,1.223809523809524,1.223809523809524,1.223809523809524,1.223809523809524,1.223809523809524,1.223809523809524,1.223809523809524,1.223809523809524,1.223809523809524,1.223809523809524,1.223809523809524,1.223809523809524,1.223809523809524,1.223809523809524,1.223809523809524,1.223809523809524,1.223809523809524,1.223809523809524,1.223809523809524,1.223809523809524,1.223809523809524,1.223809523809524,1.223809523809524,1.223809523809524,1.223809523809524,1.223809523809524,1.223809523809524,1.223809523809524,1.223809523809524,1.223809523809524,1.223809523809524,1.223809523809524,1.223809523809524,1.223809523809524,1.223809523809524,1.223809523809524,1.223809523809524,1.223809523809524,1.223809523809524,1.223809523809524,1.223809523809524,1.223809523809524,1.223809523809524,1.223809523809524,1.223809523809524,1.223809523809524,1.223809523809524,1.223809523809524,1.223809523809524,1.223809523809524,1.223809523809524,1.223809523809524,1.223809523809524,1.223809523809524,1.223809523809524,1.223809523809524,1.223809523809524,1.223809523809524,1.223809523809524,1.223809523809524,1.223809523809524,1.223809523809524,1.223809523809524,1.223809523809524,1.223809523809524,1.223809523809524,1.223809523809524,1.223809523809524,1.223809523809524,1.223809523809524,1.223809523809524,1.223809523809524,1.223809523809524,1.223809523809524,1.223809523809524,1.223809523809524,1.223809523809524,1.223809523809524,1.223809523809524,1.223809523809524,1.223809523809524,1.223809523809524,1.223809523809524,1.223809523809524,1.223809523809524,1.223809523809524,1.223809523809524,1.2142857142857142,1.1761904761904762,1.1476190476190475,1.1,1.042857142857143,1.0238095238095237,1.0142857142857142,1.0142857142857142,1.0142857142857142,1.0142857142857142,1.0142857142857142,1.0142857142857142,1.0142857142857142,1.0142857142857142,1.0142857142857142,1.0142857142857142,1.0142857142857142,1.0142857142857142,1.0142857142857142,1.0142857142857142,1.0142857142857142,1.0142857142857142,1.0142857142857142,1.0142857142857142,1.0047619047619047,0.9952380952380953,0.9857142857142858,0.9666666666666667,0.9666666666666667,0.9571428571428572,0.9476190476190476,0.9476190476190476,0.9285714285714286,0.919047619047619,0.9095238095238095,0.9095238095238095,0.9095238095238095,0.9095238095238095,0.9095238095238095,0.9095238095238095,0.9095238095238095,0.9095238095238095,0.9095238095238095,0.9095238095238095,0.9095238095238095,0.9095238095238095,0.9095238095238095,0.9095238095238095,0.9095238095238095,0.9095238095238095,0.9095238095238095,0.9095238095238095,0.9095238095238095,0.9095238095238095,0.9095238095238095,0.9095238095238095,0.9095238095238095,0.9095238095238095,0.9095238095238095,0.9095238095238095,0.9095238095238095,0.9095238095238095,0.9095238095238095,0.9095238095238095,0.9095238095238095,0.9095238095238095,0.9095238095238095,0.9095238095238095,0.9095238095238095,0.9095238095238095,0.9095238095238095,0.9095238095238095,0.9095238095238095,0.9095238095238095,0.9095238095238095,0.9095238095238095,0.9095238095238095,0.9095238095238095,0.9095238095238095,0.9095238095238095,0.9095238095238095,0.9095238095238095,0.9095238095238095,0.9,0.8904761904761904,0.8904761904761904,0.8904761904761904,0.8904761904761904,0.8904761904761904,0.8809523809523809,0.8809523809523809,0.8714285714285714,0.861904761904762,0.861904761904762,0.861904761904762,0.861904761904762,0.861904761904762,0.861904761904762,0.861904761904762,0.861904761904762,0.861904761904762,0.861904761904762,0.861904761904762,0.861904761904762,0.861904761904762,0.861904761904762,0.861904761904762,0.861904761904762,0.861904761904762,0.861904761904762,0.861904761904762,0.861904761904762,0.8714285714285714,0.8714285714285714,0.8714285714285714,0.8714285714285714,0.8714285714285714,0.8714285714285714,0.8714285714285714,0.8714285714285714,0.8714285714285714,0.8714285714285714,0.8714285714285714,0.8714285714285714,0.8714285714285714,0.8714285714285714,0.8714285714285714,0.8714285714285714,0.8714285714285714,0.8714285714285714,0.8714285714285714,0.8714285714285714,0.8714285714285714,0.8714285714285714,0.8714285714285714,0.8714285714285714,0.8714285714285714,0.8714285714285714,0.8714285714285714,0.8714285714285714,0.8714285714285714,0.8714285714285714,0.8714285714285714,0.8714285714285714,0.8714285714285714,0.8714285714285714,0.8714285714285714,0.8714285714285714,0.8714285714285714,0.8714285714285714,0.8714285714285714,0.8714285714285714,0.8714285714285714,0.8714285714285714,0.8714285714285714,0.8714285714285714,0.8714285714285714,0.8714285714285714,0.8714285714285714,0.8714285714285714,0.8714285714285714,0.8714285714285714,0.8714285714285714,0.8714285714285714,0.8714285714285714,0.8714285714285714,0.8714285714285714,0.8714285714285714,0.8714285714285714,0.8714285714285714,0.8714285714285714,0.8714285714285714,0.8714285714285714,0.8714285714285714,0.8714285714285714,0.8714285714285714,0.8714285714285714,0.8714285714285714,0.8714285714285714,0.8714285714285714,0.8714285714285714,0.8714285714285714,0.8714285714285714,0.8714285714285714,0.8714285714285714,0.861904761904762,0.861904761904762,0.8714285714285714,0.9571428571428572,1.0333333333333334,1.0714285714285714,1.0809523809523809,1.0904761904761904,1.0904761904761904,1.0714285714285714,1.061904761904762,1.0523809523809524,1.0523809523809524,1.0523809523809524,1.0523809523809524,1.0523809523809524,1.0523809523809524,1.0523809523809524,1.061904761904762,1.1095238095238096,1.1571428571428573,1.1857142857142857,1.2047619047619047,1.2142857142857142,1.223809523809524,1.2333333333333334,1.2333333333333334,1.2333333333333334,1.2333333333333334,1.2047619047619047,1.1761904761904762,1.1476190476190475,1.1095238095238096,1.061904761904762,1.0333333333333334,1.0238095238095237,1.0238095238095237,1.0238095238095237,1.0238095238095237,1.0238095238095237,1.0238095238095237,1.0238095238095237,1.0238095238095237,1.0142857142857142,1.0142857142857142,1.0047619047619047,1.0047619047619047,1.0047619047619047,1.0047619047619047,1.0047619047619047,1.0047619047619047,1.0047619047619047,1.0047619047619047,1.0047619047619047,1.0047619047619047,1.0142857142857142,1.0238095238095237,1.0333333333333334,1.061904761904762,1.0904761904761904,1.138095238095238,1.1761904761904762,1.2333333333333334,1.2809523809523808,1.338095238095238,1.3761904761904762,1.3952380952380952,1.4047619047619047,1.4047619047619047,1.4142857142857144,1.4142857142857144,1.4142857142857144,1.4142857142857144,1.4047619047619047,1.3761904761904762,1.3285714285714285,1.2714285714285714,1.1476190476190475,1.042857142857143,0.9285714285714286,0.7952380952380952,0.6619047619047619,0.5285714285714286,0.4142857142857143,0.3476190476190476,0.2904761904761905,0.2714285714285714,0.24285714285714285,0.22380952380952382,0.18571428571428572,0.15714285714285714,0.14761904761904762,0.14761904761904762,0.14761904761904762,0.14761904761904762,0.14761904761904762,0.18571428571428572,0.23333333333333334,0.2714285714285714,0.319047619047619,0.3761904761904762,0.4142857142857143,0.4523809523809524,0.48095238095238096,0.49047619047619045,0.49047619047619045,0.48095238095238096,0.46190476190476193,0.44285714285714284,0.4142857142857143,0.3761904761904762,0.3476190476190476,0.319047619047619,0.2904761904761905,0.2619047619047619,0.2523809523809524,0.23333333333333334,0.23333333333333334,0.23333333333333334,0.2619047619047619,0.319047619047619,0.3952380952380952,0.46190476190476193,0.5380952380952381,0.5857142857142857,0.6142857142857143,0.6238095238095238,0.6238095238095238,0.6047619047619047,0.5952380952380952,0.5761904761904761,0.5761904761904761,0.5666666666666667,0.5571428571428572,0.5571428571428572,0.5571428571428572,0.5571428571428572,0.5571428571428572,0.5571428571428572,0.5476190476190477,0.5476190476190477,0.5476190476190477,0.5571428571428572,0.5952380952380952,0.6714285714285714,0.7666666666666667,0.8333333333333334,0.861904761904762,0.8142857142857143,0.7571428571428571,0.6904761904761905,0.6047619047619047,0.5285714285714286,0.4523809523809524,0.38571428571428573,0.3476190476190476,0.3,0.2714285714285714,0.23333333333333334,0.21428571428571427,0.18571428571428572,0.1761904761904762,0.16666666666666666,0.15714285714285714,0.14761904761904762,0.14761904761904762,0.14761904761904762,0.14761904761904762,0.14761904761904762,0.14761904761904762,0.14761904761904762,0.14761904761904762,0.14761904761904762,0.1380952380952381,0.12857142857142856,0.11904761904761904,0.10952380952380952,0.09047619047619047,0.08095238095238096,0.07142857142857142,0.06190476190476191,0.04285714285714286,0.04285714285714286,0.04285714285714286,0.03333333333333333,0.03333333333333333,0.03333333333333333,0.03333333333333333,0.03333333333333333,0.03333333333333333,0.03333333333333333,0.03333333333333333,0.03333333333333333,0.04285714285714286,0.09047619047619047,0.15714285714285714,0.2904761904761905,0.49047619047619045,0.7285714285714285,1.0809523809523809,1.3,1.4619047619047618,1.5761904761904761,1.6428571428571428,1.680952380952381,1.7,1.7095238095238094,1.7095238095238094,1.680952380952381,1.6333333333333333,1.5857142857142856,1.5476190476190477,1.5095238095238095,1.5,1.5,1.5,1.5,1.5,1.4904761904761905,1.4904761904761905,1.4904761904761905,1.4904761904761905,1.4904761904761905,1.4904761904761905,1.4904761904761905,1.4904761904761905,1.4904761904761905,1.4904761904761905,1.4904761904761905,1.4904761904761905,1.4904761904761905,1.4904761904761905,1.4904761904761905,1.4904761904761905,1.4904761904761905,1.4904761904761905,1.4904761904761905,1.4904761904761905,1.4904761904761905,1.4904761904761905,1.4904761904761905,1.4904761904761905,1.4904761904761905,1.4904761904761905,1.4904761904761905,1.4904761904761905,1.4904761904761905,1.4904761904761905,1.4904761904761905,1.4904761904761905,1.4904761904761905,1.4904761904761905,1.4904761904761905,1.4904761904761905,1.4904761904761905,1.4904761904761905,1.4904761904761905,1.4904761904761905,1.4904761904761905,1.4904761904761905,1.4904761904761905,1.480952380952381,1.4714285714285715,1.4523809523809523,1.4238095238095239,1.3952380952380952,1.3761904761904762,1.3666666666666667,1.3666666666666667,1.3666666666666667,1.3666666666666667,1.3666666666666667,1.3666666666666667,1.3857142857142857,1.4142857142857144,1.4428571428571428,1.480952380952381,1.519047619047619,1.5476190476190477,1.5761904761904761,1.6047619047619048,1.6333333333333333,1.6428571428571428,1.6428571428571428,1.6428571428571428,1.6428571428571428,1.6428571428571428,1.6428571428571428,1.6428571428571428,1.6428571428571428,1.6428571428571428,1.6428571428571428,1.6428571428571428,1.6428571428571428,1.6428571428571428,1.6428571428571428,1.6428571428571428,1.6428571428571428,1.6428571428571428,1.6428571428571428,1.6428571428571428,1.6428571428571428,1.6428571428571428,1.6428571428571428,1.6428571428571428,1.6428571428571428,1.6428571428571428,1.6428571428571428,1.6428571428571428,1.6428571428571428,1.6428571428571428,1.6428571428571428,1.6428571428571428,1.6428571428571428,1.6428571428571428,1.6428571428571428,1.6428571428571428,1.6428571428571428,1.6428571428571428,1.6428571428571428,1.6428571428571428,1.6428571428571428,1.6428571428571428,1.6428571428571428,1.6428571428571428,1.6428571428571428,1.6428571428571428,1.6428571428571428,1.6428571428571428,1.6428571428571428,1.6428571428571428]},"final_keyboard_state":["B","E","Z","R","A"],"num_clicks":5,"points":15,"cheat":false,"trial_type":"Hangman","trial_index":5,"time_elapsed":58643,"internal_node_id":"0.0-4.0","protocol_sum":"","subject_identifier":138,"subject_sum":[199,92,182,106,226,141,142,188,110,222,208,2,194,138,139,160,208,109,58,120,198,181,203,249,178,173,224,81,240,119,90,196],"subject_pair":69,"STUDY_ID":"669a702db1122fc5150a13ce","PROLIFIC_PID":"65b9bf2250abc52ab5bb60c2","SESSION_ID":"669b4206f7aac3285db7db05","practice_instructions":1,"leaderboard_instructions":0,"bonus":0,"reveal_word":false,"self_rating":"2","confidence":"100"},{"view_history":"[{\"page_index\":0,\"viewing_time\":2149.0999999940395},{\"page_index\":1,\"viewing_time\":12279.30000000447}]","rt":14428.89999999851,"trial_type":"instructions","trial_index":6,"time_elapsed":73073,"internal_node_id":"0.0-5.0","protocol_sum":"","subject_identifier":138,"subject_sum":[199,92,182,106,226,141,142,188,110,222,208,2,194,138,139,160,208,109,58,120,198,181,203,249,178,173,224,81,240,119,90,196],"subject_pair":69,"STUDY_ID":"669a702db1122fc5150a13ce","PROLIFIC_PID":"65b9bf2250abc52ab5bb60c2","SESSION_ID":"669b4206f7aac3285db7db05","practice_instructions":1,"leaderboard_instructions":0,"bonus":0,"reveal_word":false,"self_rating":"2","confidence":"100"},{"rt":8772.5,"responses":"{\"Q0\":\"...from <b>a previous session</b> that is not part of the upcoming tournament.\"}","question_order":"[0]","trial_type":"survey-multi-choice","trial_index":7,"time_elapsed":81847,"internal_node_id":"0.0-6.0","protocol_sum":"","subject_identifier":138,"subject_sum":[199,92,182,106,226,141,142,188,110,222,208,2,194,138,139,160,208,109,58,120,198,181,203,249,178,173,224,81,240,119,90,196],"subject_pair":69,"correct":true,"test_part":"multichoice_leaderboard","STUDY_ID":"669a702db1122fc5150a13ce","PROLIFIC_PID":"65b9bf2250abc52ab5bb60c2","SESSION_ID":"669b4206f7aac3285db7db05","practice_instructions":1,"leaderboard_instructions":0,"bonus":0,"reveal_word":false,"self_rating":"2","confidence":"100"},{"view_history":"[{\"page_index\":0,\"viewing_time\":6626.70000000298}]","rt":6626.9000000059605,"trial_type":"instructions","trial_index":8,"time_elapsed":88474,"internal_node_id":"0.0-8.0","protocol_sum":"","subject_identifier":138,"subject_sum":[199,92,182,106,226,141,142,188,110,222,208,2,194,138,139,160,208,109,58,120,198,181,203,249,178,173,224,81,240,119,90,196],"subject_pair":69,"STUDY_ID":"669a702db1122fc5150a13ce","PROLIFIC_PID":"65b9bf2250abc52ab5bb60c2","SESSION_ID":"669b4206f7aac3285db7db05","practice_instructions":1,"leaderboard_instructions":0,"bonus":0,"reveal_word":false,"self_rating":"2","confidence":"100"},{"rt":6017.5,"responses":"{\"Q0\":\"...players' leaderboard position (in terms of <b>points</b>) in an <b>upcoming tournament.</b>\"}","question_order":"[0]","trial_type":"survey-multi-choice","trial_index":9,"time_elapsed":94493,"internal_node_id":"0.0-9.0","protocol_sum":"","subject_identifier":138,"subject_sum":[199,92,182,106,226,141,142,188,110,222,208,2,194,138,139,160,208,109,58,120,198,181,203,249,178,173,224,81,240,119,90,196],"subject_pair":69,"correct":true,"test_part":"multichoice_tournament","STUDY_ID":"669a702db1122fc5150a13ce","PROLIFIC_PID":"65b9bf2250abc52ab5bb60c2","SESSION_ID":"669b4206f7aac3285db7db05","practice_instructions":1,"leaderboard_instructions":0,"bonus":0,"reveal_word":false,"self_rating":"2","confidence":"100"},{"view_history":"[{\"page_index\":0,\"viewing_time\":6606.89999999851}]","rt":6607.10000000149,"trial_type":"instructions","trial_index":10,"time_elapsed":101100,"internal_node_id":"0.0-11.0","protocol_sum":"","subject_identifier":138,"subject_sum":[199,92,182,106,226,141,142,188,110,222,208,2,194,138,139,160,208,109,58,120,198,181,203,249,178,173,224,81,240,119,90,196],"subject_pair":69,"STUDY_ID":"669a702db1122fc5150a13ce","PROLIFIC_PID":"65b9bf2250abc52ab5bb60c2","SESSION_ID":"669b4206f7aac3285db7db05","practice_instructions":1,"leaderboard_instructions":0,"bonus":0,"reveal_word":false,"self_rating":"2","confidence":"100"},{"view_history":"[{\"page_index\":0,\"viewing_time\":5079.39999999851}]","rt":5079.60000000149,"trial_type":"instructions","trial_index":11,"time_elapsed":106180,"internal_node_id":"0.0-12.0-0.0","protocol_sum":"","subject_identifier":138,"subject_sum":[199,92,182,106,226,141,142,188,110,222,208,2,194,138,139,160,208,109,58,120,198,181,203,249,178,173,224,81,240,119,90,196],"subject_pair":69,"STUDY_ID":"669a702db1122fc5150a13ce","PROLIFIC_PID":"65b9bf2250abc52ab5bb60c2","SESSION_ID":"669b4206f7aac3285db7db05","practice_instructions":1,"leaderboard_instructions":0,"bonus":0,"reveal_word":false,"self_rating":"2","confidence":"100"},{"word":"THIRTY FOUR","click_log":{"letter":["","E","A","I","T","H","R","Y","F","O","U"],"t":[0,4379.89999999851,8739.30000000447,17991.60000000149,24853.80000000447,26770.30000000447,29916,32015,35410.89999999851,36062.5,36688.80000000447],"hit":[null,0,0,1,2,1,2,1,1,1,1],"asked":["","E","EA","EAI","EAIT","EAITH","EAITHR","EAITHRY","EAITHRYF","EAITHRYFO","EAITHRYFOU"],"word_state":["______ ____","______ ____","______ ____","__I___ ____","T_I_T_ ____","THI_T_ ____","THIRT_ ___R","THIRTY ___R","THIRTY F__R","THIRTY FO_R","THIRTY FOUR"]},"hover_log":{"letter":["?","?","?","?","?","?","?","?","?","?","?","?","?","?","?","?","?","?","S","?","?","?","?","?","?","?","?","?","?","?","?","?","?","?","?","?","?","?","?","?","?","?","?","?","S","?","?","?","?","?","?","?","?","?","?","?","?","?","?","?","?","?","?","?","?","?","?","?","?","?","S","?","?","?","?","?","?","?","?","?","?","?","?","?","?","?","?","?","?","?","?","?","?","?","?","?","S","?","?","?","?","?","?","?","?","?","?","?","?","?","?","?","?","?","?","?","?","?","?","?","?","?","?","?","?","?","?","?","?","?","?","?","?","?","?","?","?","?","?","?","?","?","?","?","?","?","?","?","?","?","?","?","?","?","?","?","?","?","?","?","?","?","?","?","?","?","?","?","?","?","?","?","?","?","?","?","?","?","?","?","?","?","?","?","?","?","?","?","?","?","?","?","?","?","?","?","?","?","?","?","?","?","?","?","?","?","?","?","?","?","?","?","?","?","?","?","?","?","?","?","?","?","?","?","?","?","?","?","?","?","?","?","?","?","?","?","?","?","?","?","?","?","?","?","?","?","?","?","?","?","?","?","?","?","?","?","?","?","?","?","?","?","?","?","?","?","?","?","?","?","?","?","?","?","?","?","?","?","?","?","?","?","?","?","?","?","?","?","?","?","?","?","?","?","?","?","?","?","?","?","?","?","?","?","?","?","?","?","?","?","?","?","?","?","?","?","?","?","?","?","?","?","?","?","?","?","?","?","?","?","?","?","?","?","?","?","?","?","?","?","?","?","?","?","?","?","?","?","?","?","?","?","?","?","?","?","?","?","?","?","?","?","?","?","?","?","?","?","?","?","?","?","?","?","?","?","?","?","?","?","?","?","?","?","?","?","?","?","?","?","?","?","?","?","?","?","?","?","?","?","?","?","?","?","?","?","?","?","?","?","?","?","?","?","?","?","?","?","?","?","?","?","?","?","?","?","?","?","?","?","?","?","?","?","?","?","?","?","?","?","?","?","?","?","?","?","?","?","?","?","?","?","?","?","?","?","?","?","?","?","?","?","?","?","?","?","?","?","?","?","?","?","?","?","?","?","?","?","?","?","?","?","?","?","?","?","?","?","?","?","?","?","?","?","?","?","?","?","?","?","?","?","?","?","?","?","?","?","?","?","?","?","?","?","?","?","?","?","?","?","?","?","?","?","?","?","?","?","?","?","?","?","?","?","?","?","?","?","?","?","?","?","?","?","?","?","?","?","?","?","?","?","?","?","?","?","?","?","?","?","?","?","?","?","?","?","?","?","?","?","?","?","?","?","?","?","?","?","?","?","?","?","?","?","?","?","?","?","?","?","?","?","?","?","?","?","?","?","?","?","?","?","?","?","?","?","?","?","?","?","?","?","?","?","?","?","?","?","?","?","?","?","?","?","?","?","?","?","?","?","?","?","?","?","?","?","?","?","?","?","?","?","?","?","?","?","?","?","?","?","?","?","?","?","?","?","?","?","?","?","?","?","?","?","?","?","?","?","?","?","?","?","?","?","?","?","?","?","?","?","?","?","?","?","?","?","?","?","?","?","?","?","?","?","?","?","?","?","?","?","?","?","?","?","?","?","?","?","?","?","?","?","?","?","?","?","?","?","?","?","?","?","?","?","?","?","?","?","?","?","?","?","?","?","?","?","?","?","?","?","?","?","?","?","?","?","?","?","?","?","?","?","?","?","?","?","?","?","?","?","?","?","?","?","?","?","?","?","?","?","?","?","?","?","?","?","?","?","?","?","?","?","?","?","?","?","?","?","?","?","?","?","?","?","?","?","?","?","?","?","?","?","?","?","?","?","?","?","?","?","?","?","?","?","?","?","?","?","?","?","?","?","?","?","?","?","?","?","?","?","?","?","?","?","?","?","?","?","?","?","?","?","?","?","?","?","?","?","?","?","?","?","?","?","?","?","?","?","?","?","?","?","?","?","?","?","?","?","?","?","?","?","?","?","?","?","?","?","?","?","?","?","?","?","?","?","?","?","?","?","?","?","?","?","?","?","?","?","?","?","?","?","?","?","?","?","?","?","?","?","?","?","?","?","?","?","?","?","?","?","?","?","?","?","?","?","?","?","?","?","?","?","?","?","?","?","?","?","?","?","?","?","?","?","?","?","?","?","?","?","?","?","?","?","?","?","?","?","?","?","?","?","?","?","?","?","?","?","?","?","?","?","?","?","?","?","?","?","?","?","?","?","?","?","?","?","?","?","?","?","?","?","?","?","?","?","?","?","?","?","?","?","?","?","?","?","?","?","?","?","?","?","?","?","?","?","?","?","?","?","?","?","?","?","?","?","?","?","?","?","?","?","?","?","?","?","?","?","?","?","?","?","?","?","?","?","?","?","?","?","?","?","?","?","?","?","?","?","?","?","?","?","?","?","?","?","?","?","?","?","?","?","?","?","?","?","?","?","?","?","?","?","?","?","?","?","?","?","?","?","?","?","?","?","?","?","?","?","?","?","?","?","?","?","?","?","?","?","?","?","?","?","?","?","?","?","?","?","?","?","?","?","?","?","?","?","?","?","?","?","?","?","?","?","?","?","?","?","?","?","?","?","?","?","?","?","?","?","?","?","?","?","?","?","?","?","?","?","?","?","?","?","?","?","?","?","?","?","?","?","?","?","?","?","?","?","?","?","?","?","?","?","?","?","?","?","?","?","?","?","?","?","?","?","?","?","?","?","?","?","?","?","?","?","?","?","?","?","?","?","?","?","?","?","?","?","?","?","?","?","?","?","?","?","?","?","?","?","?","?","?","?","?","?","?","?","?","?","?","?","?","?","?","?","?","?","?","?","?","?","?","?","?","?","?","?","?","?","?","?","?","?","?","?","?","?","?","?","?","?","?","?","?","?","?","?","?","?","?","?","?","?","?","?","?","?","?","?","?","?","?","?","?","?","?","?","?","?","?","?","?","?","?","?","?","?","?","?","?","?","?","?","?","?","?","?","?","?","?","?","?","?","?","?","?","?","?","?","?","?","?","?","?","?","?","?","?","?","?","?","?","?","?","?","?","?","?","?","?","?","?","?","?","?","?","?","?","?","?","?","?","?","?","?","?","?","?","?","?","?","?","?","?","?","?","?","?","?","?","?","?","?","?","?","?","?","?","?","?","?","?","?","?","?","?","?","?","?","?","?","?","?","?","?","?","?","?","?","?","?","?","?","?","?","?","?","?","?","?","?","?","?","?","?","?","?","?","?","?","?","?","?","?","?","?","?","?","?","?","?","?","?","?","?","?","?","?","?","?","?","?","?","?","?","?","?","?","?","?","?","?","?","?","?","?","?","?","?","?","?","?","?","?","?","?","?","?","?","?","?","?","?","?","?","?","?","?","?","?","?","?","?","?","?","?","?","?","?","?","?","?","?","?","?","?","?","?","?","?","?","?","?","?","?","?","?","?","?","?","?","?","?","?","?","?","?","?","?","?","?","?","?","?","?","?","?","?","?","?","?","?","?","?","?","?","?","?","?","?","?","?","?","?","?","?","?","?","?","?","?","?","?","?","?","?","?","?","?","?","?","?","?","?","?","?","?","?","?","?","?","?","?","?","?","?","?","?","?","?","?","?","?","?","?","?","?","?","?","?","?","?","?","?","?","?","?","?","?","?","?","?","?","?","?","?","?","?","?","?","?","?","?","?","?","?","?","?","?","?","?","?","?","?","?","?","?","?","?","?","?","?","?","?","?","?","?","?","?","?","?","?","?","?","?","?","?","?","?","?","?","?","?","?","?","?","?","?","?","?","?","?","?","?","?","?","?","?","?","?","?","?","?","?","?","?","?","?","?","?","?","?","?","?","?","?","?","?","?","?","?","?","?","?","?","?","?","?","?","?","?","?","?","?","?","?","?","?","?","?","?","?","?","?","?","?","?","?","?","?","?","?","?","?","?","?","?","?","?","?","?","?","?","?","?","?","?","?","?","?","?","?","?","?","?","?","?","?","?","?","?","?","?","?","?","?","?","?","?","?","?","?","?","?","?","?","?","?","?","?","?","?","?","?","?","?","?","?","?","?","?","?","?","?","?","?","?","?","?","?","?","?","?","?","?","?","?","?","?","?","?","?","?","?","?","?","?","?","?","?","?","?","?","?","?","?","?","?","?","?","?","?","?","?","?","?","?","?","?","?","?","?","?","?","?","?","?","?","?","?","?","?","?","?","?","?","?","?","?","?","?","?","?","?","?","?","?","?","?","?","?","?","?","?","?","?","?","?","?","?","?","?","?","?","?","?","?","?","?","?","?","?","?","?","?","?","?","?","?","?","?","?","?","?","?","?","?","?","?","?","?","?","?","?","?","?","?","?","?","?","?","?","?","?","?","?","?","?","?","?","?","?","?","?","?","?","?","?","?","?","?","?","?","?","?","?","?","?","?","?","?","?","?","?","?","?","?","?","?","?","?","?","?","?","?","?","?","?","?","?","?","?","?","?","?","?","?","?","?","?","?","?","?","?","?","?","?","?","?","?","?","?","?","?","?","?","?","?","?","?","?","?","?","?","?","?","?","?","?","?","?","?","?","?","?","?","?","?","?","?","?","?","?","?","?","?","?","?","?","?","?","?","?","?","?","?","?","?","?","?","?","?","?","?","?","?","?","?","?","?","?","?","?","?","?","?","?","?","?","?","?","?","?","?","?","?","?","?","?","?","?","?","?","?","?","?","?","?","?","?","?","?","?","?","?","?","?","?","?","?","?","?","?","?","?","?","?","?","?","?","?","?","?","?","?","?","?","?","?","?","?","?","?","?","?","?","?","?","?","?","?","?","?","?","?","?","?","?","?","?","?","?","?","?","?","?","?","?","?","?","?","?","?","?","?","?","?","?","?","?","?","?","?","?","?","?","?","?","?","?","?","?","?","?","?","?","?","?","?","?","?","?","?","?","?","?","?","?","?","?","?","?","?","?","?","?","?","?","?","?","?","?","?","?","?","?","?","?","?","?","?","?","?","?","?","?","?","?","?","?","?","?","?","?","?","?","?","?","?","?","?","?","?","?","?","?","?","?","?","?","?","?","?","?","?","?","?","?","?","?","?","?","?","?","?","?","?","?","?","?","?","?","?","?","?","?","?","?","?","?","?","?","?","?","?","?","?","?","?","?","?","?","?","?","?","?","?","?","?","?","?","?","?","?","?","?","?","?","?","?","?","?","?","?","?","?","?","?","?","?","?","?","?","?","?","?","?","?","?","?","?","?","?","?","?","?","?","?","?","?","?","?","?","?","?","?","?","?","?","?","?","?","?","?","?","?","?","?","?","?","?","?","?","?","?","?","?","?","?","?","?","?","?","?","?","?","?","?","?","?","?","?","?","?","?","?","?","?","?","?","?","?","?","?","?","?","?","?","?","?","?","?","?","?","?","?","?","?","?","?","?","?","?","?","?","?","?","?","?","?","?","?","?","?","?","?","?","?","?","?","?","?","?","?","?","?","?","?","?","?","?","?","?","?","?","?","?","?","?","?","?","?","?","?","?","?","?","?","?","?","?","?","?","?","?","?","?","?","?","?","?","?","?","?","?","?","?","?","?","?","?","?","?","?","?","?","?","?","?","?","?","?","?","?","?","?","?","?","?","?","?","?","?","?","?","?","?","?","?","?","?","?","?","?","?","?","?","?","?","?","?","?","?","?","?","?","?","?","?","?","?","?","?","?","?","?","?","?","?","?","?","?","?","?","?","?","?","?","?","?","?","?","?","?","?","?","?","?","?","?","?","?","?","?","?","?","?","?","?","?","?","?","?","?","?","?","?","?","?","?","?","?","?","?","?","?","?","?","?","?","?","?","?","?","?","?","?","?","?","?","?","?","?","?","?","?","?","?","?","?","?","?","?","?","?","?","?","?","?","?","?","?","?","?","?","?","?","?","?","?","?","?","?","?","?","?","?","?","?","?","?","?","?","?","?","?","?","?","?","?","?","?","?","?","?","?","?","?","?","?","?","?","?","?","?","?","?","?","?","?","?","?","?","?","?","?","?","?","?","?","?","?","?","?","?","?","?","?","?","?","?","?","?","?","?","?","?","?","?","?","?","?","?","?","?","?","?","?","?","?","?","?","?","?","?","?","?","?","?","?","?","?","?","?","?","?","?","?","?","?","?","?","?","?","?","?","?","?","?","?","?","?","?","?","?","?","?","?","?","?","?","?","?","?","?","?","?","?","?","?","?","?","?","?","?","?","?","?","?","?","?","?","?","?","?","?","?","?","?","?","?","?","?","?","?","?","?","?","?","?","?","?","?","?","?","?","?","?","?","?","?","?","?","?","?","?","?","?","?","?","?","?","?","?","?","?","?","?","?","?","?","?","?","?","?","?","?","?","?","?","?","?","?","?","?","?","?","?","?","?","?","?","?","?","?","?","?","?","?","?","?","?","?","?","?","?","?","?","?","?","?","?","?","?","?","?","?","?","?","?","?","?","?","?","?","?","?","?","?","?","?","?","?","?","?","?","?","?","?","?","?","?","?","?","?","?","?","?","?","?","?","?","?","?","?","?","?","?","?","?","?","?","?","?","?","?","?","?","?","?","?","?","?","?","?","?","?","?","?","?","?","?","?","?","?","?","?","?","?","?","?","?","?","?","?","?","?","?","?","?","?","?","?","?","?","?","?","?","?","?","?","?","?","?","?","?","?","?","?","?","?","?","?","?","?","?","?","?","?","?","?","?","?","?","?","?","?","?","?","?","?","?","?","?","?","?","?","?","?","?","?","?","?","?","?","?","?","?","?","?","?","?","?","?","?","?","?","?","?","?","?","?","?","?","?","?","?","?","?","?","?","?","?","?","?","?","?","?","?","?","?","?","?","?","?","?","?","?","?","?","?","?","?","?","?","?","?","?","?","?","?","?","?","?","?","?","?","?","?","?","?","?","?","?","?","?","?","?","?","?","?","?","?","?","?","?","?","?","?","?","?","?","?","?","?","?","?","?","?","?","?","?","?","?","?","?","?","?","?","?","?","?","?","?","?","?","?","?","?","?","?","?","?","?","?","?","?","?","?","?","?","?","?","?","?","?","?","?","?","?","?","?","?","?","?","?","?","?","?","?","?","?","?","?","?","?","?","?","?","?","?","?","?","?","?","?","?","?","?","?","?","?","?","?","?","?","?","?","?","?","?","?","?","?","?","?","?","?","?","?","?","?","?","?","?","?","?","?","?","?","?","?","?","?","?","?","?","?","?","?","?","?","?","?","?","?","?","?","?","?","?","?","?","?","?","?","?","?","?","?","?","?","?","?","?","?","?","?","?","?","?","?","?","?","?","?","?","?","?","?","?","?","?","?","?","?","?","?","?","?","?","?","?","?","?","?","?","?","?","?","?","?","?","?","?","?","?","?","?","?","?","?","?","?","?","?","?","?","?","?","?","?","?","?","?","?","?","?","?","?","?","?","?","?","?","?","?","?","?","?","?","?","?","?","?","?","?","?","?","?","?","?","?","?","?","?","?","?","?","?","?","?","?","?","?","?","?","?","?","?","?","?","?","?","?","?","?","?","?","?","?","?","?","?","?","?","?","?","?","?","?","?","?","?","?","?","?","?","?","?","?","?","?","?","?","?","?","?","?","?","?","?","?","?","?","?","?","?","?","?","?","?","?","?","?","?","?","?","?","?","?","?","?","?","?","?","?","?","?","?","?","?","?","?","?","?","?","?","?","?","?","?","?","?","?","?","?","?","?","?","?","?","?","?","?","?","?","?","?","?","?","?","?","?","?","?","?","?","?","?","?","?","?","?","?","?","?","?","?","?","?","?","?","?","?","?","?","?","?","?","?","?","?","?","?","?","?","?","?","?","?","?","?","?","?","?","?","?","?","?","?","?","?","?","?","?","?","?","?","?","?","?","?","?","?","?","?","?","?","?","?","?","?","?","?","?","?","?","?","?","?","?","?","?","?","?","?","?","?","?","?","?","?","?","?","?","?","?","?","?","?","?","?","?","?","?","?","?","?","?","?","?","?","?","?","?","?","?","?","?","?","?","?","?","?","?","?","?","?","?","?","?","?","?","?","?","?","?","?","?","?","?","?","?","?","?","?","?","?","?","?","?","?","?","?","?","?","?","?","?","?","?","?","?","?","?","?","?","?","?","?","?","?","?","?","?","?","?","?","?","?","?","?","?","?","?","?","?","?","?","?","?","?","?","?","?","?","?","?","?","?","?","?","?","?","?","?","?","?","?","?","?","?","?","?","?","?","?","?","?","?","?","?","?","?","?","?","?","?","?","?","?","?","?","?","?","?","?","?","?","?","?","?","?","?","?","?","?","?","?","?","?","?","?","?","?","?","?","?","?","?","?","?","?","?","?","?","?","?","?","?","?","?","?","?","?","?","?","?","?","?","?","?","?","?","?","?","?","?","?","?","?","?","?","?","?","?","?","?","?","?","?","?","?","?","?","?","?","?","?","?","?","?","?","?","?","?","?","?","?","?","?","?","?","?","?","?","?","?","?","?","?","?","?","?","?","?","?","?","?","?","?","?","?","?","?","?","?","?","?","?","?","?","?","?","?","?","?","?","?","?","?","?","?","?","?","?","?","?","?","?","?","?","?","?","?","?","?","?","?","?","?","?","?","?","?","?","?","?","?","?","?","?","?","?","?","?","?","?","?","?","?","?","?","?","?","?","?","?","?","?","?","?","?","?","?","?","?","?","?","?","?","?","?","?","?","?","?","?","?","?","?","?","?","?","?","?","?","?","?","?","?","?","?","?","?","?","?","?","?","?","?","?","?","?","?","?","?","?","?","?","?","?","?","?","?","?","?","?","?","?","?","?","?","?","?","?","?","?","?","?","?","?","?","?","?","?","?","?","?","?","?","?","?","?","?","?","?","?","?","?","?","?","?","?","?","?","?","?","?","?","?","?","?","?","?","?","?","?","?","?","?","?","?","?","?","?","?","?","?","?","?","?","?","?","?","?","?","?","?","?","?","?","?","?","?","?","?","?","?","?","?","?","?","?","?","?","?","?","?","?","?","?","?","?","?","?","?","?","?","?","?","?","?","?","?","?","?","?","?","?","?","?","?","?","?","?","?","?","?","?","?","?","?","?","?","?","?","?","?","?","?","?","?","?","?","?","?","?","?","?","?","?","?","?","?","?","?","?","?","?","?","?","?","?","?","?","?","?","?","?","?","?","?","?","?","?","?","?","?","?","?","?","?","?","?","?","?","?","?","?","?","?","?","?","?","?","?","?","?","?","?","?","?","?","?","?","?","?","?","?","?","?","?","?","?","?","?","?","?","?","?","?","?","?","?","?","?","?","?","?","?","?","?","?","?","?","?","?","?","?","?","?","?","?","?","?","?","?","?","?","?","?","?","?","?","?","?","?","?","?","?","?","?","?","?","?","?","?","?","?","?","?","?","?","?","?","?","?","?","?","?","?","?","?","?","?","?","?","?","?","?","?","?","?","?","?","?","?","?","?","?","?","?","?","?","?","?","?","?","?","?","?","?","?","?","?","?","?","?","?","?","?","?","?","?","?","?","?","?","?","?","?","?","?","?","?","?","?","?","?","?","?","?","?","?","?","?","?","?","?","?","?","?","?","?","?","?","?","?","?","?","?","?","?","?","?","?","?","?","?","?","?","?","?","?","?","?","?","?","?","?","?","?","?","?","?","?","?","?","?","?","?","?","?","?","?","?","?","?","?","?","?","?","?","?","?","?","?","?","?","?","?","?","?","?","?","?","?","?","?","?","?","?","?","?","?","?","?","?","?","?","?","?","?","?","?","?","?","?","?","?","?","?","?","?","?","?","?","?","?","?","?","?","?","?","?","?","?","?","?","?","?","?","?","?","?","?","?","?","?","?","?","?","?","?","?","?","?","?","?","?","?","?","?","?","?","?","?","?","?","?","?","?","?","?","?","?","?","?","?","?","?","?","?","?","?","?","?","?","?","?","?","?","?","?","?","?","?","?","?","?","?","?","?","?","?","?","?","?","?","?","?","?","?","?","?","?","?","?","?","?","?","?","?","?","?","?","?","?","?","?","?","?","?","?","?","?","?","?","?","?","?","?","?","?","?","?","?","?","?","?","?","?","?","?","?","?","?","?","?","?","?","?","?","?","?","?","?","?","?","?","?","?","?","?","?","?","?","?","?","?","?","?","?","?","?","?","?","?","?","?","?","?","?","?","?","?","?","?","?","?","?","?","?","?","?","?","?","?","?","?","?","?","?","?","?","?","?","?","?","?","?","?","?","?","?","?","?","?","?","?","?","?","?","?","?","?","?","?","?","?","?","?","?","?","?","?","?","?","?","?","?","?","?","?","?","?","?","?","?","?","?","?","?","?","?","?","?","?","?","?","?","?","?","?","?","?","?","?","?","?","?","?","?","?","?","?","?","?","?","?","?","?","?","?","?","?","?","?","?","?","?","?","?","?","?","?","?","?","?","?","?","?","?","?","?","?","?","?","?","?","?","?","?","?","?","?","?","?","?","?","?","?","?","?","?","?","?","?","?","?","?","?","?","?","?","?","?","?","?","?","?","?","?","?","?","?","?","?","?","?","?","?","?","?","?","?","?","?","?","?","?","?","?","?","?","?","?","?","?","?","?","?","?","?","?","?","?","?","?","?","?","?","?","?","?","?","?","?","?","?","?","?","?","?","?","?","?","?","?","?","?","?","?","?","?","?","?","?","?","?","?","?","?","?","?","?","?","?","?","?","?","?","?","?","?","?","?","?","?","?","?","?","?","?","?","?","?","?","?","?","?","?","?","?","?","?","?","?","?","?","?","?","?","?","?","?","?","?","?","?","?","?","?","?","?","?","?","?","?","?","?","?","?","?","?","?","?","?","?","?","?","?","?","?","?","?","?","?","?","?","?","?","?","?","?","?","?","?","?","?","?","?","?","?","?","?","?","?","?","?","?","?","?","?","?","?","?","?","?","?","?","?","?","?","?","?","?","?","?","?","?","?","?","?","?","?","?","?","?","?","?","?","?","?","?","?","?","?","?","?","?","?","?","?","?","?","?","?","?","?","?","?","?","?","?","?","?","?","?","?","?","?","?","?","?","?","?","?","?","?","?","?","?","?","?","?","?","?","?","?","?","?","?","?","?","?","?","?","?","?","?","?","?","?","?","?","?","?","?","?","?","?","?","?","?","?","?","?","?","?","?","?","?","?","?","?","?","?","?","?","?","?","?","?","?","?","?","?","?","?","?","?","?","?","?","?","?","?","?","?","?","?","?","?","?","?","?","?","?","?","?","?","?","?","?","?","?","?","?","?","?","?","?","?","?","?","?","?","?","?","?","?","?","?","?","?","?","?","?","?","?","?","?","?","?","?","?","?","?","?","?","?","?","?","?","?","?","?","?","?","?","?","?","?","?","?","?","?","?","?","?","?","?","?","?","?","?","?","?","?","?","?","?","?","?","?","?","?","?","?","?","?","?","?","?","?","?","?","?","?","?","?","?","?","?","?","?","?","?","?","?","?","?","?","?","?","?","?","?","?","?","?","?","?","?","?","?","?","?","?","?","?","?","?","?","?","?","?","?","?","?","?","?","?","?","?","?","?","?","?","?","?","?","?","?","?","?","?","?","?","?","?","?","?","?","?","?","?","?","?","?","?","?","?","?","?","?","?","?","?","?","?","?","?","?","?","?","?","?","?","?","?","?","?","?","?","?","?","?","?","?","?","?","?","?","?","?","?","?","?","?","?","?","?","?","?","?","?","?","?","?","?","?","?","?","?","?","?","?","?","?","?","?","?","?","?","?","?","?","?","?","?","?","?","?","?","?","?","?","?","?","?","?","?","?","?","?","?","?","?","?","?","?","?","?","?","?","?","?","?","?","?","?","?","?","?","?","?","?","?","?","?","?","?","?","?","?","?","?","?","?","?","?","?","?","?","?","?","?","?","?","?","?","?","?","?","?","?","?","?","?","?","?","?","?","?","?","?","?","?","?","?","?","?","?","?","?","?","?","?","?","?","?","?","?","?","?","?","?","?","?","?","?","?","?","?","?","?","?","?","?","?","?","?","?","?","?","?","?","?","?","?","?","?","?","?","?","?","?","?","?","?","?","?","?","?","?","?","?","?","?","?","?","?","?","?","?","?","?","?","?","?","?","?","?","?","?","?","?","?","?","?","?","?","?","?","?","?","?","?","?","?","?","?","?","?","?","?","?","?","?","?","?","?","?","?","?","?","?","?","?","?","?","?","?","?","?","?","?","?","?","?","?","?","?","?","?","?","?","?","?","?","?","?","?","?","?","?","?","?","?","?","?","?","?","?","?","?","?","?","?","?","?","?","?","?","?","?","?","?","?","?","?","?","?","?","?","?","?","?","?","?","?","?","?","?","?","?","?","?","?","?","?","?","?","?","?","?","?","?","?","?","?","?","?","?","?","?","?","?","?","?","?","?","?","?","?","?","?","?","?","?","?","?","?","?","?","?","?","?","?","?","?","?","?","?","?","?","?","?","?","?","?","?","?","?","?","?","?","?","?","?","?","?","?","?","?","?","?","?","?","?","?","?","?","?","?","?","?","?","?","?","?","?","?","?","?","?","?","?","?","?","?","?","?","?","?","?","?","?","?","?","?","?","?","?","?","?","?","?","?","?","?","?","?","?","?","?","?","?","?","?","?","?","?","?","?","?","?","?","?","?","?","?","?","?","?","?","?","?","?","?","?","?","?","?","?","?","?","?","?","?","?","?","?","?","?","?","?","?","?","?","?","?","?","?","?","?","?","?","?","?","?","?","?","?","?","?","?","?","?","?","?","?","?","?","?","?","?","?","?","?","?","?","?","?","?","?","?","?","?","?","?","?","?","?","?","?","?","?","?","?","?","?","?","?","?","?","?","?","?","?","?","?","?","?","?","?","?","?","?","?","?","?","?","?","?","?","?","?","?","?","?","?","?","?","?","?","?","?","?","?","?","?","?","?","?","?","?","?","?","?","?","?","?","?","?","?","?","?","?","?","?","?","?","?","?","?","?","?","?","?","?","?","?","?","?","?","?","?","?","?","?","?","?","?","?","?","?","?","?","?","?","?","?","?","?","?","?","?","?","?","?","?","?","?","?","?","?","?","?","?","?","?","?","?","?","?","?","?","?","?","?","?","?","?","?","?","?","?","?","?","?","?","?","?","?","?","?","?","?","?","?","?","?","?","?","?","?","?","?","?","?","?","?","?","?","?","?","?","?","?","?","?","?","?","?","?","?","?","?","?","?","?","?","?","?","?","?","?","?","?","?","?","?","?","?","?","?","?","?","?","?","?","?","?","?","?","?","?","?","?","?","?","?","?","?","?","?","?","?","?","?","?","?","?","?","?","?","?","?","?","?","?","?","?","?","?","?","?","?","?","?","?","?","?","?","?","?","?","?","?","?","?","?","?","?","?","?","?","?","?","?","?","?","?","?","?","?","?","?","?","?","?","?","?","?","?","?","?","?","?","?","?","?","?","?","?","?","?","?","?","?","?","?","?","?","?","?","?","?","?","?","?","?","?","?","?","?","?","?","?","?","?","?","?","?","?","?","?","?","?","?","?","?","?","?","?","?","?","?","?","?","?","?","?","?","?","?","?","?","?","?","?","?","?","?","?","?","?","?","?","?","?","?","?","?","?","?","?","?","?","?","?","?","?","?","?","?","?","?","?","?","?","?","?","?","?","?","?","?","?","?","?","?","?","?","?","?","?","?","?","?","?","?","?","?","?","?","?","?","?","?","?","?","?","?","?","?","?","?","?","?","?","?","?","?","?","?","?","?","?","?","?","?","?","?","?","?","?","?","?","?","?","?","?","?","?","?","?","?","?","?","?","?","?","?","?","?","?","?","?","?","?","?","?","?","?","?","?","?","?","?","?","?","?","?","?","?","?","?","?","?","?","?","?","?","?","?","?","?","?","?","?","?","?","?","?","?","?","?","?","?","?","?","?","?","?","?","?","?","?","?","?","?","?","?","?","?","?","?","?","?","?","?","?","?","?","?","?","?","?","?","?","?","?","?","?","?","?","?","?","?","?","?","?","?","?","?","?","?","?","?","?","?","?","?","?","?","?","?","?","?","?","?","?","?","?","?","?","?","?","?","?","?","?","?","?","?","?","?","?","?","?","?","?","?","?","?","?","?","?","?","?","?","?","?","?","?","?","?","?","?","?","?","?","?","?","?","?","?","?","?","?","?","?","?","?","?","?","?","?","?","?","?","?","?","?","?","?","?","?","?","?","?","?","?","?","?","?","?","?","?","?","?","?","?","?","?","?","?","?","?","?","?","?","?","?","?","?","?","?","?","?","?","?","?","?","?","?","?","?","?","?","?","?","?","?","?","?","?","?","?","?","?","?","?","?","?","?","?","?","?","?","?","?","?","?","?","?","?","?","?","?","?","?","?","?","?","?","?","?","?","?","?","?","?","?","?","?","?","?","?","?","?","?","?","?","?","?","?","?","?","?","?","?","?","?","?","?","?","?","?","?","?","?","?","?","?","?","?","?","?","?","?","?","?","?","?","?","?","?","?","?","?","?","?","?","?","?","?","?","?","?","?","?","?","?","?","?","?","?","?","?","?","?","?","?","?","?","?","?","?","?","?","?","?","?","?","?","?","?","?","?","?","?","?","?","?","?","?","?","?","?","?","?","?","?","?","?","?","?","?","?","?","?","?","?","?","?","?","?","?","?","?","?","?","?","?","?","?","?","?","?","?","?","?","?","?","?","?","?","?","?","?","?","?","?","?","?","?","?","?","?","?","?","?","?","?","?","?","?","?","?","?","?","?","?","?","?","?","?","?","?","?","?","?","?","?","?","?","?","?","?","?","?","?","?","?","?","?","?","?","?","?","?","?","?","?","?","?","?","?","?","?","?","?","?","?","?","?","?","?","?","?","?","?","?","?","?","?","?","?","?","?","?","?","?","?","?","?","?","?","?","?","?","?","?","?","?","?","?","?","?","?","?","?","?","?","?","?","?","?","?","?","?","?","?","?","?","?","?","?","?","?","?","?","?","?","?","?","?","?","?","?","?","?","?","?","?","?","?","?","?","?","?","?","?","?","?","?","?","?","?","?","?","?","?","?","?","?","?","?","?","?","?","?","?","?","?","?","?","?","?","?","?","?","?","?","?","?","?","?","?","?","?","?","?","?","?","?","?","?","?","?","?","?","?","?","?","?","?","?","?","?","?","?","?","?","?","?","?","?","?","?","?","?","?","?","?","?","?","?","?","?","?","?","?","?","?","?","?","?","?","?","?","?","?","?","?","?","?","?","?","?","?","?","?","?","?","?","?","?","?","?","?","?","?","?","?","?","?","?","?","?","?","?","?","?","?","?","?","?","?","?","?","?","?","?","?","?","?","?","?","?","?","?","?","?","?","?","?","?","?","?","?","?","?","?","?","?","?","?","?","?","?","?","?","?","?","?","?","?","?","?","?","?","?","?","?","?","?","?","?","?","?","?","?","?","?","?","?","?","?","?","?","?","?","?","?","?","?","?","?","?","?","?","?","?","?","?","?","?","?","?","?","?","?","?","?","?","?","?","?","?","?","?","?","?","?","?","?","?","?","?","?","?","?","?","?","?","?","?","?","?","?","?","?","?","?","?","?","?","?","?","?","?","?","?","?","?","?","?","?","?","?","?","?","?","?","?","?","?","?","?","?","?","?","?","?","?","?","?","?","?","?","?","?","?","?","?","?","?","?","?","?","?","?","?","?","?","?","?","?","?","?","?","?","?","?","?","?","?","?","?","?","?","?","?","?","?","?","?","?","?","?","?","?","?","?","?","?","?","?","?","?","?","?","?","?","?","?","?","?","?","?","?","?","?","?","?","?","?","?","?","?","?","?","?","?","?","?","?","?","?","?","?","?","?","?","?","?","?","?","?","?","?","?","?","?","?","?","?","?","?","?","?","?","?","?","?","?","?","?","?","?","?","?","?","?","?","?","?","?","?","?","?","?","?","?","?","?","?","?","?","?","?","?","?","?","?","?","?","?","?","?","?","?","?","?","?","?","?","?","?","?","?","?","?","?","?","?","?","?","?","?","?","?","?","?","?","?","?","?","?","?","?","?","?","?","?","?","?","?","?","?","?","?","?","?","?","?","?","?","?","?","?","?","?","?","?","?","?","?","?","?","?","?","?","?","?","?","?","?","?","?","?","?","?","?","?","?","?","?","?","?","?","?","?","?","?","?","?","?","?","?","?","?","?","?","?","?","?","?","?","?","?","?","?","?","?","?","?","?","?","?","?","?","?","?","?","?","?","?","?","?","?","?","?","?","?","?","?","?","?","?","?","?","?","?","?","?","?","?","?","?","?","?","?","?","?","?","?","?","?","?","?","?","?","?","?","?","?","?","?","?","?","?","?","?","?","?","?","?","?","?","?","?","?","?","?","?","?","?","?","?","?","?","?","?","?","?","?","?","?","?","?","?","?","?","?","?","?","?","?","?","?","?","?","?","?","?","?","?","?","?","?","?","?","?","?","?","?","?","?","?","?","?","?","?","?","?","?","?","?","?","?","?","?","?","?","?","?","?","?","?","?","?","?","?","?","?","?","?","?","?","?","?","?","?","?","?","?","?","?","?","?","?","?","?","?","?","?","?","?","?","?","?","?","?","?","?","?","?","?","?","?","?","?","?","?","?","?","?","?","?","?","?","?","?","?","?","?","?","?","?","?","?","?","?","?","?","?","?","?","?","?","?","?","?","?","?","?","?","?","?","?","?","?","?","?","?","?","?","?","?","?","?","?","?","?","?","?","?","?","?","?","?","?","?","?","?","?","?","?","?","?","?","?","?","?","?","?","?","?","?","?","?","?","?","?","?","?","?","?","?","?","?","?","?","?","?","?","?","?","?","?","?","?","?","?","?","?","?","?","?","?","?","?","?","?","?","?","?","?","?","?","?","?","?","?","?","?","?","?","?","?","?","?","?","?","?","?","?","?","?","?","?","?","?","?","?","?","?","?","?","?","?","?","?","?","?","?","?","?","?","?","?","?","?","?","?","?","?","?","?","?","?","?","?","?","?","?","?","?","?","?","?","?","?","?","?","?","?","?","?","?","?","?","?","?","?","?","?","?","?","?","?","?","?","?","?","?","?","?","?","?","?","?","?","?","?","?","?","?","?","?","?","?","?","?","?","?","?","?","?","?","?","?","?","?","?","?","?","?","?","?","?","?","?","?","?","?","?","?","?","?","?","?","?","?","?","?","?","?","?","?","?","?","?","?","?","?","?","?","?","?","?","?","?","?","?","?","?","?","?","?","?","?","?","?","?","?","?","?","?","?","?","?","?","?","?","?","?","?","?","?","?","?","?","?","?","?","?","?","?","?","?","?","?","?","?","?","?","?","?","?","?","?","?","?","?","?","?","?","?","?","?","?","?","?","?","?","?","?","?","?","?","?","?","?","?","?","?","?","?","?","?","?","?","?","?","?","?","?","?","?","?","?","?","?","?","?","?","?","?","?","?","?","?","?","?","?","?","?","?","?","?","?","?","?","?","?","?","?","?","?","?","?","?","?","?","?","?","?","?","?","?","?","?","?","?","?","?","?","?","?","?","?","?","?","?","?","?","?","?","?","?","?","?","?","?","?","?","?","?","?","?","?","?","?","?","?","?","?","?","?","?","?","?","?","?","?","?","?","?","?","?","?","?","?","?","?","?","?","?","?","?","?","?","?","?","?","?","?","?","?","?","?","?","?","?","?","?","?","?","?","?","?","?","?","?","?","?","?","?","?","?","?","?","?","?","?","?","?","?","?","?","?","?","?","?","?","?","?","?","?","?","?","?","?","?","?","?","?","?","?","?","?","?","?","?","?","?","?","?","?","?","?","?","?","?","?","?","?","?","?","?","?","?","?","?","?","?","?","?","?","?","?","?","?","?","?","?","?","?","?","?","?","?","?","?","?","?","?","?","?","?","?","?","?","?","?","?","?","?","?","?","?","?","?","?","?","?","?","?","?","?","?","?","?","?","?","?","?","?","?","?","?","?","?","?","?","?","?","?","?","?","?","?","?","?","?","?","?","?","?","?","?","?","?","?","?","?","?","?","?","?","?","?","?","?","?","?","?","?","?","?","?","?","?","?","?","?","?","?","?","?","?","?","?","?","?","?","?","?","?","?","?","?","?","?","?","?","?","?","?","?","?","?","?","?","?","?","?","?","?","?","?","?","?","?","?","?","?","?","?","?","?","?","?","?","?","?","?","?","?","?","?","?","?","?","?","?","?","?","?","?","?","?","?","?","?","?","?","?","?","?","?","?","?","?","?","?","?","?","?","?","?","?","?","?","?","?","?","?","?","?","?","?","?","?","?","?","?","?","?","?","?","?","?","?","?","?","?","?","?","?","?","?","?","?","?","?","?","?","?","?","?","?","?","?","?","?","?","?","?","?","?","?","?","?","?","?","?","?","?","?","?","?","?","?","?","?","?","?","?","?","?","?","?","?","?","?","?","?","?","?","?","?","?","?","?","?","?","?","?","?","?","?","?","?","?","?","?","?","?","?","?","?","?","?","?","?","?","?","?","?","?","?","?","?","?","?","?","?","?","?","?","?","?","?","?","?","?","?","?","?","?","?","?","?","?","?","?","?","?","?","?","?","?","?","?","?","?","?","?","?","?","?","?","?","?","?","?","?","?","?","?","?","?","?","?","?","?","?","?","?","?","?","?","?","?","?","?","?","?","?","?","?","?","?","?","?","?","?","?","?","?","?","?","?","?","?","?","?","?","?","?","?","?","?","?","?","?","?","?","?","?","?","?","?","?","?","?","?","?","?","?","?","?","?","?","?","?","?","?","?","?","?","?","?","?","?","?","?","?","?","?","?","?","?","?","?","?","?","?","?","?","?","?","?","?","?","?","?","?","?","?","?","?","?","?","?","?","?","?","?","?","?","?","?","?","?","?","?","?","?","?","?","?","?","?","?","?","?","?","?","?","?","?","?","?","?","?","?","?","?","?","?","?","?","?","?","?","?","?","?","?","?","?","?","?","?","?","?","?","?","?","?","?","?","?","?","?","?","?","?","?","?","?","?","?","?","?","?","?","?","?","?","?","?","?","?","?","?","?","?","?","?","?","?","?","?","?","?","?","?","?","?","?","?","?","?","?","?","?","?","?","?","?","?","?","?","?","?","?","?","?","?","?","?","?","?","?","?","?","?","?","?","?","?","?","?","?","?","?","?","?","?","?","?","?","?","?","?","?","?","?","?","?","?","?","?","?","?","?","?","?","?","?","?","?","?","?","?","?","?","?","?","?","?","?","?","?","?","?","?","?","?","?","?","?","?","?","?","?","?","?","?","?","?","?","?","?","?","?","?","?","?","?","?","?","?","?","?","?","?","?","?","?","?","?","?","?","?","?","?","?","?","?","?","?","?","?","?","?","?","?","?","?","?","?","?","?","?","?","?","?","?","?","?","?","?","?","?","?","?","?","?","?","?","?","?","?","?","?","?","?","?","?","?","?","?","?","?","?","?","?","?","?","?","?","?","?","?","?","?","?","?","?","?","?","?","?","?","?","?","?","?","?","?","?","?","?","?","?","?","?","?","?","?","?","?","?","?","?","?","?","?","?","?","?","?","?","?","?","?","?","?","?","?","?","?","?","?","?","?","?","?","?","?","?","?","?","?","?","?","?","?","?","?","?","?","?","?","?","?","?","?","?","?","?","?","?","?","?","?","?","?","?","?","?","?","?","?","?","?","?","?","?","?","?","?","?","?","?","?","?","?","?","?","?","?","?","?","?","?","?","?","?","?","?","?","?","?","?","?","?","?","?","?","?","?","?","?","?","?","?","?","?","?","?","?","?","?","?","?","?","?","?","?","?","?","?","?","?","?","?","?","?","?","?","?","?","?","?","?","?","?","?","?","?","?","?","?","?","?","?","?","?","?","?","?","?","?","?","?","?","?","?","?","?","?","?","?","?","?","?","?","?","?","?","?","?","?","?","?","?","?","?","?","?","?","?","?","?","?","?","?","?","?","?","?","?","?","?","?","?","?","?","?","?","?","?","?","?","?","?","?","?","?","?","?","?","?","?","?","?","?","?","?","?","?","?","?","?","?","?","?","?","?","?","?","?","?","?","?","?","?","?","?","?","?","?","?","?","?","?","?","?","?","?","?","?","?","?","?","?","?","?","?","?","?","?","?","?","?","?","?","?","?","?","?","?","?","?","?","?","?","?","?","?","?","?","?","?","?","?","?","?","?","?","?","?","?","?","?","?","?","?","?","?","?","?","?","?","?","?","?","?","?","?","?","?","?","?","?","?","?","?","?","?","?","?","?","?","?","?","?","?","?","?","?","?","?","?","?","?","?","?","?","?","?","?","?","?","?","?","?","?","?","?","?","?","?","?","?","?","?","?","?","?","?","?","?","?","?","?","?","?","?","?","?","?","?","?","?","?","?","?","?","?","?","?","?","?","?","?","?","?","?","?","?","?","?","?","?","?","?","?","?","?","?","?","?","?","?","?","?","?","?","?","?","?","?","?","?","?","?","?","?","?","?","?","?","?","?","?","?","?","?","?","?","?","?","?","?","?","?","?","?","?","?","?","?","?","?","?","?","?","?","?","?","?","?","?","?","?","?","?","?","?","?","?","?","?","?","?","?","?","?","?","?","?","?","?","?","?","?","?","?","?","?","?","?","?","?","?","?","?","?","?","?","?","?","?","?","?","?","?","?","?","?","?","?","?","?","?","?","?","?","?","?","?","?","?","?","?","?","?","?","?","?","?","?","?","?","?","?","?","?","?","?","?","?","?","?","?","?","?","?","?","?","?","?","?","?","?","?","?","?","?","?","?","?","?","?","?","?","?","?","?","?","?","?","?","?","?","?","?","?","?","?","?","?","?","?","?","?","?","?","?","?","?","?","?","?","?","?","?","?","?","?","?","?","?","?","?","?","?","?","?","?","?","?","?","?","?","?","?","?","?","?","?","?","?","?","?","?","?","?","?","?","?","?","?","?","?","?","?","?","?","?","?","?","?","?","?","?","?","?","?","?","?","?","?","?","?","?","?","?","?","?","?","?","?","?","?","?","?","?","?","?","?","?","?","?","?","?","?","?","?","?","?","?","?","?","?","?","?","?","?","?","?","?","?","?","?","?","?","?","?","?","?","?","?","?","?","?","?","?","?","?","?","?","?","?","?","?","?","?","?","?","?","?","?","?","?","?","?","?","?","?","?","?","?","?","?","?","?","?","?","?","?","?","?","?","?","?","?","?","?","?","?","?","?","?","?","?","?","?","?","?","?","?","?","?","?","?","?","?","?","?","?","?","?","?","?","?","?","?","?","?","?","?","?","?","?","?","?","?","?","?","?","?","?","?","?","?","?","?","?","?","?","?","?","?","?","?","?","?","?","?","?","?","?","?","?","?","?","?","?","?","?","?","?","?","?","?","?","?","?","?","?","?","?","?","?","?","?","?","?","?","?","?","?","?","?","?","?","?","?","?","?","?","?","?","?","?","?","?","?","?","?",