[{"success":true,"trial_type":"fullscreen","trial_index":0,"time_elapsed":155702,"internal_node_id":"0.0-0.0","protocol_sum":"","subject_identifier":301,"subject_sum":[154,226,189,215,190,237,194,231,102,198,183,101,133,83,14,22,146,81,21,112,125,199,160,106,181,238,74,162,119,107,44,123],"subject_pair":150,"STUDY_ID":"66a0b3911f23dfc7665bb169","PROLIFIC_PID":"6638034e01a0a512f729c6b9","SESSION_ID":"66a0fcdec13c96f864434f23","practice_instructions":1,"leaderboard_instructions":1,"bonus":0,"reveal_word":true,"self_rating":"3","confidence":"94"},{"view_history":"[{\"page_index\":0,\"viewing_time\":1594}]","rt":1594,"trial_type":"instructions","trial_index":1,"time_elapsed":157299,"internal_node_id":"0.0-1.0","protocol_sum":"","subject_identifier":301,"subject_sum":[154,226,189,215,190,237,194,231,102,198,183,101,133,83,14,22,146,81,21,112,125,199,160,106,181,238,74,162,119,107,44,123],"subject_pair":150,"STUDY_ID":"66a0b3911f23dfc7665bb169","PROLIFIC_PID":"6638034e01a0a512f729c6b9","SESSION_ID":"66a0fcdec13c96f864434f23","practice_instructions":1,"leaderboard_instructions":1,"bonus":0,"reveal_word":true,"self_rating":"3","confidence":"94"},{"view_history":"[{\"page_index\":0,\"viewing_time\":48582}]","rt":48582,"trial_type":"instructions","trial_index":2,"time_elapsed":205908,"internal_node_id":"0.0-2.0-0.0","protocol_sum":"","subject_identifier":301,"subject_sum":[154,226,189,215,190,237,194,231,102,198,183,101,133,83,14,22,146,81,21,112,125,199,160,106,181,238,74,162,119,107,44,123],"subject_pair":150,"STUDY_ID":"66a0b3911f23dfc7665bb169","PROLIFIC_PID":"6638034e01a0a512f729c6b9","SESSION_ID":"66a0fcdec13c96f864434f23","practice_instructions":1,"leaderboard_instructions":1,"bonus":0,"reveal_word":true,"self_rating":"3","confidence":"94"},{"rt":30934,"responses":"{\"Q0\":\"... reveal the word with as <b>few letter guesses</b> as possible\"}","question_order":"[0]","trial_type":"survey-multi-choice","trial_index":3,"time_elapsed":236850,"internal_node_id":"0.0-2.0-1.0","protocol_sum":"","subject_identifier":301,"subject_sum":[154,226,189,215,190,237,194,231,102,198,183,101,133,83,14,22,146,81,21,112,125,199,160,106,181,238,74,162,119,107,44,123],"subject_pair":150,"correct":true,"test_part":"multichoice_nonpretend","STUDY_ID":"66a0b3911f23dfc7665bb169","PROLIFIC_PID":"6638034e01a0a512f729c6b9","SESSION_ID":"66a0fcdec13c96f864434f23","practice_instructions":1,"leaderboard_instructions":1,"bonus":0,"reveal_word":true,"self_rating":"3","confidence":"94"},{"view_history":"[{\"page_index\":0,\"viewing_time\":1607}]","rt":1607,"trial_type":"instructions","trial_index":4,"time_elapsed":238457,"internal_node_id":"0.0-3.0","protocol_sum":"","subject_identifier":301,"subject_sum":[154,226,189,215,190,237,194,231,102,198,183,101,133,83,14,22,146,81,21,112,125,199,160,106,181,238,74,162,119,107,44,123],"subject_pair":150,"STUDY_ID":"66a0b3911f23dfc7665bb169","PROLIFIC_PID":"6638034e01a0a512f729c6b9","SESSION_ID":"66a0fcdec13c96f864434f23","practice_instructions":1,"leaderboard_instructions":1,"bonus":0,"reveal_word":true,"self_rating":"3","confidence":"94"},{"word":"ZEBRA","click_log":{"letter":["","P","H","O","C","A","S","E","T","Z","B","R"],"t":[0,74163,80232,81897,83763,85086,143246,148061,162763,168570,170797,177026],"hit":[null,0,0,0,0,1,0,1,0,1,1,1],"asked":["","P","PH","PHO","PHOC","PHOCA","PHOCAS","PHOCASE","PHOCASET","PHOCASETZ","PHOCASETZB","PHOCASETZBR"],"word_state":["_____","_____","_____","_____","_____","____A","____A","_E__A","_E__A","ZE__A","ZEB_A","ZEBRA"]},"hover_log":{"letter":["?","?","?","?","?","?","?","?","?","?","?","?","?","?","?","?","?","?","?","?","?","?","?","?","?","?","?","?","?","?","?","?","?","?","?","?","?","?","?","?","?","?","?","?","?","?","?","?","?","?","?","?","?","?","?","?","?","?","?","?","?","?","?","?","?","?","?","?","?","?","?","?","?","S","?","?","?","?","?","?","?","?","?","?","?","?","?","?","?","?","?","?","?","?","?","?","?","?","?","?","?","?","?","?","?","?","?","?","?","?","?","?","?","?","?","?","?","?","?","?","A","A","?","?","?","?","?","?","?","?","?","?","?","?","?","?","?","?","?","?","?","?","?","?","?","?","?","?","?","?","?","?","?","?","?","?","?","?","?","?","A","A","A","A","A","?","?","?","?","?","?","?","?","?","?","?","?","?","?","?","?","?","?","?","?","?","?","?","?","?","?","B","B","B","B","B","B","B","B","B","B","B","B","B","B","B","B","B","B","B","B","B","B","B","B","B","B","B","B","B","B","B","B","B","B","B","B","B","B","B","B","B","B","B","B","B","B","B","B","?","?","?","?","L","L","L","?","?","?","?","V","V","V","V","?","?","?","?","?","?","?","?","?","?","?","?","?","V","V","V","V","V","V","V","?","?","?","?","?","?","?","?","?","?","?","?","L","L","L","L","L","L","L","L","?","?","?","?","C","?","?","?","?","?","?","?","?","?","?","?","?","?","?","?","?","?","?","?","?","?","?","?","?","?","?","?","?","?","?","?","?","?","?","?","?","?","?","?","?","?","?","?","?","?","?","?","?","?","?","?","?","?","?","?","?","?","?","?","?","?","?","?","?","?","?","?","?","?","?","?","?","?","?","?","?","?","?","?","?","?","?","?","?","?","?","?","?","?","?","?","?","?","?","?","?","?","?","F","F","F","?","?","O","O","O","O","O","O","O","O","O","O","O","O","O","O","O","O","O","O","O","O","O","O","O","O","O","O","O","O","O","O","O","O","O","O","O","O","O","O","O","O","O","O","O","O","O","O","O","O","O","O","O","O","O","O","O","O","O","O","O","O","O","O","O","O","O","O","O","O","O","O","O","O","O","O","O","O","O","O","O","O","O","O","O","O","O","O","O","O","O","O","O","O","O","O","O","O","O","O","O","O","O","O","O","O","O","O","O","O","O","O","O","O","O","O","O","O","O","O","O","O","O","O","O","O","O","O","O","O","O","O","O","O","O","O","O","O","O","O","O","O","O","O","O","O","O","O","O","O","O","O","O","O","O","O","O","O","O","O","O","O","O","O","O","O","O","O","O","O","O","O","O","O","O","O","O","O","O","O","O","O","O","O","O","O","O","O","O","O","O","O","O","O","O","O","O","O","O","O","O","O","O","O","O","O","O","O","O","O","O","O","O","O","O","O","O","O","O","O","O","O","O","O","O","O","O","O","O","O","O","O","O","O","O","O","O","O","O","O","O","O","O","O","O","O","O","O","O","O","O","O","O","O","O","O","O","O","O","O","O","O","O","O","O","O","O","O","O","O","O","O","O","O","O","O","O","O","O","O","O","O","O","O","O","O","O","O","O","O","O","O","O","O","O","O","O","O","O","O","O","O","O","O","O","O","O","O","O","O","O","O","O","O","O","O","O","O","O","O","O","O","O","O","O","O","O","O","O","O","O","O","O","O","O","O","O","O","O","O","O","O","O","O","O","O","O","O","O","O","O","O","O","O","O","O","O","O","O","O","O","O","O","O","O","O","O","O","O","O","O","O","O","O","O","O","O","O","O","O","O","O","O","O","O","O","O","O","O","O","O","O","O","O","O","O","O","O","O","O","O","O","O","O","O","O","O","O","O","O","O","O","O","O","O","O","O","O","O","O","O","O","O","O","O","O","O","O","O","O","O","O","O","O","O","O","O","O","O","O","O","O","O","O","O","O","O","O","O","O","O","O","O","O","O","O","O","O","O","O","O","O","O","O","O","O","O","O","O","O","O","O","O","O","O","O","O","O","O","O","O","O","O","O","O","O","O","O","O","O","O","O","O","O","O","O","O","O","O","O","O","O","O","O","O","O","O","O","O","O","O","O","O","O","O","O","O","O","O","O","O","O","O","O","O","O","O","O","O","O","O","O","O","O","O","O","O","O","O","O","O","O","O","O","O","O","O","O","O","O","O","O","O","O","O","O","O","O","O","O","O","O","O","O","O","O","O","O","O","O","O","O","O","O","O","O","O","O","O","O","O","O","O","O","O","O","O","O","O","O","O","O","O","O","O","O","O","O","O","O","O","O","O","O","O","O","O","O","O","O","O","O","O","O","O","O","O","O","O","O","O","O","O","O","O","O","O","O","O","O","O","O","O","O","O","O","O","O","O","O","O","O","O","O","O","O","O","O","O","O","O","O","O","O","O","O","O","O","O","O","O","O","O","O","O","O","O","O","O","O","O","O","O","O","O","O","O","O","O","O","O","O","O","O","O","O","O","O","O","O","O","O","O","O","O","O","O","O","O","O","O","O","O","O","O","O","O","O","O","O","O","O","O","O","O","O","O","O","O","O","O","O","O","O","O","O","O","O","O","O","O","O","O","O","O","O","O","O","O","O","O","O","O","O","O","O","O","O","O","O","?","?","?","?","?","?","?","?","?","?","X","X","X","X","X","X","X","X","X","X","X","X","X","?","?","?","?","?","?","?","P","P","P","?","?","?","?","?","?","H","H","H","H","H","H","H","H","H","H","H","H","H","H","H","H","H","H","H","H","H","H","H","H","H","H","H","H","H","H","H","H","H","H","H","H","H","H","H","?","?","?","?","?","?","?","O","O","?","N","N","N","N","N","?","?","M","M","M","M","M","M","M","M","M","M","M","M","M","M","?","?","?","?","?","L","L","L","L","L","L","L","L","L","L","L","L","L","L","L","L","L","L","L","L","L","L","L","L","L","L","L","L","L","L","L","?","?","?","?","?","?","?","?","M","M","M","M","M","M","M","M","M","M","M","M","M","M","M","M","M","M","M","M","M","M","M","M","M","M","M","M","M","M","?","?","?","?","?","?","?","?","?","?","?","?","?","?","N","N","N","N","N","N","N","N","N","N","N","N","N","N","N","N","N","N","N","N","N","N","N","N","N","N","N","N","N","N","N","N","N","N","N","N","N","N","N","N","N","N","N","N","N","N","N","N","N","N","N","N","N","N","N","N","N","N","N","N","N","N","N","N","N","N","N","N","N","N","N","N","N","N","N","N","N","N","N","N","N","N","N","N","N","N","N","N","N","N","N","N","N","N","N","N","N","N","N","N","N","N","N","N","N","N","N","N","N","N","N","N","N","N","N","N","N","N","N","N","N","N","N","N","N","N","N","N","N","N","N","N","N","N","N","N","N","N","N","N","N","N","N","N","N","N","N","N","N","N","N","N","N","N","N","N","N","N","N","N","N","N","N","N","N","N","N","N","N","N","N","N","N","N","N","N","N","N","N","N","N","N","N","N","N","N","N","N","N","N","N","N","N","N","N","N","N","N","N","N","N","N","N","N","N","N","N","N","N","N","N","N","N","N","N","N","N","N","N","N","N","N","N","N","N","N","N","N","N","N","N","N","N","N","N","N","N","N","N","N","N","N","N","N","N","N","N","N","N","N","N","N","N","N","N","N","N","N","N","N","N","N","N","N","N","N","N","N","N","N","N","N","N","N","N","N","N","N","N","N","N","N","N","N","N","N","N","N","N","N","N","N","N","N","N","N","N","N","N","N","N","N","N","N","N","N","N","N","N","N","N","N","N","N","N","N","N","N","N","N","N","N","N","N","N","N","N","N","N","N","N","N","N","N","N","N","N","N","N","N","N","N","N","N","?","?","?","?","?","?","?","?","?","?","?","?","?","?","?","?","?","?","?","?","?","?","?","?","?","?","?","D","D","?","C","C","C","C","C","?","?","?","?","?","?","?","?","?","C","C","C","C","C","C","C","C","C","C","C","C","C","C","C","C","?","D","?","?","?","F","?","G","G","?","H","H","H","?","?","?","I","I","?","I","I","?","?","?","?","?","?","?","?","?","?","?","?","?","?","?","?","?","M","M","M","M","M","M","M","M","M","M","M","M","M","M","M","M","M","M","M","M","?","?","?","?","?","?","?","?","?","?","?","?","?","?","?","?","?","X","X","X","X","X","?","?","?","?","?","?","?","?","?","?","?","?","?","?","?","?","?","?","?","?","?","?","?","?","?","?","?","?","?","?","?","?","?","?","?","?","?","?","?","?","?","?","?","?","?","?","?","?","Z","Z","Z","Z","Z","Z","Z","Z","Z","Z","Z","Z","?","?","?","Y","Y","Y","Y","Y","Y","Y","Y","Y","Y","Y","Y","Y","Y","Y","Y","Y","Y","Y","Y","Y","Y","Y","Y","Y","Y","Y","Y","Y","Y","Y","Y","Y","Y","Y","Y","Y","Y","Y","Y","Y","Y","Y","Y","Y","Y","Y","Y","Y","Y","Y","Y","Y","Y","Y","Y","Y","Y","Y","Y","Y","Y","Y","Y","Y","Y","Y","Y","Y","Y","Y","Y","Y","Y","Y","Y","Y","Y","Y","Y","Y","Y","Y","Y","Y","Y","Y","Y","Y","Y","Y","Y","Y","Y","Y","Y","Y","Y","Y","Y","Y","Y","Y","Y","Y","Y","Y","Y","Y","Y","Y","Y","Y","Y","Y","Y","Y","Y","Y","Y","Y","Y","Y","Y","Y","Y","Y","Y","Y","Y","Y","Y","Y","Y","Y","Y","Y","Y","Y","Y","Y","Y","Y","Y","Y","Y","Y","Y","Y","Y","Y","Y","Y","Y","Y","Y","Y","Y","Y","Y","Y","Y","Y","Y","Y","Y","Y","Y","Y","Y","Y","Y","Y","Y","Y","Y","Y","Y","Y","Y","Y","Y","Y","Y","Y","Y","Y","Y","Y","Y","Y","Y","Y","Y","Y","Y","Y","Y","Y","Y","Y","Y","Y","Y","Y","Y","Y","Y","Y","Y","Y","Y","Y","Y","Y","Y","Y","Y","Y","Y","Y","Y","Y","Y","Y","Y","Y","Y","Y","Y","Y","Y","Y","Y","Y","Y","Y","Y","Y","Y","Y","Y","Y","Y","Y","Y","Y","Y","Y","Y","Y","Y","Y","Y","Y","Y","Y","Y","Y","Y","Y","Y","Y","Y","Y","Y","Y","Y","Y","Y","Y","Y","Y","Y","Y","Y","Y","Y","Y","Y","Y","Y","Y","Y","Y","Y","Y","Y","Y","Y","Y","Y","Y","Y","Y","Y","Y","Y","Y","Y","Y","Y","Y","Y","Y","Y","Y","Y","Y","Y","Y","Y","Y","Y","Y","Y","Y","Y","Y","Y","Y","Y","Y","Y","Y","Y","Y","Y","Y","Y","Y","Y","Y","Y","Y","Y","Y","Y","Y","Y","Y","Y","Y","Y","Y","Y","Y","Y","Y","Y","Y","Y","Y","Y","Y","Y","Y","Y","Y","Y","Y","Y","Y","Y","Y","Y","Y","Y","Y","Y","Y","Y","Y","Y","Y","Y","Y","Y","Y","Y","Y","Y","Y","Y","Y","Y","Y","Y","Y","Y","Y","Y","Y","Y","Y","Y","Y","Y","Y","Y","Y","Y","Y","Y","Y","Y","Y","Y","Y","Y","Y","Y","Y","Y","Y","Y","Y","Y","Y","Y","Y","Y","Y","Y","Y","Y","Y","Y","Y","Y","Y","Y","Y","Y","Y","Y","Y","Y","Y","Y","Y","Y","Y","Y","Y","Y","Y","Y","Y","Y","Y","Y","Y","Y","Y","Y","Y","Y","Y","Y","Y","Y","Y","Y","Y","Y","Y","Y","Y","Y","Y","Y","Y","Y","Y","Y","Y","Y","Y","Y","Y","Y","Y","Y","Y","Y","Y","Y","Y","Y","Y","Y","Y","Y","Y","Y","Y","Y","Y","Y","Y","Y","Y","Y","Y","Y","Y","Y","Y","Y","Y","Y","Y","Y","Y","Y","Y","Y","Y","Y","Y","Y","Y","Y","Y","Y","Y","Y","Y","Y","Y","Y","Y","Y","Y","Y","Y","Y","Y","Y","Y","Y","Y","Y","Y","Y","Y","Y","Y","Y","Y","Y","Y","Y","Y","Y","Y","Y","Y","Y","Y","Y","Y","Y","Y","Y","Y","Y","Y","Y","Y","Y","Y","Y","Y","Y","Y","Y","Y","Y","Y","Y","Y","Y","Y","Y","Y","Y","Y","Y","Y","Y","Y","Y","Y","Y","Y","Y","Y","Y","Y","Y","Y","Y","Y","Y","Y","Y","Y","Y","Y","Y","Y","Y","Y","Y","Y","Y","Y","Y","Y","Y","Y","Y","Y","Y","Y","Y","Y","Y","Y","Y","Y","Y","Y","Y","Y","Y","Y","Y","Y","Y","Y","Y","Y","Y","Y","Y","Y","Y","Y","Y","Y","Y","Y","Y","Y","Y","Y","Y","Y","Y","Y","Y","Y","Y","Y","Y","Y","Y","Y","Y","Y","Y","Y","Y","Y","Y","Y","Y","Y","Y","Y","Y","Y","Y","Y","Y","Y","Y","Y","Y","Y","Y","Y","Y","Y","Y","Y","Y","Y","Y","Y","Y","Y","Y","Y","Y","Y","Y","Y","Y","Y","Y","Y","Y","Y","Y","Y","Y","Y","Y","Y","Y","Y","Y","Y","Y","Y","Y","Y","Y","Y","Y","Y","Y","Y","Y","Y","Y","Y","Y","Y","Y","Y","Y","Y","Y","Y","Y","Y","Y","Y","Y","Y","Y","Y","Y","Y","Y","Y","Y","Y","Y","Y","Y","Y","Y","Y","Y","Y","Y","Y","Y","Y","Y","Y","Y","Y","Y","Y","Y","Y","Y","Y","Y","Y","Y","Y","Y","Y","Y","Y","Y","Y","Y","Y","Y","Y","Y","Y","Y","Y","Y","Y","Y","Y","Y","Y","Y","Y","Y","Y","Y","Y","Y","Y","Y","Y","Y","Y","Y","Y","Y","Y","Y","Y","Y","Y","Y","Y","Y","Y","Y","Y","Y","Y","Y","Y","Y","Y","Y","Y","Y","Y","Y","Y","Y","Y","Y","Y","Y","Y","Y","Y","Y","Y","Y","Y","Y","Y","Y","Y","Y","Y","Y","Y","Y","Y","Y","Y","Y","Y","Y","Y","Y","Y","Y","Y","Y","Y","Y","Y","Y","Y","Y","Y","Y","Y","Y","Y","Y","Y","Y","Y","Y","Y","Y","Y","Y","Y","Y","Y","Y","Y","Y","Y","Y","Y","Y","Y","Y","Y","Y","Y","Y","Y","Y","Y","Y","Y","Y","Y","Y","Y","Y","Y","Y","Y","Y","Y","Y","Y","Y","Y","Y","Y","Y","Y","Y","Y","Y","Y","Y","Y","Y","Y","Y","Y","Y","Y","Y","Y","Y","Y","Y","Y","Y","Y","Y","Y","Y","Y","Y","Y","Y","Y","Y","Y","Y","Y","Y","Y","Y","Y","Y","Y","Y","Y","Y","Y","Y","Y","Y","Y","Y","Y","Y","Y","Y","Y","Y","Y","Y","Y","Y","Y","Y","Y","Y","Y","Y","Y","Y","Y","Y","Y","Y","Y","Y","Y","Y","Y","Y","Y","Y","Y","Y","Y","Y","Y","Y","Y","Y","Y","Y","Y","Y","Y","Y","Y","Y","Y","Y","Y","Y","Y","Y","Y","Y","Y","Y","Y","Y","Y","Y","Y","Y","Y","Y","Y","Y","Y","Y","Y","Y","Y","Y","Y","Y","Y","Y","Y","Y","Y","Y","Y","Y","Y","Y","Y","Y","Y","Y","Y","Y","Y","Y","Y","Y","Y","Y","Y","Y","Y","Y","Y","Y","Y","Y","Y","Y","Y","Y","Y","Y","Y","Y","Y","Y","Y","Y","Y","Y","Y","Y","Y","Y","Y","Y","Y","Y","Y","Y","Y","Y","Y","Y","Y","Y","Y","Y","Y","Y","Y","Y","Y","Y","Y","Y","Y","Y","Y","Y","Y","Y","Y","Y","Y","Y","Y","Y","Y","Y","Y","Y","Y","Y","Y","Y","Y","Y","Y","Y","Y","Y","Y","Y","Y","Y","Y","Y","Y","Y","Y","Y","Y","Y","Y","Y","Y","Y","Y","Y","Y","Y","Y","Y","Y","Y","Y","Y","Y","Y","Y","Y","Y","Y","Y","Y","Y","Y","Y","Y","Y","Y","Y","Y","Y","Y","Y","Y","Y","Y","Y","Y","Y","Y","Y","Y","Y","Y","Y","Y","Y","Y","Y","Y","Y","Y","Y","Y","Y","Y","Y","Y","Y","Y","Y","Y","Y","Y","Y","Y","Y","Y","Y","Y","Y","Y","Y","Y","Y","Y","Y","Y","Y","Y","Y","Y","Y","Y","Y","Y","Y","Y","Y","Y","Y","Y","Y","Y","Y","Y","Y","Y","Y","Y","Y","Y","Y","Y","Y","Y","Y","Y","Y","Y","Y","Y","Y","Y","Y","Y","Y","Y","Y","Y","Y","Y","Y","Y","Y","Y","Y","Y","Y","Y","Y","Y","Y","Y","Y","Y","Y","Y","Y","Y","Y","Y","Y","Y","Y","Y","Y","Y","Y","Y","Y","Y","Y","Y","Y","Y","Y","Y","Y","Y","Y","Y","Y","Y","Y","Y","Y","Y","Y","Y","Y","Y","Y","Y","Y","Y","Y","Y","Y","Y","Y","Y","Y","Y","Y","Y","Y","Y","Y","Y","Y","Y","Y","Y","Y","Y","Y","Y","Y","Y","Y","Y","Y","Y","Y","Y","Y","Y","Y","Y","Y","Y","Y","Y","Y","Y","Y","Y","Y","Y","Y","Y","Y","Y","Y","Y","Y","Y","Y","Y","Y","Y","Y","Y","Y","Y","Y","Y","Y","Y","Y","Y","Y","Y","Y","Y","Y","Y","Y","Y","Y","Y","Y","Y","Y","Y","Y","Y","Y","Y","Y","Y","Y","Y","Y","Y","Y","Y","Y","Y","Y","Y","Y","Y","Y","Y","Y","Y","Y","Y","Y","Y","Y","Y","Y","Y","Y","Y","Y","Y","Y","Y","Y","Y","Y","Y","Y","Y","Y","Y","Y","Y","Y","Y","Y","Y","Y","Y","Y","Y","Y","Y","Y","Y","Y","Y","Y","Y","Y","Y","Y","Y","Y","Y","Y","Y","Y","Y","Y","Y","Y","Y","Y","Y","Y","Y","Y","Y","Y","Y","Y","Y","Y","Y","Y","Y","Y","Y","Y","Y","Y","Y","Y","Y","Y","Y","Y","Y","Y","Y","Y","Y","Y","Y","Y","Y","Y","Y","Y","Y","Y","Y","Y","Y","Y","Y","Y","Y","Y","Y","Y","Y","Y","Y","Y","Y","Y","Y","Y","Y","Y","Y","Y","Y","Y","Y","Y","Y","Y","Y","Y","Y","Y","Y","Y","Y","Y","Y","Y","Y","Y","Y","Y","Y","Y","Y","Y","Y","Y","Y","Y","Y","Y","Y","Y","Y","Y","Y","Y","Y","Y","Y","Y","Y","Y","Y","Y","Y","Y","Y","Y","Y","Y","Y","Y","Y","Y","Y","Y","Y","Y","Y","Y","Y","Y","Y","Y","Y","Y","Y","Y","Y","Y","Y","Y","Y","Y","Y","Y","Y","Y","Y","Y","Y","Y","Y","Y","Y","Y","Y","Y","Y","Y","Y","Y","Y","Y","Y","Y","Y","Y","Y","Y","Y","Y","Y","Y","Y","Y","Y","Y","Y","Y","Y","Y","Y","Y","Y","Y","Y","Y","Y","Y","Y","Y","Y","Y","Y","Y","Y","Y","Y","Y","Y","Y","Y","Y","Y","Y","Y","Y","Y","Y","Y","Y","Y","Y","Y","Y","Y","Y","Y","Y","Y","Y","Y","Y","Y","Y","Y","Y","Y","Y","Y","Y","Y","Y","Y","Y","Y","Y","Y","Y","Y","Y","Y","Y","Y","Y","Y","Y","Y","Y","Y","Y","Y","Y","Y","Y","Y","Y","Y","Y","Y","Y","Y","Y","Y","Y","Y","Y","Y","Y","Y","Y","Y","Y","Y","Y","Y","Y","Y","Y","Y","Y","Y","Y","Y","Y","Y","Y","Y","Y","Y","Y","Y","Y","Y","Y","Y","Y","Y","Y","Y","Y","Y","Y","Y","Y","Y","Y","Y","Y","Y","Y","Y","Y","Y","Y","Y","Y","Y","Y","Y","Y","Y","Y","Y","Y","Y","Y","Y","Y","Y","Y","Y","Y","Y","Y","Y","Y","Y","Y","Y","Y","Y","Y","Y","Y","Y","Y","Y","Y","Y","Y","Y","Y","Y","Y","Y","Y","Y","Y","Y","Y","Y","Y","Y","Y","Y","Y","Y","Y","Y","Y","Y","Y","Y","Y","Y","Y","Y","Y","Y","Y","Y","Y","Y","Y","Y","Y","Y","Y","Y","Y","Y","Y","Y","Y","Y","Y","Y","Y","Y","Y","Y","Y","Y","Y","Y","Y","Y","Y","Y","Y","Y","Y","Y","Y","Y","Y","Y","Y","Y","Y","Y","Y","Y","Y","Y","Y","Y","Y","Y","Y","Y","Y","Y","Y","Y","Y","Y","Y","Y","Y","Y","Y","Y","Y","Y","Y","Y","Y","Y","Y","Y","Y","Y","Y","Y","Y","Y","Y","Y","Y","Y","Y","Y","Y","Y","Y","Y","Y","Y","Y","Y","Y","Y","Y","Y","Y","Y","Y","Y","Y","Y","Y","Y","Y","Y","Y","Y","Y","Y","Y","Y","Y","Y","Y","Y","Y","Y","Y","Y","Y","Y","Y","Y","Y","Y","Y","Y","Y","Y","Y","Y","Y","Y","Y","Y","Y","Y","Y","Y","Y","?","?","?","Q","?","R","R","R","R","R","?","?","?","?","?","?","?","?","?","?","?","?","?","?","?","?","Q","Q","P","P","?","O","O","O","O","O","O","O","O","O","O","O","O","O","O","O","O","O","O","O","O","O","O","O","O","O","O","O","O","O","O","O","O","O","O","O","O","O","O","O","O","O","O","O","O","O","O","O","O","O","O","O","O","O","O","O","O","O","O","O","O","O","O","O","O","O","O","O","O","O","O","O","O","O","O","O","O","O","O","O","O","O","O","O","O","O","O","O","O","O","O","O","O","O","O","O","O","O","O","O","O","O","O","O","O","O","O","O","O","O","O","O","O","O","O","O","O","O","O","O","O","O","O","O","O","O","O","O","O","O","O","O","O","O","O","O","O","O","O","O","O","O","O","O","O","O","O","O","O","O","O","O","O","O","O","O","O","O","O","O","O","O","O","O","O","O","O","O","O","O","O","O","O","O","O","O","O","O","O","O","O","O","O","O","O","O","O","O","O","O","O","O","O","O","O","O","O","O","O","O","O","O","O","O","O","O","O","O","O","O","O","O","O","O","O","O","O","O","O","O","O","O","O","O","O","O","O","O","O","O","O","O","O","O","O","O","O","O","O","O","O","O","O","O","O","O","O","O","O","O","O","O","O","O","O","O","O","O","O","O","O","O","O","O","O","O","O","O","O","O","O","O","O","O","O","O","O","O","O","O","O","O","O","O","O","O","O","O","O","O","O","O","O","O","O","O","O","O","?","?","?","?","?","?","?","?","?","?","?","P","P","P","P","P","P","P","P","P","P","P","P","P","P","P","P","P","P","P","P","P","P","P","P","P","P","P","P","P","P","P","P","P","P","P","P","P","P","P","P","P","P","P","P","P","P","P","P","P","P","P","P","P","P","P","P","P","P","P","P","P","P","P","P","P","P","P","P","P","P","P","P","P","P","P","P","P","P","P","P","P","P","P","P","P","P","P","P","P","P","P","P","P","P","P","P","P","P","P","P","P","P","P","P","P","P","P","P","P","P","P","P","P","P","P","P","P","P","P","P","P","P","P","P","P","P","P","P","P","P","P","P","P","P","P","P","P","P","P","P","P","P","P","P","P","P","P","P","P","P","P","P","P","P","P","P","P","P","P","P","P","P","P","P","P","P","P","P","P","P","P","P","P","P","P","P","P","P","P","P","P","P","P","P","P","P","P","P","P","P","P","P","P","P","P","P","P","P","P","P","P","P","P","P","P","P","P","P","P","P","P","P","P","P","P","P","P","P","P","P","P","P","P","P","P","P","P","P","P","P","P","P","P","P","P","P","P","P","P","P","P","P","P","P","P","P","P","P","P","P","P","P","P","P","P","P","P","P","P","P","P","P","P","P","P","P","P","P","P","P","P","P","?","?","O","O","O","O","O","O","O","O","O","O","O","O","O","O","O","O","O","O","O","O","O","O","O","O","O","O","O","O","O","O","O","O","O","O","O","O","O","O","O","O","O","O","O","O","O","O","O","O","O","O","O","O","O","O","O","O","?","?","?","?","?","N","N","N","N","N","N","N","N","N","N","N","N","N","N","N","N","N","N","?","?","?","?","?","?","?","?","?","?","?","?","?","?","?","?","?","?","?","?","?","?","?","?","?","?","?","?","?","?","?","?","?","?","?","?","?","?","?","?","?","?","?","?","?","?","?","?","?","?","?","?","?","?","?","?","?","?","?","?","?","?","?","?","?","?","?","?","?","?","?","?","?","?","?","?","?","?","?","?","?","?","?","?","?","?","?","?","?","?","?","?","?","?","?","?","?","?","?","?","?","?","?","?","?","?","?","?","?","?","?","?","?","?","?","?","?","?","?","?","?","?","?","?","?","?","?","?","?","N","N","N","N","N","N","?","O","O","?","P","P","?","Q","Q","Q","Q","Q","Q","Q","Q","Q","Q","Q","Q","?","?","?","?","?","?","?","?","?","H","H","H","H","H","H","H","H","H","H","H","H","H","H","H","H","H","H","H","H","H","H","H","H","H","H","H","H","H","H","H","H","H","H","H","H","H","H","H","H","H","H","H","H","H","H","H","H","H","H","H","H","H","H","H","?","G","G","F","F","?","E","E","D","D","D","D","D","?","?","?","?","?","?","C","C","C","C","C","C","C","C","C","C","C","?","?","?","?","?","?","?","?","?","?","?","O","O","O","O","O","O","O","O","O","O","O","O","O","O","O","O","O","O","O","O","O","O","O","O","O","O","O","O","O","O","O","O","O","O","O","O","O","O","O","O","O","O","O","O","O","O","O","O","O","O","O","O","O","O","O","O","O","O","O","O","O","?","N","M","M","?","?","?","?","?","?","?","?","?","?","?","?","?","?","?","?","?","?","?","?","?","?","?","?","K","K","K","K","K","K","K","K","K","?","?","?","?","B","?","C","C","C","?","?","?","?","?","?","?","?","?","?","?","?","?","?","?","?","C","C","C","C","C","C","C","C","C","C","C","C","C","C","C","C","C","C","C","C","C","C","C","C","C","C","C","C","C","C","C","C","C","C","C","C","C","C","C","C","C","C","C","C","C","C","C","C","C","C","?","B","B","B","B","B","B","B","B","?","?","?","?","A","A","A","A","A","A","A","A","A","A","A","A","A","A","A","A","A","A","A","A","A","A","A","A","A","A","A","A","A","A","A","A","A","A","A","A","A","A","A","A","A","A","A","A","A","A","A","A","A","A","A","A","A","A","A","A","A","A","A","A","A","A","A","A","A","A","A","A","A","A","A","A","A","A","A","A","A","A","B","?","?","?","?","?","?","?","?","?","?","?","?","?","?","?","?","?","?","?","?","?","?","?","?","?","?","?","?","?","?","?","?","?","?","?","?","?","?","?","?","?","?","?","?","?","?","?","?","?","?","?","?","?","?","?","?","?","?","?","?","?","?","?","?","?","?","?","?","?","?","?","?","?","?","?","?","?","?","?","?","?","?","?","?","?","?","?","?","?","?","?","?","?","?","?","?","?","?","?","?","?","?","?","?","?","?","?","?","?","?","?","?","?","?","?","?","?","?","?","?","?","?","?","?","?","?","?","?","?","?","?","?","?","?","?","?","?","?","?","?","?","?","?","?","?","?","?","?","?","?","?","?","?","?","?","?","?","?","?","?","?","?","?","?","?","?","?","?","?","?","?","?","?","?","?","?","?","?","?","?","?","?","?","?","?","?","?","?","?","?","?","?","?","?","?","?","?","?","?","?","?","?","?","?","?","?","?","?","?","?","?","?","?","?","?","?","?","?","?","?","?","?","?","?","?","?","?","?","?","?","?","?","?","?","?","?","?","?","?","?","?","?","?","?","?","?","?","?","?","?","?","?","?","?","?","?","?","?","?","?","?","?","?","?","?","?","?","?","?","?","?","?","?","?","?","?","?","?","?","?","?","?","?","?","?","?","?","?","?","?","?","?","?","?","?","?","?","?","?","?","?","?","?","?","?","?","?","?","?","?","?","?","?","?","?","?","?","?","?","?","?","?","?","?","?","?","?","?","?","?","?","?","?","?","?","?","?","?","?","?","?","?","?","?","?","?","?","?","?","?","?","?","?","?","?","?","?","?","?","?","?","?","?","?","?","?","?","?","?","?","?","?","?","?","?","?","?","?","?","?","?","?","?","?","?","?","?","?","?","?","?","?","?","?","?","?","?","?","?","?","?","?","?","?","?","?","?","?","?","?","?","?","?","?","?","?","?","?","?","?","?","?","?","?","?","?","?","?","?","?","?","?","?","?","?","?","?","?","?","?","?","?","?","?","?","?","?","?","?","?","?","?","?","?","?","?","?","?","?","?","?","?","?","?","?","?","?","?","?","?","?","?","?","?","?","?","?","?","?","?","?","?","?","?","?","?","?","?","?","?","?","?","?","?","?","?","?","?","?","?","?","?","?","?","?","U","U","U","U","U","U","U","U","U","U","U","U","U","U","U","U","U","U","U","U","?","?","K","K","K","K","?","?","?","?","?","?","?","?","?","?","?","?","?","A","A","A","A","A","A","A","A","A","A","A","A","A","A","A","A","A","A","A","A","A","A","A","A","A","A","A","A","A","A","A","A","A","A","A","A","A","A","A","A","A","A","A","A","A","A","A","A","A","A","A","A","A","A","A","A","A","A","A","A","A","A","A","A","A","A","A","A","A","A","A","A","A","A","A","A","A","A","A","A","?","B","B","?","?","?","?","?","?","?","?","L","L","L","L","L","L","L","L","L","L","L","L","L","L","L","L","L","L","L","L","L","L","L","L","L","L","L","L","L","L","L","L","L","L","L","L","L","L","L","L","L","L","L","L","L","L","L","L","L","L","L","L","L","L","L","L","L","L","L","L","L","L","L","L","L","L","L","L","L","L","L","L","L","L","L","L","L","L","L","L","L","L","L","L","L","L","L","L","L","L","L","L","L","L","L","L","L","L","L","L","L","L","L","L","L","L","L","L","L","L","L","L","L","L","L","L","L","L","L","L","L","L","L","L","L","L","L","L","L","L","L","L","L","L","L","L","L","L","L","L","L","L","L","L","L","L","L","L","L","L","L","L","L","L","L","L","L","L","L","L","L","L","L","L","L","L","L","L","L","L","L","L","L","L","L","L","L","L","L","L","L","L","L","L","L","L","L","L","L","L","L","L","L","L","L","L","L","L","L","L","L","L","L","L","L","L","L","L","L","L","L","L","L","L","L","L","L","L","L","L","L","L","L","L","L","L","L","L","L","L","L","L","L","L","L","L","L","L","L","L","L","L","L","L","L","L","L","L","L","L","L","L","L","L","L","L","L","L","L","L","L","L","L","L","L","L","L","L","L","L","L","L","L","L","L","L","L","L","L","L","L","L","L","L","L","L","L","L","L","L","L","L","L","L","L","L","L","L","L","L","L","L","L","L","L","L","L","L","L","L","L","L","L","L","L","L","L","L","L","L","L","L","L","L","L","L","L","L","M","M","?","?","?","?","?","X","X","X","X","X","X","X","X","X","X","X","X","X","X","?","?","N","N","N","?","?","?","?","?","?","?","?","D","D","D","D","D","D","D","D","D","?","?","?","?","C","C","C","C","C","C","C","C","C","C","C","C","C","C","C","C","C","C","C","C","C","C","C","C","C","C","C","C","C","C","C","C","C","?","?","?","?","?","?","?","?","?","?","?","?","?","?","?","?","?","?","?","?","?","?","?","?","?","?","?","?","?","?","?","?","?","?","?","?","?","?","?","?","?","?","?","?","?","?","?","?","?","?","?","?","?","?","?","?","?","?","?","?","?","?","?","?","?","?","?","?","?","?","?","?","?","?","?","?","?","?","?","?","?","?","?","?","?","?","?","?","?","?","?","?","?","?","?","?","?","?","?","?","?","?","?","?","?","?","?","?","?","?","?","?","?","?","?","?","?","?","?","?","?","?","?","?","?","?","?","?","?","?","?","?","?","?","?","?","?","?","?","?","?","?","?","?","?","?","?","?","?","?","?","?","?","?","?","?","?","?","?","?","?","?","?","?","?","?","?","?","?","?","?","?","?","?","?","?","?","?","?","?","?","?","?","?","?","?","?","?","?","?","?","?","?","?","?","?","?","?","?","?","?","?","?","?","?","?","?","?","?","?","?","?","?","?","?","?","?","?","?","?","?","?","?","?","?","?","?","?","?","?","?","?","?","?","?","?","?","?","?","?","?","?","?","?","?","?","?","?","?","?","?","?","?","?","?","?","?","?","?","?","?","?","?","?","?","?","?","?","?","?","?","?","?","?","?","?","?","?","?","?","?","?","?","?","?","?","?","?","?","?","?","?","?","?","?","?","?","?","?","?","?","?","?","?","?","?","?","?","?","?","?","?","?","?","?","?","?","?","?","?","?","?","?","?","?","?","?","?","?","?","?","?","?","?","?","?","?","?","?","?","?","?","?","?","?","?","?","?","?","?","?","?","?","?","?","?","?","?","?","?","?","?","?","?","?","?","?","?","?","?","?","?","?","?","?","?","?","?","?","?","?","?","?","?","?","?","?","?","?","?","?","?","?","?","?","?","?","?","?","?","?","?","?","?","?","?","?","?","?","?","?","?","?","?","?","?","?","?","?","?","?","?","?","?","?","?","?","?","?","?","?","?","?","?","?","?","?","?","?","?","?","?","?","?","?","?","?","?","?","?","?","?","?","?","?","?","?","?","?","?","?","?","?","?","?","?","?","?","?","?","?","?","?","?","?","?","?","?","?","?","?","?","?","?","?","?","?","?","?","?","?","?","?","?","?","?","?","?","?","?","?","?","?","?","?","?","?","?","?","?","?","?","?","?","?","?","?","?","?","?","?","?","?","?","?","?","?","?","?","?","?","?","?","?","?","?","?","?","?","?","?","?","?","?","?","?","?","?","?","?","?","?","?","?","?","?","?","?","?","?","?","?","?","?","?","?","?","?","?","?","?","?","?","?","?","?","?","?","?","?","?","?","?","?","?","?","?","?","?","?","?","?","?","?","?","?","?","?","?","?","?","?","?","?","?","?","?","?","?","?","?","?","?","?","?","?","?","?","?","?","?","?","?","?","?","?","?","?","?","?","?","?","?","?","?","?","?","?","?","?","?","?","?","?","?","?","?","?","?","?","?","?","?","?","?","?","?","?","?","?","?","?","?","?","?","?","?","?","?","?","?","?","?","?","?","?","?","?","?","?","?","?","?","?","?","?","?","?","?","?","?","?","?","?","?","?","?","?","?","?","?","?","?","?","?","?","?","?","?","?","?","?","?","?","?","?","?","?","?","?","?","?","?","?","?","?","?","?","?","?","?","?","?","?","?","?","?","?","?","?","?","?","?","?","?","?","?","?","?","?","?","?","?","?","?","?","?","?","?","?","?","?","?","?","?","?","?","?","?","?","?","?","?","?","?","?","?","?","?","?","?","?","?","?","?","?","?","?","?","?","?","?","?","?","?","?","?","?","?","?","?","?","?","?","?","?","?","?","?","?","?","?","?","?","?","?","?","?","?","?","?","?","?","?","?","?","?","?","?","?","?","?","?","?","?","?","?","?","?","?","?","?","?","?","?","?","?","?","?","?","?","?","?","?","?","?","?","?","?","?","?","?","?","?","?","?","?","?","?","?","?","?","?","?","?","?","?","?","?","?","?","?","?","?","?","?","?","?","?","?","?","?","?","?","?","?","?","?","?","?","?","?","?","?","?","?","?","?","?","?","?","?","?","?","?","?","?","?","?","?","?","?","?","?","?","?","?","?","?","?","?","?","?","?","?","?","?","?","?","?","?","?","?","?","?","?","?","?","?","?","?","?","?","?","?","?","?","?","?","?","?","?","?","?","?","?","?","?","?","?","?","?","?","?","?","?","?","?","?","?","?","?","?","?","?","?","?","?","?","?","?","?","?","?","?","?","?","?","?","?","?","?","?","?","?","?","?","?","?","?","?","?","?","?","?","?","?","?","?","?","?","?","?","?","?","?","?","?","?","?","?","?","?","?","?","?","?","?","?","?","?","?","?","?","?","?","?","?","?","?","?","?","?","?","?","?","?","?","?","?","?","?","?","?","?","?","?","?","?","?","?","?","?","?","?","?","?","?","?","?","?","?","?","?","?","?","?","?","?","?","?","?","?","?","?","?","?","?","?","?","?","?","?","?","?","?","?","?","?","?","?","?","?","?","?","?","?","?","?","?","?","?","?","?","?","?","?","?","?","?","?","?","?","?","?","?","?","?","?","?","?","?","?","?","?","?","?","?","?","?","?","?","?","?","?","?","?","?","?","?","?","?","?","?","?","?","?","?","?","?","?","?","?","?","?","?","?","?","?","?","?","?","?","?","?","?","?","?","?","?","?","?","?","?","?","?","?","?","?","?","?","?","?","?","?","?","?","?","?","?","?","?","?","?","?","?","?","?","?","?","?","?","?","?","?","?","?","?","?","?","?","?","?","?","?","?","?","?","?","?","?","?","?","?","?","?","?","?","?","?","?","?","?","?","?","?","?","?","?","?","?","?","?","?","?","?","?","?","?","?","?","?","?","?","?","?","?","?","?","?","?","?","?","?","?","?","?","?","?","?","?","?","?","?","?","?","?","?","?","?","?","?","?","?","?","?","?","?","?","?","?","?","?","?","?","?","?","?","?","?","?","?","?","?","?","?","?","?","?","?","?","?","?","?","?","?","?","?","?","?","?","?","?","?","?","?","?","?","?","?","?","?","?","?","?","?","?","?","?","?","?","?","?","?","?","?","?","?","?","?","?","?","?","?","?","?","?","?","?","?","?","?","?","?","?","?","?","?","?","?","?","?","?","?","?","?","?","?","?","?","?","?","?","?","?","?","?","?","?","?","?","?","?","?","?","?","?","?","?","?","?","?","?","?","?","?","?","?","?","?","?","?","?","?","?","?","?","?","?","?","?","?","?","?","?","?","?","?","?","?","?","?","?","?","?","?","?","?","?","?","?","?","?","?","?","?","?","?","?","?","?","?","?","?","?","?","?","?","?","?","?","?","?","?","?","?","?","?","?","?","?","?","?","?","?","?","?","?","?","?","?","?","?","?","?","?","?","?","?","?","?","?","?","?","?","?","?","?","?","?","?","?","?","?","?","?","?","?","?","?","?","?","?","?","?","?","?","?","?","?","?","?","?","?","?","?","?","?","?","?","?","?","?","?","?","?","?","?","?","?","?","?","?","?","?","?","?","?","?","?","?","?","?","?","?","?","?","?","?","?","?","?","?","?","?","?","?","?","?","?","?","?","?","?","?","?","?","?","?","?","?","?","?","?","?","?","?","?","?","?","?","?","?","?","?","?","?","?","?","?","?","?","?","?","?","?","?","?","?","?","?","?","?","?","?","?","?","?","?","?","?","?","?","?","?","?","?","?","?","?","?","?","?","?","?","?","?","?","?","?","?","?","?","?","?","?","?","?","?","?","?","?","?","?","?","?","?","?","?","?","?","?","?","?","?","?","?","?","?","?","?","?","?","?","?","?","?","?","?","?","?","?","?","?","?","?","?","?","?","?","?","?","?","?","?","?","?","?","?","?","?","?","?","?","?","?","?","?","?","?","?","?","?","?","?","?","?","?","?","?","?","?","?","?","?","?","?","?","?","?","?","?","?","?","?","?","?","?","?","?","?","?","?","?","?","?","?","?","?","?","?","?","?","?","?","?","?","?","?","?","?","?","?","?","?","?","?","?","?","?","?","?","?","?","?","?","?","?","?","?","?","?","?","?","?","?","?","?","?","?","?","?","?","?","?","?","?","?","?","?","?","?","?","?","?","?","?","?","?","?","?","?","?","?","?","?","?","?","?","?","?","?","?","?","?","?","?","?","?","?","?","?","?","?","?","?","?","?","?","?","?","?","?","?","?","?","?","?","?","?","?","?","?","?","?","?","?","?","?","?","?","?","?","?","?","?","?","?","?","?","?","?","?","?","?","?","?","?","?","?","?","?","?","?","?","?","?","?","?","?","?","?","?","?","?","?","?","?","?","?","?","?","?","?","?","?","?","?","?","?","?","?","?","?","?","?","?","?","?","?","?","?","?","?","?","?","?","?","?","?","?","?","?","?","?","?","?","?","?","?","?","?","?","?","?","?","?","?","?","?","?","?","?","?","?","?","?","?","?","?","?","?","?","?","?","?","?","?","?","?","?","?","?","?","?","?","?","?","?","?","?","?","?","?","?","?","?","?","?","?","?","?","?","?","?","?","?","?","?","?","?","?","?","?","?","?","?","?","?","?","?","?","?","?","?","?","?","?","?","?","?","?","?","?","?","?","?","?","?","?","?","?","?","?","?","?","?","?","?","?","?","?","?","?","?","?","?","?","?","?","?","?","?","?","?","?","?","?","?","?","?","?","?","?","?","?","?","?","?","?","?","?","?","?","?","?","?","?","?","?","?","?","?","?","?","?","?","?","?","?","?","?","?","?","?","?","?","?","?","?","?","?","?","?","?","?","?","?","?","?","?","?","?","?","?","?","?","?","?","?","?","?","?","?","?","?","?","?","?","?","?","?","?","?","?","?","?","?","?","?","?","?","?","?","?","?","?","?","?","?","?","?","?","?","?","?","?","?","?","?","?","?","?","?","?","?","?","?","?","?","?","?","?","?","?","?","?","?","?","?","?","?","?","?","?","?","?","?","?","?","?","?","?","?","?","?","?","?","?","?","?","?","?","?","?","?","?","?","?","?","?","?","?","?","?","?","?","?","?","?","?","?","?","?","?","?","?","?","?","?","?","?","?","?","?","?","?","?","?","?","?","?","?","?","?","?","?","?","?","?","?","?","?","?","?","?","?","?","?","?","?","?","?","?","?","?","?","?","?","?","?","?","?","?","?","?","?","?","?","?","?","?","?","?","?","?","?","?","?","?","?","?","?","?","?","?","?","?","?","?","?","?","?","?","?","?","?","?","?","?","?","?","?","?","?","?","?","?","?","?","?","?","?","?","?","?","?","?","?","?","N","N","N","N","N","N","N","N","N","N","N","N","N","N","?","M","?","L","?","?","?","?","?","?","S","S","S","S","S","S","S","S","S","S","S","S","S","S","S","S","S","S","S","S","S","S","S","S","S","S","S","S","S","S","S","S","S","S","S","S","S","S","S","S","S","S","S","S","S","S","S","S","S","S","S","S","S","S","S","S","S","S","S","S","S","S","S","S","S","S","S","S","S","S","S","S","S","S","S","S","S","S","S","S","S","S","S","S","S","S","S","S","S","S","S","S","S","S","S","S","S","S","S","S","S","S","S","S","S","S","S","S","S","S","S","S","S","S","S","S","S","S","S","S","S","S","S","S","S","S","S","S","S","S","S","S","S","S","S","S","S","S","S","S","S","S","S","S","S","S","S","S","S","S","S","S","S","S","S","S","S","S","S","S","S","S","S","S","S","S","S","S","S","S","S","S","S","S","S","S","S","S","S","S","S","S","S","S","S","S","S","S","S","S","S","S","S","S","S","S","S","S","S","S","S","S","S","S","S","S","S","S","S","S","S","S","S","S","S","S","S","S","S","S","S","S","S","S","S","S","S","S","S","S","S","S","S","S","S","S","S","S","?","?","?","?","?","?","?","?","?","?","?","?","?","?","?","?","K","K","?","?","L","L","L","?","?","?","?","?","D","D","D","D","D","D","D","D","D","D","D","D","D","D","D","D","?","?","?","E","E","E","E","E","E","E","E","E","E","E","E","E","E","E","E","E","E","E","E","E","E","E","E","E","E","E","E","E","E","E","E","E","E","E","E","E","E","E","E","E","E","E","E","E","E","E","E","E","E","E","E","E","E","E","E","E","E","E","E","E","E","E","E","E","E","E","E","E","E","E","E","E","E","E","E","E","E","E","E","E","E","E","E","E","E","E","E","E","E","E","E","E","E","E","E","E","E","E","E","E","E","?","?","?","?","?","?","?","N","N","N","N","N","N","N","N","N","?","?","?","?","M","M","M","M","M","M","M","M","M","M","M","M","M","M","M","M","M","M","M","?","?","?","?","?","?","?","?","O","O","?","?","?","?","?","?","?","?","?","?","?","?","?","?","?","?","?","?","?","?","?","?","?","?","?","?","?","?","?","?","?","?","?","?","?","?","?","?","?","?","?","?","O","O","O","O","O","O","O","O","O","O","O","O","O","O","O","?","?","?","?","?","?","?","?","?","?","?","?","?","?","?","?","?","?","?","?","?","H","H","H","H","H","H","H","H","H","H","H","H","?","?","?","?","?","?","?","?","?","?","?","P","P","P","P","P","P","P","P","P","P","P","P","P","P","P","P","P","P","P","P","P","P","P","P","P","P","P","P","P","P","P","P","P","P","P","P","P","P","P","P","P","P","P","P","P","P","P","P","P","P","P","P","P","P","P","P","P","P","P","P","P","P","P","P","P","P","P","P","P","P","P","P","P","P","P","P","P","P","P","P","P","P","P","P","P","P","P","P","P","P","P","P","?","?","?","?","?","?","?","?","?","?","?","?","?","?","?","?","?","?","?","?","?","?","?","?","?","?","?","?","?","?","?","?","?","?","?","?","?","?","?","?","?","?","?","?","?","?","?","?","?","?","?","?","?","?","?","?","?","?","?","?","?","?","?","?","?","?","?","?","?","?","?","?","?","?","?","?","?","?","?","?","?","?","?","?","?","?","?","?","?","?","?","?","?","?","?","?","?","?","?","?","?","?","?","?","?","?","?","?","?","?","?","?","?","?","?","?","?","?","?","?","?","?","?","?","?","?","?","?","?","?","?","?","?","?","?","?","?","?","?","?","?","?","?","?","?","?","?","?","?","?","?","?","?","?","?","?","?","?","?","?","?","?","?","?","?","?","?","?","?","?","?","?","?","?","?","?","?","?","?","?","?","?","?","?","?","?","?","?","?","?","?","?","?","?","?","?","?","?","?","?","?","?","?","?","?","?","?","?","?","?","?","?","?","?","?","?","?","?","?","?","?","?","?","?","?","?","?","?","?","?","?","?","?","?","?","?","?","?","?","?","?","?","?","?","?","?","?","?","?","?","?","?","?","?","?","?","?","?","?","?","?","?","?","?","?","?","?","?","?","?","?","?","?","?","?","?","?","?","?","?","?","?","?","?","?","?","?","?","?","?","?","?","?","?","?","?","?","?","?","?","?","?","?","?","?","?","?","?","?","?","?","?","?","?","?","?","?","?","?","?","?","?","?","?","?","?","?","?","?","?","?","?","?","?","?","?","?","?","?","?","?","?","?","?","?","?","?","?","?","?","?","?","?","?","?","?","?","?","?","?","?","?","?","?","?","?","?","?","?","?","?","O","O","O","O","O","O","O","O","O","?","?","?","?","?","?","?","?","?","?","?","?","?","?","?","?","?","?","?","?","?","?","?","?","?","M","M","M","M","?","N","N","N","?","?","O","O","O","O","O","O","O","O","O","O","O","O","O","O","O","O","O","?","?","?","?","?","?","?","?","F","F","?","?","?","?","G","G","G","G","G","G","G","G","G","G","G","?","?","?","?","?","?","?","?","?","?","?","?","?","?","?","?","M","M","M","M","M","M","M","?","?","?","?","?","L","L","L","L","L","L","L","L","L","L","L","L","L","L","L","L","L","L","L","?","?","?","?","?","?","?","?","?","?","?","?","?","?","?","?","?","?","?","?","U","U","U","U","U","U","U","U","?","?","T","T","T","T","T","T","T","T","T","T","T","T","T","T","T","T","T","T","T","T","T","T","T","T","T","T","T","T","T","T","T","T","T","T","T","T","T","T","T","T","T","T","T","T","T","T","T","T","T","T","T","T","T","T","T","T","T","T","T","T","T","T","T","T","T","T","T","T","T","T","T","T","T","T","T","T","T","T","T","T","T","T","T","T","T","T","T","T","T","T","T","T","T","T","T","T","T","T","T","T","T","T","T","T","T","T","T","T","T","T","T","T","T","T","T","T","T","T","T","T","T","T","T","T","T","T","T","T","T","T","T","T","T","T","T","T","T","T","T","T","T","T","T","T","T","T","T","T","T","T","T","T","T","T","T","T","T","T","T","T","T","T","T","T","T","T","T","T","T","T","T","T","T","T","T","T","T","T","T","T","T","T","T","T","T","T","T","T","T","T","T","T","T","T","T","T","T","T","T","T","T","T","T","T","T","T","T","T","T","T","T","T","T","T","T","T","T","T","T","T","T","T","T","T","T","T","T","T","T","T","T","T","T","T","T","T","T","T","T","T","T","T","T","T","T","T","T","T","T","T","T","T","T","T","T","T","T","T","T","T","T","T","T","T","T","T","T","T","T","T","T","T","T","T","T","T","T","T","T","T","T","T","T","T","T","T","T","T","T","T","T","T","?","?","?","?","?","?","?","?","?","?","?","?","?","?","?","?","?","?","L","L","L","L","L","M","M","M","?","N","N","N","?","?","?","X","X","?","?","Y","Y","Y","Y","Y","Y","Y","Y","Y","Y","Y","Y","Y","?","?","?","?","Z","Z","Z","Z","Z","Z","Z","Z","Z","Z","Z","Z","Z","Z","Z","Z","Z","Z","Z","Z","Z","Z","Z","Z","Z","Z","Z","Z","Z","Z","Z","Z","Z","Z","Z","Z","Z","Z","Z","Z","Z","Z","Z","Z","Z","Z","Z","Z","Z","Z","Z","Z","Z","Z","Z","Z","Z","Z","Z","Z","Z","Z","Z","Z","Z","Z","Z","Z","Z","Z","Z","Z","Z","Z","Z","Z","?","Y","Y","Y","Y","Y","?","?","X","X","X","X","X","?","?","?","W","W","W","?","?","N","N","?","?","?","M","?","?","?","?","?","?","?","?","?","?","?","?","?","?","?","?","?","?","C","C","C","?","?","?","?","B","B","B","B","B","B","B","B","B","B","B","B","B","B","B","B","B","B","B","B","B","B","B","B","B","B","B","B","B","B","B","B","B","B","B","B","B","B","B","B","B","B","B","B","B","B","B","B","B","B","B","B","B","B","B","B","B","B","B","B","B","B","B","B","B","B","B","B","B","B","B","B","B","B","B","B","B","B","B","B","B","B","B","B","B","B","B","B","B","?","?","?","?","?","M","M","M","M","M","M","?","?","?","N","N","N","N","N","N","N","?","?","O","O","?","?","?","?","?","?","?","?","?","?","Q","Q","Q","Q","Q","Q","Q","Q","Q","Q","Q","Q","Q","Q","Q","Q","Q","Q","Q","Q","Q","Q","Q","Q","Q","Q","Q","?","?","P","P","P","P","P","?","O","O","O","?","N","N","N","N","N","N","N","N","?","M","M","M","M","M","M","M","M","M","M","M","M","?","?","?","?","?","D","D","D","?","E","E","E","?","F","F","F","F","F","F","F","?","?","G","G","G","G","G","G","G","G","G","G","G","G","G","G","G","G","F","?","?","?","?","?","?","L","L","L","L","L","L","L","L","L","?","?","?","?","?","?","?","?","?","?","?","?","?","?","?","?","?","?","?","?","?","?","?","?","?","?","?","?","?","?","?","?","?","?","?","W","W","W","W","W","W","W","W","W","?","?","X","X","X","X","X","X","X","X","X","X","X","?","?","?","?","?","?","?","?","?","?","?","?","?","?","?","?","?","?","?","?","?","?","?","?","?","?","?","?","?","?","?","?","?","Q","Q","Q","?","?","R","R","R","R","R","R","R","R","R","R","R","R","R","R","R","R","R","R","R","R","R","R","R","R","R","R","R","R","R","R","R","R","R","R","R","R","R","R","R","R","R","R","R","R","R","R","R","R","R","R","R","R","R","R","R","R","R","R","R","R","R","R","R","R","R","R","R","R","R","R","R","R","R","R","R","R","R","R","R","R","R","R","R","R","R","R","R","R","R","R","R","R","R","R","R","R","R","R","R","R","R","R","R","R","R","R","R","R","R","R","R","R","R","R","R","R","R","R","R","R","R","R","R","R","R","R","R","R","R","R","R","R","R","R","R","R","R","R","R","R","R","R","R","R","R","R","R","R","R","R","R","R","R","R","R","R","R","R","R","R","R","R","R","R","R","R","R","R","R","R","R","R","R","R","R","R","R","R","R","R","R","R","R","R","R","R","?","?","?","?","?","?"],"t":[35,45,61,78,94,111,127,144,161,178,196,212,228,246,264,280,296,312,329,345,367,378,396,411,429,445,460,479,497,512,529,545,560,579,595,613,628,647,662,678,695,712,729,746,762,779,796,813,829,847,862,879,895,914,929,945,962,977,995,1012,1028,1045,1061,1078,1095,1111,1128,1145,1161,1178,1195,1212,1229,1245,1261,1278,1296,1312,1329,1345,1362,1379,1395,1413,1429,1445,1462,1479,1496,1512,1529,1546,1562,1578,1596,1612,1629,1645,1662,1679,1695,1711,1727,1745,1761,1792,1810,1827,1847,1869,1880,1895,1913,1928,1944,1962,1978,1995,2012,2028,2045,2062,2079,2094,2111,2129,2144,2160,2178,2195,2212,2229,2247,2260,2281,2293,2311,2328,2344,2363,2381,2395,2410,2429,2444,2461,2477,2494,2510,2528,2545,2562,2577,2595,2612,2628,2643,2661,2678,2694,2711,2729,2744,2761,2778,2794,2811,2828,2845,2861,2877,2896,2912,2928,2945,2962,2978,2995,3012,3028,3045,3061,3077,3094,3111,3128,3146,3162,3179,3195,3212,3229,3243,3262,3278,3294,3313,3329,3345,3363,3379,3396,3412,3429,3445,3461,3479,3495,3514,3529,3545,3561,3578,3594,3611,3627,3643,3660,3677,3693,3709,3727,3744,3760,3776,3793,3809,3826,3843,3859,3877,3894,3910,3927,3944,3960,3977,3993,4010,4027,4043,4060,4077,4093,4111,4127,4143,4159,4177,4193,4210,4227,4245,4260,4279,4297,4311,4328,4345,4361,4377,4394,4411,4428,4443,4463,4479,4495,4512,4527,4546,4562,4579,4593,4610,4629,4644,4661,4678,4695,4712,4727,4745,4761,4779,4795,4811,4828,4844,4862,4878,4896,4911,4928,4945,4962,4978,4995,5011,5028,5044,5061,5078,5094,5111,5128,5145,5160,5178,5193,5212,5229,5244,5263,5280,5296,5313,5330,5345,5362,5379,5395,5411,5429,5445,5462,5479,5495,5511,5528,5545,5562,5578,5594,5611,5628,5644,5661,5677,5693,5711,5728,5745,5761,5777,5794,5811,5828,5845,5862,5878,5894,5913,5928,5944,5961,5978,5995,6011,6028,6045,6062,6078,6094,6110,6129,6146,6162,6179,6196,6212,6228,6243,6261,6278,6296,6311,6328,6344,6361,6377,6394,6411,6429,6445,6462,6478,6495,6512,6528,6545,6561,6578,6595,6611,6628,6645,6661,6678,6695,6712,6728,6745,6762,6778,6794,6812,6829,6845,6862,6879,6895,6912,6928,6945,6964,6978,6994,7012,7029,7045,7062,7078,7096,7112,7129,7145,7161,7178,7195,7214,7227,7244,7261,7278,7294,7312,7329,7346,7362,7379,7395,7412,7428,7445,7461,7479,7495,7512,7528,7545,7562,7579,7595,7610,7628,7645,7661,7679,7694,7711,7728,7744,7761,7779,7794,7811,7828,7845,7861,7877,7894,7910,7927,7943,7960,7977,7994,8011,8027,8044,8061,8077,8094,8111,8127,8144,8161,8177,8194,8211,8227,8243,8261,8277,8294,8311,8327,8343,8360,8378,8395,8412,8429,8446,8462,8479,8497,8511,8528,8545,8562,8578,8594,8610,8627,8644,8661,8678,8694,8711,8728,8745,8762,8779,8795,8812,8828,8845,8861,8878,8895,8911,8927,8945,8961,8978,8995,9011,9028,9046,9062,9078,9096,9111,9128,9145,9161,9178,9194,9211,9229,9244,9262,9278,9294,9312,9328,9345,9362,9378,9395,9411,9428,9445,9462,9478,9494,9512,9529,9545,9561,9578,9595,9611,9627,9643,9660,9678,9695,9711,9727,9745,9762,9778,9795,9812,9829,9845,9862,9879,9894,9914,9928,9944,9961,9978,9995,10011,10030,10045,10062,10078,10095,10112,10129,10145,10161,10177,10196,10212,10228,10245,10262,10279,10295,10312,10329,10345,10362,10379,10396,10412,10429,10446,10462,10478,10494,10512,10528,10547,10562,10578,10595,10612,10628,10644,10662,10678,10695,10711,10728,10745,10762,10779,10794,10812,10828,10845,10862,10878,10896,10912,10928,10945,10962,10978,10995,11012,11028,11046,11061,11078,11095,11112,11129,11145,11161,11179,11195,11212,11230,11244,11262,11279,11296,11312,11329,11345,11362,11379,11396,11412,11429,11445,11462,11479,11495,11511,11533,11544,11561,11578,11594,11611,11628,11645,11661,11678,11693,11712,11728,11744,11762,11779,11794,11811,11828,11844,11862,11878,11894,11913,11927,11945,11962,11978,11995,12011,12030,12044,12061,12078,12094,12112,12128,12144,12162,12179,12196,12212,12228,12245,12262,12278,12295,12311,12328,12346,12360,12378,12394,12411,12429,12444,12462,12477,12495,12510,12527,12548,12560,12578,12594,12610,12628,12644,12660,12677,12694,12712,12727,12744,12761,12778,12795,12812,12827,12847,12860,12878,12894,12913,12927,12945,12961,12978,12994,13012,13028,13045,13061,13078,13095,13112,13128,13144,13159,13177,13194,13213,13228,13245,13262,13279,13295,13312,13328,13346,13361,13377,13394,13411,13428,13445,13462,13479,13495,13512,13528,13545,13562,13578,13594,13611,13628,13645,13660,13680,13693,13711,13727,13745,13762,13779,13794,13812,13829,13845,13861,13879,13895,13912,13928,13945,13961,13979,13995,14011,14029,14046,14062,14079,14096,14112,14128,14146,14162,14178,14195,14212,14232,14250,14279,14294,14310,14327,14344,14362,14377,14394,14411,14429,14444,14460,14478,14495,14511,14528,14543,14561,14578,14595,14610,14629,14644,14661,14678,14693,14711,14727,14743,14761,14777,14808,14810,14827,14845,14862,14878,14894,14911,14927,14945,14961,14978,14997,15011,15028,15045,15062,15078,15096,15110,15128,15145,15160,15177,15195,15212,15229,15245,15262,15278,15294,15312,15329,15345,15362,15379,15396,15411,15428,15445,15462,15479,15494,15511,15529,15545,15562,15579,15595,15612,15629,15645,15662,15677,15694,15711,15729,15744,15760,15777,15794,15810,15827,15844,15860,15877,15893,15910,15927,15944,15961,15977,15994,16012,16028,16044,16062,16079,16095,16112,16128,16145,16160,16178,16195,16211,16229,16245,16262,16279,16295,16312,16328,16345,16362,16378,16408,16410,16427,16444,16462,16479,16496,16512,16529,16546,16563,16578,16596,16612,16629,16645,16660,16678,16694,16711,16728,16745,16761,16778,16795,16812,16829,16845,16862,16878,16895,16911,16927,16944,16962,16978,16995,17012,17029,17045,17062,17079,17096,17124,17144,17160,17177,17194,17210,17227,17246,17262,17278,17294,17312,17329,17345,17361,17378,17394,17411,17428,17446,17463,17479,17495,17512,17528,17544,17562,17579,17595,17613,17628,17645,17662,17678,17695,17711,17728,17745,17761,17778,17794,17812,17828,17845,17860,17878,17894,17913,17928,17945,17962,17978,17994,18012,18029,18044,18062,18079,18096,18112,18129,18146,18162,18178,18196,18211,18228,18246,18261,18279,18296,18312,18328,18346,18363,18379,18396,18413,18429,18445,18461,18479,18495,18512,18529,18545,18562,18580,18595,18611,18629,18645,18662,18678,18695,18711,18728,18745,18760,18778,18795,18811,18828,18846,18862,18879,18895,18912,18929,18945,18962,18979,18995,19011,19028,19044,19060,19078,19094,19111,19128,19144,19160,19179,19195,19212,19227,19244,19261,19278,19294,19311,19327,19344,19361,19378,19395,19411,19427,19447,19462,19478,19494,19511,19527,19545,19561,19578,19595,19611,19628,19645,19661,19678,19694,19716,19728,19745,19760,19778,19794,19811,19828,19845,19862,19878,19894,19911,19927,19944,19960,19977,19994,20010,20027,20044,20061,20077,20094,20111,20129,20145,20162,20176,20195,20211,20228,20245,20262,20279,20294,20311,20329,20345,20361,20378,20394,20412,20429,20445,20461,20478,20494,20511,20527,20544,20561,20577,20595,20611,20629,20644,20663,20678,20694,20711,20727,20744,20761,20777,20794,20811,20828,20844,20865,20878,20896,20912,20928,20945,20961,20977,20994,21010,21027,21047,21060,21077,21094,21110,21128,21144,21160,21177,21195,21209,21229,21245,21260,21278,21294,21311,21329,21345,21363,21379,21395,21412,21429,21444,21461,21479,21495,21513,21529,21545,21562,21578,21597,21611,21627,21644,21661,21677,21694,21711,21727,21744,21761,21776,21794,21811,21827,21844,21860,21877,21894,21910,21927,21944,21961,21978,21994,22011,22027,22045,22061,22077,22094,22111,22128,22145,22162,22178,22196,22211,22227,22243,22263,22278,22295,22310,22328,22345,22362,22378,22395,22411,22428,22445,22462,22478,22494,22511,22527,22545,22561,22579,22595,22612,22628,22644,22661,22678,22694,22711,22728,22745,22760,22777,22794,22811,22829,22844,22862,22879,22896,22911,22930,22944,22962,22978,22995,23012,23030,23046,23062,23079,23095,23112,23129,23144,23160,23177,23195,23210,23227,23243,23260,23278,23294,23310,23327,23345,23362,23379,23395,23412,23429,23445,23465,23478,23495,23511,23528,23545,23562,23578,23596,23611,23629,23645,23662,23679,23695,23712,23728,23745,23761,23777,23794,23811,23828,23844,23861,23877,23894,23911,23929,23945,23961,23979,23993,24010,24027,24045,24062,24079,24095,24112,24128,24145,24161,24177,24195,24212,24227,24245,24262,24279,24295,24311,24328,24344,24362,24379,24395,24412,24429,24445,24462,24478,24495,24512,24528,24545,24561,24578,24596,24612,24628,24644,24662,24678,24695,24712,24728,24745,24762,24778,24794,24812,24828,24845,24862,24879,24895,24912,24930,24943,24961,24978,24995,25011,25030,25045,25062,25079,25096,25111,25127,25144,25160,25178,25195,25211,25229,25246,25260,25279,25295,25313,25328,25345,25361,25378,25394,25413,25429,25444,25463,25478,25495,25512,25529,25545,25562,25579,25596,25612,25629,25646,25662,25678,25694,25712,25729,25745,25762,25777,25794,25811,25827,25844,25861,25879,25895,25911,25928,25945,25962,25979,25995,26011,26028,26044,26061,26078,26095,26112,26128,26146,26161,26178,26195,26212,26229,26245,26262,26278,26295,26311,26328,26344,26362,26378,26396,26412,26428,26445,26461,26478,26495,26512,26529,26545,26562,26578,26595,26613,26629,26644,26660,26678,26694,26711,26728,26746,26762,26779,26795,26811,26827,26846,26861,26879,26895,26914,26929,26946,26962,26978,26995,27012,27029,27046,27062,27079,27094,27112,27128,27146,27161,27179,27196,27212,27227,27245,27262,27279,27295,27312,27329,27345,27362,27378,27395,27412,27428,27445,27462,27479,27495,27511,27529,27546,27561,27579,27596,27612,27627,27644,27660,27678,27695,27712,27728,27747,27761,27778,27794,27811,27829,27845,27860,27878,27894,27910,27928,27944,27960,27978,27994,28011,28028,28045,28061,28079,28095,28112,28128,28147,28161,28178,28195,28211,28228,28245,28261,28278,28295,28311,28328,28344,28361,28378,28394,28411,28429,28445,28461,28478,28494,28511,28528,28545,28561,28578,28594,28610,28628,28644,28661,28679,28698,28710,28729,28745,28761,28778,28794,28811,28829,28845,28862,28878,28895,28912,28928,28944,28962,28978,28995,29012,29028,29045,29061,29078,29095,29112,29128,29145,29161,29178,29195,29212,29228,29244,29261,29278,29294,29311,29328,29345,29362,29378,29394,29411,29429,29444,29461,29478,29495,29511,29528,29544,29561,29578,29594,29612,29628,29645,29661,29678,29694,29711,29727,29744,29762,29777,29795,29810,29827,29843,29860,29878,29895,29911,29927,29944,29960,29977,29993,30011,30028,30045,30061,30078,30094,30110,30126,30143,30160,30176,30194,30210,30227,30244,30261,30277,30294,30311,30328,30344,30360,30378,30394,30412,30428,30445,30462,30477,30494,30511,30528,30544,30560,30578,30594,30611,30628,30645,30662,30678,30694,30711,30727,30743,30760,30776,30794,30815,30827,30844,30860,30877,30894,30911,30927,30944,30961,30978,30994,31011,31028,31044,31061,31077,31094,31110,31127,31144,31160,31177,31193,31210,31227,31244,31260,31277,31294,31310,31327,31345,31361,31377,31395,31411,31429,31444,31461,31477,31494,31511,31528,31545,31562,31578,31594,31611,31628,31645,31660,31677,31694,31711,31728,31746,31761,31778,31798,31811,31827,31843,31861,31877,31893,31912,31927,31944,31960,31978,31995,32011,32029,32045,32062,32078,32094,32111,32129,32145,32162,32178,32195,32212,32227,32247,32261,32278,32295,32311,32328,32345,32362,32379,32397,32411,32428,32444,32461,32478,32494,32511,32529,32545,32562,32579,32595,32613,32628,32645,32661,32678,32694,32712,32730,32745,32761,32779,32795,32811,32828,32844,32860,32878,32894,32913,32928,32945,32961,32976,32995,33012,33028,33045,33061,33078,33096,33112,33128,33145,33162,33178,33194,33211,33228,33245,33261,33277,33295,33312,33328,33345,33362,33378,33395,33412,33428,33445,33461,33478,33495,33511,33528,33544,33561,33578,33595,33611,33630,33644,33661,33678,33693,33713,33729,33744,33761,33777,33794,33810,33827,33844,33860,33877,33893,33910,33927,33944,33962,33978,33995,34012,34028,34045,34062,34078,34095,34112,34129,34146,34161,34179,34195,34211,34228,34244,34260,34277,34294,34310,34326,34344,34360,34377,34393,34410,34428,34444,34462,34478,34496,34511,34528,34544,34562,34579,34595,34612,34628,34645,34661,34678,34695,34712,34731,34745,34761,34778,34795,34811,34827,34845,34859,34878,34894,34911,34928,34945,34961,34978,34995,35014,35027,35045,35061,35078,35095,35111,35128,35145,35161,35178,35195,35212,35229,35245,35261,35282,35295,35311,35328,35344,35361,35379,35393,35413,35429,35446,35462,35478,35495,35512,35527,35545,35562,35578,35595,35610,35627,35643,35661,35677,35694,35710,35726,35743,35759,35776,35793,35810,35826,35843,35860,35878,35894,35911,35928,35944,35960,35978,35995,36012,36028,36044,36061,36078,36095,36112,36128,36145,36161,36178,36195,36212,36228,36245,36262,36278,36295,36310,36328,36345,36362,36378,36396,36411,36428,36445,36461,36478,36496,36510,36528,36544,36561,36579,36595,36611,36628,36646,36661,36678,36696,36712,36729,36745,36762,36778,36796,36811,36829,36845,36861,36878,36895,36911,36929,36944,36961,36978,36995,37011,37028,37046,37061,37078,37094,37111,37127,37144,37160,37181,37196,37212,37229,37244,37260,37278,37295,37311,37329,37344,37361,37379,37395,37412,37427,37445,37462,37479,37495,37512,37528,37545,37561,37578,37595,37611,37629,37646,37663,37678,37695,37711,37727,37744,37762,37778,37795,37811,37828,37844,37860,37878,37895,37912,37928,37945,37961,37978,37995,38012,38029,38045,38062,38078,38094,38112,38129,38145,38162,38178,38195,38212,38227,38244,38260,38277,38294,38311,38328,38345,38361,38378,38394,38410,38427,38444,38460,38477,38494,38511,38528,38545,38562,38578,38595,38611,38628,38643,38660,38676,38694,38712,38727,38745,38762,38778,38794,38811,38828,38844,38861,38877,38893,38910,38927,38945,38961,38978,38994,39011,39028,39044,39061,39078,39094,39111,39128,39145,39161,39178,39196,39211,39228,39244,39261,39277,39294,39311,39327,39344,39361,39377,39394,39411,39427,39445,39462,39478,39495,39512,39528,39545,39562,39578,39597,39611,39629,39645,39662,39678,39695,39712,39728,39745,39762,39778,39795,39811,39827,39843,39860,39877,39893,39910,39927,39944,39960,39977,39995,40012,40028,40045,40062,40078,40095,40112,40127,40145,40161,40178,40194,40212,40228,40244,40262,40278,40295,40311,40327,40345,40361,40379,40394,40411,40429,40446,40462,40478,40495,40511,40528,40545,40561,40578,40594,40611,40627,40644,40660,40679,40695,40711,40728,40746,40761,40778,40796,40812,40828,40844,40861,40877,40894,40911,40927,40944,40961,40977,40995,41011,41028,41046,41061,41078,41094,41111,41127,41144,41162,41178,41196,41212,41229,41246,41262,41279,41296,41312,41329,41345,41362,41378,41396,41412,41429,41445,41462,41479,41496,41512,41529,41544,41562,41579,41595,41612,41628,41647,41661,41679,41695,41716,41729,41745,41761,41778,41794,41811,41828,41845,41860,41878,41894,41912,41927,41944,41961,41978,41995,42012,42028,42045,42061,42078,42095,42112,42128,42145,42160,42177,42195,42211,42228,42244,42260,42277,42293,42310,42326,42343,42359,42376,42394,42410,42427,42443,42460,42477,42494,42511,42528,42544,42561,42579,42594,42611,42629,42645,42661,42678,42694,42711,42728,42744,42761,42777,42795,42811,42828,42845,42861,42878,42894,42910,42927,42944,42961,42977,42994,43010,43028,43045,43062,43080,43094,43111,43127,43145,43162,43178,43195,43211,43227,43245,43262,43277,43296,43311,43328,43344,43362,43376,43394,43411,43428,43445,43463,43478,43495,43512,43528,43545,43561,43579,43594,43612,43628,43646,43662,43678,43694,43711,43728,43744,43762,43778,43796,43810,43828,43845,43862,43877,43894,43912,43928,43944,43961,43978,43995,44012,44028,44045,44061,44078,44095,44112,44128,44145,44161,44177,44194,44211,44227,44244,44262,44277,44293,44311,44326,44344,44360,44376,44393,44411,44427,44444,44460,44477,44494,44511,44527,44544,44560,44578,44595,44612,44629,44645,44662,44678,44695,44711,44727,44745,44762,44778,44794,44812,44828,44844,44861,44878,44894,44911,44934,44944,44961,44978,44995,45011,45028,45044,45061,45078,45094,45112,45130,45144,45160,45179,45196,45211,45228,45245,45261,45278,45295,45312,45328,45345,45362,45378,45395,45412,45428,45445,45462,45479,45495,45512,45528,45545,45561,45577,45593,45611,45628,45644,45661,45677,45694,45712,45727,45743,45761,45777,45794,45811,45828,45845,45862,45878,45894,45911,45928,45944,45961,45978,45994,46012,46028,46045,46062,46078,46094,46111,46128,46146,46161,46179,46195,46211,46228,46244,46260,46279,46295,46311,46328,46343,46360,46377,46393,46411,46428,46443,46462,46478,46494,46511,46529,46544,46560,46578,46595,46612,46629,46645,46661,46679,46694,46712,46729,46746,46761,46778,46795,46812,46828,46845,46862,46878,46894,46910,46927,46945,46960,46977,46994,47011,47028,47044,47061,47078,47094,47111,47128,47144,47162,47178,47195,47211,47227,47244,47261,47278,47295,47312,47329,47346,47361,47378,47394,47411,47428,47445,47461,47478,47494,47511,47528,47545,47561,47578,47594,47611,47628,47645,47661,47678,47694,47711,47728,47744,47761,47779,47794,47812,47829,47846,47861,47878,47894,47910,47927,47945,47960,47977,47993,48010,48027,48044,48061,48079,48095,48112,48129,48145,48161,48179,48195,48211,48227,48245,48261,48278,48294,48311,48328,48344,48361,48379,48395,48411,48427,48444,48462,48478,48495,48511,48529,48545,48561,48578,48595,48611,48628,48645,48661,48678,48694,48712,48729,48745,48761,48778,48795,48811,48828,48844,48861,48877,48894,48911,48929,48944,48961,48977,48994,49011,49028,49044,49061,49077,49094,49111,49128,49144,49162,49178,49195,49211,49228,49245,49261,49278,49295,49310,49327,49344,49360,49377,49394,49411,49428,49445,49461,49478,49495,49511,49528,49545,49561,49578,49594,49611,49627,49645,49661,49678,49694,49711,49728,49743,49761,49778,49794,49811,49828,49844,49860,49879,49895,49911,49927,49944,49961,49977,49994,50011,50028,50044,50060,50077,50093,50110,50127,50143,50160,50177,50193,50210,50227,50243,50260,50277,50293,50310,50326,50344,50360,50377,50394,50410,50427,50444,50460,50477,50493,50510,50527,50543,50560,50577,50593,50610,50627,50643,50661,50679,50694,50711,50728,50744,50761,50778,50794,50810,50829,50845,50860,50879,50894,50912,50928,50944,50960,50980,50994,51010,51027,51044,51061,51078,51095,51111,51127,51145,51161,51178,51195,51211,51227,51245,51261,51278,51295,51311,51328,51345,51362,51378,51394,51411,51428,51445,51462,51478,51495,51510,51527,51543,51560,51578,51593,51611,51628,51648,51660,51678,51695,51711,51728,51744,51761,51778,51794,51811,51828,51844,51860,51881,51894,51914,51928,51945,51961,51978,51995,52010,52027,52044,52061,52078,52095,52115,52127,52145,52160,52177,52194,52211,52228,52244,52261,52277,52295,52311,52327,52345,52361,52378,52394,52411,52428,52445,52461,52478,52495,52511,52528,52545,52561,52577,52595,52611,52628,52645,52662,52678,52695,52711,52727,52744,52762,52777,52794,52811,52829,52843,52861,52878,52896,52910,52929,52944,52962,52978,52994,53011,53027,53044,53062,53078,53094,53113,53127,53145,53160,53177,53195,53212,53228,53244,53261,53277,53293,53310,53328,53344,53361,53378,53393,53419,53427,53444,53461,53478,53493,53514,53528,53544,53562,53577,53595,53610,53628,53644,53661,53677,53694,53711,53727,53744,53761,53777,53794,53810,53828,53845,53862,53878,53895,53911,53931,53944,53961,53979,53993,54011,54027,54044,54061,54078,54094,54112,54128,54145,54161,54178,54195,54212,54227,54244,54261,54278,54295,54311,54328,54345,54360,54377,54393,54410,54426,54443,54460,54477,54493,54510,54526,54543,54560,54576,54593,54610,54627,54643,54660,54677,54693,54710,54727,54743,54760,54777,54793,54810,54826,54844,54860,54877,54894,54912,54928,54945,54961,54978,54994,55011,55026,55042,55061,55078,55094,55111,55128,55145,55160,55179,55194,55211,55228,55244,55261,55278,55294,55311,55328,55345,55361,55378,55395,55411,55428,55444,55463,55477,55494,55511,55528,55544,55561,55578,55593,55609,55626,55644,55660,55678,55694,55711,55727,55743,55761,55778,55794,55810,55828,55845,55861,55878,55894,55910,55927,55945,55961,55979,55994,56013,56027,56044,56061,56078,56094,56111,56128,56145,56162,56178,56195,56211,56228,56244,56261,56278,56295,56311,56328,56345,56361,56377,56394,56411,56428,56445,56460,56477,56493,56510,56527,56544,56561,56578,56594,56611,56628,56644,56660,56678,56696,56710,56728,56744,56762,56778,56795,56812,56827,56845,56862,56880,56894,56910,56928,56946,56961,56977,56995,57010,57028,57044,57061,57078,57095,57112,57128,57145,57161,57178,57194,57211,57228,57245,57260,57277,57294,57311,57328,57345,57361,57378,57395,57411,57428,57444,57462,57478,57495,57513,57528,57544,57561,57578,57597,57610,57628,57644,57660,57677,57693,57711,57728,57745,57761,57778,57794,57811,57828,57845,57861,57878,57894,57912,57929,57945,57961,57977,57995,58012,58029,58044,58060,58077,58095,58111,58128,58145,58161,58178,58194,58211,58228,58244,58260,58278,58294,58311,58327,58345,58361,58379,58394,58412,58427,58444,58460,58477,58496,58511,58528,58545,58562,58578,58594,58612,58628,58645,58662,58678,58694,58715,58728,58744,58761,58778,58793,58812,58829,58845,58862,58879,58895,58912,58928,58944,58961,58977,58995,59011,59028,59048,59061,59077,59094,59111,59128,59145,59161,59178,59195,59212,59230,59244,59261,59278,59294,59311,59328,59344,59362,59378,59394,59411,59429,59444,59461,59478,59495,59511,59528,59545,59561,59578,59594,59611,59629,59645,59661,59678,59695,59711,59729,59744,59762,59778,59794,59811,59827,59845,59861,59878,59895,59912,59928,59945,59961,59978,59994,60011,60027,60044,60061,60077,60094,60111,60127,60145,60160,60178,60194,60211,60228,60244,60261,60278,60294,60311,60327,60344,60361,60379,60394,60410,60428,60444,60461,60477,60494,60511,60529,60544,60561,60578,60595,60611,60628,60645,60661,60679,60695,60711,60728,60744,60762,60778,60795,60811,60828,60845,60862,60878,60894,60912,60928,60945,60961,60978,60995,61012,61028,61044,61060,61078,61095,61110,61128,61144,61160,61178,61194,61211,61228,61244,61261,61277,61296,61311,61328,61345,61361,61379,61394,61411,61429,61444,61461,61478,61494,61511,61527,61544,61561,61579,61595,61611,61629,61645,61662,61678,61695,61712,61728,61745,61762,61777,61795,61811,61828,61845,61860,61877,61894,61912,61928,61945,61961,61977,61994,62010,62028,62044,62061,62077,62094,62112,62128,62144,62160,62178,62194,62211,62227,62244,62261,62278,62294,62310,62328,62345,62361,62377,62394,62410,62427,62444,62460,62478,62493,62512,62528,62545,62562,62578,62595,62611,62628,62645,62661,62679,62695,62710,62728,62745,62762,62778,62795,62812,62828,62845,62861,62878,62895,62912,62928,62945,62962,62978,62995,63011,63028,63043,63063,63077,63094,63111,63127,63144,63161,63177,63194,63211,63228,63244,63261,63278,63295,63311,63328,63345,63361,63378,63394,63410,63427,63446,63461,63479,63495,63512,63528,63544,63563,63577,63595,63612,63628,63645,63661,63678,63695,63712,63728,63744,63762,63777,63795,63811,63827,63845,63861,63877,63895,63910,63929,63944,63961,63977,63994,64011,64027,64043,64060,64076,64093,64111,64129,64144,64161,64178,64194,64211,64228,64244,64260,64278,64294,64311,64327,64344,64361,64378,64394,64412,64429,64444,64462,64478,64494,64512,64528,64545,64561,64577,64594,64611,64627,64645,64661,64678,64695,64712,64728,64744,64761,64778,64795,64812,64828,64845,64862,64878,64900,64911,64928,64945,64962,64977,64995,65012,65028,65044,65061,65077,65094,65111,65131,65144,65161,65177,65194,65211,65227,65243,65261,65277,65294,65310,65325,65343,65360,65377,65393,65410,65429,65453,65478,65494,65512,65529,65544,65561,65578,65595,65612,65628,65644,65661,65678,65694,65711,65728,65744,65760,65777,65793,65811,65841,65860,65877,65894,65911,65928,65943,65961,65977,65995,66011,66028,66044,66061,66076,66093,66110,66127,66144,66161,66177,66194,66210,66226,66244,66268,66294,66310,66327,66343,66361,66377,66394,66411,66428,66445,66462,66478,66495,66512,66528,66545,66562,66578,66595,66611,66628,66645,66662,66678,66695,66712,66728,66745,66761,66778,66795,66811,66828,66844,66861,66878,66895,66911,66928,66945,66961,66977,66994,67011,67028,67044,67060,67078,67093,67110,67127,67145,67161,67178,67195,67212,67227,67245,67261,67278,67294,67311,67328,67345,67361,67379,67394,67412,67427,67445,67462,67479,67495,67511,67528,67545,67562,67579,67595,67611,67627,67645,67661,67678,67695,67710,67726,67745,67762,67778,67795,67811,67828,67845,67861,67878,67894,67911,67928,67945,67961,67977,67994,68011,68028,68044,68060,68076,68095,68110,68127,68144,68161,68178,68193,68211,68227,68244,68261,68279,68294,68311,68327,68345,68362,68378,68394,68412,68428,68445,68461,68478,68494,68511,68528,68545,68562,68578,68595,68611,68628,68645,68661,68678,68694,68714,68727,68747,68761,68777,68794,68811,68827,68844,68861,68878,68895,68910,68928,68944,68961,68977,68994,69011,69028,69043,69060,69076,69093,69110,69127,69144,69161,69177,69193,69210,69227,69243,69261,69278,69294,69312,69326,69344,69361,69378,69395,69412,69428,69444,69461,69477,69495,69511,69527,69544,69561,69577,69593,69611,69628,69645,69661,69678,69695,69711,69729,69744,69762,69778,69794,69811,69828,69844,69861,69878,69894,69911,69927,69944,69961,69977,69994,70011,70028,70044,70061,70077,70093,70110,70127,70143,70160,70177,70193,70210,70230,70244,70261,70279,70295,70312,70328,70345,70361,70379,70395,70411,70428,70444,70461,70478,70495,70511,70528,70545,70561,70578,70595,70610,70629,70644,70660,70677,70694,70711,70728,70744,70760,70778,70795,70810,70826,70844,70861,70877,70893,70909,70927,70944,70961,70977,70994,71011,71027,71044,71061,71078,71093,71110,71127,71144,71161,71177,71194,71212,71227,71245,71261,71278,71296,71311,71328,71344,71361,71377,71394,71412,71429,71444,71461,71479,71494,71512,71528,71544,71560,71578,71595,71611,71628,71645,71661,71678,71695,71712,71729,71745,71761,71778,71794,71810,71827,71844,71861,71878,71893,71910,71926,71943,71961,71978,71994,72011,72027,72046,72061,72076,72094,72111,72127,72143,72161,72178,72195,72211,72228,72245,72262,72278,72295,72313,72327,72344,72362,72378,72394,72412,72428,72444,72462,72478,72494,72511,72528,72545,72561,72578,72594,72611,72628,72645,72661,72679,72694,72713,72728,72743,72760,72777,72794,72810,72827,72844,72861,72878,72894,72910,72927,72943,72961,72977,72993,73011,73028,73044,73061,73079,73095,73111,73127,73144,73161,73178,73194,73209,73228,73244,73261,73277,73294,73310,73329,73344,73361,73378,73394,73411,73428,73443,73462,73481,73495,73510,73528,73545,73562,73578,73593,73612,73629,73644,73664,73681,73694,73711,73729,73744,73760,73777,73793,73810,73828,73847,73859,73877,73894,73912,73928,73945,73961,73977,74001,74011,74028,74043,74064,74077,74093,74110,74128,74144,74161,74177,74196,74214,74232,74247,74262,74293,74312,74327,74345,74364,74379,74395,74411,74428,74447,74461,74478,74495,74511,74527,74545,74561,74580,74594,74611,74628,74644,74660,74679,74694,74711,74728,74744,74762,74777,74804,74830,74884,74900,74926,74944,74961,74977,74993,75011,75028,75044,75060,75078,75099,75109,75127,75144,75160,75177,75194,75211,75227,75245,75261,75277,75293,75310,75327,75344,75361,75380,75399,75427,75443,75459,75478,75495,75511,75528,75544,75561,75578,75595,75611,75626,75645,75661,75677,75694,75718,75744,75760,75777,75794,75811,75827,75844,75862,75878,75895,75915,75927,75945,75962,75978,75994,76011,76028,76045,76061,76078,76094,76110,76126,76144,76160,76177,76194,76212,76228,76244,76262,76278,76295,76311,76328,76345,76363,76377,76401,76409,76426,76444,76462,76478,76495,76511,76528,76544,76561,76577,76594,76611,76627,76644,76661,76677,76693,76710,76727,76743,76763,76777,76794,76811,76826,76844,76861,76877,76894,76914,76930,76944,76961,76977,76994,77011,77028,77044,77061,77077,77094,77111,77127,77144,77161,77177,77194,77211,77228,77244,77261,77278,77295,77312,77328,77344,77361,77377,77395,77411,77429,77444,77461,77478,77495,77511,77529,77545,77562,77578,77593,77610,77627,77644,77661,77678,77694,77711,77728,77744,77761,77778,77794,77811,77828,77844,77860,77878,77894,77910,77928,77943,77961,77977,77994,78012,78027,78045,78061,78078,78095,78112,78132,78160,78177,78195,78211,78227,78244,78261,78278,78295,78312,78328,78345,78362,78378,78395,78411,78428,78444,78460,78479,78495,78511,78528,78544,78561,78577,78594,78611,78628,78645,78660,78678,78695,78711,78726,78743,78760,78778,78795,78813,78826,78843,78859,78880,78894,78911,78927,78944,78961,78976,78994,79011,79027,79044,79060,79079,79094,79110,79127,79143,79160,79177,79194,79211,79228,79244,79260,79278,79294,79310,79327,79344,79361,79384,79410,79427,79444,79462,79480,79494,79511,79527,79544,79561,79577,79594,79617,79643,79660,79677,79693,79710,79728,79744,79761,79777,79794,79811,79827,79844,79861,79877,79894,79910,79928,79943,79961,79978,79994,80010,80028,80044,80061,80077,80094,80111,80127,80143,80160,80177,80193,80210,80231,80243,80260,80276,80293,80310,80326,80344,80359,80376,80393,80410,80426,80443,80460,80476,80495,80510,80528,80544,80561,80577,80593,80612,80626,80644,80661,80678,80695,80712,80728,80744,80761,80777,80793,80810,80828,80845,80862,80878,80895,80911,80926,80944,80960,80977,80993,81010,81026,81043,81060,81076,81093,81110,81126,81143,81160,81176,81193,81210,81227,81243,81260,81276,81293,81310,81329,81343,81360,81376,81394,81410,81426,81443,81461,81477,81495,81511,81527,81544,81560,81577,81594,81610,81628,81644,81661,81678,81693,81711,81727,81744,81763,81777,81794,81810,81827,81844,81861,81878,81894,81910,81928,81945,81962,81978,81995,82012,82029,82045,82061,82079,82096,82112,82128,82144,82160,82177,82194,82211,82228,82245,82261,82277,82294,82311,82327,82345,82361,82377,82394,82412,82429,82444,82461,82477,82493,82510,82529,82546,82562,82577,82595,82611,82628,82645,82662,82677,82694,82711,82727,82742,82760,82777,82794,82810,82829,82843,82860,82877,82893,82911,82928,82945,82960,82977,82994,83011,83028,83045,83061,83077,83094,83110,83128,83144,83162,83178,83194,83210,83227,83244,83261,83277,83293,83310,83328,83345,83360,83377,83393,83410,83426,83443,83460,83477,83494,83511,83527,83544,83566,83578,83593,83610,83627,83643,83661,83680,83694,83711,83727,83744,83762,83778,83794,83811,83827,83844,83860,83879,83895,83912,83928,83944,83960,83978,83994,84011,84027,84043,84059,84076,84094,84114,84126,84143,84160,84179,84196,84210,84227,84243,84260,84277,84293,84310,84328,84342,84360,84377,84393,84410,84427,84443,84460,84476,84493,84510,84526,84543,84560,84576,84594,84612,84627,84644,84661,84678,84694,84712,84728,84746,84761,84777,84803,84826,84845,84861,84886,84911,84927,84944,84962,84978,84992,85011,85027,85045,85059,85080,85095,85110,85128,85144,85160,85177,85194,85210,85227,85243,85260,85278,85294,85312,85329,85345,85361,85378,85394,85410,85428,85444,85461,85478,85493,85510,85527,85543,85559,85577,85593,85610,85626,85644,85661,85677,85694,85710,85727,85745,85761,85777,85794,85811,85828,85845,85861,85877,85894,85915,85929,85944,85960,85977,85993,86010,86029,86046,86060,86078,86094,86113,86127,86144,86160,86177,86193,86209,86229,86243,86263,86275,86294,86311,86328,86343,86361,86380,86393,86409,86428,86445,86461,86478,86495,86511,86528,86544,86561,86578,86594,86611,86627,86644,86661,86678,86694,86711,86728,86745,86760,86777,86795,86813,86827,86844,86862,86878,86894,86914,86927,86944,86961,86979,86995,87011,87027,87044,87061,87079,87095,87112,87128,87144,87161,87176,87193,87211,87227,87244,87261,87277,87294,87311,87328,87344,87361,87378,87394,87411,87429,87445,87462,87478,87494,87511,87527,87544,87561,87577,87596,87611,87627,87644,87661,87678,87695,87711,87728,87745,87762,87776,87795,87811,87828,87845,87862,87878,87895,87912,87928,87944,87961,87979,87996,88011,88027,88044,88062,88079,88095,88111,88127,88144,88160,88178,88194,88212,88227,88244,88261,88278,88294,88311,88328,88344,88361,88378,88394,88411,88427,88444,88462,88478,88494,88511,88527,88551,88559,88577,88594,88611,88627,88645,88660,88677,88694,88710,88727,88744,88762,88778,88795,88811,88827,88844,88861,88877,88894,88910,88926,88944,88961,88977,88995,89011,89029,89043,89061,89078,89095,89111,89128,89144,89162,89177,89194,89211,89230,89244,89260,89278,89294,89311,89328,89344,89361,89378,89395,89411,89428,89444,89461,89478,89495,89511,89527,89545,89561,89578,89595,89611,89627,89643,89661,89679,89694,89711,89730,89745,89762,89778,89794,89811,89828,89845,89861,89878,89895,89911,89929,89943,89961,89978,89995,90011,90028,90044,90061,90078,90094,90111,90127,90145,90161,90178,90194,90211,90227,90244,90261,90277,90294,90311,90328,90344,90361,90378,90393,90410,90428,90444,90461,90478,90494,90511,90528,90544,90561,90577,90594,90610,90627,90643,90662,90678,90695,90711,90728,90744,90760,90778,90794,90811,90828,90844,90860,90877,90895,90911,90927,90944,90961,90978,90995,91011,91028,91045,91061,91078,91095,91111,91128,91144,91161,91178,91194,91211,91227,91243,91260,91276,91295,91311,91328,91344,91361,91379,91393,91410,91426,91443,91460,91477,91495,91512,91528,91543,91561,91578,91595,91611,91628,91644,91662,91678,91695,91711,91727,91744,91762,91778,91794,91811,91828,91845,91861,91878,91895,91912,91928,91945,91961,91978,91995,92010,92028,92044,92061,92078,92094,92111,92127,92144,92161,92178,92193,92210,92230,92244,92260,92278,92295,92311,92328,92345,92361,92378,92394,92412,92428,92444,92461,92477,92494,92511,92527,92544,92562,92577,92595,92611,92627,92644,92660,92678,92694,92711,92727,92743,92760,92777,92794,92811,92829,92843,92861,92876,92894,92911,92927,92944,92960,92977,92994,93011,93028,93045,93061,93078,93095,93111,93128,93144,93160,93178,93193,93211,93228,93245,93259,93277,93294,93311,93328,93344,93361,93378,93394,93411,93427,93445,93462,93478,93494,93511,93527,93545,93562,93579,93595,93612,93628,93645,93661,93679,93695,93711,93729,93745,93761,93778,93795,93811,93829,93844,93861,93878,93895,93911,93927,93944,93960,93977,93994,94010,94027,94044,94060,94077,94094,94110,94128,94144,94161,94178,94194,94210,94226,94243,94259,94277,94294,94310,94327,94344,94361,94376,94393,94409,94426,94443,94460,94476,94493,94509,94525,94543,94560,94576,94595,94611,94627,94644,94661,94679,94693,94710,94727,94743,94760,94778,94792,94811,94827,94843,94860,94878,94895,94914,94927,94943,94960,94977,94994,95010,95028,95047,95060,95077,95095,95110,95127,95145,95161,95177,95194,95211,95226,95244,95260,95277,95293,95310,95327,95344,95360,95377,95392,95410,95428,95443,95461,95477,95494,95510,95527,95544,95561,95578,95594,95612,95629,95644,95660,95678,95694,95710,95728,95745,95761,95778,95794,95811,95828,95846,95861,95877,95894,95911,95928,95944,95960,95978,95995,96011,96028,96045,96061,96077,96094,96110,96127,96144,96160,96177,96193,96211,96228,96243,96260,96276,96293,96310,96327,96343,96361,96378,96394,96410,96427,96443,96460,96476,96492,96509,96525,96543,96561,96577,96594,96610,96627,96644,96660,96677,96694,96711,96727,96744,96762,96778,96795,96811,96828,96844,96859,96877,96894,96910,96927,96944,96961,96977,96994,97011,97027,97043,97060,97076,97094,97111,97127,97143,97161,97177,97194,97210,97228,97245,97261,97276,97293,97311,97329,97343,97361,97377,97393,97409,97429,97444,97461,97477,97494,97521,97544,97560,97578,97594,97611,97627,97645,97661,97678,97695,97711,97728,97744,97761,97778,97794,97811,97827,97844,97861,97876,97895,97911,97927,97944,97960,97977,97994,98012,98028,98044,98060,98082,98094,98111,98127,98144,98160,98177,98194,98210,98229,98244,98261,98277,98295,98311,98328,98345,98361,98378,98394,98411,98427,98444,98460,98478,98495,98510,98527,98544,98561,98576,98593,98610,98627,98644,98660,98678,98694,98712,98728,98744,98761,98776,98793,98809,98826,98843,98860,98876,98893,98910,98926,98943,98960,98977,98994,99010,99028,99045,99062,99077,99095,99110,99127,99145,99161,99177,99194,99211,99228,99244,99260,99277,99293,99310,99326,99343,99362,99378,99395,99411,99427,99443,99460,99477,99494,99510,99527,99543,99560,99578,99594,99610,99628,99645,99661,99677,99694,99711,99728,99744,99761,99778,99794,99811,99828,99844,99861,99879,99894,99911,99927,99944,99961,99977,99995,100010,100027,100044,100061,100077,100094,100111,100127,100145,100162,100177,100195,100211,100227,100245,100261,100277,100293,100310,100327,100344,100361,100378,100394,100410,100428,100444,100460,100478,100495,100511,100528,100546,100561,100577,100593,100609,100626,100643,100659,100675,100691,100710,100726,100742,100759,100775,100793,100809,100826,100843,100860,100877,100894,100910,100927,100944,100960,100978,100994,101009,101028,101044,101061,101077,101095,101110,101128,101144,101160,101177,101194,101210,101227,101243,101259,101276,101293,101309,101328,101344,101360,101376,101393,101411,101427,101444,101460,101477,101494,101510,101527,101543,101560,101577,101594,101611,101627,101643,101662,101678,101694,101712,101727,101744,101761,101777,101794,101810,101826,101843,101860,101878,101893,101910,101927,101944,101959,101977,101994,102010,102027,102044,102060,102077,102096,102111,102127,102145,102161,102181,102194,102210,102232,102244,102260,102277,102293,102310,102326,102343,102360,102376,102393,102410,102426,102445,102461,102477,102494,102511,102527,102544,102560,102578,102593,102611,102627,102644,102660,102681,102695,102711,102726,102744,102759,102776,102794,102811,102828,102844,102861,102877,102894,102911,102927,102944,102962,102977,102994,103011,103026,103043,103060,103076,103093,103110,103127,103143,103159,103176,103193,103209,103228,103243,103259,103276,103294,103310,103327,103344,103360,103377,103394,103410,103427,103444,103460,103476,103493,103510,103526,103543,103560,103576,103594,103610,103627,103644,103661,103678,103694,103711,103728,103744,103761,103777,103794,103810,103827,103844,103861,103878,103894,103911,103927,103944,103961,103977,103996,104010,104026,104043,104060,104077,104094,104110,104128,104144,104160,104176,104192,104210,104228,104245,104260,104277,104294,104311,104327,104344,104362,104378,104394,104411,104427,104443,104461,104477,104493,104509,104527,104544,104560,104578,104593,104610,104627,104644,104661,104685,104709,104726,104743,104760,104780,104793,104810,104826,104843,104859,104876,104893,104909,104928,104943,104961,104977,104994,105010,105026,105044,105060,105079,105093,105110,105126,105144,105159,105176,105193,105209,105228,105243,105259,105277,105293,105310,105326,105342,105360,105376,105393,105411,105431,105443,105460,105478,105494,105510,105528,105543,105561,105578,105592,105610,105627,105644,105660,105677,105694,105711,105727,105745,105761,105777,105794,105810,105827,105844,105861,105883,105893,105912,105927,105944,105964,105977,105995,106010,106027,106044,106062,106078,106095,106110,106131,106143,106160,106177,106193,106210,106226,106243,106262,106277,106294,106311,106328,106344,106361,106378,106395,106411,106428,106448,106460,106477,106495,106510,106527,106544,106561,106577,106594,106610,106627,106644,106661,106677,106694,106711,106727,106743,106761,106778,106794,106811,106827,106844,106861,106878,106894,106911,106928,106944,106961,106977,106994,107010,107026,107044,107062,107077,107095,107112,107128,107144,107160,107177,107194,107211,107227,107243,107259,107275,107292,107309,107327,107343,107360,107375,107395,107411,107427,107444,107460,107477,107494,107511,107528,107543,107561,107577,107594,107611,107627,107644,107661,107677,107694,107711,107727,107744,107761,107777,107794,107810,107829,107843,107861,107877,107894,107911,107927,107943,107960,107978,107994,108012,108026,108044,108061,108078,108094,108111,108128,108145,108160,108178,108194,108211,108227,108243,108261,108276,108295,108311,108328,108344,108359,108378,108394,108411,108427,108444,108462,108477,108494,108511,108527,108544,108561,108577,108593,108610,108627,108644,108660,108677,108694,108711,108727,108742,108760,108776,108793,108810,108826,108844,108861,108877,108893,108911,108928,108946,108961,108977,108994,109011,109026,109042,109059,109075,109092,109110,109126,109142,109160,109177,109193,109210,109228,109242,109262,109281,109305,109309,109325,109360,109390,109407,109427,109443,109459,109475,109493,109510,109527,109544,109561,109577,109594,109610,109626,109642,109660,109677,109693,109721,109743,109761,109777,109794,109810,109828,109844,109861,109877,109894,109910,109927,109944,109960,109976,109995,110011,110026,110045,110062,110078,110094,110111,110128,110146,110161,110176,110194,110211,110229,110244,110261,110278,110294,110311,110327,110344,110360,110377,110394,110411,110428,110444,110461,110477,110494,110511,110527,110544,110561,110578,110594,110610,110627,110644,110660,110678,110694,110711,110727,110745,110761,110777,110795,110810,110827,110845,110861,110878,110894,110911,110928,110944,110960,110976,110995,111011,111028,111044,111062,111077,111094,111110,111126,111144,111160,111177,111193,111211,111226,111243,111260,111278,111295,111311,111328,111344,111361,111377,111394,111410,111428,111444,111461,111478,111494,111511,111527,111544,111561,111578,111594,111612,111627,111643,111661,111677,111694,111711,111727,111744,111761,111777,111794,111810,111827,111843,111860,111877,111894,111913,111927,111943,111960,111978,111994,112011,112027,112043,112060,112077,112096,112110,112126,112144,112162,112178,112195,112211,112228,112244,112261,112278,112294,112311,112327,112343,112361,112376,112394,112411,112427,112444,112461,112476,112494,112509,112527,112545,112560,112576,112593,112610,112628,112643,112661,112677,112694,112711,112727,112744,112761,112778,112795,112810,112827,112843,112861,112877,112894,112911,112927,112945,112961,112978,112995,113011,113027,113044,113061,113078,113095,113111,113127,113143,113161,113178,113193,113211,113229,113243,113260,113277,113294,113311,113327,113363,113376,113393,113409,113426,113443,113459,113476,113493,113509,113527,113543,113561,113577,113594,113610,113626,113643,113660,113677,113694,113711,113727,113744,113760,113776,113794,113810,113827,113844,113860,113878,113894,113913,113928,113943,113960,113976,113993,114009,114027,114044,114059,114076,114092,114109,114126,114143,114159,114178,114195,114210,114227,114243,114261,114277,114294,114310,114327,114344,114361,114377,114393,114410,114428,114443,114460,114477,114494,114510,114527,114543,114561,114578,114593,114610,114627,114643,114660,114676,114693,114711,114727,114744,114760,114776,114792,114810,114825,114843,114859,114876,114893,114909,114926,114943,114964,114975,114993,115009,115026,115043,115059,115075,115093,115109,115126,115143,115159,115176,115193,115210,115227,115243,115259,115280,115293,115309,115326,115342,115359,115376,115392,115409,115426,115442,115459,115476,115492,115509,115527,115545,115559,115576,115594,115608,115627,115644,115666,115693,115710,115727,115743,115764,115776,115793,115811,115827,115844,115860,115878,115894,115911,115927,115943,115960,115977,115995,116010,116026,116043,116061,116078,116094,116110,116126,116143,116160,116176,116194,116211,116227,116243,116260,116277,116294,116311,116327,116344,116361,116376,116399,116409,116426,116444,116460,116476,116494,116509,116527,116544,116560,116577,116593,116609,116626,116643,116661,116678,116694,116710,116727,116744,116761,116777,116793,116811,116828,116844,116861,116877,116894,116912,116927,116944,116959,116976,116994,117011,117027,117044,117061,117077,117094,117111,117129,117143,117160,117176,117194,117209,117226,117244,117260,117276,117294,117311,117326,117344,117360,117377,117394,117409,117427,117443,117461,117477,117494,117510,117527,117544,117561,117577,117594,117611,117634,117643,117661,117678,117694,117711,117728,117744,117761,117778,117794,117811,117827,117843,117858,117876,117893,117912,117926,117944,117960,117979,117992,118009,118027,118044,118061,118077,118094,118110,118127,118143,118161,118176,118194,118210,118226,118244,118265,118293,118311,118327,118343,118359,118377,118394,118412,118427,118443,118460,118477,118494,118510,118527,118545,118561,118578,118595,118611,118627,118644,118661,118676,118694,118712,118727,118744,118761,118777,118794,118811,118828,118844,118861,118877,118894,118911,118927,118943,118960,118977,118994,119011,119026,119044,119061,119077,119094,119110,119127,119144,119160,119175,119192,119209,119226,119242,119259,119276,119292,119309,119325,119342,119359,119375,119393,119409,119426,119442,119458,119476,119492,119509,119526,119542,119559,119575,119592,119609,119626,119643,119659,119676,119692,119710,119727,119744,119761,119777,119794,119810,119828,119844,119861,119877,119894,119912,119927,119945,119960,119977,119994,120011,120027,120044,120061,120077,120094,120111,120127,120144,120161,120177,120194,120210,120227,120244,120261,120276,120293,120311,120326,120343,120361,120377,120394,120411,120429,120442,120460,120476,120493,120510,120527,120543,120561,120578,120594,120611,120626,120643,120659,120677,120694,120710,120727,120744,120761,120776,120794,120810,120827,120843,120860,120877,120894,120911,120927,120944,120960,120977,120994,121010,121026,121044,121060,121077,121094,121110,121127,121144,121160,121177,121194,121211,121226,121244,121261,121277,121295,121311,121327,121344,121361,121377,121394,121410,121429,121443,121460,121478,121494,121510,121528,121545,121561,121578,121595,121612,121627,121643,121661,121678,121694,121710,121727,121744,121760,121777,121795,121811,121828,121843,121861,121878,121895,121912,121927,121943,121961,121977,121994,122011,122027,122044,122061,122077,122093,122111,122127,122144,122161,122177,122194,122210,122229,122244,122260,122277,122294,122311,122327,122344,122361,122377,122394,122411,122428,122446,122460,122477,122494,122510,122526,122544,122561,122578,122595,122612,122626,122644,122662,122677,122694,122711,122727,122744,122761,122777,122794,122811,122828,122844,122862,122877,122894,122911,122928,122944,122961,122977,122994,123010,123027,123043,123060,123077,123093,123110,123127,123143,123160,123177,123193,123210,123226,123244,123261,123277,123293,123310,123327,123343,123361,123375,123395,123411,123428,123444,123461,123477,123494,123511,123527,123544,123561,123578,123595,123610,123628,123643,123660,123676,123693,123710,123726,123743,123761,123777,123794,123811,123827,123844,123861,123877,123893,123909,123926,123943,123960,123976,123993,124010,124028,124043,124061,124077,124094,124111,124126,124144,124160,124177,124194,124211,124226,124244,124260,124277,124294,124311,124327,124344,124361,124377,124394,124411,124428,124444,124461,124477,124494,124511,124527,124544,124561,124578,124594,124611,124627,124643,124661,124677,124694,124711,124727,124744,124760,124777,124794,124811,124828,124844,124861,124877,124894,124910,124928,124944,124960,124977,124994,125010,125027,125044,125061,125077,125093,125111,125128,125144,125161,125177,125194,125210,125232,125242,125260,125277,125293,125310,125326,125342,125362,125378,125394,125411,125427,125443,125460,125477,125493,125511,125527,125544,125561,125577,125594,125611,125627,125643,125660,125676,125693,125709,125727,125744,125764,125777,125794,125811,125827,125844,125860,125877,125894,125911,125926,125943,125963,125976,125993,126009,126027,126043,126062,126076,126093,126109,126126,126143,126160,126179,126193,126210,126230,126243,126260,126277,126294,126310,126327,126344,126361,126377,126393,126410,126428,126444,126461,126477,126493,126510,126527,126543,126560,126577,126593,126609,126627,126644,126661,126677,126694,126711,126727,126744,126761,126777,126794,126813,126827,126844,126860,126877,126893,126911,126927,126946,126960,126977,126994,127010,127033,127043,127060,127077,127094,127110,127127,127143,127160,127177,127194,127210,127228,127242,127259,127276,127293,127310,127327,127344,127361,127377,127394,127410,127427,127444,127460,127477,127494,127510,127528,127544,127561,127578,127594,127610,127626,127645,127661,127677,127697,127709,127726,127744,127760,127777,127794,127810,127827,127844,127860,127876,127894,127910,127927,127944,127963,127976,127993,128010,128027,128044,128061,128077,128095,128110,128127,128143,128160,128177,128194,128210,128228,128243,128262,128276,128292,128310,128327,128344,128361,128377,128394,128408,128424,128443,128460,128479,128493,128509,128526,128543,128560,128576,128593,128609,128626,128644,128660,128677,128694,128711,128729,128743,128760,128777,128794,128810,128827,128844,128860,128877,128893,128910,128927,128943,128960,128976,128994,129010,129027,129043,129061,129077,129093,129110,129126,129143,129159,129178,129194,129210,129226,129244,129261,129277,129292,129309,129326,129343,129360,129377,129393,129411,129429,129443,129460,129477,129496,129511,129526,129543,129560,129578,129594,129611,129627,129644,129661,129677,129694,129711,129727,129744,129760,129776,129794,129810,129827,129844,129860,129877,129894,129911,129926,129943,129960,129977,129994,130010,130027,130044,130061,130076,130094,130111,130127,130143,130160,130178,130194,130210,130229,130243,130261,130277,130294,130311,130327,130344,130361,130377,130394,130411,130427,130444,130461,130477,130494,130510,130526,130544,130560,130576,130594,130611,130627,130644,130659,130677,130693,130710,130727,130744,130760,130776,130793,130810,130827,130844,130859,130876,130893,130910,130927,130943,130961,130977,130994,131010,131029,131043,131060,131076,131092,131111,131127,131143,131160,131177,131194,131211,131227,131243,131259,131277,131295,131311,131327,131344,131361,131378,131393,131410,131427,131442,131460,131476,131494,131511,131527,131543,131560,131578,131594,131610,131627,131644,131661,131677,131693,131711,131727,131743,131761,131776,131794,131810,131827,131844,131860,131877,131892,131909,131925,131943,131960,131976,131993,132010,132027,132043,132060,132075,132092,132110,132126,132144,132160,132178,132193,132211,132227,132244,132261,132277,132294,132311,132328,132344,132360,132376,132394,132411,132427,132444,132461,132477,132494,132511,132527,132543,132562,132576,132594,132610,132627,132644,132661,132677,132694,132711,132727,132743,132760,132777,132794,132810,132827,132844,132861,132875,132894,132911,132927,132944,132960,132977,132994,133009,133027,133043,133061,133076,133094,133112,133127,133144,133161,133177,133194,133211,133228,133243,133261,133277,133294,133310,133326,133344,133361,133377,133395,133410,133428,133443,133460,133477,133493,133511,133527,133543,133560,133577,133593,133610,133627,133645,133660,133677,133693,133710,133727,133743,133761,133776,133794,133810,133827,133844,133860,133876,133894,133911,133927,133943,133959,133976,133993,134011,134028,134042,134061,134077,134093,134110,134128,134144,134161,134178,134194,134211,134229,134250,134277,134300,134310,134329,134343,134360,134379,134394,134411,134425,134444,134460,134477,134494,134510,134527,134543,134559,134576,134594,134609,134627,134643,134663,134676,134694,134711,134725,134743,134760,134777,134793,134810,134826,134844,134860,134877,134892,134911,134927,134944,134960,134976,134994,135010,135026,135044,135061,135077,135094,135110,135126,135143,135161,135177,135194,135211,135226,135245,135260,135276,135294,135310,135332,135343,135360,135377,135394,135410,135429,135443,135460,135477,135494,135510,135527,135544,135559,135576,135593,135610,135626,135643,135661,135676,135693,135710,135726,135743,135761,135777,135793,135809,135827,135844,135860,135876,135894,135911,135926,135943,135960,135977,135993,136010,136027,136043,136065,136091,136109,136131,136143,136161,136176,136193,136210,136226,136244,136261,136277,136296,136312,136327,136343,136360,136377,136394,136411,136426,136444,136460,136477,136493,136511,136526,136544,136560,136577,136595,136610,136628,136644,136660,136677,136694,136710,136727,136744,136761,136776,136793,136810,136827,136844,136860,136876,136894,136910,136929,136943,136959,136978,136994,137010,137026,137043,137061,137077,137095,137110,137127,137144,137160,137177,137197,137210,137227,137243,137261,137278,137294,137311,137328,137344,137361,137377,137393,137410,137427,137443,137460,137477,137494,137510,137527,137543,137559,137576,137593,137611,137627,137642,137660,137679,137694,137710,137726,137743,137760,137777,137793,137810,137827,137843,137860,137875,137894,137910,137927,137943,137960,137977,137994,138011,138029,138043,138060,138078,138094,138111,138127,138144,138161,138178,138193,138210,138226,138244,138261,138277,138294,138311,138327,138343,138361,138377,138394,138411,138428,138443,138460,138476,138494,138511,138527,138544,138561,138576,138593,138610,138627,138644,138661,138677,138694,138710,138726,138743,138761,138777,138793,138810,138827,138844,138861,138881,138892,138910,138926,138943,138959,138976,138993,139011,139027,139044,139061,139077,139094,139111,139127,139144,139160,139176,139193,139211,139226,139244,139260,139277,139293,139311,139327,139343,139360,139377,139394,139410,139427,139443,139460,139476,139493,139510,139526,139543,139560,139577,139593,139610,139626,139643,139660,139677,139693,139710,139726,139743,139761,139776,139793,139810,139826,139844,139861,139877,139894,139911,139927,139943,139960,139978,139994,140010,140027,140045,140060,140077,140094,140111,140127,140144,140161,140177,140194,140211,140230,140243,140260,140277,140294,140310,140327,140343,140361,140377,140394,140411,140427,140444,140460,140476,140494,140511,140526,140543,140561,140576,140593,140609,140626,140644,140660,140677,140693,140711,140727,140745,140760,140776,140795,140811,140828,140845,140861,140877,140895,140911,140927,140944,140960,140976,140994,141010,141027,141043,141060,141077,141094,141110,141126,141144,141161,141177,141194,141210,141227,141244,141261,141277,141295,141310,141327,141343,141361,141377,141394,141410,141429,141443,141459,141476,141493,141510,141527,141543,141560,141577,141592,141609,141626,141644,141660,141677,141694,141710,141727,141745,141760,141776,141793,141809,141827,141844,141860,141877,141894,141913,141926,141943,141961,141977,141993,142010,142028,142045,142060,142076,142092,142110,142127,142144,142160,142176,142193,142210,142226,142246,142260,142276,142293,142309,142326,142343,142360,142376,142393,142410,142428,142444,142460,142476,142493,142509,142526,142543,142560,142576,142593,142610,142626,142642,142660,142676,142693,142710,142727,142742,142759,142777,142793,142809,142828,142843,142859,142876,142893,142910,142927,142943,142960,142977,142993,143010,143027,143043,143060,143077,143094,143111,143127,143143,143160,143176,143193,143210,143229,143242,143260,143276,143293,143310,143327,143343,143360,143376,143394,143409,143428,143444,143459,143476,143494,143511,143527,143544,143561,143578,143592,143609,143626,143644,143660,143677,143694,143711,143727,143744,143760,143778,143794,143812,143826,143844,143860,143876,143893,143911,143926,143945,143961,143978,143994,14