[{"success":true,"trial_type":"fullscreen","trial_index":0,"time_elapsed":4205,"internal_node_id":"0.0-0.0","protocol_sum":"","subject_identifier":323,"subject_sum":[187,102,140,169,85,99,33,96,136,185,138,98,85,127,161,226,104,2,86,63,57,25,172,120,174,48,83,59,185,237,66,44],"subject_pair":161,"STUDY_ID":"66a0b3911f23dfc7665bb169","PROLIFIC_PID":"65dfb9ef84f2b03399eecc6c","SESSION_ID":"66a14c7f2d9a1c96e1e465c3","practice_instructions":1,"leaderboard_instructions":1,"bonus":1,"reveal_word":true,"self_rating":"2","confidence":"78"},{"view_history":"[{\"page_index\":0,\"viewing_time\":4669.5}]","rt":4670.299999952316,"trial_type":"instructions","trial_index":1,"time_elapsed":8877,"internal_node_id":"0.0-1.0","protocol_sum":"","subject_identifier":323,"subject_sum":[187,102,140,169,85,99,33,96,136,185,138,98,85,127,161,226,104,2,86,63,57,25,172,120,174,48,83,59,185,237,66,44],"subject_pair":161,"STUDY_ID":"66a0b3911f23dfc7665bb169","PROLIFIC_PID":"65dfb9ef84f2b03399eecc6c","SESSION_ID":"66a14c7f2d9a1c96e1e465c3","practice_instructions":1,"leaderboard_instructions":1,"bonus":1,"reveal_word":true,"self_rating":"2","confidence":"78"},{"view_history":"[{\"page_index\":0,\"viewing_time\":12231.100000023842}]","rt":12231.400000095367,"trial_type":"instructions","trial_index":2,"time_elapsed":21109,"internal_node_id":"0.0-2.0-0.0","protocol_sum":"","subject_identifier":323,"subject_sum":[187,102,140,169,85,99,33,96,136,185,138,98,85,127,161,226,104,2,86,63,57,25,172,120,174,48,83,59,185,237,66,44],"subject_pair":161,"STUDY_ID":"66a0b3911f23dfc7665bb169","PROLIFIC_PID":"65dfb9ef84f2b03399eecc6c","SESSION_ID":"66a14c7f2d9a1c96e1e465c3","practice_instructions":1,"leaderboard_instructions":1,"bonus":1,"reveal_word":true,"self_rating":"2","confidence":"78"},{"rt":9751.600000023842,"responses":"{\"Q0\":\"... reveal the word with as <b>few letter guesses</b> as possible\"}","question_order":"[0]","trial_type":"survey-multi-choice","trial_index":3,"time_elapsed":30863,"internal_node_id":"0.0-2.0-1.0","protocol_sum":"","subject_identifier":323,"subject_sum":[187,102,140,169,85,99,33,96,136,185,138,98,85,127,161,226,104,2,86,63,57,25,172,120,174,48,83,59,185,237,66,44],"subject_pair":161,"correct":true,"test_part":"multichoice_nonpretend","STUDY_ID":"66a0b3911f23dfc7665bb169","PROLIFIC_PID":"65dfb9ef84f2b03399eecc6c","SESSION_ID":"66a14c7f2d9a1c96e1e465c3","practice_instructions":1,"leaderboard_instructions":1,"bonus":1,"reveal_word":true,"self_rating":"2","confidence":"78"},{"view_history":"[{\"page_index\":0,\"viewing_time\":1388.7999999523163}]","rt":1389.2000000476837,"trial_type":"instructions","trial_index":4,"time_elapsed":32254,"internal_node_id":"0.0-3.0","protocol_sum":"","subject_identifier":323,"subject_sum":[187,102,140,169,85,99,33,96,136,185,138,98,85,127,161,226,104,2,86,63,57,25,172,120,174,48,83,59,185,237,66,44],"subject_pair":161,"STUDY_ID":"66a0b3911f23dfc7665bb169","PROLIFIC_PID":"65dfb9ef84f2b03399eecc6c","SESSION_ID":"66a14c7f2d9a1c96e1e465c3","practice_instructions":1,"leaderboard_instructions":1,"bonus":1,"reveal_word":true,"self_rating":"2","confidence":"78"},{"word":"ZEBRA","click_log":{"letter":["","N","R","T","L","E","S","C","O","A","Z","B"],"t":[0,6784.299999952316,10546.099999904633,13424.299999952316,16130.599999904633,18761,24661.099999904633,36580.39999997616,40866.199999928474,42290.299999952316,83549.69999992847,86773.5],"hit":[null,0,1,0,0,1,0,0,0,1,1,1],"asked":["","N","NR","NRT","NRTL","NRTLE","NRTLES","NRTLESC","NRTLESCO","NRTLESCOA","NRTLESCOAZ","NRTLESCOAZB"],"word_state":["_____","_____","___R_","___R_","___R_","_E_R_","_E_R_","_E_R_","_E_R_","_E_RA","ZE_RA","ZEBRA"]},"hover_log":{"letter":["?","?","?","?","?","?","?","?","?","?","?","?","?","?","?","?","?","?","?","?","?","?","?","?","?","?","?","?","?","?","?","?","?","?","?","?","?","?","?","?","?","?","?","?","?","?","?","?","?","?","?","?","?","?","?","?","?","?","?","?","?","?","?","?","?","?","?","?","?","?","?","?","?","?","?","?","?","?","?","?","?","?","?","?","?","?","?","?","?","?","?","?","?","?","?","?","?","?","?","?","?","?","?","?","?","?","?","?","?","?","?","?","?","?","?","?","?","?","?","?","?","?","?","?","?","?","?","?","?","?","?","?","?","?","?","?","?","?","?","?","?","?","?","?","?","?","?","?","?","?","?","?","?","?","?","?","?","?","?","?","?","?","?","?","?","?","?","?","?","?","?","?","?","?","?","?","?","?","?","?","?","?","?","?","?","?","?","?","?","?","?","?","?","?","?","?","?","?","?","?","?","?","?","?","?","?","?","?","?","?","?","?","?","?","?","?","?","?","?","?","?","?","?","?","?","?","?","?","?","?","Y","?","Z","?","?","?","?","?","?","?","?","?","?","?","?","?","?","?","?","?","?","?","?","?","?","?","?","?","?","R","R","R","R","R","R","R","R","R","R","R","R","R","R","R","R","R","R","R","R","R","R","R","?","Q","Q","Q","Q","Q","Q","?","?","?","?","P","P","P","P","P","P","P","P","P","P","P","P","P","?","?","O","O","O","?","N","N","N","N","N","N","N","N","N","N","N","N","N","N","N","N","N","N","N","N","N","N","N","N","N","N","N","N","N","N","N","N","N","N","N","?","?","?","?","?","?","?","?","?","?","?","W","W","W","W","W","W","W","W","W","W","W","W","W","W","W","W","?","?","N","N","N","N","N","N","N","N","N","N","N","N","N","N","N","N","N","N","N","N","N","N","N","N","N","N","N","N","N","N","N","N","N","N","N","N","N","N","N","N","N","N","N","N","N","N","N","N","N","N","N","N","N","N","N","N","N","N","N","N","N","N","N","N","N","N","N","N","N","N","N","N","N","N","N","N","N","N","N","N","N","N","N","N","N","N","N","N","N","N","N","N","N","N","N","N","N","N","N","N","N","N","N","N","N","N","N","N","N","N","N","N","N","N","N","N","N","N","N","N","N","N","N","N","N","N","N","N","N","N","N","N","N","N","N","N","N","N","N","N","N","N","N","N","N","N","N","N","N","N","N","N","N","N","N","N","N","N","N","N","N","N","N","N","N","?","?","O","O","O","O","O","O","O","O","O","O","O","O","O","O","O","O","O","O","O","O","O","O","O","O","O","?","N","N","N","N","?","?","M","M","M","M","M","M","M","M","?","N","N","O","O","O","P","P","?","Q","Q","Q","Q","Q","Q","Q","Q","Q","Q","Q","Q","Q","Q","Q","?","?","R","R","R","R","R","R","R","R","R","R","R","R","R","R","R","R","R","R","R","R","R","R","R","R","R","R","R","R","R","R","R","R","R","R","R","R","R","R","R","R","R","R","R","R","R","R","R","R","R","R","R","R","R","R","R","R","R","R","R","R","R","R","R","R","R","R","R","R","R","R","R","R","R","R","R","R","R","R","R","R","R","R","R","R","R","R","R","R","R","R","R","R","R","R","R","R","R","R","R","R","R","R","R","R","R","R","R","R","R","R","R","R","R","R","R","R","R","R","R","R","R","R","R","R","R","R","R","?","Q","Q","P","?","O","O","O","?","?","?","?","?","?","?","?","?","?","M","?","?","L","L","L","L","L","L","L","L","L","L","L","L","L","L","?","?","?","?","?","?","?","?","?","?","?","?","?","T","T","T","T","T","T","T","T","T","T","T","T","T","T","T","T","T","T","T","T","T","T","T","T","T","T","T","T","T","T","T","T","T","T","T","T","T","T","T","T","T","T","T","T","T","T","T","T","T","T","T","T","T","T","T","T","T","T","T","T","T","T","T","T","T","T","T","T","T","T","T","T","T","T","T","T","T","T","T","T","T","T","T","T","T","T","T","T","T","T","T","T","T","T","T","T","T","T","T","T","T","T","T","T","T","T","?","U","U","U","U","U","?","?","?","?","?","?","?","?","?","?","?","?","?","?","?","?","?","?","?","?","?","?","?","?","?","?","?","?","?","?","M","M","M","M","M","M","M","M","M","M","M","M","M","M","M","M","M","M","M","M","M","M","M","?","?","L","L","L","L","L","L","L","L","L","L","L","L","L","L","L","L","L","L","L","L","L","L","L","L","L","L","L","L","L","L","L","L","L","L","L","L","L","L","L","L","L","L","L","L","L","L","L","L","L","L","L","L","L","L","L","L","L","L","L","L","L","L","L","L","L","L","L","L","L","L","L","L","L","?","M","M","M","M","M","M","M","M","M","M","M","M","M","M","M","M","M","M","M","M","M","M","M","M","M","M","M","M","M","M","M","M","M","M","M","M","M","M","M","M","M","M","M","M","M","M","M","M","M","M","M","M","M","M","M","M","M","M","M","M","M","M","M","M","M","M","M","M","M","M","M","?","?","?","?","?","?","?","E","E","E","E","E","E","E","E","E","E","E","E","E","E","E","E","E","E","E","E","E","E","E","E","E","E","E","E","E","E","E","E","E","E","E","E","E","E","E","E","E","E","E","E","E","E","E","E","E","E","E","E","E","E","E","E","E","E","E","E","E","E","E","E","E","E","E","E","E","E","E","E","E","E","E","E","E","E","E","E","E","E","E","E","E","E","E","E","E","E","E","E","E","E","E","E","E","E","E","E","E","E","E","E","E","E","E","E","E","E","E","E","E","E","E","E","E","E","E","E","E","E","E","E","E","E","E","E","E","E","E","E","E","E","E","E","E","E","E","E","E","E","E","E","E","E","E","E","E","E","E","E","E","E","E","E","E","E","E","E","E","E","E","E","E","E","E","E","E","E","E","E","E","E","E","E","E","E","E","E","E","E","E","E","E","E","E","E","E","E","E","E","E","E","E","E","E","E","E","E","E","E","E","E","E","E","E","E","E","E","E","E","E","E","E","E","E","E","E","E","E","E","E","E","E","E","E","E","E","E","E","E","E","E","E","E","E","E","E","E","E","E","E","E","E","E","E","E","E","E","E","E","E","E","E","E","E","E","E","E","E","E","E","E","E","E","E","E","E","E","E","E","E","E","E","E","E","E","E","E","E","E","E","E","E","E","E","E","E","E","E","E","E","E","E","E","E","E","E","E","E","E","E","E","E","E","E","E","E","E","E","E","E","E","E","E","E","?","?","?","?","?","?","?","?","N","N","N","N","N","N","N","N","N","N","?","M","?","?","?","?","?","?","?","?","?","?","?","?","T","T","T","T","T","T","?","?","S","S","S","S","S","S","S","S","S","S","S","S","S","S","S","S","S","S","S","S","S","S","S","S","S","S","S","S","S","S","S","S","S","S","S","S","S","S","S","S","S","S","S","S","S","S","S","S","S","S","S","S","S","S","S","S","S","S","S","S","S","S","S","S","S","S","S","S","S","S","S","S","S","S","S","S","S","S","S","S","S","S","S","S","S","S","S","S","S","S","S","S","S","S","S","S","S","S","S","S","S","S","S","S","S","S","S","S","S","S","S","S","S","S","S","S","S","S","S","S","S","S","S","S","S","S","S","S","S","S","S","S","S","S","S","S","S","S","S","S","S","S","S","S","S","S","S","S","S","S","S","S","S","S","S","S","S","S","S","S","S","S","S","S","S","S","S","S","S","S","S","S","S","S","S","S","S","S","S","S","S","S","S","S","S","S","S","S","S","S","S","S","S","S","S","S","S","S","S","S","S","S","S","S","S","S","S","S","S","S","S","S","S","S","S","S","S","S","S","S","S","S","S","S","S","S","S","S","S","S","S","S","S","S","S","S","S","S","S","S","S","S","S","S","S","S","S","S","S","S","S","S","S","S","S","S","S","S","S","S","S","S","S","S","S","S","S","S","S","S","S","S","S","S","S","S","S","S","S","S","S","S","S","S","S","S","S","S","S","S","S","S","S","S","S","S","S","S","S","S","S","S","S","S","S","S","S","S","S","S","S","S","S","S","S","S","S","S","S","S","S","S","S","S","S","S","S","S","S","S","S","S","S","S","S","S","S","S","S","S","S","S","S","S","S","S","S","S","S","S","S","S","S","S","S","S","S","S","S","S","S","S","S","S","S","S","S","S","S","S","S","S","S","S","S","S","S","S","S","S","S","S","S","S","S","S","S","S","S","S","S","S","S","S","S","S","S","S","S","?","?","?","K","K","K","K","K","K","K","?","?","?","?","?","?","?","?","?","?","B","B","B","B","B","B","B","B","B","B","B","B","B","B","B","B","B","B","B","B","B","B","B","B","B","B","B","B","B","B","B","B","B","B","B","B","B","B","B","B","B","B","B","B","B","B","B","B","B","B","B","B","B","B","B","B","B","B","B","B","B","B","B","B","B","B","B","B","B","B","B","B","?","?","?","?","?","?","?","?","L","L","L","L","L","L","L","L","L","L","?","?","?","?","M","M","M","M","M","M","M","M","M","M","M","M","M","M","M","M","M","M","M","M","M","M","M","M","M","M","M","M","M","M","M","M","M","M","M","M","M","M","M","M","M","M","M","M","M","M","M","M","M","M","M","M","M","M","M","M","M","M","M","M","M","M","M","M","M","M","M","M","M","M","M","M","M","M","M","M","M","M","M","M","M","M","M","M","M","M","M","M","M","M","M","M","M","M","M","M","M","M","M","M","M","M","M","M","M","M","M","M","M","M","M","M","M","M","M","M","M","M","M","M","M","M","M","M","M","M","M","M","M","M","M","M","M","M","M","M","M","M","M","M","M","M","M","M","M","M","M","M","?","?","?","?","?","?","?","?","?","V","V","V","V","V","V","V","V","V","V","V","V","V","V","V","V","V","V","V","V","V","V","V","V","V","V","V","V","V","?","U","?","?","?","?","L","L","L","L","L","L","L","L","L","L","L","?","?","C","C","C","C","C","C","C","C","C","C","C","C","C","C","C","C","C","C","C","C","C","C","C","C","C","C","C","C","C","C","C","C","C","C","C","C","C","C","C","C","C","C","C","C","C","C","C","C","C","C","C","C","C","C","C","C","C","C","C","C","C","C","C","C","C","C","C","C","C","C","C","C","C","C","C","C","C","C","C","C","C","C","C","C","C","C","C","C","C","C","?","D","D","?","?","?","?","?","N","N","?","?","?","?","?","?","W","W","W","W","W","W","W","W","W","W","W","W","W","W","?","?","?","?","?","?","?","?","?","?","?","?","?","?","?","?","?","?","?","?","?","?","?","?","?","?","?","?","?","?","?","?","?","?","?","?","?","?","?","?","?","?","?","?","?","?","?","?","?","?","?","?","?","?","?","?","?","?","?","?","?","?","?","?","?","?","?","?","?","?","?","?","?","?","?","?","?","?","?","?","?","?","?","?","?","?","?","?","?","?","?","?","?","?","?","?","?","?","?","?","W","W","W","?","?","?","?","?","?","?","?","?","?","?","?","?","?","?","?","?","?","?","O","O","O","O","O","O","O","O","O","O","O","O","O","O","O","O","O","O","O","O","O","O","O","O","O","O","O","O","O","O","O","O","O","O","O","O","O","O","O","O","O","O","O","O","O","O","O","O","O","O","O","O","O","O","O","O","O","O","O","O","O","O","O","O","O","O","O","O","O","O","O","O","O","O","O","O","O","?","N","N","M","M","M","L","L","?","?","?","?","?","?","?","?","?","?","?","?","?","A","A","A","A","A","A","A","A","A","A","A","A","A","A","A","A","A","A","A","A","A","A","A","A","A","A","A","A","A","A","A","A","A","A","A","A","A","A","A","A","A","A","A","A","A","A","A","A","A","A","A","A","A","A","A","A","A","A","A","A","A","A","A","A","A","A","A","A","A","A","A","A","A","A","A","A","A","A","A","A","A","A","A","A","A","A","A","A","A","A","A","A","A","A","A","A","A","A","A","A","A","A","A","A","A","A","A","A","A","A","A","A","A","A","A","A","A","A","A","A","A","A","A","A","A","A","A","A","A","A","A","A","A","A","A","A","A","A","A","A","A","A","A","A","A","A","A","A","A","A","A","A","A","A","A","A","A","A","A","A","A","A","A","A","A","A","A","A","A","A","A","A","A","A","A","A","A","A","A","A","A","A","A","A","A","A","A","A","A","A","A","A","A","A","A","A","A","A","A","A","A","A","A","A","A","A","A","A","A","A","A","A","A","A","A","A","A","A","A","A","A","A","A","A","A","A","A","A","A","A","A","A","A","A","A","?","?","?","?","?","?","?","?","?","?","?","?","?","?","?","?","?","?","?","?","?","?","?","?","?","?","?","?","?","?","?","?","?","?","?","?","?","?","?","?","?","?","?","?","?","?","?","?","?","?","?","?","?","?","?","?","?","?","?","?","?","?","?","?","?","?","?","?","?","?","?","?","?","?","?","?","?","?","?","?","?","?","?","?","?","?","?","?","?","?","?","?","?","?","?","?","?","?","E","E","?","?","N","N","N","?","?","W","W","W","W","W","W","W","W","W","W","W","W","W","W","W","W","W","W","W","W","W","W","W","W","W","W","W","W","W","W","W","W","W","W","W","W","W","W","W","W","W","W","W","W","W","W","W","W","W","W","W","W","W","W","W","W","W","W","W","W","W","W","W","W","W","W","W","W","W","?","?","N","?","E","E","?","?","?","?","?","?","?","?","?","?","?","?","?","?","?","?","?","?","?","?","?","?","?","?","?","?","?","?","?","?","?","?","?","?","?","?","?","?","?","?","?","?","?","?","?","?","?","?","?","?","?","?","?","?","?","?","?","?","?","?","?","?","?","?","?","?","?","?","?","?","?","?","?","?","?","?","?","?","?","?","?","?","?","?","?","?","?","?","?","?","?","?","?","?","?","?","?","?","?","?","?","?","?","?","?","?","?","?","?","?","?","?","?","?","?","?","?","?","?","?","?","?","?","?","?","?","?","?","?","?","?","?","?","?","?","?","?","?","?","?","?","?","?","?","?","?","?","?","?","?","?","?","?","?","?","?","?","?","?","F","F","F","F","F","F","F","F","F","F","F","F","F","F","F","F","F","F","F","F","F","F","F","F","F","?","?","E","E","E","E","E","E","E","E","E","E","E","E","E","E","E","E","E","E","E","E","E","E","E","E","E","E","E","E","E","E","E","E","E","E","E","E","E","E","E","E","E","E","E","E","E","E","E","E","E","E","E","E","E","E","E","?","?","F","F","F","F","F","F","F","F","F","F","F","F","F","F","F","F","F","F","F","F","F","F","F","F","F","F","F","F","F","F","F","F","F","F","F","F","F","F","F","F","F","F","F","F","F","F","F","F","F","F","F","F","F","F","F","F","F","F","F","F","F","F","F","F","F","F","F","F","F","F","F","F","F","F","F","F","F","F","F","F","F","F","F","F","F","F","F","F","F","F","F","F","F","F","F","F","F","F","F","F","F","F","F","F","F","F","F","F","F","F","?","?","?","?","?","?","?","?","?","?","?","?","?","?","?","?","?","?","?","?","?","?","?","?","?","X","X","X","?","?","?","?","?","?","?","?","?","?","?","?","?","?","?","?","?","?","?","?","?","?","?","?","?","?","?","?","?","?","?","?","?","?","?","?","?","?","?","?","?","?","?","?","?","?","?","?","?","?","?","?","?","?","?","?","?","?","?","?","?","?","?","?","?","?","?","?","?","?","?","?","?","?","?","?","T","T","T","T","T","T","T","T","T","T","T","T","T","T","?","?","?","?","?","?","?","?","?","?","?","?","?","?","U","U","U","U","U","U","U","U","U","U","U","U","U","U","?","?","?","?","?","K","K","K","K","K","K","K","K","K","K","K","K","K","K","K","K","K","K","K","K","K","K","K","K","K","K","K","K","K","K","K","K","K","K","K","K","K","K","K","K","K","K","K","K","K","K","K","K","K","K","K","K","K","K","K","K","K","K","K","K","K","K","K","K","K","K","K","K","K","K","K","K","K","K","K","K","K","K","K","K","K","K","K","K","K","K","K","K","K","K","K","K","K","K","K","K","K","K","K","K","K","K","K","K","K","K","K","K","K","K","K","K","K","K","K","K","K","K","K","K","K","K","K","K","K","K","K","K","K","K","K","K","K","K","K","K","K","K","K","K","K","K","K","K","K","K","K","K","K","K","K","K","K","K","K","K","K","K","K","K","K","K","K","K","K","K","K","K","K","K","K","K","K","K","K","K","K","K","K","K","K","K","K","K","K","K","K","K","K","K","K","K","K","K","K","K","K","K","K","K","K","K","K","K","K","K","K","K","K","K","K","K","K","K","K","K","K","K","K","K","K","K","K","K","K","K","K","K","K","K","K","K","K","K","K","K","K","K","K","K","K","K","K","K","K","K","K","K","K","K","K","K","K","K","K","K","K","K","K","K","K","K","K","K","K","K","K","K","K","K","K","K","K","K","K","K","K","K","K","K","K","K","K","K","K","K","K","K","K","K","K","K","K","K","K","K","K","K","K","K","K","K","K","K","K","K","K","K","K","K","K","K","K","K","K","K","K","K","K","K","K","K","K","K","K","K","K","K","K","K","K","K","K","K","K","K","K","K","K","K","K","K","K","K","K","K","K","K","K","K","K","K","K","K","K","K","K","K","K","K","K","K","K","K","K","K","K","K","K","K","K","K","K","K","K","K","K","K","K","K","K","K","K","K","K","K","K","K","K","K","K","K","K","K","K","K","K","K","K","K","K","K","K","K","K","K","K","K","K","K","K","K","K","K","K","K","K","K","K","K","K","K","K","K","K","K","K","K","K","K","K","K","K","K","K","K","K","K","K","K","K","K","K","K","K","K","K","K","K","K","K","K","K","K","K","K","K","K","K","K","K","K","K","K","K","K","K","K","K","K","K","K","K","K","K","K","K","K","K","K","K","K","K","K","K","K","K","K","K","K","K","K","K","K","K","K","K","K","K","K","K","K","K","K","K","K","K","K","K","K","K","K","K","K","K","K","K","K","K","K","K","K","K","K","K","K","K","K","K","K","K","K","K","K","K","K","K","K","K","K","K","K","K","K","K","K","K","K","K","K","K","K","K","K","K","K","K","K","K","K","K","K","K","K","K","K","K","K","K","K","K","K","K","K","K","K","K","K","K","K","K","K","K","K","K","K","K","K","K","K","K","K","K","K","K","K","K","K","K","K","K","K","K","K","K","K","K","K","K","K","K","K","K","K","K","K","K","K","K","K","K","K","K","K","K","K","K","K","K","K","K","K","K","K","K","K","K","K","K","K","K","K","K","K","K","K","K","K","K","K","K","K","K","K","K","K","K","K","K","K","K","K","K","K","K","K","K","K","K","K","K","K","K","K","K","K","K","K","K","K","K","K","K","K","K","K","K","K","K","K","K","K","K","K","K","K","K","K","K","K","K","K","K","K","K","K","K","K","K","K","K","K","K","K","K","K","K","K","K","K","K","K","K","K","K","K","K","K","K","K","K","K","K","K","K","K","K","K","K","K","K","K","K","K","K","K","K","K","K","K","K","K","K","K","K","K","K","K","K","K","K","K","K","K","K","K","K","K","K","K","K","K","K","K","K","K","K","K","K","K","K","K","K","K","K","K","K","K","K","K","K","K","K","K","K","K","K","K","K","K","K","K","K","K","K","K","K","K","K","K","K","K","K","K","K","K","K","K","K","K","K","K","K","K","K","K","K","K","K","K","K","K","K","K","K","K","K","K","K","K","K","K","K","K","K","K","K","K","K","K","K","K","K","K","K","K","K","K","K","K","K","K","K","K","K","K","K","K","K","K","K","K","K","K","K","K","K","K","K","K","K","K","K","K","K","K","K","K","K","K","K","K","K","K","K","K","K","K","K","K","K","K","K","K","K","K","K","K","K","K","K","K","K","K","K","K","K","K","K","K","K","K","K","K","K","K","K","K","K","K","K","K","K","K","K","K","K","K","K","K","K","K","K","K","K","K","K","K","K","K","K","K","K","K","K","K","K","K","K","K","K","K","K","K","K","K","K","K","K","K","K","K","K","K","K","K","K","K","K","K","K","K","K","K","K","K","K","K","K","K","K","K","K","K","K","K","K","K","K","K","K","K","K","K","K","K","K","K","K","K","K","K","K","K","K","K","K","K","K","K","K","K","K","K","K","K","K","K","K","K","K","K","K","K","K","K","K","K","K","K","K","K","K","K","K","K","K","K","K","K","K","K","K","K","K","K","K","K","K","K","K","K","K","K","K","K","K","K","K","K","K","K","K","K","K","K","K","K","K","K","K","K","K","K","K","K","K","K","K","K","K","K","K","K","K","K","K","K","K","K","K","K","K","K","K","K","K","K","K","K","K","K","K","K","K","K","K","K","K","K","K","K","K","K","K","K","K","K","K","K","K","K","K","K","K","K","K","K","K","K","K","K","K","K","K","K","K","K","K","K","K","K","K","K","K","K","K","K","K","K","K","K","K","K","K","K","K","K","K","K","K","K","K","K","K","K","K","K","K","K","K","K","K","K","K","K","K","K","K","K","K","K","K","K","K","K","K","K","K","K","K","K","K","K","K","K","K","K","K","K","K","K","K","K","K","K","K","K","K","K","K","K","K","K","K","K","K","K","K","K","K","K","K","K","K","K","K","K","K","K","K","K","K","K","K","K","K","K","K","K","K","K","K","K","K","K","K","K","K","K","K","K","K","K","J","?","?","?","?","?","?","?","?","?","?","?","?","?","?","?","?","?","?","?","?","?","?","?","?","?","?","?","?","?","?","?","?","?","?","?","?","?","?","?","?","?","?","?","?","?","?","?","?","?","?","?","?","?","?","?","?","?","?","?","?","?","?","?","?","?","?","?","?","?","?","?","?","?","?","?","?","?","?","?","?","?","?","?","?","?","?","?","?","?","?","?","?","?","?","?","?","?","?","?","?","?","?","?","?","?","?","?","?","?","?","?","?","?","?","?","?","?","?","?","?","?","?","?","?","?","?","?","?","?","?","?","?","?","?","?","?","?","?","?","?","?","?","?","?","?","?","?","?","?","?","?","?","?","?","?","?","?","?","?","?","?","?","?","?","?","?","?","?","?","?","?","?","?","?","?","?","?","?","?","?","?","?","?","?","?","?","?","?","?","?","?","?","?","?","?","?","?","?","?","?","?","?","?","?","?","?","?","?","?","?","?","?","?","?","?","?","?","?","?","?","?","?","?","?","?","?","?","?","?","?","?","?","?","?","?","?","?","?","?","?","?","?","?","?","?","?","?","?","?","?","?","I","I","I","I","?","?","?","?","?","?","R","R","R","R","R","?","?","?","?","?","Z","Z","Z","Z","Z","Z","Z","Z","Z","Z","Z","Z","Z","Z","Z","Z","Z","Z","Z","Z","Z","Z","Z","Z","Z","Z","Z","Z","Z","Z","Z","Z","Z","Z","Z","Z","Z","Z","Z","Z","Z","Z","Z","Z","Z","Z","Z","Z","Z","Z","?","?","?","?","P","P","P","P","P","P","P","P","P","P","P","P","P","P","P","P","P","P","P","P","P","P","P","P","?","?","?","?","?","?","?","?","?","?","?","?","?","?","?","?","W","W","W","W","W","W","W","W","W","W","W","?","?","?","?","V","V","V","V","V","V","V","V","V","V","V","V","V","V","V","V","V","V","V","V","V","V","V","V","V","V","V","V","V","V","V","V","V","V","V","V","V","V","V","V","V","V","V","V","V","V","V","V","V","V","V","V","V","V","V","V","V","V","V","V","V","V","V","V","V","V","V","V","V","V","V","?","?","?","?","?","?","?","?","?","?","?","?","?","?","?","?","?","?","L","L","L","L","L","L","?","?","?","?","?","?","?","?","?","B","B","B","B","B","B","B","B","B","B","B","B","B","B","B","B","B","B","B","B","B","B","B","B","B","B","B","B","B","B","B","B","B","B","B","B","B","B","B","B","B","B","B","B","B","B","B","B","B","B","B","B","B","B","B","B","B","B","B","B","B","B","B","B","B","B","B","B","B","B","B","B","B","?","?","?","?","?","?","?","?","?","?","?","?","?","?","?","?","?","?","?","?","?","?","?","?","?","?","?","?","?","?","?","?","?","?","?","?","?","?","?","?","?","?","?","?","?","?","?","?","?","?","?","?","?","?","?","?","?","?","?","?","?","?","?","?"],"t":[45,51,63,79,96,113,129,146,163,179,195,212,228,245,261,279,295,312,329,345,362,378,395,411,428,445,462,478,495,511,528,545,561,578,595,612,628,645,662,680,697,712,729,746,762,779,796,812,829,846,862,879,896,913,929,946,962,979,997,1013,1029,1045,1062,1079,1095,1112,1129,1145,1162,1179,1195,1212,1228,1245,1262,1279,1295,1312,1329,1345,1362,1379,1395,1412,1429,1446,1462,1479,1495,1512,1529,1546,1562,1579,1595,1612,1629,1646,1663,1679,1696,1712,1728,1745,1762,1779,1795,1812,1828,1846,1862,1878,1895,1911,1928,1945,1962,1979,1995,2012,2028,2045,2062,2079,2095,2112,2128,2145,2162,2178,2195,2212,2228,2245,2262,2279,2296,2313,2329,2345,2362,2379,2396,2412,2429,2445,2463,2479,2496,2512,2528,2545,2562,2578,2595,2612,2629,2645,2662,2679,2696,2713,2729,2745,2762,2778,2795,2812,2828,2845,2862,2879,2896,2913,2929,2945,2962,2978,2995,3012,3028,3045,3062,3078,3095,3112,3128,3145,3162,3178,3195,3212,3228,3245,3261,3278,3295,3312,3328,3345,3362,3378,3395,3412,3429,3445,3463,3479,3495,3512,3528,3545,3562,3578,3595,3612,3628,3645,3661,3678,3695,3712,3728,3745,3761,3778,3795,3813,3828,3845,3866,3878,3896,3912,3929,3945,3962,3978,3995,4012,4028,4045,4061,4078,4095,4111,4128,4145,4161,4178,4195,4212,4228,4245,4262,4279,4295,4312,4328,4345,4362,4378,4395,4412,4429,4445,4462,4479,4495,4512,4529,4545,4562,4578,4596,4612,4629,4646,4662,4679,4696,4713,4729,4746,4762,4779,4796,4813,4829,4846,4862,4880,4896,4913,4929,4945,4962,4979,4995,5013,5029,5046,5062,5079,5095,5112,5129,5146,5163,5180,5195,5212,5229,5245,5262,5279,5295,5312,5328,5345,5361,5378,5395,5411,5428,5445,5462,5478,5495,5511,5528,5545,5561,5578,5595,5612,5628,5645,5661,5678,5695,5712,5728,5745,5762,5779,5796,5812,5829,5846,5862,5879,5896,5912,5928,5946,5962,5979,5996,6012,6028,6045,6062,6079,6096,6112,6128,6145,6162,6178,6195,6211,6229,6246,6263,6279,6296,6312,6329,6346,6363,6379,6395,6412,6428,6445,6462,6478,6495,6511,6528,6545,6562,6579,6595,6611,6628,6645,6662,6678,6696,6712,6728,6745,6762,6778,6796,6812,6828,6845,6862,6879,6896,6912,6929,6946,6962,6978,6995,7012,7029,7045,7062,7079,7095,7112,7129,7145,7162,7179,7195,7212,7228,7245,7262,7278,7295,7312,7329,7345,7362,7378,7395,7412,7428,7445,7462,7479,7495,7512,7529,7545,7562,7579,7595,7612,7628,7645,7662,7678,7695,7712,7728,7745,7762,7778,7795,7812,7829,7845,7862,7879,7895,7912,7928,7945,7962,7979,7996,8012,8028,8045,8062,8078,8095,8112,8128,8146,8162,8178,8195,8211,8228,8245,8262,8278,8295,8311,8328,8345,8361,8378,8395,8411,8428,8445,8462,8478,8495,8512,8528,8545,8562,8579,8595,8612,8628,8645,8662,8678,8695,8711,8728,8745,8762,8779,8796,8812,8829,8846,8862,8879,8895,8912,8928,8945,8962,8979,8996,9012,9029,9046,9063,9079,9096,9112,9129,9146,9163,9179,9196,9212,9229,9245,9263,9278,9295,9311,9328,9345,9361,9378,9395,9413,9429,9445,9462,9479,9496,9512,9529,9545,9563,9579,9596,9612,9628,9645,9662,9678,9695,9712,9729,9745,9762,9779,9796,9812,9829,9845,9862,9879,9896,9912,9929,9946,9962,9978,9995,10012,10028,10045,10062,10080,10096,10112,10129,10147,10162,10179,10196,10212,10229,10246,10263,10278,10296,10312,10328,10345,10362,10378,10395,10412,10429,10445,10462,10478,10495,10512,10528,10545,10565,10579,10595,10613,10629,10645,10662,10678,10695,10712,10728,10745,10762,10778,10795,10812,10830,10845,10862,10878,10895,10912,10928,10945,10962,10978,10995,11012,11028,11045,11062,11079,11095,11112,11128,11145,11162,11178,11195,11212,11228,11245,11262,11278,11295,11312,11328,11345,11362,11378,11395,11412,11428,11445,11463,11478,11495,11512,11529,11545,11562,11578,11595,11611,11629,11645,11661,11679,11695,11711,11728,11745,11762,11778,11795,11812,11828,11845,11861,11878,11895,11911,11928,11945,11962,11978,11995,12012,12029,12045,12062,12079,12095,12113,12129,12146,12162,12178,12195,12212,12229,12248,12263,12279,12295,12312,12329,12345,12362,12379,12395,12412,12429,12445,12463,12479,12496,12512,12529,12545,12562,12579,12595,12612,12629,12646,12662,12678,12695,12712,12729,12745,12762,12778,12795,12812,12829,12846,12862,12880,12896,12912,12929,12945,12962,12978,12995,13012,13029,13045,13062,13079,13096,13112,13129,13145,13162,13179,13196,13212,13228,13245,13262,13278,13295,13312,13329,13346,13362,13379,13395,13412,13430,13445,13462,13479,13495,13512,13529,13545,13563,13578,13597,13612,13628,13645,13662,13678,13695,13712,13728,13745,13762,13779,13795,13812,13828,13845,13862,13878,13895,13912,13928,13945,13962,13979,13995,14012,14029,14045,14062,14078,14095,14112,14129,14145,14162,14178,14195,14212,14229,14245,14262,14279,14295,14312,14328,14345,14362,14379,14395,14412,14428,14445,14463,14478,14495,14512,14528,14545,14562,14580,14595,14612,14629,14645,14662,14679,14695,14712,14728,14745,14762,14779,14795,14813,14830,14846,14862,14880,14896,14913,14930,14946,14963,14979,14997,15013,15028,15045,15062,15078,15095,15112,15128,15145,15162,15179,15195,15212,15229,15245,15262,15279,15296,15312,15329,15345,15362,15378,15395,15412,15428,15446,15464,15478,15496,15513,15529,15546,15563,15579,15595,15612,15628,15645,15663,15679,15696,15712,15728,15745,15762,15778,15795,15812,15829,15846,15862,15879,15896,15914,15929,15945,15962,15978,15995,16013,16028,16045,16062,16078,16095,16112,16129,16146,16162,16178,16195,16212,16228,16245,16262,16278,16295,16312,16328,16345,16362,16378,16395,16412,16428,16445,16462,16478,16495,16512,16528,16545,16561,16578,16595,16612,16628,16645,16662,16679,16695,16712,16728,16745,16762,16778,16795,16812,16828,16845,16862,16878,16895,16912,16929,16945,16962,16978,16995,17012,17028,17045,17062,17079,17096,17113,17129,17146,17162,17178,17195,17212,17228,17245,17262,17279,17295,17312,17329,17345,17362,17378,17395,17412,17428,17445,17462,17478,17495,17512,17529,17545,17562,17579,17595,17612,17629,17645,17662,17678,17695,17712,17729,17745,17763,17779,17795,17812,17829,17845,17862,17878,17895,17911,17929,17945,17962,17979,17995,18012,18028,18045,18062,18078,18095,18112,18128,18145,18162,18178,18195,18212,18228,18245,18262,18279,18295,18313,18329,18346,18362,18379,18395,18412,18429,18446,18462,18479,18495,18512,18528,18545,18562,18579,18595,18612,18628,18645,18662,18678,18695,18712,18729,18745,18763,18779,18795,18812,18829,18845,18862,18879,18895,18912,18928,18945,18962,18978,18995,19012,19029,19045,19062,19078,19095,19112,19129,19145,19162,19178,19195,19212,19228,19245,19262,19279,19295,19312,19328,19345,19362,19378,19395,19412,19428,19445,19462,19478,19495,19512,19528,19545,19562,19578,19595,19612,19629,19645,19662,19679,19695,19712,19729,19746,19762,19778,19795,19812,19829,19845,19863,19879,19895,19912,19929,19945,19962,19978,19995,20012,20029,20045,20062,20078,20095,20112,20128,20145,20162,20178,20195,20212,20229,20245,20262,20278,20295,20312,20329,20345,20362,20378,20395,20412,20428,20445,20462,20479,20495,20512,20530,20545,20562,20578,20595,20612,20628,20645,20662,20678,20695,20712,20728,20745,20762,20778,20795,20812,20828,20845,20862,20878,20896,20912,20928,20945,20962,20979,20995,21012,21029,21045,21062,21079,21095,21112,21129,21145,21162,21179,21195,21212,21228,21245,21262,21278,21295,21312,21329,21345,21362,21378,21395,21412,21428,21445,21462,21479,21495,21513,21528,21545,21562,21579,21595,21612,21629,21645,21662,21679,21695,21712,21729,21745,21762,21779,21795,21812,21828,21845,21862,21879,21895,21913,21929,21945,21962,21978,21995,22012,22028,22045,22062,22078,22095,22112,22128,22145,22162,22178,22195,22212,22228,22245,22262,22279,22295,22312,22329,22345,22362,22378,22395,22412,22428,22446,22462,22479,22495,22512,22529,22545,22562,22578,22595,22612,22629,22645,22663,22679,22695,22712,22728,22745,22762,22779,22795,22812,22829,22845,22862,22879,22896,22912,22928,22945,22962,22978,22995,23012,23029,23045,23062,23078,23095,23112,23128,23145,23162,23179,23195,23212,23229,23245,23262,23279,23295,23313,23329,23345,23362,23378,23395,23412,23428,23445,23462,23478,23495,23512,23528,23545,23562,23578,23595,23612,23629,23646,23662,23679,23695,23712,23729,23745,23762,23779,23795,23812,23829,23845,23862,23879,23896,23912,23929,23946,23962,23979,23995,24012,24029,24045,24062,24079,24096,24113,24129,24146,24162,24179,24195,24212,24229,24246,24262,24279,24295,24313,24329,24345,24363,24379,24395,24412,24429,24445,24462,24478,24495,24512,24529,24545,24562,24578,24595,24612,24629,24646,24663,24678,24695,24712,24728,24745,24762,24778,24795,24812,24828,24845,24862,24878,24895,24912,24928,24945,24962,24978,24995,25012,25029,25045,25062,25078,25095,25112,25128,25145,25162,25179,25195,25212,25228,25245,25262,25278,25295,25312,25328,25345,25362,25379,25396,25412,25429,25445,25462,25479,25495,25512,25528,25545,25562,25578,25595,25613,25629,25645,25662,25678,25695,25712,25729,25745,25762,25778,25795,25812,25828,25845,25863,25879,25895,25912,25929,25945,25962,25979,25996,26012,26028,26045,26062,26079,26095,26112,26128,26145,26162,26178,26195,26212,26229,26245,26262,26278,26295,26312,26328,26345,26362,26379,26395,26412,26428,26445,26462,26479,26495,26512,26528,26545,26562,26578,26595,26612,26629,26645,26662,26679,26695,26712,26729,26745,26762,26779,26795,26812,26828,26845,26862,26879,26895,26912,26929,26945,26962,26978,26995,27012,27029,27045,27062,27078,27095,27112,27128,27146,27162,27178,27195,27212,27228,27245,27262,27279,27295,27312,27329,27345,27362,27379,27395,27412,27428,27445,27462,27479,27495,27512,27528,27545,27562,27579,27595,27612,27629,27645,27662,27678,27695,27712,27728,27745,27762,27779,27795,27812,27829,27845,27862,27879,27895,27912,27928,27945,27962,27978,27995,28012,28029,28045,28062,28079,28096,28112,28129,28146,28162,28178,28195,28212,28228,28246,28262,28279,28295,28312,28329,28345,28362,28379,28395,28412,28429,28445,28463,28478,28495,28512,28529,28545,28562,28579,28595,28612,28629,28645,28662,28678,28696,28713,28729,28745,28763,28779,28795,28812,28828,28845,28862,28878,28895,28912,28928,28945,28962,28979,28995,29012,29028,29045,29062,29079,29095,29112,29129,29145,29162,29179,29195,29212,29229,29246,29262,29278,29295,29312,29329,29345,29362,29378,29395,29412,29428,29445,29462,29479,29495,29512,29529,29545,29562,29578,29595,29612,29628,29645,29663,29679,29695,29712,29729,29745,29762,29779,29795,29812,29829,29845,29862,29878,29895,29913,29929,29945,29962,29979,29995,30012,30029,30045,30062,30078,30096,30112,30129,30146,30162,30178,30195,30212,30228,30245,30262,30279,30295,30312,30329,30345,30362,30378,30395,30412,30429,30445,30462,30478,30495,30512,30529,30545,30562,30578,30595,30612,30629,30645,30662,30679,30695,30712,30729,30745,30762,30778,30795,30812,30828,30845,30862,30879,30895,30912,30930,30946,30962,30979,30996,31013,31029,31045,31063,31079,31096,31113,31131,31146,31162,31179,31195,31212,31229,31245,31262,31278,31296,31313,31329,31346,31362,31379,31396,31412,31429,31446,31462,31479,31495,31513,31529,31545,31562,31578,31595,31612,31628,31645,31662,31678,31695,31712,31728,31745,31762,31778,31795,31812,31828,31845,31862,31879,31895,31912,31928,31945,31962,31979,31995,32012,32028,32045,32062,32079,32095,32112,32129,32145,32162,32179,32195,32212,32228,32245,32262,32279,32295,32312,32328,32345,32362,32379,32396,32413,32429,32446,32463,32479,32496,32513,32530,32546,32563,32580,32596,32613,32629,32646,32663,32680,32696,32713,32730,32746,32763,32779,32796,32813,32830,32846,32864,32879,32896,32912,32929,32946,32962,32978,32995,33012,33028,33045,33062,33078,33095,33112,33129,33145,33162,33179,33195,33212,33228,33245,33262,33279,33295,33312,33329,33345,33362,33379,33395,33412,33429,33446,33463,33479,33495,33512,33528,33545,33562,33579,33595,33612,33629,33645,33662,33678,33695,33712,33729,33745,33762,33778,33795,33812,33829,33845,33862,33878,33895,33912,33929,33945,33962,33978,33995,34012,34029,34045,34062,34079,34095,34112,34128,34145,34162,34178,34195,34212,34229,34247,34263,34279,34295,34312,34329,34345,34362,34379,34395,34412,34429,34445,34462,34479,34495,34512,34528,34545,34562,34579,34595,34612,34629,34645,34662,34679,34695,34712,34729,34745,34762,34779,34795,34812,34829,34845,34862,34880,34895,34912,34929,34945,34962,34978,34995,35012,35028,35045,35062,35079,35095,35112,35129,35145,35163,35179,35196,35213,35229,35246,35262,35280,35296,35313,35330,35346,35364,35379,35396,35413,35429,35446,35463,35479,35495,35512,35530,35546,35563,35580,35596,35612,35629,35645,35662,35679,35695,35712,35728,35745,35762,35778,35795,35812,35828,35845,35862,35879,35895,35912,35928,35945,35962,35979,35995,36013,36029,36046,36063,36079,36096,36113,36129,36146,36163,36179,36195,36212,36229,36245,36262,36279,36296,36312,36330,36346,36362,36379,36396,36412,36429,36445,36462,36479,36496,36512,36529,36546,36562,36579,36596,36612,36629,36645,36663,36679,36696,36713,36729,36745,36762,36779,36795,36812,36829,36846,36862,36879,36896,36912,36929,36946,36962,36979,36995,37012,37029,37045,37062,37079,37095,37112,37129,37145,37162,37179,37195,37212,37229,37245,37262,37279,37295,37312,37329,37345,37362,37379,37395,37412,37429,37445,37462,37479,37495,37512,37529,37545,37562,37579,37595,37612,37629,37645,37662,37679,37695,37712,37729,37746,37762,37779,37796,37812,37829,37846,37862,37879,37896,37912,37929,37946,37963,37979,37996,38012,38029,38046,38062,38079,38096,38112,38129,38146,38162,38178,38195,38212,38228,38246,38263,38279,38296,38313,38329,38346,38362,38378,38395,38412,38428,38445,38462,38478,38495,38512,38528,38545,38562,38578,38595,38612,38629,38645,38662,38679,38695,38712,38729,38745,38762,38779,38795,38812,38829,38845,38862,38879,38895,38912,38929,38945,38962,38979,38996,39012,39028,39045,39062,39079,39096,39112,39129,39145,39162,39179,39195,39212,39229,39245,39262,39278,39295,39312,39328,39345,39362,39379,39396,39412,39429,39445,39463,39479,39495,39512,39529,39545,39562,39578,39595,39612,39629,39646,39662,39679,39695,39712,39729,39745,39762,39778,39795,39812,39828,39845,39862,39879,39895,39912,39929,39945,39962,39979,39996,40013,40029,40046,40063,40079,40095,40112,40129,40145,40162,40179,40195,40212,40229,40245,40262,40279,40296,40312,40329,40346,40362,40379,40396,40412,40429,40445,40462,40479,40496,40513,40529,40545,40562,40579,40595,40613,40629,40645,40662,40678,40695,40712,40729,40745,40762,40779,40795,40812,40828,40845,40862,40879,40895,40912,40929,40945,40962,40979,40995,41013,41029,41045,41062,41078,41095,41112,41129,41145,41162,41178,41195,41212,41228,41245,41262,41279,41295,41312,41329,41346,41362,41379,41395,41412,41429,41445,41462,41479,41495,41512,41529,41545,41562,41579,41595,41612,41629,41646,41662,41679,41696,41712,41729,41746,41763,41779,41796,41812,41829,41846,41862,41879,41896,41912,41929,41946,41963,41979,41996,42012,42029,42046,42063,42079,42095,42112,42129,42145,42162,42179,42195,42212,42229,42245,42262,42279,42296,42313,42329,42347,42363,42379,42395,42412,42429,42445,42462,42479,42495,42512,42529,42546,42562,42579,42595,42612,42628,42645,42662,42678,42695,42712,42729,42745,42762,42779,42795,42812,42829,42845,42862,42879,42896,42912,42929,42945,42962,42979,42995,43012,43029,43046,43062,43079,43095,43112,43129,43146,43162,43179,43195,43212,43229,43245,43262,43279,43295,43312,43329,43345,43363,43379,43395,43412,43429,43446,43462,43479,43496,43512,43529,43545,43562,43579,43595,43612,43629,43645,43662,43679,43696,43712,43729,43746,43762,43779,43795,43812,43829,43845,43862,43879,43895,43912,43929,43945,43962,43979,43995,44012,44029,44045,44062,44079,44095,44112,44129,44145,44162,44179,44195,44212,44229,44245,44262,44279,44295,44312,44329,44345,44362,44379,44395,44412,44429,44446,44464,44479,44495,44513,44529,44546,44562,44579,44595,44612,44629,44645,44662,44679,44696,44712,44729,44745,44762,44779,44796,44812,44829,44845,44862,44879,44895,44912,44929,44946,44962,44979,44996,45012,45030,45046,45062,45079,45102,45129,45145,45162,45179,45195,45212,45229,45245,45262,45279,45295,45312,45329,45345,45362,45378,45395,45412,45429,45445,45462,45479,45495,45512,45529,45545,45562,45578,45595,45612,45628,45645,45662,45678,45695,45712,45729,45745,45762,45779,45795,45812,45829,45846,45863,45879,45896,45912,45931,45946,45963,45979,45996,46013,46029,46046,46062,46079,46096,46112,46129,46146,46162,46179,46196,46212,46229,46246,46262,46279,46296,46312,46329,46346,46363,46379,46396,46412,46429,46445,46462,46479,46496,46512,46529,46545,46562,46579,46596,46612,46629,46645,46662,46679,46695,46712,46729,46745,46762,46779,46795,46812,46829,46845,46862,46879,46895,46912,46929,46945,46962,46980,46996,47013,47029,47046,47062,47079,47095,47112,47129,47145,47162,47179,47195,47212,47229,47245,47262,47279,47295,47312,47329,47346,47362,47379,47396,47413,47429,47446,47463,47479,47496,47512,47529,47546,47563,47579,47596,47613,47629,47646,47662,47680,47696,47712,47729,47746,47762,47779,47796,47812,47829,47845,47862,47879,47895,47912,47929,47945,47962,47979,47995,48012,48029,48046,48062,48079,48095,48112,48129,48145,48162,48179,48195,48212,48229,48245,48262,48279,48295,48312,48329,48345,48362,48379,48396,48412,48429,48445,48462,48479,48495,48512,48529,48545,48562,48579,48595,48612,48629,48645,48662,48679,48695,48712,48729,48746,48762,48779,48795,48812,48829,48846,48863,48879,48896,48913,48929,48946,48962,48979,48996,49015,49029,49046,49062,49079,49096,49112,49129,49145,49162,49179,49196,49212,49229,49246,49262,49279,49295,49312,49329,49345,49362,49379,49395,49412,49429,49445,49462,49479,49496,49512,49529,49545,49562,49578,49595,49612,49629,49645,49662,49679,49695,49712,49729,49745,49762,49779,49795,49812,49829,49845,49862,49879,49896,49912,49929,49946,49962,49979,49996,50012,50029,50045,50062,50079,50096,50112,50129,50145,50162,50179,50195,50212,50229,50245,50262,50279,50295,50313,50329,50346,50362,50378,50395,50412,50428,50445,50462,50479,50495,50512,50529,50545,50562,50579,50595,50612,50629,50645,50662,50679,50695,50712,50729,50745,50762,50779,50795,50812,50829,50845,50862,50879,50895,50912,50929,50945,50962,50979,50996,51012,51029,51045,51062,51079,51096,51112,51129,51146,51163,51179,51196,51212,51229,51246,51262,51279,51296,51312,51329,51346,51363,51379,51396,51412,51429,51446,51463,51479,51496,51512,51529,51546,51563,51579,51596,51613,51633,51646,51662,51679,51696,51712,51729,51745,51762,51779,51795,51812,51829,51845,51862,51879,51895,51912,51929,51946,51962,51979,51996,52012,52029,52046,52063,52079,52095,52112,52129,52145,52162,52178,52195,52212,52229,52245,52262,52279,52296,52312,52329,52346,52362,52379,52396,52412,52429,52446,52462,52479,52495,52512,52529,52545,52562,52579,52595,52612,52629,52645,52662,52679,52695,52712,52729,52745,52762,52779,52795,52812,52829,52845,52862,52879,52896,52912,52929,52946,52964,52979,52996,53012,53029,53045,53062,53079,53095,53112,53129,53146,53162,53179,53195,53212,53229,53245,53262,53279,53295,53312,53329,53345,53362,53379,53395,53412,53429,53445,53462,53479,53495,53512,53529,53545,53562,53579,53595,53612,53629,53645,53662,53679,53696,53712,53729,53745,53762,53779,53795,53812,53829,53845,53862,53879,53895,53912,53929,53945,53962,53979,53995,54012,54029,54045,54062,54079,54095,54112,54129,54146,54162,54179,54195,54212,54229,54246,54262,54279,54296,54312,54329,54345,54362,54379,54395,54412,54429,54445,54462,54479,54496,54512,54529,54545,54562,54579,54595,54612,54629,54646,54662,54679,54696,54712,54729,54745,54763,54779,54796,54812,54829,54846,54862,54879,54896,54912,54929,54946,54962,54979,54996,55012,55029,55046,55063,55079,55096,55112,55129,55146,55163,55180,55196,55212,55229,55246,55263,55279,55296,55312,55329,55346,55363,55379,55396,55413,55429,55446,55463,55479,55496,55512,55529,55546,55562,55579,55596,55614,55629,55645,55662,55679,55695,55712,55729,55745,55762,55779,55795,55812,55829,55845,55862,55879,55895,55912,55929,55945,55962,55979,55996,56012,56029,56045,56062,56079,56095,56112,56129,56146,56162,56179,56195,56212,56229,56245,56262,56279,56295,56312,56329,56346,56362,56379,56396,56413,56429,56446,56463,56479,56496,56512,56529,56546,56562,56579,56596,56612,56629,56646,56662,56679,56695,56712,56729,56745,56762,56779,56796,56813,56829,56846,56862,56879,56895,56912,56930,56946,56963,56979,56996,57013,57029,57046,57062,57079,57096,57113,57129,57146,57163,57179,57196,57213,57229,57246,57262,57279,57296,57312,57329,57346,57362,57379,57396,57413,57429,57446,57463,57479,57496,57512,57529,57545,57562,57579,57595,57612,57629,57646,57662,57679,57695,57713,57729,57746,57762,57779,57796,57812,57829,57846,57862,57879,57895,57912,57929,57945,57962,57979,57996,58012,58029,58045,58062,58079,58095,58112,58129,58146,58162,58179,58195,58212,58229,58246,58262,58279,58295,58312,58329,58345,58362,58379,58395,58412,58429,58445,58462,58479,58495,58512,58529,58545,58562,58579,58596,58612,58629,58645,58662,58679,58696,58712,58729,58745,58762,58779,58795,58812,58829,58845,58862,58879,58896,58912,58929,58946,58962,58979,58995,59012,59029,59045,59062,59079,59095,59112,59129,59145,59162,59179,59196,59212,59229,59245,59262,59279,59295,59312,59329,59345,59362,59379,59395,59412,59429,59445,59462,59479,59495,59512,59529,59545,59562,59580,59596,59612,59629,59645,59662,59679,59695,59712,59729,59746,59762,59779,59795,59812,59829,59845,59862,59879,59895,59912,59929,59946,59962,59979,59995,60012,60029,60046,60062,60079,60096,60112,60129,60145,60162,60179,60195,60212,60229,60245,60262,60279,60295,60312,60329,60346,60362,60379,60395,60412,60429,60446,60462,60479,60495,60512,60529,60545,60562,60579,60595,60612,60629,60645,60662,60679,60696,60712,60729,60745,60762,60779,60795,60812,60829,60846,60862,60879,60895,60912,60930,60946,60962,60979,60995,61012,61029,61045,61062,61079,61095,61112,61129,61145,61162,61179,61195,61212,61229,61246,61262,61279,61295,61312,61329,61345,61362,61379,61395,61412,61429,61446,61462,61479,61495,61512,61529,61545,61562,61579,61595,61612,61629,61645,61662,61679,61695,61712,61729,61746,61762,61779,61795,61812,61829,61846,61862,61879,61895,61912,61929,61945,61962,61979,61995,62012,62029,62046,62062,62079,62096,62112,62129,62146,62162,62179,62195,62212,62229,62245,62263,62279,62296,62312,62329,62345,62362,62379,62395,62412,62429,62445,62462,62479,62495,62512,62529,62545,62562,62579,62596,62612,62629,62645,62662,62679,62696,62712,62729,62746,62762,62779,62795,62812,62829,62845,62862,62879,62895,62912,62929,62946,62962,62979,62996,63012,63029,63045,63062,63079,63095,63112,63129,63145,63162,63179,63195,63212,63229,63246,63262,63279,63296,63312,63329,63345,63362,63379,63395,63412,63429,63445,63462,63479,63496,63512,63529,63546,63562,63579,63597,63612,63629,63645,63662,63679,63695,63712,63729,63746,63762,63779,63795,63812,63829,63845,63862,63879,63895,63912,63929,63945,63962,63979,63996,64012,64029,64045,64062,64079,64095,64112,64129,64145,64162,64179,64195,64212,64229,64246,64262,64279,64296,64312,64329,64346,64362,64379,64395,64412,64429,64445,64462,64479,64496,64512,64529,64546,64562,64579,64595,64612,64629,64645,64662,64679,64696,64712,64729,64746,64762,64779,64796,64812,64829,64845,64862,64879,64895,64912,64929,64946,64962,64979,64995,65012,65029,65045,65062,65079,65095,65112,65129,65145,65162,65179,65195,65212,65229,65245,65262,65279,65295,65312,65329,65346,65362,65379,65395,65412,65429,65445,65462,65479,65496,65512,65529,65545,65562,65579,65595,65612,65629,65645,65662,65679,65695,65712,65729,65746,65762,65779,65795,65812,65829,65845,65862,65879,65895,65912,65929,65946,65962,65979,65995,66012,66029,66045,66062,66079,66095,66112,66129,66146,66162,66179,66195,66212,66229,66245,66262,66279,66296,66312,66329,66346,66362,66379,66395,66412,66429,66445,66463,66479,66495,66512,66529,66546,66562,66579,66595,66612,66629,66646,66662,66679,66695,66712,66729,66746,66762,66779,66795,66812,66829,66845,66862,66879,66895,66912,66929,66946,66962,66979,66995,67012,67029,67045,67062,67079,67096,67112,67129,67146,67162,67179,67196,67212,67229,67245,67262,67279,67295,67312,67329,67346,67362,67379,67395,67412,67429,67445,67462,67479,67495,67512,67529,67545,67562,67579,67595,67612,67630,67646,67662,67679,67695,67712,67729,67746,67762,67779,67795,67812,67829,67845,67862,67879,67895,67912,67929,67945,67962,67979,67995,68012,68029,68045,68062,68079,68095,68112,68129,68146,68162,68179,68196,68212,68229,68245,68262,68279,68296,68312,68329,68346,68362,68379,68395,68412,68429,68446,68462,68479,68496,68512,68529,68545,68562,68579,68595,68612,68629,68645,68662,68679,68696,68712,68729,68746,68762,68779,68795,68812,68829,68845,68862,68879,68895,68912,68929,68946,68963,68979,68995,69012,69029,69045,69062,69079,69095,69112,69129,69145,69162,69179,69195,69212,69229,69245,69262,69279,69296,69312,69329,69345,69363,69379,69396,69412,69429,69445,69462,69479,69495,69512,69529,69546,69562,69579,69596,69612,69629,69646,69662,69679,69696,69712,69729,69745,69762,69779,69796,69812,69829,69846,69862,69879,69895,69913,69929,69945,69962,69979,69996,70012,70029,70046,70062,70079,70096,70112,70129,70146,70162,70179,70196,70212,70229,70245,70262,70279,70297,70312,70329,70345,70362,70379,70396,70412,70429,70445,70462,70479,70495,70512,70529,70545,70562,70579,70596,70612,70629,70646,70662,70679,70696,70712,70729,70745,70762,70779,70796,70812,70829,70846,70862,70879,70896,70912,70929,70946,70962,70979,70996,71012,71029,71046,71062,71079,71096,71112,71129,71146,71162,71179,71196,71212,71229,71245,71262,71279,71295,71312,71329,71346,71362,71379,71396,71413,71429,71446,71462,71479,71495,71512,71529,71546,71562,71579,71596,71612,71629,71646,71663,71679,71696,71712,71729,71746,71762,71779,71796,71812,71829,71845,71862,71879,71896,71912,71929,71946,71962,71979,71996,72013,72029,72046,72062,72079,72096,72112,72129,72146,72162,72179,72196,72212,72229,72246,72262,72279,72296,72312,72329,72346,72362,72379,72396,72412,72429,72446,72462,72479,72496,72512,72529,72546,72562,72579,72596,72612,72629,72646,72662,72679,72696,72712,72729,72746,72762,72779,72796,72813,72829,72846,72862,72879,72896,72912,72929,72946,72962,72979,72996,73013,73029,73046,73062,73079,73096,73112,73129,73146,73162,73179,73196,73212,73229,73246,73262,73279,73296,73312,73329,73346,73362,73379,73396,73412,73429,73446,73463,73479,73496,73512,73529,73546,73562,73579,73596,73612,73629,73646,73663,73679,73696,73712,73729,73746,73762,73779,73796,73812,73829,73846,73862,73879,73896,73912,73929,73946,73962,73979,73996,74012,74029,74046,74063,74079,74096,74112,74129,74146,74162,74179,74196,74212,74229,74246,74262,74279,74296,74312,74329,74346,74362,74379,74396,74412,74429,74446,74462,74479,74496,74512,74529,74546,74562,74579,74596,74612,74629,74646,74662,74679,74696,74712,74729,74746,74762,74779,74795,74812,74829,74846,74862,74879,74896,74912,74929,74946,74962,74979,74996,75013,75029,75045,75062,75079,75096,75112,75129,75146,75162,75179,75196,75212,75229,75246,75262,75279,75296,75312,75329,75346,75362,75379,75396,75412,75429,75446,75462,75479,75496,75513,75529,75546,75562,75579,75596,75612,75629,75646,75662,75679,75696,75712,75729,75745,75762,75779,75796,75812,75829,75846,75862,75879,75896,75912,75929,75946,75962,75979,75996,76012,76029,76046,76063,76079,76096,76112,76129,76146,76162,76179,76196,76212,76229,76246,76262,76279,76296,76312,76329,76346,76362,76379,76395,76412,76429,76446,76462,76479,76496,76512,76529,76546,76562,76579,76596,76612,76629,76646,76662,76679,76696,76712,76729,76746,76762,76779,76796,76812,76829,76846,76862,76881,76896,76912,76929,76946,76962,76979,76996,77012,77029,77046,77062,77079,77096,77112,77129,77146,77163,77179,77195,77212,77229,77246,77262,77279,77296,77312,77329,77346,77363,77379,77396,77412,77429,77446,77462,77479,77496,77512,77529,77546,77562,77579,77596,77613,77629,77646,77662,77679,77696,77712,77729,77746,77762,77779,77796,77812,77829,77846,77863,77879,77896,77912,77929,77946,77963,77979,77996,78012,78029,78046,78062,78079,78096,78112,78129,78146,78162,78179,78196,78213,78229,78246,78262,78279,78295,78312,78329,78346,78362,78379,78396,78413,78430,78446,78463,78479,78496,78513,78529,78546,78563,78579,78596,78613,78630,78646,78663,78679,78696,78713,78729,78746,78763,78779,78796,78813,78829,78846,78862,78879,78896,78913,78930,78946,78963,78979,78996,79013,79029,79046,79063,79079,79096,79112,79129,79147,79162,79180,79196,79212,79229,79246,79262,79279,79296,79313,79329,79346,79363,79379,79396,79412,79429,79446,79462,79479,79496,79512,79529,79546,79563,79579,79596,79612,79629,79646,79662,79679,79696,79712,79729,79746,79762,79779,79796,79812,79829,79846,79862,79879,79896,79912,79929,79946,79962,79979,79996,80012,80029,80046,80062,80079,80096,80112,80129,80146,80162,80179,80196,80212,80229,80246,80262,80279,80296,80313,80329,80346,80363,80379,80395,80412,80429,80446,80462,80479,80496,80512,80529,80546,80562,80579,80596,80612,80629,80647,80663,80680,80696,80713,80730,80747,80763,80780,80796,80813,80829,80846,80863,80883,80897,80913,80930,80946,80963,80980,80996,81012,81029,81046,81062,81079,81096,81112,81129,81146,81162,81179,81196,81212,81229,81246,81262,81279,81297,81313,81329,81346,81363,81379,81396,81412,81429,81446,81462,81479,81496,81512,81529,81546,81563,81579,81596,81613,81629,81646,81662,81679,81696,81712,81729,81746,81762,81779,81796,81813,81829,81846,81862,81879,81896,81912,81929,81946,81962,81979,81996,82012,82029,82046,82062,82080,82096,82113,82129,82146,82163,82180,82196,82214,82229,82246,82262,82279,82296,82313,82329,82346,82362,82379,82396,82412,82429,82446,82463,82479,82496,82513,82529,82546,82563,82580,82596,82613,82630,82646,82663,82679,82696,82713,82730,82746,82763,82779,82796,82813,82829,82846,82863,82879,82896,82913,82930,82946,82963,82980,82996,83013,83029,83046,83062,83079,83096,83112,83129,83146,83163,83179,83196,83213,83229,83246,83262,83279,83296,83312,83329,83346,83363,83379,83396,83412,83429,83446,83463,83479,83496,83512,83530,83546,83563,83579,83596,83613,83629,83646,83663,83680,83697,83713,83729,83746,83763,83779,83796,83813,83830,83847,83863,83880,83897,83913,83929,83946,83963,83979,83996,84013,84029,84046,84062,84079,84096,84112,84129,84146,84163,84179,84196,84213,84230,84247,84263,84280,84296,84313,84330,84347,84363,84380,84397,84413,84430,84447,84463,84480,84496,84513,84530,84546,84563,84580,84596,84613,84630,84646,84663,84679,84696,84713,84729,84746,84763,84780,84796,84813,84830,84846,84863,84879,84896,84912,84929,84946,84963,84979,84996,85013,85029,85046,85062,85079,85096,85112,85129,85146,85162,85179,85196,85212,85229,85246,85263,85279,85296,85313,85329,85346,85363,85379,85396,85412,85429,85446,85462,85479,85496,85512,85529,85546,85562,85579,85596,85612,85629,85646,85663,85679,85696,85713,85730,85747,85763,85779,85796,85813,85829,85846,85863,85880,85896,85913,85929,85946,85963,85980,85996,86013,86029,86046,86062,86079,86096,86113,86129,86146,86164,86179,86197,86213,86229,86247,86263,86280,86296,86313,86330,86346,86363,86380,86396,86413,86430,86447,86463,86480,86496,86513,86530,86546,86563,86579,86596,86613,86629,86646,86663,86680,86696,86712,86729,86746,86762,86783,86796,86813,86830,86846,86863,86880,86896,86913,86929,86946,86963,86979,86996,87013,87030,87046,87063,87080,87096,87112,87129,87146,87163,87179,87196,87213,87230,87246,87263,87280,87296,87313,87329,87346,87362,87379,87396,87414,87430,87446,87463,87479,87496,87513,87529,87546,87563,87579,87596,87613,87630,87646,87663,87680,87696,87713,87730,87746,87763,87780,87797,87813,87830,87847,87863,87879,87896,87913,87929,87946,87963,87979,87996,88013,88030,88046,88063,88079,88096,88113,88129,88146,88163,88179,88196,88213,88229,88246,88263,88280,88297,88313,88329,88346,88362,88379,88396,88413,88429,88446,88463,88479,88496,88513,88529,88546,88563,88579,88596,88612,88629,88646,88663,88679,88697,88713,88729,88746,88763,88781],"hit":[null],"x":[-2.693877551020408,-2.693877551020408,-2.693877551020408,-2.693877551020408,-2.693877551020408,-2.693877551020408,-2.693877551020408,-2.693877551020408,-2.693877551020408,-2.693877551020408,-2.693877551020408,-2.693877551020408,-2.693877551020408,-2.693877551020408,-2.693877551020408,-2.693877551020408,-2.693877551020408,-2.693877551020408,-2.693877551020408,-2.693877551020408,-2.693877551020408,-2.693877551020408,-2.693877551020408,-2.693877551020408,-2.693877551020408,-2.693877551020408,-2.693877551020408,-2.693877551020408,-2.693877551020408,-2.693877551020408,-2.693877551020408,-2.693877551020408,-2.693877551020408,-2.693877551020408,-2.693877551020408,-2.693877551020408,-2.693877551020408,-2.693877551020408,-2.693877551020408,-2.693877551020408,-1.2959183673469388,-1.251700680272109,-1.1496598639455782,-0.9047619047619048,-0.7108843537414966,-0.5408163265306123,-0.42517006802721086,-0.3401360544217687,-0.30272108843537415,-0.282312925170068,-0.2755102040816326,-0.272108843537415,-0.2687074829931973,-0.2619047619047619,-0.25170068027210885,-0.24149659863945577,-0.23809523809523808,-0.23469387755102042,-0.23469387755102042,-0.23469387755102042,-0.23469387755102042,-0.23469387755102042,-0.23469387755102042,-0.23469387755102042,-0.23469387755102042,-0.23469387755102042,-0.23469387755102042,-0.23469387755102042,-0.23469387755102042,-0.23469387755102042,-0.23469387755102042,-0.23469387755102042,-0.23469387755102042,-0.23469387755102042,-0.23469387755102042,-0.23809523809523808,-0.24149659863945577,-0.24829931972789115,-0.25170068027210885,-0.2585034013605442,-0.2619047619047619,-0.2619047619047619,-0.2687074829931973,-0.272108843537415,-0.2755102040816326,-0.2857142857142857,-0.29931972789115646,-0.30612244897959184,-0.3129251700680272,-0.3231292517006803,-0.32653061224489793,-0.336734693877551,-0.3469387755102041,-0.36054421768707484,-0.38095238095238093,-0.3979591836734694,-0.41156462585034015,-0.42857142857142855,-0.4489795918367347,-0.46598639455782315,-0.47959183673469385,-0.48299319727891155,-0.4931972789115646,-0.5,-0.5034013605442177,-0.5034013605442177,-0.5034013605442177,-0.5034013605442177,-0.5034013605442177,-0.5034013605442177,-0.5034013605442177,-0.5034013605442177,-0.5034013605442177,-0.5034013605442177,-0.5034013605442177,-0.5034013605442177,-0.5034013605442177,-0.5034013605442177,-0.5034013605442177,-0.5034013605442177,-0.5034013605442177,-0.5034013605442177,-0.5034013605442177,-0.5034013605442177,-0.5034013605442177,-0.5034013605442177,-0.5034013605442177,-0.5034013605442177,-0.5034013605442177,-0.5034013605442177,-0.5034013605442177,-0.5034013605442177,-0.5034013605442177,-0.5034013605442177,-0.4965986394557823,-0.48639455782312924,-0.47619047619047616,-0.46938775510204084,-0.4557823129251701,-0.43197278911564624,-0.42517006802721086,-0.41836734693877553,-0.41496598639455784,-0.41156462585034015,-0.3979591836734694,-0.3877551020408163,-0.38095238095238093,-0.3741496598639456,-0.35714285714285715,-0.3401360544217687,-0.3163265306122449,-0.2925170068027211,-0.2687074829931973,-0.23469387755102042,-0.20408163265306123,-0.17687074829931973,-0.14625850340136054,-0.11904761904761904,-0.08503401360544217,-0.05782312925170068,-0.04421768707482993,-0.027210884353741496,-0.01020408163265306,0.027210884353741496,0.07142857142857142,0.11224489795918367,0.14965986394557823,0.20068027210884354,0.25510204081632654,0.3163265306122449,0.38095238095238093,0.46938775510204084,0.5510204081632653,0.6122448979591837,0.6598639455782312,0.7006802721088435,0.7142857142857143,0.7278911564625851,0.7278911564625851,0.7312925170068028,0.7312925170068028,0.7312925170068028,0.7312925170068028,0.7312925170068028,0.7312925170068028,0.7312925170068028,0.7312925170068028,0.7312925170068028,0.7312925170068028,0.7312925170068028,0.7312925170068028,0.7312925170068028,0.7312925170068028,0.7312925170068028,0.7312925170068028,0.7312925170068028,0.7312925170068028,0.7312925170068028,0.7312925170068028,0.7312925170068028,0.7312925170068028,0.7312925170068028,0.7312925170068028,0.7312925170068028,0.7312925170068028,0.7312925170068028,0.7312925170068028,0.7312925170068028,0.7312925170068028,0.7312925170068028,0.7312925170068028,0.7312925170068028,0.7312925170068028,0.7312925170068028,0.7312925170068028,0.7312925170068028,0.7312925170068028,0.7312925170068028,0.7312925170068028,0.7312925170068028,0.7312925170068028,0.7312925170068028,0.7312925170068028,0.7312925170068028,0.7312925170068028,0.7312925170068028,0.7312925170068028,0.7414965986394558,0.7653061224489796,0.8095238095238095,0.8707482993197279,0.9387755102040817,1,1.0680272108843538,1.1122448979591837,1.1734693877551021,1.2108843537414966,1.2380952380952381,1.248299319727891,1.248299319727891,1.248299319727891,1.248299319727891,1.248299319727891,1.248299319727891,1.248299319727891,1.248299319727891,1.248299319727891,1.248299319727891,1.248299319727891,1.248299319727891,1.248299319727891,1.248299319727891,1.248299319727891,1.2380952380952381,1.2210884353741496,1.2108843537414966,1.2040816326530612,1.1904761904761905,1.1904761904761905,1.1802721088435375,1.1768707482993197,1.1734693877551021,1.1700680272108843,1.1666666666666667,1.1666666666666667,1.163265306122449,1.163265306122449,1.1598639455782314,1.1598639455782314,1.1598639455782314,1.1598639455782314,1.1598639455782314,1.1598639455782314,1.1598639455782314,1.153061224489796,1.1428571428571428,1.1394557823129252,1.1360544217687074,1.1258503401360545,1.1122448979591837,1.1020408163265305,1.0850340136054422,1.0748299319727892,1.0510204081632653,1.034013605442177,1.0170068027210883,0.9965986394557823,0.9727891156462585,0.9489795918367347,0.935374149659864,0.935374149659864,0.9285714285714286,0.9183673469387755,0.9081632653061225,0.9013605442176871,0.8809523809523809,0.8775510204081632,0.8707482993197279,0.8707482993197279,0.8605442176870748,0.8537414965986394,0.8469387755102041,0.8299319727891157,0.826530612244898,0.8163265306122449,0.8095238095238095,0.7959183673469388,0.7721088435374149,0.7517006802721088,0.7210884353741497,0.6802721088435374,0.6258503401360545,0.5918367346938775,0.5714285714285714,0.5680272108843537,0.564625850340136,0.564625850340136,0.5612244897959183,0.5612244897959183,0.5612244897959183,0.5612244897959183,0.5612244897959183,0.5612244897959183,0.5612244897959183,0.5612244897959183,0.5612244897959183,0.5612244897959183,0.5612244897959183,0.5612244897959183,0.5612244897959183,0.5612244897959183,0.5612244897959183,0.5612244897959183,0.5612244897959183,0.5612244897959183,0.5612244897959183,0.5612244897959183,0.5612244897959183,0.5612244897959183,0.5612244897959183,0.5612244897959183,0.5612244897959183,0.5612244897959183,0.5612244897959183,0.5612244897959183,0.5612244897959183,0.5612244897959183,0.5612244897959183,0.5612244897959183,0.5612244897959183,0.5612244897959183,0.5612244897959183,0.564625850340136,0.5680272108843537,0.5680272108843537,0.5714285714285714,0.5714285714285714,0.5748299319727891,0.5748299319727891,0.5782312925170068,0.5782312925170068,0.5816326530612245,0.5816326530612245,0.5816326530612245,0.5816326530612245,0.5816326530612245,0.5816326530612245,0.5816326530612245,0.5816326530612245,0.5816326530612245,0.5816326530612245,0.5816326530612245,0.5782312925170068,0.5680272108843537,0.5680272108843537,0.5612244897959183,0.5612244897959183,0.5612244897959183,0.5612244897959183,0.5612244897959183,0.5612244897959183,0.5612244897959183,0.5612244897959183,0.5612244897959183,0.5612244897959183,0.5612244897959183,0.5612244897959183,0.5612244897959183,0.5612244897959183,0.5612244897959183,0.5612244897959183,0.5612244897959183,0.5612244897959183,0.5612244897959183,0.5612244897959183,0.5612244897959183,0.5612244897959183,0.5612244897959183,0.5612244897959183,0.5612244897959183,0.5612244897959183,0.5612244897959183,0.5612244897959183,0.5612244897959183,0.5612244897959183,0.5612244897959183,0.5612244897959183,0.5612244897959183,0.5612244897959183,0.5612244897959183,0.5612244897959183,0.5612244897959183,0.5612244897959183,0.5612244897959183,0.5612244897959183,0.5612244897959183,0.5612244897959183,0.5612244897959183,0.5612244897959183,0.5612244897959183,0.5612244897959183,0.5612244897959183,0.5612244897959183,0.5612244897959183,0.5612244897959183,0.5612244897959183,0.5612244897959183,0.5612244897959183,0.5612244897959183,0.5612244897959183,0.5612244897959183,0.5612244897959183,0.5612244897959183,0.5612244897959183,0.5612244897959183,0.5612244897959183,0.5612244897959183,0.5612244897959183,0.5612244897959183,0.5612244897959183,0.5612244897959183,0.5612244897959183,0.5612244897959183,0.5612244897959183,0.5612244897959183,0.5612244897959183,0.5612244897959183,0.5612244897959183,0.5612244897959183,0.5612244897959183,0.5612244897959183,0.5612244897959183,0.5612244897959183,0.5612244897959183,0.5612244897959183,0.5612244897959183,0.5612244897959183,0.5612244897959183,0.5612244897959183,0.5612244897959183,0.5612244897959183,0.5612244897959183,0.5612244897959183,0.5612244897959183,0.5612244897959183,0.5612244897959183,0.5612244897959183,0.5612244897959183,0.5612244897959183,0.5612244897959183,0.5612244897959183,0.5612244897959183,0.5612244897959183,0.5612244897959183,0.5612244897959183,0.5612244897959183,0.5612244897959183,0.5612244897959183,0.5612244897959183,0.5612244897959183,0.5612244897959183,0.5612244897959183,0.5612244897959183,0.5612244897959183,0.5612244897959183,0.5612244897959183,0.5612244897959183,0.5612244897959183,0.5612244897959183,0.5612244897959183,0.5612244897959183,0.5612244897959183,0.5612244897959183,0.5612244897959183,0.5612244897959183,0.5612244897959183,0.5612244897959183,0.5612244897959183,0.5612244897959183,0.5612244897959183,0.5612244897959183,0.5612244897959183,0.5612244897959183,0.5612244897959183,0.5612244897959183,0.5612244897959183,0.5612244897959183,0.5612244897959183,0.5612244897959183,0.5612244897959183,0.5612244897959183,0.5612244897959183,0.5612244897959183,0.5612244897959183,0.5612244897959183,0.5612244897959183,0.5612244897959183,0.5612244897959183,0.5612244897959183,0.5612244897959183,0.5612244897959183,0.5612244897959183,0.5612244897959183,0.5612244897959183,0.5612244897959183,0.5612244897959183,0.564625850340136,0.564625850340136,0.5714285714285714,0.5782312925170068,0.5782312925170068,0.5782312925170068,0.5782312925170068,0.5782312925170068,0.5782312925170068,0.5782312925170068,0.5850340136054422,0.5884353741496599,0.5986394557823129,0.608843537414966,0.6224489795918368,0.6394557823129252,0.6530612244897959,0.6700680272108843,0.6802721088435374,0.6938775510204082,0.7108843537414966,0.7210884353741497,0.7278911564625851,0.7346938775510204,0.7380952380952381,0.7380952380952381,0.7448979591836735,0.7482993197278912,0.7517006802721088,0.7517006802721088,0.7517006802721088,0.7517006802721088,0.7517006802721088,0.7517006802721088,0.7517006802721088,0.7517006802721088,0.7517006802721088,0.7517006802721088,0.7482993197278912,0.7346938775510204,0.7142857142857143,0.6870748299319728,0.6462585034013606,0.5952380952380952,0.564625850340136,0.5340136054421769,0.5204081632653061,0.5068027210884354,0.4931972789115646,0.47959183673469385,0.46938775510204084,0.46938775510204084,0.46938775510204084,0.46938775510204084,0.46938775510204084,0.46938775510204084,0.46938775510204084,0.4897959183673469,0.5272108843537415,0.5884353741496599,0.6632653061224489,0.7210884353741497,0.7721088435374149,0.8299319727891157,0.8809523809523809,0.9183673469387755,0.9455782312925171,0.9591836734693877,0.9727891156462585,0.9931972789115646,1.010204081632653,1.0170068027210883,1.0204081632653061,1.0238095238095237,1.0238095238095237,1.0238095238095237,1.0238095238095237,1.0272108843537415,1.0374149659863945,1.0408163265306123,1.0510204081632653,1.0714285714285714,1.0782312925170068,1.0850340136054422,1.0918367346938775,1.0952380952380953,1.1054421768707483,1.1156462585034013,1.129251700680272,1.129251700680272,1.1326530612244898,1.1326530612244898,1.1326530612244898,1.1326530612244898,1.1326530612244898,1.1326530612244898,1.1326530612244898,1.1326530612244898,1.1326530612244898,1.1326530612244898,1.1326530612244898,1.1326530612244898,1.1326530612244898,1.1326530612244898,1.1326530612244898,1.1326530612244898,1.1326530612244898,1.1326530612244898,1.1326530612244898,1.1326530612244898,1.1326530612244898,1.1326530612244898,1.1326530612244898,1.1326530612244898,1.1326530612244898,1.1326530612244898,1.1326530612244898,1.1326530612244898,1.1326530612244898,1.1326530612244898,1.1326530612244898,1.1326530612244898,1.1326530612244898,1.1326530612244898,1.1326530612244898,1.1326530612244898,1.1326530612244898,1.1326530612244898,1.1326530612244898,1.1326530612244898,1.1326530612244898,1.1326530612244898,1.1326530612244898,1.1326530612244898,1.1326530612244898,1.1326530612244898,1.1326530612244898,1.1326530612244898,1.1326530612244898,1.1326530612244898,1.1326530612244898,1.1326530612244898,1.1326530612244898,1.1326530612244898,1.1326530612244898,1.1326530612244898,1.1326530612244898,1.1326530612244898,1.1326530612244898,1.1326530612244898,1.1326530612244898,1.1326530612244898,1.1326530612244898,1.1326530612244898,1.1326530612244898,1.1326530612244898,1.1326530612244898,1.1326530612244898,1.1326530612244898,1.1326530612244898,1.1326530612244898,1.1326530612244898,1.1326530612244898,1.1326530612244898,1.1326530612244898,1.1326530612244898,1.1326530612244898,1.1326530612244898,1.1326530612244898,1.1326530612244898,1.1326530612244898,1.1326530612244898,1.1326530612244898,1.1326530612244898,1.1326530612244898,1.1326530612244898,1.1326530612244898,1.1326530612244898,1.1326530612244898,1.1326530612244898,1.1326530612244898,1.1326530612244898,1.1326530612244898,1.1326530612244898,1.1326530612244898,1.1326530612244898,1.1326530612244898,1.1326530612244898,1.1326530612244898,1.1326530612244898,1.1326530612244898,1.1326530612244898,1.1326530612244898,1.1326530612244898,1.1326530612244898,1.1326530612244898,1.1326530612244898,1.1326530612244898,1.1326530612244898,1.129251700680272,1.129251700680272,1.1258503401360545,1.1224489795918366,1.1224489795918366,1.1224489795918366,1.1224489795918366,1.119047619047619,1.1156462585034013,1.1054421768707483,1.0918367346938775,1.064625850340136,1.0170068027210883,0.95578231292517,0.891156462585034,0.7959183673469388,0.7517006802721088,0.7244897959183674,0.6904761904761905,0.6598639455782312,0.6190476190476191,0.5850340136054422,0.564625850340136,0.5544217687074829,0.5408163265306123,0.5306122448979592,0.5170068027210885,0.48639455782312924,0.45918367346938777,0.41496598639455784,0.3673469387755102,0.3435374149659864,0.336734693877551,0.336734693877551,0.336734693877551,0.3333333333333333,0.32653061224489793,0.3197278911564626,0.3163265306122449,0.3129251700680272,0.30612244897959184,0.29931972789115646,0.29591836734693877,0.2857142857142857,0.2789115646258503,0.2619047619047619,0.23809523809523808,0.22789115646258504,0.21428571428571427,0.20748299319727892,0.19387755102040816,0.1836734693877551,0.18027210884353742,0.17346938775510204,0.17006802721088435,0.1564625850340136,0.14965986394557823,0.14285714285714285,0.1360544217687075,0.1360544217687075,0.1292517006802721,0.1292517006802721,0.12585034013605442,0.12585034013605442,0.12585034013605442,0.12585034013605442,0.12585034013605442,0.12585034013605442,0.12585034013605442,0.12585034013605442,0.12585034013605442,0.12585034013605442,0.12585034013605442,0.12585034013605442,0.12585034013605442,0.12585034013605442,0.12585034013605442,0.12585034013605442,0.12585034013605442,0.12585034013605442,0.12585034013605442,0.12585034013605442,0.12585034013605442,0.12585034013605442,0.12585034013605442,0.12585034013605442,0.12585034013605442,0.12585034013605442,0.12585034013605442,0.12585034013605442,0.12585034013605442,0.12585034013605442,0.12585034013605442,0.12585034013605442,0.12585034013605442,0.12585034013605442,0.12585034013605442,0.12585034013605442,0.12585034013605442,0.12585034013605442,0.12585034013605442,0.12585034013605442,0.12585034013605442,0.12585034013605442,0.12585034013605442,0.12585034013605442,0.12585034013605442,0.12585034013605442,0.12585034013605442,0.12585034013605442,0.12585034013605442,0.12585034013605442,0.12585034013605442,0.12585034013605442,0.12585034013605442,0.12585034013605442,0.12585034013605442,0.12585034013605442,0.12585034013605442,0.12585034013605442,0.12585034013605442,0.12585034013605442,0.12585034013605442,0.12585034013605442,0.12585034013605442,0.12585034013605442,0.12585034013605442,0.12585034013605442,0.12585034013605442,0.12585034013605442,0.12585034013605442,0.12585034013605442,0.12585034013605442,0.12585034013605442,0.12585034013605442,0.12585034013605442,0.12585034013605442,0.12585034013605442,0.12585034013605442,0.12585034013605442,0.12585034013605442,0.12585034013605442,0.12585034013605442,0.12585034013605442,0.12585034013605442,0.12585034013605442,0.12585034013605442,0.12585034013605442,0.12585034013605442,0.12585034013605442,0.12585034013605442,0.12585034013605442,0.12585034013605442,0.12585034013605442,0.12585034013605442,0.12585034013605442,0.12585034013605442,0.12585034013605442,0.12585034013605442,0.12585034013605442,0.12585034013605442,0.12585034013605442,0.1360544217687075,0.16326530612244897,0.19387755102040816,0.22448979591836735,0.2585034013605442,0.2925170068027211,0.30952380952380953,0.3197278911564626,0.32653061224489793,0.3469387755102041,0.35714285714285715,0.36054421768707484,0.36394557823129253,0.36394557823129253,0.36394557823129253,0.36394557823129253,0.36394557823129253,0.36394557823129253,0.36394557823129253,0.36394557823129253,0.3673469387755102,0.3673469387755102,0.3707482993197279,0.3741496598639456,0.38095238095238093,0.3843537414965986,0.3877551020408163,0.3877551020408163,0.391156462585034,0.391156462585034,0.391156462585034,0.391156462585034,0.391156462585034,0.391156462585034,0.391156462585034,0.391156462585034,0.391156462585034,0.391156462585034,0.391156462585034,0.391156462585034,0.391156462585034,0.391156462585034,0.391156462585034,0.391156462585034,0.3945578231292517,0.3979591836734694,0.4013605442176871,0.4013605442176871,0.4013605442176871,0.4013605442176871,0.4013605442176871,0.4013605442176871,0.4013605442176871,0.4013605442176871,0.4013605442176871,0.4013605442176871,0.4013605442176871,0.4013605442176871,0.4013605442176871,0.4013605442176871,0.4013605442176871,0.3877551020408163,0.36394557823129253,0.35034013605442177,0.3333333333333333,0.3129251700680272,0.30952380952380953,0.30612244897959184,0.30612244897959184,0.30612244897959184,0.30612244897959184,0.30612244897959184,0.30272108843537415,0.30272108843537415,0.30272108843537415,0.30272108843537415,0.30272108843537415,0.30272108843537415,0.30272108843537415,0.30272108843537415,0.30272108843537415,0.30272108843537415,0.30272108843537415,0.30272108843537415,0.30272108843537415,0.30272108843537415,0.30272108843537415,0.30272108843537415,0.30272108843537415,0.30272108843537415,0.30272108843537415,0.30272108843537415,0.30272108843537415,0.30272108843537415,0.30272108843537415,0.30272108843537415,0.30272108843537415,0.30272108843537415,0.30272108843537415,0.30272108843537415,0.30272108843537415,0.30272108843537415,0.30272108843537415,0.30272108843537415,0.30272108843537415,0.30272108843537415,0.30272108843537415,0.30272108843537415,0.30272108843537415,0.30272108843537415,0.30272108843537415,0.30272108843537415,0.30272108843537415,0.30272108843537415,0.30272108843537415,0.30272108843537415,0.30272108843537415,0.30272108843537415,0.30272108843537415,0.30272108843537415,0.30272108843537415,0.30272108843537415,0.30272108843537415,0.30272108843537415,0.30272108843537415,0.30272108843537415,0.30272108843537415,0.30272108843537415,0.30272108843537415,0.30272108843537415,0.30272108843537415,0.30272108843537415,0.30272108843537415,0.30272108843537415,0.30272108843537415,0.3129251700680272,0.3401360544217687,0.36394557823129253,0.3877551020408163,0.3979591836734694,0.41496598639455784,0.42857142857142855,0.42857142857142855,0.42857142857142855,0.42857142857142855,0.42857142857142855,0.42857142857142855,0.42857142857142855,0.42857142857142855,0.42857142857142855,0.42857142857142855,0.42857142857142855,0.42857142857142855,0.42857142857142855,0.42857142857142855,0.42857142857142855,0.42857142857142855,0.42857142857142855,0.42857142857142855,0.42857142857142855,0.42857142857142855,0.42857142857142855,0.42857142857142855,0.42857142857142855,0.42857142857142855,0.42857142857142855,0.42857142857142855,0.42857142857142855,0.42857142857142855,0.42857142857142855,0.42857142857142855,0.42857142857142855,0.42857142857142855,0.42857142857142855,0.42857142857142855,0.42857142857142855,0.42857142857142855,0.42857142857142855,0.42857142857142855,0.42857142857142855,0.42857142857142855,0.42857142857142855,0.42857142857142855,0.42857142857142855,0.42857142857142855,0.42857142857142855,0.42857142857142855,0.42857142857142855,0.42857142857142855,0.42857142857142855,0.42517006802721086,0.42517006802721086,0.42517006802721086,0.42517006802721086,0.42517006802721086,0.42517006802721086,0.42517006802721086,0.42517006802721086,0.4217687074829932,0.4217687074829932,0.4217687074829932,0.4217687074829932,0.4217687074829932,0.4217687074829932,0.4217687074829932,0.4217687074829932,0.4217687074829932,0.4217687074829932,0.41836734693877553,0.4217687074829932,0.43197278911564624,0.4421768707482993,0.4557823129251701,0.47619047619047616,0.4931972789115646,0.5102040816326531,0.5340136054421769,0.5544217687074829,0.5782312925170068,0.5816326530612245,0.5816326530612245,0.5816326530612245,0.5816326530612245,0.5816326530612245,0.5816326530612245,0.5816326530612245,0.5816326530612245,0.5816326530612245,0.5816326530612245,0.5816326530612245,0.5816326530612245,0.5816326530612245,0.5816326530612245,0.5816326530612245,0.5816326530612245,0.5816326530612245,0.5816326530612245,0.5816326530612245,0.5816326530612245,0.5816326530612245,0.5816326530612245,0.5816326530612245,0.5816326530612245,0.5816326530612245,0.5816326530612245,0.5816326530612245,0.5816326530612245,0.5816326530612245,0.5816326530612245,0.5816326530612245,0.5816326530612245,0.5816326530612245,0.5816326530612245,0.5816326530612245,0.5816326530612245,0.5816326530612245,0.5816326530612245,0.5816326530612245,0.5816326530612245,0.5816326530612245,0.5816326530612245,0.5816326530612245,0.5816326530612245,0.5816326530612245,0.5816326530612245,0.5816326530612245,0.5816326530612245,0.5816326530612245,0.5816326530612245,0.5816326530612245,0.5816326530612245,0.5816326530612245,0.5816326530612245,0.5816326530612245,0.5816326530612245,0.5816326530612245,0.5816326530612245,0.5816326530612245,0.5816326530612245,0.5816326530612245,0.5816326530612245,0.5816326530612245,0.5816326530612245,0.5816326530612245,0.5816326530612245,0.5816326530612245,0.5816326530612245,0.5816326530612245,0.5816326530612245,0.5816326530612245,0.5816326530612245,0.5816326530612245,0.5816326530612245,0.5816326530612245,0.5816326530612245,0.5816326530612245,0.5816326530612245,0.5816326530612245,0.5816326530612245,0.5816326530612245,0.5816326530612245,0.5816326530612245,0.5816326530612245,0.5816326530612245,0.5816326530612245,0.5816326530612245,0.5816326530612245,0.5816326530612245,0.5816326530612245,0.5816326530612245,0.5816326530612245,0.5816326530612245,0.5816326530612245,0.5816326530612245,0.5816326530612245,0.5816326530612245,0.5816326530612245,0.5816326530612245,0.5816326530612245,0.5816326530612245,0.5816326530612245,0.5816326530612245,0.5816326530612245,0.5816326530612245,0.5816326530612245,0.5816326530612245,0.5816326530612245,0.5816326530612245,0.5816326530612245,0.5816326530612245,0.5816326530612245,0.5816326530612245,0.5816326530612245,0.5816326530612245,0.5816326530612245,0.5816326530612245,0.5816326530612245,0.5816326530612245,0.5816326530612245,0.5816326530612245,0.5816326530612245,0.5816326530612245,0.5816326530612245,0.5816326530612245,0.5816326530612245,0.5816326530612245,0.5816326530612245,0.5816326530612245,0.5816326530612245,0.5816326530612245,0.5816326530612245,0.5816326530612245,0.5816326530612245,0.5816326530612245,0.5816326530612245,0.5816326530612245,0.5816326530612245,0.5816326530612245,0.5816326530612245,0.5816326530612245,0.5816326530612245,0.5816326530612245,0.5816326530612245,0.5816326530612245,0.5816326530612245,0.5816326530612245,0.5816326530612245,0.5816326530612245,0.5816326530612245,0.5816326530612245,0.5816326530612245,0.5816326530612245,0.5816326530612245,0.5816326530612245,0.5816326530612245,0.5816326530612245,0.5816326530612245,0.5816326530612245,0.5816326530612245,0.5816326530612245,0.5816326530612245,0.5816326530612245,0.5816326530612245,0.5816326530612245,0.5816326530612245,0.5816326530612245,0.5816326530612245,0.5816326530612245,0.5816326530612245,0.5816326530612245,0.5816326530612245,0.5816326530612245,0.5816326530612245,0.5816326530612245,0.5816326530612245,0.5816326530612245,0.5816326530612245,0.5816326530612245,0.5816326530612245,0.5816326530612245,0.5816326530612245,0.5816326530612245,0.5816326530612245,0.5816326530612245,0.5816326530612245,0.5816326530612245,0.5816326530612245,0.5816326530612245,0.5816326530612245,0.5816326530612245,0.5816326530612245,0.5816326530612245,0.5816326530612245,0.5816326530612245,0.5816326530612245,0.5816326530612245,0.5816326530612245,0.5816326530612245,0.5816326530612245,0.5816326530612245,0.5816326530612245,0.5816326530612245,0.5816326530612245,0.5816326530612245,0.5816326530612245,0.5816326530612245,0.5816326530612245,0.5816326530612245,0.5816326530612245,0.5816326530612245,0.5816326530612245,0.5816326530612245,0.5816326530612245,0.5816326530612245,0.5816326530612245,0.5816326530612245,0.5816326530612245,0.5816326530612245,0.5816326530612245,0.5816326530612245,0.5816326530612245,0.5816326530612245,0.5816326530612245,0.5816326530612245,0.5816326530612245,0.5816326530612245,0.5816326530612245,0.5816326530612245,0.5816326530612245,0.5816326530612245,0.5816326530612245,0.5816326530612245,0.5816326530612245,0.5816326530612245,0.5816326530612245,0.5816326530612245,0.5816326530612245,0.5816326530612245,0.5816326530612245,0.5816326530612245,0.5816326530612245,0.5816326530612245,0.5816326530612245,0.5816326530612245,0.5816326530612245,0.5816326530612245,0.5816326530612245,0.5816326530612245,0.5816326530612245,0.5816326530612245,0.5816326530612245,0.5816326530612245,0.5816326530612245,0.5816326530612245,0.5816326530612245,0.5816326530612245,0.5816326530612245,0.5816326530612245,0.5816326530612245,0.5816326530612245,0.5816326530612245,0.5816326530612245,0.5816326530612245,0.5816326530612245,0.5816326530612245,0.5816326530612245,0.5816326530612245,0.5816326530612245,0.5816326530612245,0.5816326530612245,0.5816326530612245,0.5816326530612245,0.5816326530612245,0.5816326530612245,0.5816326530612245,0.5816326530612245,0.5816326530612245,0.5816326530612245,0.5816326530612245,0.5816326530612245,0.5816326530612245,0.5816326530612245,0.5816326530612245,0.5816326530612245,0.5816326530612245,0.5816326530612245,0.5816326530612245,0.5816326530612245,0.5816326530612245,0.5816326530612245,0.5816326530612245,0.5816326530612245,0.5816326530612245,0.5816326530612245,0.5816326530612245,0.5816326530612245,0.5816326530612245,0.5816326530612245,0.5816326530612245,0.5816326530612245,0.5816326530612245,0.5816326530612245,0.5816326530612245,0.5816326530612245,0.5816326530612245,0.5816326530612245,0.5816326530612245,0.5816326530612245,0.5816326530612245,0.5816326530612245,0.5816326530612245,0.5816326530612245,0.5816326530612245,0.5816326530612245,0.5816326530612245,0.5816326530612245,0.5816326530612245,0.5816326530612245,0.5816326530612245,0.5816326530612245,0.5816326530612245,0.5816326530612245,0.5816326530612245,0.5816326530612245,0.5816326530612245,0.5816326530612245,0.5816326530612245,0.5816326530612245,0.5816326530612245,0.5782312925170068,0.5476190476190477,0.5068027210884354,0.4489795918367347,0.3945578231292517,0.35374149659863946,0.3129251700680272,0.282312925170068,0.2653061224489796,0.25170068027210885,0.24149659863945577,0.22789115646258504,0.20748299319727892,0.19727891156462585,0.19047619047619047,0.18027210884353742,0.17006802721088435,0.1598639455782313,0.14285714285714285,0.12244897959183673,0.10884353741496598,0.09183673469387756,0.08163265306122448,0.07482993197278912,0.05782312925170068,0.04421768707482993,0.027210884353741496,0.01020408163265306,0.01020408163265306,0.01020408163265306,0.006802721088435374,0.006802721088435374,0.006802721088435374,0.006802721088435374,0,0,0,0,0,0,0,0,0,0,0,0,0,0,0,0,0,0,0,0,0,0,0,0,0,0,0,0,0,0,0,0,0,0,0,0,0,0,0,0,0,0,0,0,0,0,0,0,0,0,0,0,0,0,0,0,0,0,0,0,0,0,0,0,0,0,0,0,0,0,0,0,0,0,0,0,0,0,0,0,0,0,0,0,0,0,0,0,0,0,0,0,0,0,0,0,0,0,0,0,0,0,0,0,0,0,0,0,0,0,0,0,0,0,0,0,0,0,0,0,0,0,0,0,0,0,0,0,0,0,0,0,0,0,0,0,0,0,0,0,0,0,0,0,0,0,0,0,0,0,0,0,0,0,0,0,0,0,0,0,0,0,0,0,0,0,0,0,0,0,0,0,0,0,0,0,0,0,0,0,0,0,0,0,0,0,0,0,0,0,0,0,0,0,0,0,0,0,0,0,0,0,0,0,0,0,0,0,0,0,0,0,0,0,0,0,0,0,0,0,0,0,0,0,0,0,0,0,0,0,0,0,0,0,0,0,0,0,0,0,0,0,0,0,0,0,0,0,0,0,0,0,0,0,0,0,0,0,0,0,0,0,0,0,0,0,0,0,0,0,0,0,0,0,0,0,0,0,0,0,0,0,0,0,0,0,0,0,0,0,0,0,0,0,0,0,0,0,0,0,0,0,0,0,0,0,0,0,0,0,0,0,0,0,0,0,0,0,0,0,0,0,0,0,0,0,0,0,0,0,0,0,0,0,0,0,0,0,0,0,0,0,0,0,0,0,0,0,0,0,0,0,0,0,0,0,0,0,0,0,0,0,0,0,0,0,0,0,0,0,0,0,0,0,0,0,0,0,0,0,0,0,0,0,0.003401360544217687,0.006802721088435374,0.01020408163265306,0.027210884353741496,0.047619047619047616,0.06802721088435375,0.08843537414965986,0.11224489795918367,0.12585034013605442,0.13945578231292516,0.14625850340136054,0.14965986394557823,0.1564625850340136,0.16326530612244897,0.16326530612244897,0.16326530612244897,0.16326530612244897,0.16326530612244897,0.16326530612244897,0.16326530612244897,0.16326530612244897,0.16326530612244897,0.16326530612244897,0.15306122448979592,0.14625850340136054,0.13945578231292516,0.13945578231292516,0.13945578231292516,0.1360544217687075,0.1360544217687075,0.12585034013605442,0.11904761904761904,0.11904761904761904,0.11904761904761904,0.11904761904761904,0.11904761904761904,0.11904761904761904,0.11904761904761904,0.11904761904761904,0.11904761904761904,0.11904761904761904,0.11904761904761904,0.11904761904761904,0.11904761904761904,0.11904761904761904,0.11904761904761904,0.11904761904761904,0.11904761904761904,0.11904761904761904,0.11904761904761904,0.11904761904761904,0.11904761904761904,0.11904761904761904,0.11904761904761904,0.11904761904761904,0.11904761904761904,0.11904761904761904,0.11904761904761904,0.11904761904761904,0.11904761904761904,0.11904761904761904,0.11904761904761904,0.11904761904761904,0.11904761904761904,0.11904761904761904,0.11904761904761904,0.11904761904761904,0.11904761904761904,0.11904761904761904,0.11904761904761904,0.11904761904761904,0.11904761904761904,0.11904761904761904,0.11904761904761904,0.11904761904761904,0.11904761904761904,0.11904761904761904,0.11904761904761904,0.11904761904761904,0.11904761904761904,0.11904761904761904,0.11904761904761904,0.11904761904761904,0.11904761904761904,0.11904761904761904,0.11904761904761904,0.11904761904761904,0.11904761904761904,0.11904761904761904,0.11904761904761904,0.11904761904761904,0.12244897959183673,0.1292517006802721,0.1292517006802721,0.13945578231292516,0.15306122448979592,0.16666666666666666,0.18027210884353742,0.1870748299319728,0.20408163265306123,0.2108843537414966,0.22108843537414966,0.23129251700680273,0.24149659863945577,0.2585034013605442,0.2687074829931973,0.272108843537415,0.2755102040816326,0.282312925170068,0.2925170068027211,0.30952380952380953,0.3129251700680272,0.3197278911564626,0.32653061224489793,0.3401360544217687,0.35034013605442177,0.35714285714285715,0.36054421768707484,0.36394557823129253,0.3707482993197279,0.3741496598639456,0.3741496598639456,0.3741496598639456,0.3741496598639456,0.3741496598639456,0.3741496598639456,0.3741496598639456,0.3741496598639456,0.3741496598639456,0.3741496598639456,0.3741496598639456,0.3741496598639456,0.3741496598639456,0.3741496598639456,0.3741496598639456,0.3741496598639456,0.3741496598639456,0.3741496598639456,0.3741496598639456,0.3741496598639456,0.3741496598639456,0.3741496598639456,0.3741496598639456,0.3741496598639456,0.3741496598639456,0.3741496598639456,0.3741496598639456,0.3741496598639456,0.3741496598639456,0.3741496598639456,0.3741496598639456,0.3741496598639456,0.3741496598639456,0.3741496598639456,0.3741496598639456,0.3741496598639456,0.3741496598639456,0.3741496598639456,0.3741496598639456,0.3741496598639456,0.3741496598639456,0.3741496598639456,0.3741496598639456,0.3741496598639456,0.3741496598639456,0.3741496598639456,0.3741496598639456,0.3741496598639456,0.3741496598639456,0.3741496598639456,0.3741496598639456,0.3741496598639456,0.3741496598639456,0.3741496598639456,0.3741496598639456,0.3741496598639456,0.3741496598639456,0.3741496598639456,0.3741496598639456,0.3741496598639456,0.3741496598639456,0.3741496598639456,0.3741496598639456,0.3741496598639456,0.3741496598639456,0.3741496598639456,0.3741496598639456,0.3741496598639456,0.3741496598639456,0.3741496598639456,0.3741496598639456,0.3741496598639456,0.3741496598639456,0.3741496598639456,0.3741496598639456,0.3741496598639456,0.3741496598639456,0.3741496598639456,0.3741496598639456,0.3741496598639456,0.3741496598639456,0.3741496598639456,0.3741496598639456,0.3741496598639456,0.3741496598639456,0.3741496598639456,0.3741496598639456,0.3741496598639456,0.3741496598639456,0.3741496598639456,0.3741496598639456,0.3741496598639456,0.3741496598639456,0.3741496598639456,0.3741496598639456,0.3741496598639456,0.3741496598639456,0.3741496598639456,0.3741496598639456,0.3741496598639456,0.3741496598639456,0.3741496598639456,0.3741496598639456,0.3741496598639456,0.3741496598639456,0.3741496598639456,0.3741496598639456,0.3741496598639456,0.3741496598639456,0.3741496598639456,0.3741496598639456,0.3741496598639456,0.3741496598639456,0.3741496598639456,0.3741496598639456,0.3741496598639456,0.3741496598639456,0.3741496598639456,0.3741496598639456,0.3741496598639456,0.3741496598639456,0.3741496598639456,0.3741496598639456,0.3741496598639456,0.3741496598639456,0.3741496598639456,0.3741496598639456,0.3741496598639456,0.3741496598639456,0.3741496598639456,0.3741496598639456,0.3741496598639456,0.3741496598639456,0.3741496598639456,0.3741496598639456,0.3741496598639456,0.37755102040816324,0.38095238095238093,0.38095238095238093,0.38095238095238093,0.38095238095238093,0.38095238095238093,0.38095238095238093,0.3843537414965986,0.3843537414965986,0.3843537414965986,0.391156462585034,0.391156462585034,0.3945578231292517,0.3945578231292517,0.4013605442176871,0.4013605442176871,0.4013605442176871,0.40476190476190477,0.40816326530612246,0.41156462585034015,0.41496598639455784,0.41836734693877553,0.41836734693877553,0.41836734693877553,0.42517006802721086,0.42857142857142855,0.42857142857142855,0.43197278911564624,0.43197278911564624,0.43197278911564624,0.43197278911564624,0.43197278911564624,0.43197278911564624,0.43197278911564624,0.43197278911564624,0.43197278911564624,0.43197278911564624,0.43197278911564624,0.43197278911564624,0.43197278911564624,0.43197278911564624,0.43197278911564624,0.43197278911564624,0.43197278911564624,0.43197278911564624,0.43197278911564624,0.43197278911564624,0.43197278911564624,0.43197278911564624,0.3673469387755102,0.3299319727891156,0.32653061224489793,0.32653061224489793,0.3197278911564626,0.3163265306122449,0.30952380952380953,0.29931972789115646,0.29591836734693877,0.29591836734693877,0.29591836734693877,0.29591836734693877,0.29591836734693877,0.29591836734693877,0.29591836734693877,0.29591836734693877,0.29591836734693877,0.29591836734693877,0.29591836734693877,0.29591836734693877,0.29591836734693877,0.29591836734693877,0.29591836734693877,0.29591836734693877,0.29591836734693877,0.29591836734693877,0.29591836734693877,0.29591836734693877,0.29591836734693877,0.29591836734693877,0.29591836734693877,0.29591836734693877,0.29591836734693877,0.29591836734693877,0.29591836734693877,0.29591836734693877,0.29591836734693877,0.29591836734693877,0.29591836734693877,0.29931972789115646,0.30272108843537415,0.30272108843537415,0.30272108843537415,0.30272108843537415,0.30272108843537415,0.30272108843537415,0.30272108843537415,0.30272108843537415,0.30272108843537415,0.30272108843537415,0.30272108843537415,0.30272108843537415,0.30272108843537415,0.30272108843537415,0.30272108843537415,0.30272108843537415,0.30272108843537415,0.30272108843537415,0.30272108843537415,0.30272108843537415,0.30272108843537415,0.30272108843537415,0.30272108843537415,0.30272108843537415,0.30272108843537415,0.30272108843537415,0.30272108843537415,0.30272108843537415,0.30272108843537415,0.30272108843537415,0.30272108843537415,0.30272108843537415,0.30272108843537415,0.30272108843537415,0.30272108843537415,0.30272108843537415,0.30272108843537415,0.30272108843537415,0.30272108843537415,0.30272108843537415,0.30272108843537415,0.30272108843537415,0.30272108843537415,0.30272108843537415,0.30272108843537415,0.30272108843537415,0.30272108843537415,0.30272108843537415,0.30272108843537415,0.30272108843537415,0.30272108843537415,0.30272108843537415,0.30272108843537415,0.30272108843537415,0.30272108843537415,0.30272108843537415,0.30272108843537415,0.30272108843537415,0.30272108843537415,0.30272108843537415,0.30272108843537415,0.30272108843537415,0.30272108843537415,0.30272108843537415,0.30612244897959184,0.3197278911564626,0.3197278911564626,0.3299319727891156,0.336734693877551,0.35374149659863946,0.37755102040816324,0.3979591836734694,0.43537414965986393,0.46598639455782315,0.4931972789115646,0.5,0.5102040816326531,0.5170068027210885,0.5272108843537415,0.5340136054421769,0.5374149659863946,0.5374149659863946,0.5476190476190477,0.5476190476190477,0.5510204081632653,0.5578231292517006,0.5578231292517006,0.5578231292517006,0.5578231292517006,0.5578231292517006,0.5578231292517006,0.5578231292517006,0.5578231292517006,0.5578231292517006,0.5578231292517006,0.5578231292517006,0.5578231292517006,0.5578231292517006,0.5578231292517006,0.5578231292517006,0.5578231292517006,0.5578231292517006,0.5578231292517006,0.5578231292517006,0.5578231292517006,0.5578231292517006,0.5578231292517006,0.5578231292517006,0.5578231292517006,0.5578231292517006,0.5578231292517006,0.5578231292517006,0.5578231292517006,0.5578231292517006,0.5578231292517006,0.5578231292517006,0.5578231292517006,0.5578231292517006,0.5578231292517006,0.5578231292517006,0.5578231292517006,0.5578231292517006,0.5578231292517006,0.5578231292517006,0.5578231292517006,0.5578231292517006,0.5578231292517006,0.5578231292517006,0.5578231292517006,0.5578231292517006,0.5578231292517006,0.5578231292517006,0.5578231292517006,0.5578231292517006,0.5578231292517006,0.5578231292517006,0.5578231292517006,0.5578231292517006,0.5578231292517006,0.5578231292517006,0.5578231292517006,0.5578231292517006,0.5578231292517006,0.5578231292517006,0.5578231292517006,0.5578231292517006,0.5578231292517006,0.5578231292517006,0.5578231292517006,0.5578231292517006,0.5578231292517006,0.5578231292517006,0.5578231292517006,0.5578231292517006,0.5578231292517006,0.5578231292517006,0.5578231292517006,0.5578231292517006,0.5578231292517006,0.5578231292517006,0.5578231292517006,0.5578231292517006,0.5578231292517006,0.5578231292517006,0.5578231292517006,0.5578231292517006,0.5578231292517006,0.5578231292517006,0.5578231292517006,0.5578231292517006,0.5578231292517006,0.5578231292517006,0.5578231292517006,0.5578231292517006,0.5578231292517006,0.5578231292517006,0.5578231292517006,0.5578231292517006,0.5578231292517006,0.5578231292517006,0.5578231292517006,0.5578231292517006,0.5578231292517006,0.5578231292517006,0.5578231292517006,0.5578231292517006,0.5578231292517006,0.5578231292517006,0.5578231292517006,0.5578231292517006,0.5578231292517006,0.5578231292517006,0.5578231292517006,0.5578231292517006,0.5578231292517006,0.5578231292517006,0.5578231292517006,0.5578231292517006,0.5578231292517006,0.5782312925170068,0.6020408163265306,0.6258503401360545,0.6530612244897959,0.6700680272108843,0.6870748299319728,0.6972789115646258,0.7040816326530612,0.7108843537414966,0.7108843537414966,0.7108843537414966,0.7108843537414966,0.7108843537414966,0.7108843537414966,0.7108843537414966,0.7108843537414966,0.7108843537414966,0.7108843537414966,0.7142857142857143,0.7142857142857143,0.7142857142857143,0.7142857142857143,0.7142857142857143,0.7142857142857143,0.7142857142857143,0.7142857142857143,0.7142857142857143,0.7142857142857143,0.7142857142857143,0.7142857142857143,0.7142857142857143,0.7142857142857143,0.7142857142857143,0.7142857142857143,0.7142857142857143,0.7142857142857143,0.7142857142857143,0.7142857142857143,0.7142857142857143,0.7142857142857143,0.7142857142857143,0.7142857142857143,0.7142857142857143,0.7142857142857143,0.7142857142857143,0.7142857142857143,0.7142857142857143,0.7142857142857143,0.7142857142857143,0.7142857142857143,0.7142857142857143,0.7142857142857143,0.7142857142857143,0.7142857142857143,0.7142857142857143,0.7142857142857143,0.7142857142857143,0.7142857142857143,0.7142857142857143,0.7142857142857143,0.7142857142857143,0.7142857142857143,0.7142857142857143,0.7142857142857143,0.7142857142857143,0.7142857142857143,0.7142857142857143,0.7142857142857143,0.7142857142857143,0.7142857142857143,0.7142857142857143,0.7142857142857143,0.7142857142857143,0.7142857142857143,0.7142857142857143,0.7142857142857143,0.7142857142857143,0.7142857142857143,0.7142857142857143,0.7142857142857143,0.7142857142857143,0.7142857142857143,0.7142857142857143,0.7142857142857143,0.7142857142857143,0.7142857142857143,0.7142857142857143,0.7142857142857143,0.7142857142857143,0.7142857142857143,0.7142857142857143,0.7142857142857143,0.7142857142857143,0.7142857142857143,0.7142857142857143,0.7142857142857143,0.7142857142857143,0.7142857142857143,0.6972789115646258,0.6564625850340136,0.5952380952380952,0.5340136054421769,0.47959183673469385,0.4421768707482993,0.3843537414965986,0.3197278911564626,0.25510204081632654,0.19727891156462585,0.16326530612244897,0.14965986394557823,0.14285714285714285,0.1360544217687075,0.1292517006802721,0.1054421768707483,0.08503401360544217,0.07482993197278912,0.06802721088435375,0.06462585034013606,0.061224489795918366,0.05102040816326531,0.03741496598639456,0.017006802721088437,0.01020408163265306,0.006802721088435374,0,0,0,0,0,0,0,0,0,0,0,0,0,0,0,0,0,0,0,0,0,0,0,0,0,0,0,0,0,0,0,0,0,0,0,0,0,0,0,0,0,0,0,0,0,0,0,0,0,0,0,0,0,0,0,0,0,0,0,0,0,0,0,0,0,0,0,0,0,0,0,0,0,0,0,0,0,0,0,0,0,0,0,0,0,0,0,0,0,0,0,0,0,0,0,0,0,0,0,0,0,0,0,0,0,0,0,0,0,0,0,0,0,0,0,0,0,0,0,0,0,0,0,0,0,0,0,0,0,0,0,0,0,0,0,0,0,0,0,0,0,0,0,0,0,0,0,0,0,0,0,0,0,0,0,0,0,0,0,0,0,0,0,0,0,0,0,0,0,0,0,0,0,0,0,0,0,0,0,0,0,0,0,0,0,0,0,0,0,0,0,0,0,0,0,0,0,0,0,0,0,0,0,0,0,0,0,0,0,0,0,0,0,0,0,0,0,0,0,0,0,0,0,0,0,0,0.01020408163265306,0.013605442176870748,0.02040816326530612,0.03741496598639456,0.05442176870748299,0.08163265306122448,0.12244897959183673,0.16666666666666666,0.20408163265306123,0.24149659863945577,0.2891156462585034,0.3129251700680272,0.336734693877551,0.3469387755102041,0.35374149659863946,0.36394557823129253,0.36394557823129253,0.3707482993197279,0.38095238095238093,0.3843537414965986,0.3877551020408163,0.391156462585034,0.391156462585034,0.3945578231292517,0.3979591836734694,0.40816326530612246,0.41836734693877553,0.42517006802721086,0.445578231292517,0.4931972789115646,0.54421768707483,0.5748299319727891,0.5986394557823129,0.608843537414966,0.608843537414966,0.608843537414966,0.608843537414966,0.608843537414966,0.608843537414966,0.608843537414966,0.608843537414966,0.608843537414966,0.608843537414966,0.608843537414966,0.608843537414966,0.608843537414966,0.608843537414966,0.608843537414966,0.608843537414966,0.608843537414966,0.608843537414966,0.608843537414966,0.608843537414966,0.608843537414966,0.608843537414966,0.608843537414966,0.608843537414966,0.608843537414966,0.608843537414966,0.608843537414966,0.608843537414966,0.608843537414966,0.608843537414966,0.608843537414966,0.608843537414966,0